     timestep     time              x             y              z              vx             vy             vz             ax             ay             az         v_magnitude      ELoss        Electronic      Nuclear
           0   0.000000e+00   1.000000e-01   1.468828e+00   9.338218e+00   3.728339e+04  -1.405184e+05  -2.449971e+04   0.000000e+00   0.000000e+00   0.000000e+00   1.474304e+05   0.000000e+00   0.000000e+00   0.000000e+00
        8000   7.999000e-08   1.030063e-01   1.457593e+00   9.336259e+00   3.787342e+04  -1.403637e+05  -2.448168e+04   7.353377e+09   1.944624e+09   2.263896e+08   1.474304e+05   4.484593e-27   0.000000e+00   0.000000e+00
       16000   1.599900e-07   1.060597e-01   1.446370e+00   9.334301e+00   3.845993e+04  -1.402073e+05  -2.446348e+04   7.309580e+09   1.965180e+09   2.286187e+08   1.474304e+05   4.441160e-27   0.000000e+00   0.000000e+00
       24000   2.399900e-07   1.091598e-01   1.435160e+00   9.332345e+00   3.904296e+04  -1.400493e+05  -2.444510e+04   7.266023e+09   1.985316e+09   2.309024e+08   1.474304e+05   4.398233e-27   0.000000e+00   0.000000e+00
       32000   3.199900e-07   1.123064e-01   1.423962e+00   9.330390e+00   3.962250e+04  -1.398897e+05  -2.442654e+04   7.222708e+09   2.005037e+09   2.332404e+08   1.474304e+05   4.355808e-27   0.000000e+00   0.000000e+00
       40000   3.999900e-07   1.154993e-01   1.412777e+00   9.328436e+00   4.019860e+04  -1.397285e+05  -2.440778e+04   7.179637e+09   2.024351e+09   2.356328e+08   1.474304e+05   4.313880e-27   0.000000e+00   0.000000e+00
       48000   4.799900e-07   1.187381e-01   1.401605e+00   9.326484e+00   4.077125e+04  -1.395658e+05  -2.438883e+04   7.136812e+09   2.043264e+09   2.380795e+08   1.474304e+05   4.272443e-27   0.000000e+00   0.000000e+00
       56000   5.599900e-07   1.220226e-01   1.390447e+00   9.324534e+00   4.134051e+04  -1.394015e+05  -2.436986e+04   7.094050e+09   2.062185e+09   2.379692e+08   1.474304e+05   4.231327e-27   0.000000e+00   0.000000e+00
       64000   6.399900e-07   1.253525e-01   1.379301e+00   9.322585e+00   4.190630e+04  -1.392358e+05  -2.435073e+04   7.050840e+09   2.080075e+09   2.403658e+08   1.474304e+05   4.189818e-27   0.000000e+00   0.000000e+00
       72000   7.199900e-07   1.287275e-01   1.368169e+00   9.320638e+00   4.246865e+04  -1.390687e+05  -2.433140e+04   7.007883e+09   2.097574e+09   2.428077e+08   1.474304e+05   4.148799e-27   0.000000e+00   0.000000e+00
       80000   7.999900e-07   1.321474e-01   1.357050e+00   9.318692e+00   4.302757e+04  -1.389002e+05  -2.431188e+04   6.965182e+09   2.114688e+09   2.452949e+08   1.474304e+05   4.108266e-27   0.000000e+00   0.000000e+00
       88000   8.799900e-07   1.356118e-01   1.345945e+00   9.316748e+00   4.358308e+04  -1.387304e+05  -2.429215e+04   6.922737e+09   2.131425e+09   2.478275e+08   1.474304e+05   4.068214e-27   0.000000e+00   0.000000e+00
       96000   9.599900e-07   1.391206e-01   1.334854e+00   9.314806e+00   4.413521e+04  -1.385592e+05  -2.427223e+04   6.880549e+09   2.147790e+09   2.504054e+08   1.474304e+05   4.028636e-27   0.000000e+00   0.000000e+00
      104000   1.039990e-06   1.426734e-01   1.323776e+00   9.312865e+00   4.468398e+04  -1.383868e+05  -2.425209e+04   6.838619e+09   2.163789e+09   2.530285e+08   1.474304e+05   3.989530e-27   0.000000e+00   0.000000e+00
      112000   1.119990e-06   1.462699e-01   1.312712e+00   9.310925e+00   4.522940e+04  -1.382130e+05  -2.423174e+04   6.796948e+09   2.179428e+09   2.556968e+08   1.474304e+05   3.950889e-27   0.000000e+00   0.000000e+00
      120000   1.199990e-06   1.499100e-01   1.301662e+00   9.308988e+00   4.577149e+04  -1.380381e+05  -2.421118e+04   6.755537e+09   2.194714e+09   2.584102e+08   1.474304e+05   3.912710e-27   0.000000e+00   0.000000e+00
      128000   1.279990e-06   1.535933e-01   1.290626e+00   9.307051e+00   4.631040e+04  -1.378618e+05  -2.419069e+04   6.716510e+09   2.211180e+09   2.565649e+08   1.474304e+05   3.877535e-27   0.000000e+00   0.000000e+00
      136000   1.359990e-06   1.573196e-01   1.279604e+00   9.305117e+00   4.684613e+04  -1.376843e+05  -2.417008e+04   6.676679e+09   2.226266e+09   2.587612e+08   1.474304e+05   3.841493e-27   0.000000e+00   0.000000e+00
      144000   1.439990e-06   1.610886e-01   1.268596e+00   9.303184e+00   4.737868e+04  -1.375056e+05  -2.414929e+04   6.637107e+09   2.241028e+09   2.610024e+08   1.474304e+05   3.805886e-27   0.000000e+00   0.000000e+00
      152000   1.519990e-06   1.649001e-01   1.257603e+00   9.301253e+00   4.790807e+04  -1.373257e+05  -2.412831e+04   6.597792e+09   2.255472e+09   2.632886e+08   1.474304e+05   3.770711e-27   0.000000e+00   0.000000e+00
      160000   1.599990e-06   1.687538e-01   1.246624e+00   9.299324e+00   4.843420e+04  -1.371447e+05  -2.410734e+04   6.554008e+09   2.269057e+09   2.591901e+08   1.474304e+05   3.730708e-27   0.000000e+00   0.000000e+00
      168000   1.679990e-06   1.726495e-01   1.235660e+00   9.297396e+00   4.895698e+04  -1.369627e+05  -2.408651e+04   6.515586e+09   2.282984e+09   2.615303e+08   1.474304e+05   3.696821e-27   0.000000e+00   0.000000e+00
      176000   1.759990e-06   1.765868e-01   1.224710e+00   9.295470e+00   4.947670e+04  -1.367795e+05  -2.406549e+04   6.477419e+09   2.296614e+09   2.639119e+08   1.474304e+05   3.663346e-27   0.000000e+00   0.000000e+00
      184000   1.839990e-06   1.805657e-01   1.213775e+00   9.293545e+00   4.999337e+04  -1.365952e+05  -2.404428e+04   6.439508e+09   2.309952e+09   2.663351e+08   1.474304e+05   3.630279e-27   0.000000e+00   0.000000e+00
      192000   1.919990e-06   1.845857e-01   1.202855e+00   9.291623e+00   5.050702e+04  -1.364099e+05  -2.402288e+04   6.401852e+09   2.323004e+09   2.687996e+08   1.474304e+05   3.597614e-27   0.000000e+00   0.000000e+00
      200000   1.999990e-06   1.886467e-01   1.191950e+00   9.289702e+00   5.101761e+04  -1.362233e+05  -2.400259e+04   6.363435e+09   2.339340e+09   2.488924e+08   1.474304e+05   3.564734e-27   0.000000e+00   0.000000e+00
      208000   2.079990e-06   1.927484e-01   1.181059e+00   9.287782e+00   5.152520e+04  -1.360357e+05  -2.398259e+04   6.326382e+09   2.351910e+09   2.511823e+08   1.474304e+05   3.532974e-27   0.000000e+00   0.000000e+00
      216000   2.159990e-06   1.968907e-01   1.170184e+00   9.285865e+00   5.202984e+04  -1.358470e+05  -2.396240e+04   6.289587e+09   2.364211e+09   2.535073e+08   1.474304e+05   3.501606e-27   0.000000e+00   0.000000e+00
      224000   2.239990e-06   2.010731e-01   1.159324e+00   9.283948e+00   5.253152e+04  -1.356575e+05  -2.394143e+04   6.252142e+09   2.370804e+09   2.847245e+08   1.474304e+05   3.468954e-27   0.000000e+00   0.000000e+00
      232000   2.319990e-06   2.052956e-01   1.148479e+00   9.282034e+00   5.303026e+04  -1.354674e+05  -2.391862e+04   6.216382e+09   2.383043e+09   2.856083e+08   1.474304e+05   3.438967e-27   0.000000e+00   0.000000e+00
      240000   2.399990e-06   2.095579e-01   1.137649e+00   9.280121e+00   5.352615e+04  -1.352762e+05  -2.389573e+04   6.180876e+09   2.395033e+09   2.865342e+08   1.474304e+05   3.409354e-27   0.000000e+00   0.000000e+00
      248000   2.479990e-06   2.138597e-01   1.126834e+00   9.278211e+00   5.401921e+04  -1.350842e+05  -2.387277e+04   6.145624e+09   2.406780e+09   2.875022e+08   1.474304e+05   3.380112e-27   0.000000e+00   0.000000e+00
      256000   2.559990e-06   2.182009e-01   1.116035e+00   9.276302e+00   5.450946e+04  -1.348912e+05  -2.384973e+04   6.110626e+09   2.418287e+09   2.885123e+08   1.474304e+05   3.351237e-27   0.000000e+00   0.000000e+00
      264000   2.639990e-06   2.225812e-01   1.105252e+00   9.274395e+00   5.499692e+04  -1.346972e+05  -2.382661e+04   6.075882e+09   2.429560e+09   2.895645e+08   1.474304e+05   3.322725e-27   0.000000e+00   0.000000e+00
      272000   2.719990e-06   2.270003e-01   1.094484e+00   9.272489e+00   5.548145e+04  -1.345023e+05  -2.380441e+04   6.037389e+09   2.443246e+09   2.663555e+08   1.474304e+05   3.290779e-27   0.000000e+00   0.000000e+00
      280000   2.799990e-06   2.314581e-01   1.083732e+00   9.270586e+00   5.596304e+04  -1.343065e+05  -2.378300e+04   6.002520e+09   2.453486e+09   2.690941e+08   1.474304e+05   3.262262e-27   0.000000e+00   0.000000e+00
      288000   2.879990e-06   2.359543e-01   1.072995e+00   9.268684e+00   5.644186e+04  -1.341098e+05  -2.376136e+04   5.967906e+09   2.463501e+09   2.718552e+08   1.474304e+05   3.234101e-27   0.000000e+00   0.000000e+00
      296000   2.959990e-06   2.404887e-01   1.062274e+00   9.266784e+00   5.691791e+04  -1.339123e+05  -2.373950e+04   5.933547e+09   2.473297e+09   2.746388e+08   1.474304e+05   3.206294e-27   0.000000e+00   0.000000e+00
      304000   3.039990e-06   2.450611e-01   1.051569e+00   9.264886e+00   5.739123e+04  -1.337140e+05  -2.371742e+04   5.899442e+09   2.482877e+09   2.774449e+08   1.474304e+05   3.178837e-27   0.000000e+00   0.000000e+00
      312000   3.119990e-06   2.496713e-01   1.040880e+00   9.262989e+00   5.786183e+04  -1.335150e+05  -2.369511e+04   5.865592e+09   2.492247e+09   2.802734e+08   1.474304e+05   3.151726e-27   0.000000e+00   0.000000e+00
      320000   3.199990e-06   2.543190e-01   1.030207e+00   9.261095e+00   5.832973e+04  -1.333153e+05  -2.367257e+04   5.831996e+09   2.501409e+09   2.831242e+08   1.474304e+05   3.124958e-27   0.000000e+00   0.000000e+00
      328000   3.279990e-06   2.590040e-01   1.019549e+00   9.259202e+00   5.879496e+04  -1.331148e+05  -2.364981e+04   5.798654e+09   2.510370e+09   2.859974e+08   1.474304e+05   3.098529e-27   0.000000e+00   0.000000e+00
      336000   3.359990e-06   2.637261e-01   1.008908e+00   9.257311e+00   5.925752e+04  -1.329136e+05  -2.362681e+04   5.765565e+09   2.519132e+09   2.888929e+08   1.474304e+05   3.072436e-27   0.000000e+00   0.000000e+00
      344000   3.439990e-06   2.684851e-01   9.982832e-01   9.255422e+00   5.971737e+04  -1.327118e+05  -2.360335e+04   5.726622e+09   2.521727e+09   3.099312e+08   1.474304e+05   3.039764e-27   0.000000e+00   0.000000e+00
      352000   3.519990e-06   2.732808e-01   9.876743e-01   9.253534e+00   6.017422e+04  -1.325097e+05  -2.357851e+04   5.694550e+09   2.530631e+09   3.109346e+08   1.474304e+05   3.014927e-27   0.000000e+00   0.000000e+00
      360000   3.599990e-06   2.781129e-01   9.770817e-01   9.251649e+00   6.062851e+04  -1.323069e+05  -2.355360e+04   5.662724e+09   2.539353e+09   3.119735e+08   1.474304e+05   2.990408e-27   0.000000e+00   0.000000e+00
      368000   3.679990e-06   2.829813e-01   9.665053e-01   9.249766e+00   6.108026e+04  -1.321035e+05  -2.352860e+04   5.631144e+09   2.547895e+09   3.130479e+08   1.474304e+05   2.966203e-27   0.000000e+00   0.000000e+00
      376000   3.759990e-06   2.878857e-01   9.559451e-01   9.247884e+00   6.152950e+04  -1.318993e+05  -2.350351e+04   5.599809e+09   2.556263e+09   3.141577e+08   1.474304e+05   2.942309e-27   0.000000e+00   0.000000e+00
      384000   3.839990e-06   2.928259e-01   9.454014e-01   9.246005e+00   6.197624e+04  -1.316945e+05  -2.347833e+04   5.568718e+09   2.564459e+09   3.153029e+08   1.474304e+05   2.918723e-27   0.000000e+00   0.000000e+00
      392000   3.919990e-06   2.978018e-01   9.348740e-01   9.244128e+00   6.242050e+04  -1.314890e+05  -2.345306e+04   5.537872e+09   2.572488e+09   3.164835e+08   1.474304e+05   2.895442e-27   0.000000e+00   0.000000e+00
      400000   3.999990e-06   3.028131e-01   9.243632e-01   9.242253e+00   6.286245e+04  -1.312827e+05  -2.342840e+04   5.510481e+09   2.584663e+09   3.022180e+08   1.474304e+05   2.876183e-27   0.000000e+00   0.000000e+00
      408000   4.079990e-06   3.078597e-01   9.138688e-01   9.240379e+00   6.330206e+04  -1.310756e+05  -2.340413e+04   5.479788e+09   2.592058e+09   3.044764e+08   1.474304e+05   2.853130e-27   0.000000e+00   0.000000e+00
      416000   4.159990e-06   3.129414e-01   9.033911e-01   9.238508e+00   6.373922e+04  -1.308679e+05  -2.337968e+04   5.449341e+09   2.599297e+09   3.067536e+08   1.474304e+05   2.830376e-27   0.000000e+00   0.000000e+00
      424000   4.239990e-06   3.180579e-01   8.929300e-01   9.236639e+00   6.417376e+04  -1.306599e+05  -2.335441e+04   5.415425e+09   2.602595e+09   3.199781e+08   1.474304e+05   2.803808e-27   0.000000e+00   0.000000e+00
      432000   4.319990e-06   3.232091e-01   8.824855e-01   9.234771e+00   6.460580e+04  -1.304514e+05  -2.332882e+04   5.385573e+09   2.609983e+09   3.199009e+08   1.474304e+05   2.781815e-27   0.000000e+00   0.000000e+00
      440000   4.399990e-06   3.283948e-01   8.720578e-01   9.232906e+00   6.503546e+04  -1.302423e+05  -2.330323e+04   5.355959e+09   2.617222e+09   3.198614e+08   1.474304e+05   2.760108e-27   0.000000e+00   0.000000e+00
      448000   4.479990e-06   3.336147e-01   8.616468e-01   9.231043e+00   6.546275e+04  -1.300327e+05  -2.327764e+04   5.326582e+09   2.624316e+09   3.198596e+08   1.474304e+05   2.738684e-27   0.000000e+00   0.000000e+00
      456000   4.559990e-06   3.388688e-01   8.512526e-01   9.229182e+00   6.588771e+04  -1.298224e+05  -2.325205e+04   5.297443e+09   2.631270e+09   3.198956e+08   1.474304e+05   2.717540e-27   0.000000e+00   0.000000e+00
      464000   4.639990e-06   3.441567e-01   8.408752e-01   9.227322e+00   6.631035e+04  -1.296117e+05  -2.322646e+04   5.268540e+09   2.638085e+09   3.199693e+08   1.474304e+05   2.696674e-27   0.000000e+00   0.000000e+00
      472000   4.719990e-06   3.494784e-01   8.305147e-01   9.225465e+00   6.673069e+04  -1.294004e+05  -2.320085e+04   5.239873e+09   2.644767e+09   3.200807e+08   1.474304e+05   2.676082e-27   0.000000e+00   0.000000e+00
      480000   4.799990e-06   3.548336e-01   8.201711e-01   9.223610e+00   6.714874e+04  -1.291885e+05  -2.317524e+04   5.211440e+09   2.651318e+09   3.202299e+08   1.474304e+05   2.655762e-27   0.000000e+00   0.000000e+00
      488000   4.879990e-06   3.602221e-01   8.098446e-01   9.221757e+00   6.756452e+04  -1.289761e+05  -2.314962e+04   5.183242e+09   2.657742e+09   3.204169e+08   1.474304e+05   2.635712e-27   0.000000e+00   0.000000e+00
      496000   4.959990e-06   3.656438e-01   7.995350e-01   9.219906e+00   6.797806e+04  -1.287632e+05  -2.312415e+04   5.153355e+09   2.671497e+09   2.734846e+08   1.474304e+05   2.615304e-27   0.000000e+00   0.000000e+00
      504000   5.039990e-06   3.710985e-01   7.892425e-01   9.218057e+00   6.838922e+04  -1.285493e+05  -2.310217e+04   5.125703e+09   2.677311e+09   2.759953e+08   1.474304e+05   2.595807e-27   0.000000e+00   0.000000e+00
      512000   5.119990e-06   3.765860e-01   7.789671e-01   9.216210e+00   6.879817e+04  -1.283349e+05  -2.307999e+04   5.098284e+09   2.683012e+09   2.785181e+08   1.474304e+05   2.576571e-27   0.000000e+00   0.000000e+00
      520000   5.199990e-06   3.821062e-01   7.687089e-01   9.214364e+00   6.920495e+04  -1.281200e+05  -2.305760e+04   5.071095e+09   2.688605e+09   2.810529e+08   1.474304e+05   2.557594e-27   0.000000e+00   0.000000e+00
      528000   5.279990e-06   3.876588e-01   7.584679e-01   9.212521e+00   6.960955e+04  -1.279047e+05  -2.303502e+04   5.044137e+09   2.694092e+09   2.835996e+08   1.474304e+05   2.538873e-27   0.000000e+00   0.000000e+00
      536000   5.359990e-06   3.932437e-01   7.482442e-01   9.210679e+00   7.001201e+04  -1.276890e+05  -2.301223e+04   5.017407e+09   2.699476e+09   2.861582e+08   1.474304e+05   2.520406e-27   0.000000e+00   0.000000e+00
      544000   5.439990e-06   3.988606e-01   7.380377e-01   9.208839e+00   7.041235e+04  -1.274728e+05  -2.298923e+04   4.990906e+09   2.704761e+09   2.887286e+08   1.474304e+05   2.502191e-27   0.000000e+00   0.000000e+00
      552000   5.519990e-06   4.045096e-01   7.278485e-01   9.207001e+00   7.081067e+04  -1.272564e+05  -2.296455e+04   4.966267e+09   2.706928e+09   3.131093e+08   1.474304e+05   2.485235e-27   0.000000e+00   0.000000e+00
      560000   5.599990e-06   4.101903e-01   7.176767e-01   9.205165e+00   7.120693e+04  -1.270396e+05  -2.293954e+04   4.940333e+09   2.712740e+09   3.121303e+08   1.474304e+05   2.467729e-27   0.000000e+00   0.000000e+00
      568000   5.679990e-06   4.159026e-01   7.075222e-01   9.203330e+00   7.160113e+04  -1.268224e+05  -2.291461e+04   4.914625e+09   2.718461e+09   3.111856e+08   1.474304e+05   2.450469e-27   0.000000e+00   0.000000e+00
      576000   5.759990e-06   4.216464e-01   6.973851e-01   9.201498e+00   7.199325e+04  -1.266046e+05  -2.289004e+04   4.887961e+09   2.725922e+09   2.964426e+08   1.474304e+05   2.432678e-27   0.000000e+00   0.000000e+00
      584000   5.839990e-06   4.274215e-01   6.872655e-01   9.199668e+00   7.238327e+04  -1.263864e+05  -2.286589e+04   4.861910e+09   2.726029e+09   3.230814e+08   1.474304e+05   2.414331e-27   0.000000e+00   0.000000e+00
      592000   5.919990e-06   4.332277e-01   6.771633e-01   9.197840e+00   7.277123e+04  -1.261681e+05  -2.284004e+04   4.837067e+09   2.731421e+09   3.231471e+08   1.474304e+05   2.397951e-27   0.000000e+00   0.000000e+00
      600000   5.999990e-06   4.390648e-01   6.670786e-01   9.196014e+00   7.315721e+04  -1.259494e+05  -2.281418e+04   4.812442e+09   2.736736e+09   3.232273e+08   1.474304e+05   2.381803e-27   0.000000e+00   0.000000e+00
      608000   6.079990e-06   4.449328e-01   6.570114e-01   9.194189e+00   7.354122e+04  -1.257303e+05  -2.278832e+04   4.788034e+09   2.741978e+09   3.233220e+08   1.474304e+05   2.365884e-27   0.000000e+00   0.000000e+00
      616000   6.159990e-06   4.508314e-01   6.469617e-01   9.192367e+00   7.392330e+04  -1.255107e+05  -2.276245e+04   4.763842e+09   2.747149e+09   3.234314e+08   1.474304e+05   2.350191e-27   0.000000e+00   0.000000e+00
      624000   6.239990e-06   4.567605e-01   6.369297e-01   9.190547e+00   7.430344e+04  -1.252907e+05  -2.273657e+04   4.739865e+09   2.752251e+09   3.235554e+08   1.474304e+05   2.334723e-27   0.000000e+00   0.000000e+00
      632000   6.319990e-06   4.627199e-01   6.269152e-01   9.188730e+00   7.468168e+04  -1.250703e+05  -2.271068e+04   4.716103e+09   2.757288e+09   3.236940e+08   1.474304e+05   2.319477e-27   0.000000e+00   0.000000e+00
      640000   6.399990e-06   4.687095e-01   6.169184e-01   9.186914e+00   7.505803e+04  -1.248496e+05  -2.268478e+04   4.692554e+09   2.762262e+09   3.238473e+08   1.474304e+05   2.304451e-27   0.000000e+00   0.000000e+00
      648000   6.479990e-06   4.747291e-01   6.069393e-01   9.185100e+00   7.543250e+04  -1.246284e+05  -2.265887e+04   4.669217e+09   2.767176e+09   3.240153e+08   1.474304e+05   2.289644e-27   0.000000e+00   0.000000e+00
      656000   6.559990e-06   4.807786e-01   5.969779e-01   9.183288e+00   7.580506e+04  -1.244068e+05  -2.263325e+04   4.644108e+09   2.773187e+09   3.111963e+08   1.474304e+05   2.273481e-27   0.000000e+00   0.000000e+00
      664000   6.639990e-06   4.868579e-01   5.870342e-01   9.181479e+00   7.617566e+04  -1.241847e+05  -2.260837e+04   4.621016e+09   2.777990e+09   3.107137e+08   1.474304e+05   2.258953e-27   0.000000e+00   0.000000e+00
      672000   6.719990e-06   4.929667e-01   5.771084e-01   9.179671e+00   7.654443e+04  -1.239623e+05  -2.258354e+04   4.598134e+09   2.782739e+09   3.102472e+08   1.474304e+05   2.244639e-27   0.000000e+00   0.000000e+00
      680000   6.799990e-06   4.991049e-01   5.672003e-01   9.177865e+00   7.691137e+04  -1.237395e+05  -2.255873e+04   4.575462e+09   2.787438e+09   3.097968e+08   1.474304e+05   2.230536e-27   0.000000e+00   0.000000e+00
      688000   6.879990e-06   5.052725e-01   5.573100e-01   9.176062e+00   7.727661e+04  -1.235164e+05  -2.253334e+04   4.554456e+09   2.791394e+09   3.181839e+08   1.474304e+05   2.217800e-27   0.000000e+00   0.000000e+00
      696000   6.959990e-06   5.114691e-01   5.474377e-01   9.174260e+00   7.764007e+04  -1.232929e+05  -2.250793e+04   4.532148e+09   2.796104e+09   3.170611e+08   1.474304e+05   2.204084e-27   0.000000e+00   0.000000e+00
      704000   7.039990e-06   5.176948e-01   5.375832e-01   9.172460e+00   7.800176e+04  -1.230690e+05  -2.248261e+04   4.510046e+09   2.800770e+09   3.159465e+08   1.474304e+05   2.190574e-27   0.000000e+00   0.000000e+00
      712000   7.119990e-06   5.239494e-01   5.277466e-01   9.170663e+00   7.836168e+04  -1.228447e+05  -2.245738e+04   4.488148e+09   2.805395e+09   3.148400e+08   1.474304e+05   2.177268e-27   0.000000e+00   0.000000e+00
      720000   7.199990e-06   5.302327e-01   5.179281e-01   9.168867e+00   7.871987e+04  -1.226201e+05  -2.243224e+04   4.466453e+09   2.809982e+09   3.137418e+08   1.474304e+05   2.164164e-27   0.000000e+00   0.000000e+00
      728000   7.279990e-06   5.365445e-01   5.081274e-01   9.167074e+00   7.907632e+04  -1.223951e+05  -2.240718e+04   4.444961e+09   2.814533e+09   3.126520e+08   1.474304e+05   2.151260e-27   0.000000e+00   0.000000e+00
      736000   7.359990e-06   5.428848e-01   4.983448e-01   9.165282e+00   7.943104e+04  -1.221698e+05  -2.238233e+04   4.421757e+09   2.819384e+09   3.029593e+08   1.474304e+05   2.136980e-27   0.000000e+00   0.000000e+00
      744000   7.439990e-06   5.492534e-01   4.885803e-01   9.163492e+00   7.978393e+04  -1.219441e+05  -2.235819e+04   4.400688e+09   2.824098e+09   3.006468e+08   1.474304e+05   2.124536e-27   0.000000e+00   0.000000e+00
      752000   7.519990e-06   5.556502e-01   4.788338e-01   9.161705e+00   8.013515e+04  -1.217179e+05  -2.233423e+04   4.379818e+09   2.828783e+09   2.983509e+08   1.474304e+05   2.112288e-27   0.000000e+00   0.000000e+00
      760000   7.599990e-06   5.620750e-01   4.691054e-01   9.159919e+00   8.048471e+04  -1.214914e+05  -2.231045e+04   4.359144e+09   2.833440e+09   2.960718e+08   1.474304e+05   2.100234e-27   0.000000e+00   0.000000e+00
      768000   7.679990e-06   5.685277e-01   4.593952e-01   9.158135e+00   8.083262e+04  -1.212646e+05  -2.228685e+04   4.338667e+09   2.838071e+09   2.938095e+08   1.474304e+05   2.088371e-27   0.000000e+00   0.000000e+00
      776000   7.759990e-06   5.750082e-01   4.497031e-01   9.156353e+00   8.117890e+04  -1.210374e+05  -2.226344e+04   4.318385e+09   2.842678e+09   2.915642e+08   1.474304e+05   2.076697e-27   0.000000e+00   0.000000e+00
      784000   7.839990e-06   5.815163e-01   4.400292e-01   9.154573e+00   8.152357e+04  -1.208098e+05  -2.224020e+04   4.298297e+09   2.847264e+09   2.893358e+08   1.474304e+05   2.065212e-27   0.000000e+00   0.000000e+00
      792000   7.919990e-06   5.880519e-01   4.303735e-01   9.152795e+00   8.186663e+04  -1.205818e+05  -2.221715e+04   4.278401e+09   2.851831e+09   2.871244e+08   1.474304e+05   2.053914e-27   0.000000e+00   0.000000e+00
      800000   7.999990e-06   5.946149e-01   4.207361e-01   9.151018e+00   8.220812e+04  -1.203535e+05  -2.219426e+04   4.258697e+09   2.856381e+09   2.849302e+08   1.474304e+05   2.042800e-27   0.000000e+00   0.000000e+00
      808000   8.079990e-06   6.012052e-01   4.111170e-01   9.149243e+00   8.254807e+04  -1.201248e+05  -2.217143e+04   4.241795e+09   2.861098e+09   2.914997e+08   1.474304e+05   2.034055e-27   0.000000e+00   0.000000e+00
      816000   8.159990e-06   6.078226e-01   4.015162e-01   9.147471e+00   8.288663e+04  -1.198957e+05  -2.214822e+04   4.222285e+09   2.865615e+09   2.887684e+08   1.474304e+05   2.023146e-27   0.000000e+00   0.000000e+00
      824000   8.239990e-06   6.144670e-01   3.919337e-01   9.145700e+00   8.322353e+04  -1.196663e+05  -2.212577e+04   4.201471e+09   2.870622e+09   2.777041e+08   1.474304e+05   2.011306e-27   0.000000e+00   0.000000e+00
      832000   8.319990e-06   6.211383e-01   3.823696e-01   9.143931e+00   8.355889e+04  -1.194364e+05  -2.210369e+04   4.182571e+09   2.875410e+09   2.742574e+08   1.474304e+05   2.001018e-27   0.000000e+00   0.000000e+00
      840000   8.399990e-06   6.278364e-01   3.728239e-01   9.142163e+00   8.389275e+04  -1.192062e+05  -2.208188e+04   4.163859e+09   2.880194e+09   2.708266e+08   1.474304e+05   1.990909e-27   0.000000e+00   0.000000e+00
      848000   8.479990e-06   6.345611e-01   3.632966e-01   9.140397e+00   8.422512e+04  -1.189756e+05  -2.206035e+04   4.145333e+09   2.884976e+09   2.674116e+08   1.474304e+05   1.980980e-27   0.000000e+00   0.000000e+00
      856000   8.559990e-06   6.413123e-01   3.537878e-01   9.138633e+00   8.455601e+04  -1.187446e+05  -2.203910e+04   4.126991e+09   2.889757e+09   2.640126e+08   1.474304e+05   1.971227e-27   0.000000e+00   0.000000e+00
      864000   8.639990e-06   6.480900e-01   3.442975e-01   9.136871e+00   8.488544e+04  -1.185132e+05  -2.201811e+04   4.108833e+09   2.894540e+09   2.606297e+08   1.474304e+05   1.961651e-27   0.000000e+00   0.000000e+00
      872000   8.719990e-06   6.548940e-01   3.348257e-01   9.135111e+00   8.521342e+04  -1.182815e+05  -2.199740e+04   4.090858e+09   2.899327e+09   2.572631e+08   1.474304e+05   1.952248e-27   0.000000e+00   0.000000e+00
      880000   8.799990e-06   6.617241e-01   3.253725e-01   9.133352e+00   8.553998e+04  -1.180493e+05  -2.197695e+04   4.073064e+09   2.904119e+09   2.539127e+08   1.474304e+05   1.943019e-27   0.000000e+00   0.000000e+00
      888000   8.879990e-06   6.685803e-01   3.159378e-01   9.131594e+00   8.586512e+04  -1.178168e+05  -2.195677e+04   4.055450e+09   2.908919e+09   2.505788e+08   1.474304e+05   1.933961e-27   0.000000e+00   0.000000e+00
      896000   8.959990e-06   6.754625e-01   3.065218e-01   9.129838e+00   8.618886e+04  -1.175839e+05  -2.193686e+04   4.038015e+09   2.913728e+09   2.472615e+08   1.474304e+05   1.925074e-27   0.000000e+00   0.000000e+00
      904000   9.039990e-06   6.823705e-01   2.971244e-01   9.128084e+00   8.651114e+04  -1.173506e+05  -2.191751e+04   4.018219e+09   2.918948e+09   2.317885e+08   1.474304e+05   1.914506e-27   0.000000e+00   0.000000e+00
      912000   9.119990e-06   6.893043e-01   2.877457e-01   9.126332e+00   8.683192e+04  -1.171169e+05  -2.189910e+04   4.001077e+09   2.923748e+09   2.283489e+08   1.474304e+05   1.905909e-27   0.000000e+00   0.000000e+00
      920000   9.199990e-06   6.962636e-01   2.783857e-01   9.124580e+00   8.715132e+04  -1.168828e+05  -2.188097e+04   3.984108e+09   2.928564e+09   2.249137e+08   1.474304e+05   1.897477e-27   0.000000e+00   0.000000e+00
      928000   9.279990e-06   7.032484e-01   2.690445e-01   9.122831e+00   8.746946e+04  -1.166483e+05  -2.186269e+04   3.969453e+09   2.932894e+09   2.327460e+08   1.474304e+05   1.890693e-27   0.000000e+00   0.000000e+00
      936000   9.359990e-06   7.102587e-01   2.597220e-01   9.121082e+00   8.778634e+04  -1.164135e+05  -2.184424e+04   3.952651e+09   2.937791e+09   2.284330e+08   1.474304e+05   1.882456e-27   0.000000e+00   0.000000e+00
      944000   9.439990e-06   7.172942e-01   2.504183e-01   9.119336e+00   8.810189e+04  -1.161783e+05  -2.182614e+04   3.936020e+09   2.942707e+09   2.241313e+08   1.474304e+05   1.874384e-27   0.000000e+00   0.000000e+00
      952000   9.519990e-06   7.243549e-01   2.411335e-01   9.117590e+00   8.841611e+04  -1.159427e+05  -2.180838e+04   3.919561e+09   2.947644e+09   2.198411e+08   1.474304e+05   1.866475e-27   0.000000e+00   0.000000e+00
      960000   9.599990e-06   7.314407e-01   2.318675e-01   9.115846e+00   8.872902e+04  -1.157067e+05  -2.179096e+04   3.903273e+09   2.952604e+09   2.155626e+08   1.474304e+05   1.858729e-27   0.000000e+00   0.000000e+00
      968000   9.679990e-06   7.385515e-01   2.226204e-01   9.114104e+00   8.904064e+04  -1.154703e+05  -2.177389e+04   3.887153e+09   2.957589e+09   2.112959e+08   1.474304e+05   1.851144e-27   0.000000e+00   0.000000e+00
      976000   9.759990e-06   7.456872e-01   2.133923e-01   9.112362e+00   8.935097e+04  -1.152335e+05  -2.175716e+04   3.871201e+09   2.962600e+09   2.070413e+08   1.474304e+05   1.843718e-27   0.000000e+00   0.000000e+00
      984000   9.839990e-06   7.528477e-01   2.041831e-01   9.110622e+00   8.966003e+04  -1.149962e+05  -2.174076e+04   3.855415e+09   2.967640e+09   2.027987e+08   1.474304e+05   1.836452e-27   0.000000e+00   0.000000e+00
      992000   9.919990e-06   7.600328e-01   1.949929e-01   9.108884e+00   8.996772e+04  -1.147587e+05  -2.172509e+04   3.837017e+09   2.972220e+09   1.896152e+08   1.474304e+05   1.827197e-27   0.000000e+00   0.000000e+00
     1000000   9.999990e-06   7.672425e-01   1.858217e-01   9.107146e+00   9.027406e+04  -1.145207e+05  -2.171012e+04   3.821693e+09   2.977571e+09   1.845299e+08   1.474304e+05   1.820427e-27   0.000000e+00   0.000000e+00
     1008000   1.007999e-05   7.744766e-01   1.766696e-01   9.105410e+00   9.057919e+04  -1.142822e+05  -2.169556e+04   3.806530e+09   2.982955e+09   1.794540e+08   1.474304e+05   1.813811e-27   0.000000e+00   0.000000e+00
     1016000   1.015999e-05   7.817351e-01   1.675366e-01   9.103675e+00   9.088311e+04  -1.140434e+05  -2.168141e+04   3.791525e+09   2.988375e+09   1.743878e+08   1.474304e+05   1.807349e-27   0.000000e+00   0.000000e+00
     1024000   1.023999e-05   7.890179e-01   1.584227e-01   9.101941e+00   9.118584e+04  -1.138041e+05  -2.166766e+04   3.776679e+09   2.993832e+09   1.693314e+08   1.474304e+05   1.801040e-27   0.000000e+00   0.000000e+00
     1032000   1.031999e-05   7.963248e-01   1.493279e-01   9.100208e+00   9.148739e+04  -1.135644e+05  -2.165432e+04   3.761988e+09   2.999328e+09   1.642850e+08   1.474304e+05   1.794884e-27   0.000000e+00   0.000000e+00
     1040000   1.039999e-05   8.036558e-01   1.402523e-01   9.098477e+00   9.178757e+04  -1.133245e+05  -2.164047e+04   3.745702e+09   3.003869e+09   1.569548e+08   1.474304e+05   1.787343e-27   0.000000e+00   0.000000e+00
     1048000   1.047999e-05   8.110108e-01   1.311960e-01   9.096746e+00   9.208664e+04  -1.130840e+05  -2.162808e+04   3.731116e+09   3.009076e+09   1.529149e+08   1.474304e+05   1.781225e-27   0.000000e+00   0.000000e+00
     1056000   1.055999e-05   8.183896e-01   1.221589e-01   9.095016e+00   9.238455e+04  -1.128431e+05  -2.161601e+04   3.716683e+09   3.014324e+09   1.488830e+08   1.474304e+05   1.775253e-27   0.000000e+00   0.000000e+00
     1064000   1.063999e-05   8.257923e-01   1.131411e-01   9.093287e+00   9.268131e+04  -1.126017e+05  -2.160426e+04   3.702402e+09   3.019613e+09   1.448592e+08   1.474304e+05   1.769428e-27   0.000000e+00   0.000000e+00
     1072000   1.071999e-05   8.332186e-01   1.041427e-01   9.091559e+00   9.297694e+04  -1.123599e+05  -2.159283e+04   3.688271e+09   3.024946e+09   1.408435e+08   1.474304e+05   1.763747e-27   0.000000e+00   0.000000e+00
     1080000   1.079999e-05   8.406686e-01   9.516354e-02   9.089832e+00   9.327133e+04  -1.121179e+05  -2.158124e+04   3.671645e+09   3.026077e+09   1.474236e+08   1.474304e+05   1.754947e-27   0.000000e+00   0.000000e+00
     1088000   1.087999e-05   8.481420e-01   8.620379e-02   9.088106e+00   9.356451e+04  -1.118756e+05  -2.156969e+04   3.658004e+09   3.032006e+09   1.414793e+08   1.474304e+05   1.749853e-27   0.000000e+00   0.000000e+00
     1096000   1.095999e-05   8.556389e-01   7.726346e-02   9.086381e+00   9.385661e+04  -1.116328e+05  -2.155861e+04   3.644509e+09   3.037985e+09   1.355488e+08   1.474304e+05   1.744904e-27   0.000000e+00   0.000000e+00
     1104000   1.103999e-05   8.631590e-01   6.834256e-02   9.084657e+00   9.414764e+04  -1.113895e+05  -2.154800e+04   3.631158e+09   3.044015e+09   1.296321e+08   1.474304e+05   1.740100e-27   0.000000e+00   0.000000e+00
     1112000   1.111999e-05   8.707025e-01   5.944115e-02   9.082934e+00   9.443760e+04  -1.111458e+05  -2.153787e+04   3.617950e+09   3.050098e+09   1.237294e+08   1.474304e+05   1.735440e-27   0.000000e+00   0.000000e+00
     1120000   1.119999e-05   8.782690e-01   5.055925e-02   9.081211e+00   9.472651e+04  -1.109015e+05  -2.152820e+04   3.604885e+09   3.056235e+09   1.178410e+08   1.474304e+05   1.730923e-27   0.000000e+00   0.000000e+00
     1128000   1.127999e-05   8.858587e-01   4.169692e-02   9.079489e+00   9.501438e+04  -1.106568e+05  -2.151901e+04   3.591960e+09   3.062427e+09   1.119668e+08   1.474304e+05   1.726549e-27   0.000000e+00   0.000000e+00
     1136000   1.135999e-05   8.934713e-01   3.285419e-02   9.077768e+00   9.530123e+04  -1.104115e+05  -2.151029e+04   3.579175e+09   3.068676e+09   1.061072e+08   1.474304e+05   1.722316e-27   0.000000e+00   0.000000e+00
     1144000   1.143999e-05   9.011068e-01   2.403109e-02   9.076047e+00   9.558705e+04  -1.101657e+05  -2.150213e+04   3.566055e+09   3.076168e+09   9.208745e+07   1.474304e+05   1.718407e-27   0.000000e+00   0.000000e+00
     1152000   1.151999e-05   9.087652e-01   1.522768e-02   9.074327e+00   9.587183e+04  -1.099194e+05  -2.149499e+04   3.553376e+09   3.082345e+09   8.648248e+07   1.474304e+05   1.714284e-27   0.000000e+00   0.000000e+00
     1160000   1.159999e-05   9.164463e-01   6.443999e-03   9.072608e+00   9.615559e+04  -1.096726e+05  -2.148829e+04   3.540833e+09   3.088579e+09   8.089233e+07   1.474304e+05   1.710300e-27   0.000000e+00   0.000000e+00
