     timestep     time              x             y              z              vx             vy             vz             ax             ay             az         v_magnitude      ELoss        Electronic      Nuclear
           0   0.000000e+00   1.000000e-01   2.355183e+00   1.598460e+01  -9.565286e+03  -1.274509e+05   7.348809e+04   0.000000e+00   0.000000e+00   0.000000e+00   1.474304e+05   0.000000e+00   0.000000e+00   0.000000e+00
        8000   7.999000e-08   9.934681e-02   2.344983e+00   1.599048e+01  -6.764683e+03  -1.275260e+05   7.366861e+04   3.499542e+10  -5.390800e+08   2.280462e+09   1.474304e+05   9.527351e-26   0.000000e+00   0.000000e+00
       16000   1.599900e-07   9.891759e-02   2.334781e+00   1.599638e+01  -3.966488e+03  -1.275371e+05   7.385299e+04   3.495654e+10   2.615783e+08   2.329329e+09   1.474304e+05   9.506314e-26   0.000000e+00   0.000000e+00
       24000   2.399900e-07   9.871207e-02   2.324579e+00   1.600230e+01  -1.172295e+03  -1.274826e+05   7.404404e+04   3.489417e+10   1.111728e+09   2.466701e+09   1.474304e+05   9.486714e-26   0.000000e+00   0.000000e+00
       32000   3.199900e-07   9.872987e-02   2.314385e+00   1.600823e+01   1.616440e+03  -1.273617e+05   7.424347e+04   3.482136e+10   1.910421e+09   2.519281e+09   1.474304e+05   9.468127e-26   0.000000e+00   0.000000e+00
       40000   3.999900e-07   9.897053e-02   2.304203e+00   1.601418e+01   4.398661e+03  -1.271770e+05   7.444717e+04   3.473132e+10   2.707629e+09   2.573490e+09   1.474304e+05   9.450276e-26   0.000000e+00   0.000000e+00
       48000   4.799900e-07   9.943348e-02   2.294038e+00   1.602014e+01   7.174467e+03  -1.269295e+05   7.465358e+04   3.465470e+10   3.483928e+09   2.593264e+09   1.474304e+05   9.447119e-26   0.000000e+00   0.000000e+00
       56000   5.599900e-07   1.001182e-01   2.283896e+00   1.602612e+01   9.941411e+03  -1.266186e+05   7.486399e+04   3.448967e+10   4.307296e+09   2.705173e+09   1.474304e+05   9.413021e-26   0.000000e+00   0.000000e+00
       64000   6.399900e-07   1.010237e-01   2.273781e+00   1.603212e+01   1.269500e+04  -1.262423e+05   7.508286e+04   3.434729e+10   5.099527e+09   2.766933e+09   1.474304e+05   9.397452e-26   0.000000e+00   0.000000e+00
       72000   7.199900e-07   1.021491e-01   2.263699e+00   1.603814e+01   1.543653e+04  -1.258027e+05   7.530676e+04   3.418806e+10   5.889432e+09   2.830740e+09   1.474304e+05   9.382926e-26   0.000000e+00   0.000000e+00
       80000   7.999900e-07   1.034932e-01   2.253654e+00   1.604417e+01   1.816464e+04  -1.253001e+05   7.553584e+04   3.401207e+10   6.676830e+09   2.896669e+09   1.474304e+05   9.369523e-26   0.000000e+00   0.000000e+00
       88000   8.799900e-07   1.050550e-01   2.243653e+00   1.605022e+01   2.087801e+04  -1.247345e+05   7.577028e+04   3.381939e+10   7.461546e+09   2.964786e+09   1.474304e+05   9.357323e-26   0.000000e+00   0.000000e+00
       96000   9.599900e-07   1.068333e-01   2.233699e+00   1.605629e+01   2.357530e+04  -1.241063e+05   7.601027e+04   3.361013e+10   8.243408e+09   3.035143e+09   1.474304e+05   9.346406e-26   0.000000e+00   0.000000e+00
      104000   1.039990e-06   1.088266e-01   2.223797e+00   1.606238e+01   2.625519e+04  -1.234156e+05   7.625597e+04   3.338433e+10   9.022251e+09   3.107782e+09   1.474304e+05   9.336854e-26   0.000000e+00   0.000000e+00
      112000   1.119990e-06   1.110336e-01   2.213954e+00   1.606850e+01   2.891635e+04  -1.226628e+05   7.650757e+04   3.314209e+10   9.797910e+09   3.182729e+09   1.474304e+05   9.328751e-26   0.000000e+00   0.000000e+00
      120000   1.199990e-06   1.134527e-01   2.204173e+00   1.607463e+01   3.155748e+04  -1.218481e+05   7.676527e+04   3.288345e+10   1.057023e+10   3.259999e+09   1.474304e+05   9.322180e-26   0.000000e+00   0.000000e+00
      128000   1.279990e-06   1.160822e-01   2.194460e+00   1.608078e+01   3.417641e+04  -1.209719e+05   7.702920e+04   3.258919e+10   1.133272e+10   3.338623e+09   1.474304e+05   9.306335e-26   0.000000e+00   0.000000e+00
      136000   1.359990e-06   1.189203e-01   2.184819e+00   1.608695e+01   3.677193e+04  -1.200347e+05   7.729953e+04   3.229632e+10   1.209603e+10   3.419912e+09   1.474304e+05   9.301919e-26   0.000000e+00   0.000000e+00
      144000   1.439990e-06   1.219651e-01   2.175256e+00   1.609315e+01   3.934339e+04  -1.190367e+05   7.757644e+04   3.198738e+10   1.285537e+10   3.503387e+09   1.474304e+05   9.299320e-26   0.000000e+00   0.000000e+00
      152000   1.519990e-06   1.252146e-01   2.165775e+00   1.609936e+01   4.188948e+04  -1.179780e+05   7.786013e+04   3.166240e+10   1.361059e+10   3.589009e+09   1.474304e+05   9.298624e-26   0.000000e+00   0.000000e+00
      160000   1.599990e-06   1.286667e-01   2.156381e+00   1.610560e+01   4.440991e+04  -1.168578e+05   7.815214e+04   3.133498e+10   1.438134e+10   3.697918e+09   1.474304e+05   9.312113e-26   0.000000e+00   0.000000e+00
      168000   1.679990e-06   1.323194e-01   2.147079e+00   1.611187e+01   4.690254e+04  -1.156772e+05   7.845171e+04   3.097801e+10   1.513188e+10   3.791863e+09   1.474304e+05   9.316844e-26   0.000000e+00   0.000000e+00
      176000   1.759990e-06   1.361704e-01   2.137874e+00   1.611816e+01   4.936596e+04  -1.144368e+05   7.875889e+04   3.060487e+10   1.587812e+10   3.887994e+09   1.474304e+05   9.323813e-26   0.000000e+00   0.000000e+00
      184000   1.839990e-06   1.402172e-01   2.128771e+00   1.612447e+01   5.179888e+04  -1.131368e+05   7.907385e+04   3.021553e+10   1.661991e+10   3.986211e+09   1.474304e+05   9.333113e-26   0.000000e+00   0.000000e+00
      192000   1.919990e-06   1.444573e-01   2.119774e+00   1.613081e+01   5.420001e+04  -1.117777e+05   7.939674e+04   2.980999e+10   1.735710e+10   4.086401e+09   1.474304e+05   9.344834e-26   0.000000e+00   0.000000e+00
      200000   1.999990e-06   1.488883e-01   2.110888e+00   1.613717e+01   5.656804e+04  -1.103598e+05   7.972772e+04   2.938822e+10   1.808952e+10   4.188436e+09   1.474305e+05   9.359069e-26   0.000000e+00   0.000000e+00
      208000   2.079990e-06   1.535073e-01   2.102118e+00   1.614356e+01   5.890168e+04  -1.088835e+05   8.006694e+04   2.895017e+10   1.881702e+10   4.292174e+09   1.474305e+05   9.375909e-26   0.000000e+00   0.000000e+00
      216000   2.159990e-06   1.583116e-01   2.093468e+00   1.614998e+01   6.120057e+04  -1.073492e+05   8.041383e+04   2.851118e+10   1.953904e+10   4.384964e+09   1.474305e+05   9.401262e-26   0.000000e+00   0.000000e+00
      224000   2.239990e-06   1.632984e-01   2.084944e+00   1.615643e+01   6.346273e+04  -1.057574e+05   8.076876e+04   2.804029e+10   2.025426e+10   4.488578e+09   1.474305e+05   9.422571e-26   0.000000e+00   0.000000e+00
      232000   2.319990e-06   1.684646e-01   2.076549e+00   1.616291e+01   6.568658e+04  -1.041086e+05   8.113203e+04   2.755319e+10   2.096398e+10   4.593360e+09   1.474305e+05   9.446775e-26   0.000000e+00   0.000000e+00
      240000   2.399990e-06   1.738072e-01   2.068288e+00   1.616941e+01   6.787080e+04  -1.024033e+05   8.150372e+04   2.704981e+10   2.166800e+10   4.699120e+09   1.474305e+05   9.473963e-26   0.000000e+00   0.000000e+00
      248000   2.479990e-06   1.793229e-01   2.060165e+00   1.617595e+01   7.001410e+04  -1.006419e+05   8.188391e+04   2.653006e+10   2.236615e+10   4.805649e+09   1.474305e+05   9.504221e-26   0.000000e+00   0.000000e+00
      256000   2.559990e-06   1.850083e-01   2.052186e+00   1.618251e+01   7.211517e+04  -9.882489e+04   8.227264e+04   2.599389e+10   2.305820e+10   4.912728e+09   1.474305e+05   9.537636e-26   0.000000e+00   0.000000e+00
      264000   2.639990e-06   1.908601e-01   2.044355e+00   1.618911e+01   7.417268e+04  -9.695276e+04   8.266996e+04   2.544118e+10   2.374395e+10   5.020122e+09   1.474305e+05   9.574292e-26   0.000000e+00   0.000000e+00
      272000   2.719990e-06   1.968748e-01   2.036675e+00   1.619574e+01   7.618531e+04  -9.502603e+04   8.307587e+04   2.487187e+10   2.442317e+10   5.127583e+09   1.474305e+05   9.614274e-26   0.000000e+00   0.000000e+00
      280000   2.799990e-06   2.030485e-01   2.029152e+00   1.620240e+01   7.814942e+04  -9.304297e+04   8.349504e+04   2.422799e+10   2.515724e+10   5.357370e+09   1.474305e+05   9.669965e-26   0.000000e+00   0.000000e+00
      288000   2.879990e-06   2.093773e-01   2.021790e+00   1.620910e+01   8.006349e+04  -9.100344e+04   8.392830e+04   2.362100e+10   2.582975e+10   5.474066e+09   1.474305e+05   9.720379e-26   0.000000e+00   0.000000e+00
      296000   2.959990e-06   2.158573e-01   2.014593e+00   1.621583e+01   8.192830e+04  -8.891040e+04   8.437088e+04   2.299656e+10   2.649517e+10   5.590075e+09   1.474305e+05   9.774522e-26   0.000000e+00   0.000000e+00
      304000   3.039990e-06   2.224845e-01   2.007566e+00   1.622260e+01   8.374246e+04  -8.676441e+04   8.482269e+04   2.235453e+10   2.715318e+10   5.705071e+09   1.474305e+05   9.832481e-26   0.000000e+00   0.000000e+00
      312000   3.119990e-06   2.292548e-01   2.000712e+00   1.622941e+01   8.550455e+04  -8.456609e+04   8.528365e+04   2.169479e+10   2.780348e+10   5.818715e+09   1.474305e+05   9.894339e-26   0.000000e+00   0.000000e+00
      320000   3.199990e-06   2.361638e-01   1.994037e+00   1.623625e+01   8.721319e+04  -8.231645e+04   8.575322e+04   2.101814e+10   2.843906e+10   5.923466e+09   1.474305e+05   9.956876e-26   0.000000e+00   0.000000e+00
      328000   3.279990e-06   2.432074e-01   1.987543e+00   1.624313e+01   8.886697e+04  -8.001602e+04   8.623139e+04   2.032356e+10   2.907029e+10   6.030387e+09   1.474305e+05   1.002553e-25   0.000000e+00   0.000000e+00
      336000   3.359990e-06   2.503810e-01   1.981235e+00   1.625004e+01   9.046447e+04  -7.766543e+04   8.671802e+04   1.961105e+10   2.969275e+10   6.134942e+09   1.474305e+05   1.009830e-25   0.000000e+00   0.000000e+00
      344000   3.439990e-06   2.576802e-01   1.975118e+00   1.625700e+01   9.200425e+04  -7.526542e+04   8.721291e+04   1.888048e+10   3.030603e+10   6.236749e+09   1.474305e+05   1.017524e-25   0.000000e+00   0.000000e+00
      352000   3.519990e-06   2.651001e-01   1.969194e+00   1.626400e+01   9.348486e+04  -7.281672e+04   8.771582e+04   1.813173e+10   3.090973e+10   6.335415e+09   1.474305e+05   1.025643e-25   0.000000e+00   0.000000e+00
      360000   3.599990e-06   2.726361e-01   1.963468e+00   1.627104e+01   9.490483e+04  -7.032012e+04   8.822648e+04   1.736470e+10   3.150341e+10   6.430535e+09   1.474305e+05   1.034194e-25   0.000000e+00   0.000000e+00
      368000   3.679990e-06   2.802833e-01   1.957944e+00   1.627811e+01   9.626271e+04  -6.777645e+04   8.874460e+04   1.657926e+10   3.208660e+10   6.521696e+09   1.474305e+05   1.043182e-25   0.000000e+00   0.000000e+00
      376000   3.759990e-06   2.880365e-01   1.952625e+00   1.628524e+01   9.755701e+04  -6.518655e+04   8.926984e+04   1.577531e+10   3.265882e+10   6.608471e+09   1.474305e+05   1.052613e-25   0.000000e+00   0.000000e+00
      384000   3.839990e-06   2.958906e-01   1.947516e+00   1.629240e+01   9.878625e+04  -6.255133e+04   8.980183e+04   1.495278e+10   3.321956e+10   6.690428e+09   1.474305e+05   1.062491e-25   0.000000e+00   0.000000e+00
      392000   3.919990e-06   3.038405e-01   1.942618e+00   1.629960e+01   9.994689e+04  -5.986939e+04   9.034399e+04   1.405734e+10   3.382890e+10   6.866446e+09   1.474305e+05   1.075862e-25   0.000000e+00   0.000000e+00
      400000   3.999990e-06   3.118803e-01   1.937938e+00   1.630685e+01   1.010365e+05  -5.714004e+04   9.089783e+04   1.318360e+10   3.439067e+10   6.964679e+09   1.474305e+05   1.088162e-25   0.000000e+00   0.000000e+00
      408000   4.079990e-06   3.200044e-01   1.933477e+00   1.631415e+01   1.020558e+05  -5.436729e+04   9.145810e+04   1.229591e+10   3.492569e+10   7.041045e+09   1.474305e+05   1.100195e-25   0.000000e+00   0.000000e+00
      416000   4.159990e-06   3.282073e-01   1.929240e+00   1.632149e+01   1.030033e+05  -5.155228e+04   9.202421e+04   1.138854e+10   3.544703e+10   7.110445e+09   1.474305e+05   1.112726e-25   0.000000e+00   0.000000e+00
      424000   4.239990e-06   3.364830e-01   1.925230e+00   1.632887e+01   1.038774e+05  -4.869614e+04   9.259557e+04   1.046145e+10   3.595403e+10   7.172362e+09   1.474306e+05   1.125758e-25   0.000000e+00   0.000000e+00
      432000   4.319990e-06   3.448257e-01   1.921450e+00   1.633630e+01   1.046766e+05  -4.580004e+04   9.317157e+04   9.514621e+09   3.644596e+10   7.226272e+09   1.474306e+05   1.139295e-25   0.000000e+00   0.000000e+00
      440000   4.399990e-06   3.532292e-01   1.917903e+00   1.634378e+01   1.053992e+05  -4.286520e+04   9.375155e+04   8.548068e+09   3.692209e+10   7.271649e+09   1.474306e+05   1.153338e-25   0.000000e+00   0.000000e+00
      448000   4.479990e-06   3.616874e-01   1.914592e+00   1.635130e+01   1.060437e+05  -3.989294e+04   9.433480e+04   7.561822e+09   3.738164e+10   7.307961e+09   1.474306e+05   1.167888e-25   0.000000e+00   0.000000e+00
      456000   4.559990e-06   3.701941e-01   1.911521e+00   1.635887e+01   1.066086e+05  -3.688460e+04   9.492057e+04   6.555944e+09   3.782381e+10   7.334677e+09   1.474306e+05   1.182947e-25   0.000000e+00   0.000000e+00
      464000   4.639990e-06   3.787426e-01   1.908692e+00   1.636649e+01   1.070921e+05  -3.384161e+04   9.550807e+04   5.530524e+09   3.824775e+10   7.351268e+09   1.474306e+05   1.198514e-25   0.000000e+00   0.000000e+00
      472000   4.719990e-06   3.873266e-01   1.906107e+00   1.637415e+01   1.074929e+05  -3.076547e+04   9.609649e+04   4.485687e+09   3.865260e+10   7.357202e+09   1.474306e+05   1.214588e-25   0.000000e+00   0.000000e+00
      480000   4.799990e-06   3.959393e-01   1.903770e+00   1.638187e+01   1.078093e+05  -2.765773e+04   9.668493e+04   3.421591e+09   3.903744e+10   7.351955e+09   1.474306e+05   1.231167e-25   0.000000e+00   0.000000e+00
      488000   4.879990e-06   4.045737e-01   1.901683e+00   1.638962e+01   1.080369e+05  -2.451714e+04   9.727647e+04   2.267240e+09   3.946934e+10   7.429811e+09   1.474306e+05   1.253233e-25   0.000000e+00   0.000000e+00
      496000   4.959990e-06   4.132228e-01   1.899848e+00   1.639743e+01   1.081741e+05  -2.134599e+04   9.786973e+04   1.171309e+09   3.978485e+10   7.382855e+09   1.474306e+05   1.269142e-25   0.000000e+00   0.000000e+00
      504000   5.039990e-06   4.218792e-01   1.898268e+00   1.640528e+01   1.082217e+05  -1.814789e+04   9.846060e+04   2.023679e+07   4.015316e+10   7.378808e+09   1.474306e+05   1.290835e-25   0.000000e+00   0.000000e+00
      512000   5.119990e-06   4.305358e-01   1.896945e+00   1.641318e+01   1.081773e+05  -1.492311e+04   9.904920e+04  -1.133047e+09   4.046226e+10   7.333827e+09   1.474306e+05   1.310615e-25   0.000000e+00   0.000000e+00
      520000   5.199990e-06   4.391851e-01   1.895881e+00   1.642113e+01   1.080399e+05  -1.167460e+04   9.963362e+04  -2.305198e+09   4.074636e+10   7.274330e+09   1.474306e+05   1.330932e-25   0.000000e+00   0.000000e+00
      528000   5.279990e-06   4.478197e-01   1.895078e+00   1.642912e+01   1.078080e+05  -8.404388e+03   1.002127e+05  -3.495800e+09   4.100433e+10   7.199777e+09   1.474306e+05   1.351778e-25   0.000000e+00   0.000000e+00
      536000   5.359990e-06   4.564318e-01   1.894537e+00   1.643716e+01   1.074801e+05  -5.114628e+03   1.007852e+05  -4.704381e+09   4.123501e+10   7.109646e+09   1.474306e+05   1.373147e-25   0.000000e+00   0.000000e+00
      544000   5.439990e-06   4.650139e-01   1.894260e+00   1.644525e+01   1.070548e+05  -1.807545e+03   1.013498e+05  -5.930407e+09   4.143719e+10   7.003430e+09   1.474306e+05   1.395030e-25   0.000000e+00   0.000000e+00
      552000   5.519990e-06   4.735580e-01   1.894248e+00   1.645338e+01   1.065308e+05   1.514533e+03   1.019053e+05  -7.173281e+09   4.160966e+10   6.880648e+09   1.474306e+05   1.417416e-25   0.000000e+00   0.000000e+00
      560000   5.599990e-06   4.820562e-01   1.894503e+00   1.646155e+01   1.059067e+05   4.849178e+03   1.024503e+05  -8.432341e+09   4.175118e+10   6.740841e+09   1.474306e+05   1.440294e-25   0.000000e+00   0.000000e+00
      568000   5.679990e-06   4.905003e-01   1.895024e+00   1.646977e+01   1.051812e+05   8.193864e+03   1.029833e+05  -9.706857e+09   4.186047e+10   6.583576e+09   1.474306e+05   1.463654e-25   0.000000e+00   0.000000e+00
      576000   5.759990e-06   4.988824e-01   1.895814e+00   1.647803e+01   1.043532e+05   1.154596e+04   1.035031e+05  -1.099602e+10   4.193625e+10   6.408451e+09   1.474306e+05   1.487480e-25   0.000000e+00   0.000000e+00
      584000   5.839990e-06   5.071939e-01   1.896872e+00   1.648633e+01   1.034169e+05   1.490554e+04   1.040123e+05  -1.236563e+10   4.201652e+10   6.273833e+09   1.474306e+05   1.516157e-25   0.000000e+00   0.000000e+00
      592000   5.919990e-06   5.154263e-01   1.898199e+00   1.649467e+01   1.023750e+05   1.826720e+04   1.045058e+05  -1.368365e+10   4.201891e+10   6.060103e+09   1.474306e+05   1.540861e-25   0.000000e+00   0.000000e+00
      600000   5.999990e-06   5.235711e-01   1.899795e+00   1.650305e+01   1.012263e+05   2.162916e+04   1.049820e+05  -1.504697e+10   4.204166e+10   5.847136e+09   1.474307e+05   1.570714e-25   0.000000e+00   0.000000e+00
      608000   6.079990e-06   5.316196e-01   1.901659e+00   1.651147e+01   9.996799e+04   2.499040e+04   1.054404e+05  -1.640795e+10   4.198405e+10   5.605941e+09   1.474307e+05   1.597981e-25   0.000000e+00   0.000000e+00
      616000   6.159990e-06   5.395631e-01   1.903793e+00   1.651992e+01   9.860078e+04   2.834554e+04   1.058783e+05  -1.777378e+10   4.188745e+10   5.338270e+09   1.474307e+05   1.625594e-25   0.000000e+00   0.000000e+00
      624000   6.239990e-06   5.473928e-01   1.906194e+00   1.652841e+01   9.712394e+04   3.169128e+04   1.062940e+05  -1.914825e+10   4.174907e+10   5.049145e+09   1.474307e+05   1.653609e-25   0.000000e+00   0.000000e+00
      632000   6.319990e-06   5.551000e-01   1.908863e+00   1.653693e+01   9.553685e+04   3.502424e+04   1.066856e+05  -2.052997e+10   4.156754e+10   4.738403e+09   1.474307e+05   1.682000e-25   0.000000e+00   0.000000e+00
      640000   6.399990e-06   5.626757e-01   1.911798e+00   1.654548e+01   9.383898e+04   3.834090e+04   1.070515e+05  -2.191745e+10   4.134150e+10   4.405941e+09   1.474307e+05   1.710744e-25   0.000000e+00   0.000000e+00
      648000   6.479990e-06   5.701112e-01   1.914997e+00   1.655406e+01   9.202994e+04   4.163765e+04   1.073900e+05  -2.330909e+10   4.106961e+10   4.051721e+09   1.474307e+05   1.739815e-25   0.000000e+00   0.000000e+00
      656000   6.559990e-06   5.773975e-01   1.918459e+00   1.656266e+01   9.010945e+04   4.491077e+04   1.076992e+05  -2.470321e+10   4.075054e+10   3.675767e+09   1.474307e+05   1.769186e-25   0.000000e+00   0.000000e+00
      664000   6.639990e-06   5.845258e-01   1.922182e+00   1.657129e+01   8.807739e+04   4.815644e+04   1.079775e+05  -2.609804e+10   4.038300e+10   3.278175e+09   1.474307e+05   1.798829e-25   0.000000e+00   0.000000e+00
      672000   6.719990e-06   5.914870e-01   1.926164e+00   1.657994e+01   8.593378e+04   5.137073e+04   1.082231e+05  -2.749172e+10   3.996573e+10   2.859110e+09   1.474307e+05   1.828714e-25   0.000000e+00   0.000000e+00
      680000   6.799990e-06   5.982722e-01   1.930401e+00   1.658860e+01   8.367878e+04   5.454960e+04   1.084344e+05  -2.888226e+10   3.949752e+10   2.418816e+09   1.474307e+05   1.858812e-25   0.000000e+00   0.000000e+00
      688000   6.879990e-06   6.048725e-01   1.934891e+00   1.659728e+01   8.130835e+04   5.769248e+04   1.086110e+05  -3.034311e+10   3.903636e+10   1.980171e+09   1.474307e+05   1.896276e-25   0.000000e+00   0.000000e+00
      696000   6.959990e-06   6.112785e-01   1.939630e+00   1.660598e+01   7.882466e+04   6.079403e+04   1.087501e+05  -3.174723e+10   3.849075e+10   1.494080e+09   1.474307e+05   1.929728e-25   0.000000e+00   0.000000e+00
      704000   7.039990e-06   6.174814e-01   1.944616e+00   1.661468e+01   7.622923e+04   6.384917e+04   1.088495e+05  -3.313650e+10   3.787867e+10   9.873624e+08   1.474307e+05   1.962364e-25   0.000000e+00   0.000000e+00
      712000   7.119990e-06   6.234723e-01   1.949845e+00   1.662339e+01   7.352310e+04   6.685312e+04   1.089075e+05  -3.451444e+10   3.721073e+10   4.589309e+08   1.474307e+05   1.995124e-25   0.000000e+00   0.000000e+00
      720000   7.199990e-06   6.292422e-01   1.955311e+00   1.663211e+01   7.070728e+04   6.980137e+04   1.089223e+05  -3.587858e+10   3.648597e+10  -9.059749e+07   1.474307e+05   2.027971e-25   0.000000e+00   0.000000e+00
      728000   7.279990e-06   6.347825e-01   1.961011e+00   1.664082e+01   6.778295e+04   7.268933e+04   1.088924e+05  -3.722637e+10   3.570352e+10  -6.605103e+08   1.474308e+05   2.060866e-25   0.000000e+00   0.000000e+00
      736000   7.359990e-06   6.400846e-01   1.966940e+00   1.664953e+01   6.475155e+04   7.551236e+04   1.088161e+05  -3.855520e+10   3.486258e+10  -1.249998e+09   1.474308e+05   2.093770e-25   0.000000e+00   0.000000e+00
      744000   7.439990e-06   6.451400e-01   1.973091e+00   1.665823e+01   6.161469e+04   7.826576e+04   1.086919e+05  -3.986234e+10   3.396249e+10  -1.858154e+09   1.474308e+05   2.126642e-25   0.000000e+00   0.000000e+00
      752000   7.519990e-06   6.499402e-01   1.979460e+00   1.666692e+01   5.837421e+04   8.094476e+04   1.085183e+05  -4.114503e+10   3.300267e+10  -2.483972e+09   1.474308e+05   2.159442e-25   0.000000e+00   0.000000e+00
      760000   7.599990e-06   6.544771e-01   1.986041e+00   1.667559e+01   5.503220e+04   8.354457e+04   1.082940e+05  -4.240043e+10   3.198271e+10  -3.126347e+09   1.474308e+05   2.192129e-25   0.000000e+00   0.000000e+00
      768000   7.679990e-06   6.587427e-01   1.992825e+00   1.668424e+01   5.159094e+04   8.606037e+04   1.080177e+05  -4.362563e+10   3.090230e+10  -3.784076e+09   1.474308e+05   2.224659e-25   0.000000e+00   0.000000e+00
      776000   7.759990e-06   6.627291e-01   1.999808e+00   1.669287e+01   4.805297e+04   8.848731e+04   1.076882e+05  -4.481768e+10   2.976128e+10  -4.455862e+09   1.474308e+05   2.256991e-25   0.000000e+00   0.000000e+00
      784000   7.839990e-06   6.664287e-01   2.006981e+00   1.670147e+01   4.442013e+04   9.082167e+04   1.073039e+05  -4.602152e+10   2.862272e+10  -5.174569e+09   1.474308e+05   2.295563e-25   0.000000e+00   0.000000e+00
      792000   7.919990e-06   6.698338e-01   2.014337e+00   1.671004e+01   4.069282e+04   9.306188e+04   1.068617e+05  -4.715452e+10   2.737234e+10  -5.880876e+09   1.474308e+05   2.329146e-25   0.000000e+00   0.000000e+00
      800000   7.999990e-06   6.729371e-01   2.021868e+00   1.671857e+01   3.687652e+04   9.519959e+04   1.063626e+05  -4.824549e+10   2.606030e+10  -6.597929e+09   1.474308e+05   2.362387e-25   0.000000e+00   0.000000e+00
      808000   8.079990e-06   6.757318e-01   2.029566e+00   1.672706e+01   3.297473e+04   9.722988e+04   1.058058e+05  -4.929129e+10   2.468702e+10  -7.323971e+09   1.474308e+05   2.395242e-25   0.000000e+00   0.000000e+00
      816000   8.159990e-06   6.782109e-01   2.037422e+00   1.673550e+01   2.899119e+04   9.914788e+04   1.051906e+05  -5.028875e+10   2.325313e+10  -8.057151e+09   1.474308e+05   2.427665e-25   0.000000e+00   0.000000e+00
      824000   8.239990e-06   6.803683e-01   2.045426e+00   1.674388e+01   2.492989e+04   1.009488e+05   1.045165e+05  -5.123476e+10   2.175943e+10  -8.795538e+09   1.474308e+05   2.459613e-25   0.000000e+00   0.000000e+00
      832000   8.319990e-06   6.821977e-01   2.053570e+00   1.675222e+01   2.079508e+04   1.026278e+05   1.037832e+05  -5.212618e+10   2.020693e+10  -9.537119e+09   1.474309e+05   2.491042e-25   0.000000e+00   0.000000e+00
      840000   8.399990e-06   6.836936e-01   2.061844e+00   1.676049e+01   1.659124e+04   1.041803e+05   1.029905e+05  -5.295993e+10   1.859686e+10  -1.027981e+10   1.474309e+05   2.521910e-25   0.000000e+00   0.000000e+00
      848000   8.479990e-06   6.848506e-01   2.070236e+00   1.676869e+01   1.232310e+04   1.056018e+05   1.021385e+05  -5.373295e+10   1.693064e+10  -1.102148e+10   1.474309e+05   2.552176e-25   0.000000e+00   0.000000e+00
      856000   8.559990e-06   6.856638e-01   2.078736e+00   1.677683e+01   7.995654e+03   1.068878e+05   1.012272e+05  -5.444227e+10   1.520994e+10  -1.175991e+10   1.474309e+05   2.581799e-25   0.000000e+00   0.000000e+00
      864000   8.639990e-06   6.861285e-01   2.087334e+00   1.678489e+01   3.614107e+03   1.080340e+05   1.002570e+05  -5.508498e+10   1.343664e+10  -1.249286e+10   1.474309e+05   2.610743e-25   0.000000e+00   0.000000e+00
      872000   8.719990e-06   6.862407e-01   2.096018e+00   1.679287e+01  -8.160975e+02   1.090363e+05   9.922852e+04  -5.565826e+10   1.161282e+10  -1.321805e+10   1.474309e+05   2.638970e-25   0.000000e+00   0.000000e+00
      880000   8.799990e-06   6.859968e-01   2.104776e+00   1.680076e+01  -5.289344e+03   1.098927e+05   9.814021e+04  -5.618850e+10   9.853440e+09  -1.406138e+10   1.474309e+05   2.673469e-25   0.000000e+00   0.000000e+00
      888000   8.879990e-06   6.853933e-01   2.113597e+00   1.680857e+01  -9.802459e+03   1.106046e+05   9.698660e+04  -5.662663e+10   7.938841e+09  -1.477645e+10   1.474309e+05   2.701338e-25   0.000000e+00   0.000000e+00
      896000   8.959990e-06   6.844275e-01   2.122468e+00   1.681628e+01  -1.434754e+04   1.111617e+05   9.577637e+04  -5.698731e+10   5.979432e+09  -1.547643e+10   1.474309e+05   2.728354e-25   0.000000e+00   0.000000e+00
      904000   9.039990e-06   6.830970e-01   2.131378e+00   1.682389e+01  -1.891830e+04   1.115602e+05   9.451083e+04  -5.726810e+10   3.978176e+09  -1.615884e+10   1.474309e+05   2.754488e-25   0.000000e+00   0.000000e+00
      912000   9.119990e-06   6.814001e-01   2.140314e+00   1.683140e+01  -2.350825e+04   1.117971e+05   9.319148e+04  -5.746678e+10   1.938258e+09  -1.682127e+10   1.474310e+05   2.779715e-25   0.000000e+00   0.000000e+00
      920000   9.199990e-06   6.793354e-01   2.149262e+00   1.683880e+01  -2.811074e+04   1.118694e+05   9.182002e+04  -5.758124e+10  -1.369182e+08  -1.746131e+10   1.474310e+05   2.804014e-25   0.000000e+00   0.000000e+00
      928000   9.279990e-06   6.769022e-01   2.158208e+00   1.684609e+01  -3.271895e+04   1.117743e+05   9.039833e+04  -5.760960e+10  -2.243742e+09  -1.807662e+10   1.474310e+05   2.827364e-25   0.000000e+00   0.000000e+00
      936000   9.359990e-06   6.741004e-01   2.167141e+00   1.685326e+01  -3.732594e+04   1.115096e+05   8.892848e+04  -5.755016e+10  -4.378403e+09  -1.866492e+10   1.474310e+05   2.849752e-25   0.000000e+00   0.000000e+00
      944000   9.439990e-06   6.709303e-01   2.176045e+00   1.686032e+01  -4.192460e+04   1.110731e+05   8.741271e+04  -5.740143e+10  -6.536898e+09  -1.922399e+10   1.474310e+05   2.871164e-25   0.000000e+00   0.000000e+00
      952000   9.519990e-06   6.673929e-01   2.184908e+00   1.686725e+01  -4.650775e+04   1.104632e+05   8.585347e+04  -5.716215e+10  -8.715050e+09  -1.975172e+10   1.474310e+05   2.891592e-25   0.000000e+00   0.000000e+00
      960000   9.599990e-06   6.634897e-01   2.193715e+00   1.687405e+01  -5.106810e+04   1.096783e+05   8.425332e+04  -5.683127e+10  -1.090851e+10  -2.024608e+10   1.474310e+05   2.911032e-25   0.000000e+00   0.000000e+00
      968000   9.679990e-06   6.592228e-01   2.202452e+00   1.688073e+01  -5.559801e+04   1.087183e+05   8.261418e+04  -5.639599e+10  -1.307808e+10  -2.074270e+10   1.474310e+05   2.928932e-25   0.000000e+00   0.000000e+00
      976000   9.759990e-06   6.545950e-01   2.211105e+00   1.688727e+01  -6.008965e+04   1.075836e+05   8.093772e+04  -5.587946e+10  -1.528952e+10  -2.116241e+10   1.474310e+05   2.946225e-25   0.000000e+00   0.000000e+00
      984000   9.839990e-06   6.496096e-01   2.219661e+00   1.689368e+01  -6.453624e+04   1.062719e+05   7.922923e+04  -5.526994e+10  -1.750257e+10  -2.154311e+10   1.474310e+05   2.962551e-25   0.000000e+00   0.000000e+00
      992000   9.919990e-06   6.442706e-01   2.228104e+00   1.689995e+01  -6.893035e+04   1.047832e+05   7.749189e+04  -5.456738e+10  -1.971241e+10  -2.188332e+10   1.474311e+05   2.977922e-25   0.000000e+00   0.000000e+00
     1000000   9.999990e-06   6.385823e-01   2.236421e+00   1.690608e+01  -7.326617e+04   1.031211e+05   7.572341e+04  -5.379771e+10  -2.188183e+10  -2.225251e+10   1.474311e+05   2.995832e-25   0.000000e+00   0.000000e+00
     1008000   1.007999e-05   6.325498e-01   2.244599e+00   1.691206e+01  -7.753548e+04   1.012824e+05   7.393271e+04  -5.291952e+10  -2.408170e+10  -2.250762e+10   1.474311e+05   3.010404e-25   0.000000e+00   0.000000e+00
     1016000   1.015999e-05   6.261786e-01   2.252622e+00   1.691790e+01  -8.173081e+04   9.926840e+04   7.212339e+04  -5.194864e+10  -2.626495e+10  -2.271782e+10   1.474311e+05   3.024044e-25   0.000000e+00   0.000000e+00
     1024000   1.023999e-05   6.194750e-01   2.260477e+00   1.692360e+01  -8.584480e+04   9.708057e+04   7.029908e+04  -5.088600e+10  -2.842645e+10  -2.288229e+10   1.474311e+05   3.036777e-25   0.000000e+00   0.000000e+00
     1032000   1.031999e-05   6.124458e-01   2.268150e+00   1.692915e+01  -8.987015e+04   9.472086e+04   6.846346e+04  -4.973284e+10  -3.056106e+10  -2.300041e+10   1.474311e+05   3.048631e-25   0.000000e+00   0.000000e+00
     1040000   1.039999e-05   6.050984e-01   2.275628e+00   1.693455e+01  -9.379967e+04   9.219163e+04   6.662026e+04  -4.849062e+10  -3.266367e+10  -2.307177e+10   1.474311e+05   3.059637e-25   0.000000e+00   0.000000e+00
     1048000   1.047999e-05   5.974406e-01   2.282896e+00   1.693981e+01  -9.762643e+04   8.949316e+04   6.477648e+04  -4.716406e+10  -3.482484e+10  -2.296875e+10   1.474311e+05   3.070650e-25   0.000000e+00   0.000000e+00
     1056000   1.055999e-05   5.894811e-01   2.289942e+00   1.694492e+01  -1.013431e+05   8.662564e+04   6.294057e+04  -4.573865e+10  -3.685502e+10  -2.292109e+10   1.474311e+05   3.079101e-25   0.000000e+00   0.000000e+00
     1064000   1.063999e-05   5.812288e-01   2.296752e+00   1.694988e+01  -1.049424e+05   8.359763e+04   6.111035e+04  -4.423030e+10  -3.883656e+10  -2.282672e+10   1.474311e+05   3.086819e-25   0.000000e+00   0.000000e+00
     1072000   1.071999e-05   5.726936e-01   2.303314e+00   1.695470e+01  -1.084175e+05   8.041489e+04   5.928783e+04  -4.263453e+10  -4.072472e+10  -2.272666e+10   1.474312e+05   3.092279e-25   0.000000e+00   0.000000e+00
     1080000   1.079999e-05   5.638855e-01   2.309614e+00   1.695937e+01  -1.117622e+05   7.708147e+04   5.747703e+04  -4.097129e+10  -4.260048e+10  -2.253585e+10   1.474312e+05   3.098943e-25   0.000000e+00   0.000000e+00
     1088000   1.087999e-05   5.548153e-01   2.315643e+00   1.696389e+01  -1.149709e+05   7.360045e+04   5.568328e+04  -3.923333e+10  -4.441387e+10  -2.230057e+10   1.474312e+05   3.105024e-25   0.000000e+00   0.000000e+00
     1096000   1.095999e-05   5.454940e-01   2.321387e+00   1.696828e+01  -1.180376e+05   6.997701e+04   5.391010e+04  -3.742387e+10  -4.616051e+10  -2.202202e+10   1.474312e+05   3.110559e-25   0.000000e+00   0.000000e+00
     1104000   1.103999e-05   5.359332e-01   2.326835e+00   1.697252e+01  -1.209568e+05   6.621665e+04   5.216088e+04  -3.554629e+10  -4.783621e+10  -2.170158e+10   1.474312e+05   3.115588e-25   0.000000e+00   0.000000e+00
     1112000   1.111999e-05   5.261449e-01   2.331978e+00   1.697662e+01  -1.237233e+05   6.232520e+04   5.043892e+04  -3.360416e+10  -4.943698e+10  -2.134080e+10   1.474312e+05   3.120145e-25   0.000000e+00   0.000000e+00
     1120000   1.119999e-05   5.161417e-01   2.336804e+00   1.698059e+01  -1.263319e+05   5.830881e+04   4.874739e+04  -3.160122e+10  -5.095907e+10  -2.094140e+10   1.474312e+05   3.124268e-25   0.000000e+00   0.000000e+00
     1128000   1.127999e-05   5.059362e-01   2.341304e+00   1.698442e+01  -1.287779e+05   5.417393e+04   4.708928e+04  -2.954136e+10  -5.239896e+10  -2.050524e+10   1.474312e+05   3.127987e-25   0.000000e+00   0.000000e+00
     1136000   1.135999e-05   4.955417e-01   2.345469e+00   1.698813e+01  -1.310561e+05   4.992334e+04   4.547463e+04  -2.739735e+10  -5.386656e+10  -1.982093e+10   1.474312e+05   3.132853e-25   0.000000e+00   0.000000e+00
     1144000   1.143999e-05   4.849718e-01   2.349289e+00   1.699170e+01  -1.331613e+05   4.556301e+04   4.390962e+04  -2.522650e+10  -5.512644e+10  -1.929933e+10   1.474313e+05   3.134925e-25   0.000000e+00   0.000000e+00
     1152000   1.151999e-05   4.742405e-01   2.352756e+00   1.699515e+01  -1.350911e+05   4.110557e+04   4.238752e+04  -2.301209e+10  -5.629367e+10  -1.874856e+10   1.474313e+05   3.136690e-25   0.000000e+00   0.000000e+00
     1160000   1.159999e-05   4.633620e-01   2.355863e+00   1.699848e+01  -1.368422e+05   3.655854e+04   4.091056e+04  -2.075854e+10  -5.736591e+10  -1.817107e+10   1.474313e+05   3.138169e-25   0.000000e+00   0.000000e+00
     1168000   1.167999e-05   4.523506e-01   2.358604e+00   1.700170e+01  -1.384126e+05   3.193128e+04   3.947582e+04  -1.849396e+10  -5.830683e+10  -1.768029e+10   1.474313e+05   3.139992e-25   0.000000e+00   0.000000e+00
     1176000   1.175999e-05   4.412209e-01   2.360970e+00   1.700480e+01  -1.397994e+05   2.723026e+04   3.808707e+04  -1.617278e+10  -5.920187e+10  -1.703525e+10   1.474313e+05   3.141785e-25   0.000000e+00   0.000000e+00
     1184000   1.183999e-05   4.299877e-01   2.362959e+00   1.700780e+01  -1.409995e+05   2.246167e+04   3.675069e+04  -1.382493e+10  -5.999603e+10  -1.637128e+10   1.474313e+05   3.143375e-25   0.000000e+00   0.000000e+00
     1192000   1.191999e-05   4.186660e-01   2.364563e+00   1.701068e+01  -1.420108e+05   1.763361e+04   3.546810e+04  -1.145495e+10  -6.068808e+10  -1.569117e+10   1.474313e+05   3.144770e-25   0.000000e+00   0.000000e+00
     1200000   1.199999e-05   4.072710e-01   2.365779e+00   1.701347e+01  -1.428318e+05   1.275431e+04   3.424047e+04  -9.067423e+09  -6.127709e+10  -1.499770e+10   1.474313e+05   3.145977e-25   0.000000e+00   0.000000e+00
     1208000   1.207999e-05   3.958180e-01   2.366602e+00   1.701616e+01  -1.434609e+05   7.829782e+03   3.307041e+04  -6.656585e+09  -6.183749e+10  -1.423464e+10   1.474313e+05   3.152777e-25   0.000000e+00   0.000000e+00
     1216000   1.215999e-05   3.843224e-01   2.367030e+00   1.701876e+01  -1.438969e+05   2.867365e+03   3.196057e+04  -4.240592e+09  -6.220535e+10  -1.351045e+10   1.474314e+05   3.152166e-25   0.000000e+00   0.000000e+00
     1224000   1.223999e-05   3.727997e-01   2.367060e+00   1.702128e+01  -1.441394e+05  -2.120271e+03   3.090884e+04  -1.822428e+09  -6.246802e+10  -1.278249e+10   1.474314e+05   3.151350e-25   0.000000e+00   0.000000e+00
     1232000   1.231999e-05   3.612653e-01   2.366691e+00   1.702371e+01  -1.441885e+05  -7.124726e+03   2.991541e+04   5.934508e+08  -6.262591e+10  -1.205342e+10   1.474314e+05   3.150325e-25   0.000000e+00   0.000000e+00
     1240000   1.239999e-05   3.497347e-01   2.365920e+00   1.702607e+01  -1.440446e+05  -1.213764e+04   2.898026e+04   3.002673e+09  -6.267973e+10  -1.132580e+10   1.474314e+05   3.149084e-25   0.000000e+00   0.000000e+00
     1248000   1.247999e-05   3.382233e-01   2.364749e+00   1.702835e+01  -1.437083e+05  -1.715073e+04   2.810319e+04   5.400964e+09  -6.263040e+10  -1.060211e+10   1.474314e+05   3.147615e-25   0.000000e+00   0.000000e+00
     1256000   1.255999e-05   3.267465e-01   2.363176e+00   1.703057e+01  -1.431808e+05  -2.215579e+04   2.728377e+04   7.784157e+09  -6.247911e+10  -9.884689e+09   1.474314e+05   3.145911e-25   0.000000e+00   0.000000e+00
     1264000   1.263999e-05   3.153194e-01   2.361204e+00   1.703272e+01  -1.424633e+05  -2.714471e+04   2.652142e+04   1.014820e+10  -6.222730e+10  -9.175771e+09   1.474314e+05   3.143958e-25   0.000000e+00   0.000000e+00
     1272000   1.271999e-05   3.039574e-01   2.358834e+00   1.703481e+01  -1.415577e+05  -3.210951e+04   2.581537e+04   1.248917e+10  -6.187660e+10  -8.477449e+09   1.474314e+05   3.141745e-25   0.000000e+00   0.000000e+00
     1280000   1.279999e-05   2.926752e-01   2.356067e+00   1.703685e+01  -1.404644e+05  -3.704524e+04   2.516826e+04   1.483011e+10  -6.147829e+10  -7.721445e+09   1.474314e+05   3.143738e-25   0.000000e+00   0.000000e+00
     1288000   1.287999e-05   2.814880e-01   2.352908e+00   1.703884e+01  -1.391864e+05  -4.194171e+04   2.457768e+04   1.711215e+10  -6.091778e+10  -7.046063e+09   1.474315e+05   3.139336e-25   0.000000e+00   0.000000e+00
     1296000   1.295999e-05   2.704102e-01   2.349358e+00   1.704078e+01  -1.377274e+05  -4.678961e+04   2.404043e+04   1.935814e+10  -6.026469e+10  -6.388196e+09   1.474315e+05   3.134637e-25   0.000000e+00   0.000000e+00
     1304000   1.303999e-05   2.594563e-01   2.345423e+00   1.704269e+01  -1.360902e+05  -5.158165e+04   2.355507e+04   2.156479e+10  -5.952158e+10  -5.749305e+09   1.474315e+05   3.129629e-25   0.000000e+00   0.000000e+00
     1312000   1.311999e-05   2.486405e-01   2.341107e+00   1.704455e+01  -1.342781e+05  -5.631073e+04   2.312001e+04   2.372896e+10  -5.869115e+10  -5.130675e+09   1.474315e+05   3.124305e-25   0.000000e+00   0.000000e+00
     1320000   1.319999e-05   2.379764e-01   2.336415e+00   1.704639e+01  -1.322947e+05  -6.096997e+04   2.273359e+04   2.584768e+10  -5.777620e+10  -4.533414e+09   1.474315e+05   3.118656e-25   0.000000e+00   0.000000e+00
     1328000   1.327999e-05   2.274778e-01   2.331353e+00   1.704819e+01  -1.301437e+05  -6.555273e+04   2.239407e+04   2.791817e+10  -5.677965e+10  -3.958457e+09   1.474315e+05   3.112676e-25   0.000000e+00   0.000000e+00
     1336000   1.335999e-05   2.171578e-01   2.325929e+00   1.704997e+01  -1.278291e+05  -7.005261e+04   2.209963e+04   2.993779e+10  -5.570450e+10  -3.406558e+09   1.474315e+05   3.106361e-25   0.000000e+00   0.000000e+00
     1344000   1.343999e-05   2.070294e-01   2.320147e+00   1.705173e+01  -1.253551e+05  -7.446343e+04   2.184840e+04   3.190408e+10  -5.455384e+10  -2.878300e+09   1.474315e+05   3.099708e-25   0.000000e+00   0.000000e+00
     1352000   1.351999e-05   1.971051e-01   2.314017e+00   1.705347e+01  -1.227252e+05  -7.878030e+04   2.163905e+04   3.384574e+10  -5.337129e+10  -2.349523e+09   1.474315e+05   3.097596e-25   0.000000e+00   0.000000e+00
     1360000   1.359999e-05   1.873974e-01   2.307545e+00   1.705519e+01  -1.199434e+05  -8.299799e+04   2.147033e+04   3.568866e+10  -5.205994e+10  -1.872860e+09   1.474316e+05   3.088207e-25   0.000000e+00   0.000000e+00
     1368000   1.367999e-05   1.779180e-01   2.300740e+00   1.705690e+01  -1.170166e+05  -8.710815e+04   2.133873e+04   3.747005e+10  -5.068396e+10  -1.421214e+09   1.474316e+05   3.078497e-25   0.000000e+00   0.000000e+00
     1376000   1.375999e-05   1.686785e-01   2.293611e+00   1.705861e+01  -1.139483e+05  -9.110755e+04   2.124285e+04   3.920736e+10  -4.926727e+10  -9.870350e+08   1.474316e+05   3.071193e-25   0.000000e+00   0.000000e+00
     1384000   1.383999e-05   1.596899e-01   2.286166e+00   1.706030e+01  -1.107454e+05  -9.498912e+04   2.118008e+04   4.085501e+10  -4.776298e+10  -5.863838e+08   1.474316e+05   3.059826e-25   0.000000e+00   0.000000e+00
     1392000   1.391999e-05   1.509627e-01   2.278416e+00   1.706200e+01  -1.074133e+05  -9.874818e+04   2.114839e+04   4.243583e+10  -4.620493e+10  -2.099619e+08   1.474316e+05   3.048180e-25   0.000000e+00   0.000000e+00
     1400000   1.399999e-05   1.425071e-01   2.270370e+00   1.706369e+01  -1.039575e+05  -1.023806e+05   2.114586e+04   4.394873e+10  -4.459654e+10   1.427823e+08   1.474316e+05   3.036270e-25   0.000000e+00   0.000000e+00
     1408000   1.407999e-05   1.343326e-01   2.262038e+00   1.706538e+01  -1.003833e+05  -1.058824e+05   2.117062e+04   4.539274e+10  -4.294115e+10   4.725269e+08   1.474316e+05   3.024115e-25   0.000000e+00   0.000000e+00
     1416000   1.415999e-05   1.264487e-01   2.253432e+00   1.706708e+01  -9.669646e+04  -1.092500e+05   2.122087e+04   4.676708e+10  -4.124209e+10   7.800672e+08   1.474316e+05   3.011733e-25   0.000000e+00   0.000000e+00
     1424000   1.423999e-05   1.188641e-01   2.244562e+00   1.706878e+01  -9.290246e+04  -1.124800e+05   2.129487e+04   4.807109e+10  -3.950262e+10   1.066306e+09   1.474316e+05   2.999144e-25   0.000000e+00   0.000000e+00
     1432000   1.431999e-05   1.115870e-01   2.235439e+00   1.707048e+01  -8.900696e+04  -1.155694e+05   2.139094e+04   4.930426e+10  -3.772594e+10   1.332244e+09   1.474316e+05   2.986371e-25   0.000000e+00   0.000000e+00
     1440000   1.439999e-05   1.046255e-01   2.226075e+00   1.707220e+01  -8.501567e+04  -1.185152e+05   2.150752e+04   5.046619e+10  -3.591518e+10   1.578969e+09   1.474317e+05   2.973436e-25   0.000000e+00   0.000000e+00
     1448000   1.447999e-05   9.798695e-02   2.216481e+00   1.707393e+01  -8.093338e+04  -1.213158e+05   2.164155e+04   5.159064e+10  -3.410694e+10   1.743478e+09   1.474317e+05   2.964676e-25   0.000000e+00   0.000000e+00
     1456000   1.455999e-05   9.167846e-02   2.206668e+00   1.707566e+01  -7.676545e+04  -1.239693e+05   2.178932e+04   5.259551e+10  -3.222658e+10   1.948142e+09   1.474317e+05   2.949742e-25   0.000000e+00   0.000000e+00
     1464000   1.463999e-05   8.570655e-02   2.196650e+00   1.707741e+01  -7.251919e+04  -1.264719e+05   2.195268e+04   5.355803e+10  -3.034059e+10   2.131367e+09   1.474317e+05   2.938065e-25   0.000000e+00   0.000000e+00
     1472000   1.471999e-05   8.007733e-02   2.186437e+00   1.707918e+01  -6.819998e+04  -1.288221e+05   2.213023e+04   5.441003e+10  -2.840967e+10   2.304923e+09   1.474317e+05   2.922046e-25   0.000000e+00   0.000000e+00
     1480000   1.479999e-05   7.479630e-02   2.176042e+00   1.708095e+01  -6.381550e+04  -1.310170e+05   2.232113e+04   5.518987e+10  -2.646198e+10   2.465670e+09   1.474317e+05   2.906064e-25   0.000000e+00   0.000000e+00
     1488000   1.487999e-05   6.986844e-02   2.165478e+00   1.708275e+01  -5.937150e+04  -1.330556e+05   2.252443e+04   5.589803e+10  -2.450018e+10   2.615023e+09   1.474317e+05   2.890149e-25   0.000000e+00   0.000000e+00
     1496000   1.495999e-05   6.529829e-02   2.154758e+00   1.708456e+01  -5.487370e+04  -1.349367e+05   2.273927e+04   5.653510e+10  -2.252681e+10   2.754412e+09   1.474317e+05   2.874330e-25   0.000000e+00   0.000000e+00
     1504000   1.503999e-05   6.108993e-02   2.143893e+00   1.708639e+01  -5.032776e+04  -1.366596e+05   2.296491e+04   5.710172e+10  -2.054432e+10   2.885271e+09   1.474317e+05   2.858638e-25   0.000000e+00   0.000000e+00
     1512000   1.511999e-05   5.724698e-02   2.132896e+00   1.708823e+01  -4.573928e+04  -1.382236e+05   2.320073e+04   5.759858e+10  -1.855503e+10   3.009027e+09   1.474318e+05   2.843102e-25   0.000000e+00   0.000000e+00
     1520000   1.519999e-05   5.377263e-02   2.121781e+00   1.709010e+01  -4.111382e+04  -1.396283e+05   2.344621e+04   5.802646e+10  -1.656117e+10   3.127096e+09   1.474318e+05   2.827753e-25   0.000000e+00   0.000000e+00
     1528000   1.527999e-05   5.066961e-02   2.110560e+00   1.709198e+01  -3.645686e+04  -1.408733e+05   2.370095e+04   5.838618e+10  -1.456487e+10   3.240868e+09   1.474318e+05   2.812622e-25   0.000000e+00   0.000000e+00
     1536000   1.535999e-05   4.794023e-02   2.099246e+00   1.709389e+01  -3.177388e+04  -1.419586e+05   2.396447e+04   5.866811e+10  -1.257212e+10   3.314439e+09   1.474318e+05   2.796674e-25   0.000000e+00   0.000000e+00
     1544000   1.543999e-05   4.558630e-02   2.087851e+00   1.709582e+01  -2.707134e+04  -1.428845e+05   2.423405e+04   5.888434e+10  -1.057579e+10   3.424795e+09   1.474318e+05   2.781146e-25   0.000000e+00   0.000000e+00
     1552000   1.551999e-05   4.360921e-02   2.076388e+00   1.709777e+01  -2.235412e+04  -1.436509e+05   2.451243e+04   5.903520e+10  -8.583811e+09   3.534699e+09   1.474318e+05   2.765958e-25   0.000000e+00   0.000000e+00
     1560000   1.559999e-05   4.200990e-02   2.064871e+00   1.709974e+01  -1.762742e+04  -1.442581e+05   2.479962e+04   5.912172e+10  -6.597868e+09   3.645349e+09   1.474318e+05   2.751140e-25   0.000000e+00   0.000000e+00
     1568000   1.567999e-05   4.078900e-02   2.053311e+00   1.710174e+01  -1.289447e+04  -1.447057e+05   2.510246e+04   5.917090e+10  -4.604171e+09   3.854712e+09   1.474318e+05   2.739565e-25   0.000000e+00   0.000000e+00
     1576000   1.575999e-05   3.994676e-02   2.041722e+00   1.710376e+01  -8.162034e+03  -1.449951e+05   2.541546e+04   5.912961e+10  -2.632681e+09   3.971097e+09   1.474318e+05   2.725438e-25   0.000000e+00   0.000000e+00
     1584000   1.583999e-05   3.948292e-02   2.030116e+00   1.710580e+01  -3.435366e+03  -1.451272e+05   2.573796e+04   5.902696e+10  -6.717600e+08   4.092150e+09   1.474318e+05   2.711782e-25   0.000000e+00   0.000000e+00
     1592000   1.591999e-05   3.939682e-02   2.018506e+00   1.710788e+01   1.280669e+03  -1.451029e+05   2.607036e+04   5.886397e+10   1.277291e+09   4.218896e+09   1.474318e+05   2.698631e-25   0.000000e+00   0.000000e+00
     1600000   1.599999e-05   3.968742e-02   2.006904e+00   1.710998e+01   5.981286e+03  -1.449232e+05   2.641316e+04   5.864168e+10   3.213256e+09   4.352274e+09   1.474319e+05   2.686019e-25   0.000000e+00   0.000000e+00
     1608000   1.607999e-05   4.035331e-02   1.995322e+00   1.711210e+01   1.066271e+04  -1.445892e+05   2.676599e+04   5.838840e+10   5.131976e+09   4.464036e+09   1.474319e+05   2.676227e-25   0.000000e+00   0.000000e+00
     1616000   1.615999e-05   4.139281e-02   1.983774e+00   1.711426e+01   1.532035e+04  -1.441023e+05   2.712897e+04   5.804324e+10   7.038920e+09   4.611891e+09   1.474319e+05   2.664117e-25   0.000000e+00   0.000000e+00
     1624000   1.623999e-05   4.280377e-02   1.972270e+00   1.711644e+01   1.994813e+04  -1.434634e+05   2.750412e+04   5.764211e+10   8.928873e+09   4.768318e+09   1.474319e+05   2.652687e-25   0.000000e+00   0.000000e+00
     1632000   1.631999e-05   4.458360e-02   1.960824e+00   1.711866e+01   2.454162e+04  -1.426741e+05   2.789215e+04   5.718598e+10   1.080097e+10   4.933873e+09   1.474319e+05   2.641972e-25   0.000000e+00   0.000000e+00
     1640000   1.639999e-05   4.672939e-02   1.949446e+00   1.712091e+01   2.909644e+04  -1.417358e+05   2.829380e+04   5.667576e+10   1.265441e+10   5.109012e+09   1.474319e+05   2.632010e-25   0.000000e+00   0.000000e+00
     1648000   1.647999e-05   4.923788e-02   1.938150e+00   1.712319e+01   3.360832e+04  -1.406499e+05   2.870986e+04   5.611234e+10   1.448846e+10   5.294089e+09   1.474319e+05   2.622840e-25   0.000000e+00   0.000000e+00
     1656000   1.655999e-05   5.210547e-02   1.926946e+00   1.712550e+01   3.807302e+04  -1.394181e+05   2.914113e+04   5.549655e+10   1.630242e+10   5.489354e+09   1.474319e+05   2.614501e-25   0.000000e+00   0.000000e+00
     1664000   1.663999e-05   5.532820e-02   1.915847e+00   1.712785e+01   4.248638e+04  -1.380420e+05   2.958843e+04   5.482918e+10   1.809568e+10   5.694950e+09   1.474319e+05   2.607032e-25   0.000000e+00   0.000000e+00
     1672000   1.671999e-05   5.890181e-02   1.904863e+00   1.713023e+01   4.684432e+04  -1.365234e+05   3.005260e+04   5.411096e+10   1.986763e+10   5.910916e+09   1.474319e+05   2.600474e-25   0.000000e+00   0.000000e+00
     1680000   1.679999e-05   6.282175e-02   1.894007e+00   1.713266e+01   5.114501e+04  -1.348634e+05   3.053240e+04   5.339118e+10   2.162618e+10   6.089329e+09   1.474319e+05   2.598718e-25   0.000000e+00   0.000000e+00
     1688000   1.687999e-05   6.708334e-02   1.883289e+00   1.713512e+01   5.538371e+04  -1.330641e+05   3.102872e+04   5.256855e+10   2.335355e+10   6.320295e+09   1.474320e+05   2.593604e-25   0.000000e+00   0.000000e+00
     1696000   1.695999e-05   7.168134e-02   1.872720e+00   1.713762e+01   5.955467e+04  -1.311274e+05   3.154390e+04   5.169752e+10   2.505768e+10   6.560844e+09   1.474320e+05   2.589561e-25   0.000000e+00   0.000000e+00
     1704000   1.703999e-05   7.661018e-02   1.862312e+00   1.714017e+01   6.365403e+04  -1.290554e+05   3.207870e+04   5.077860e+10   2.673815e+10   6.810594e+09   1.474320e+05   2.586628e-25   0.000000e+00   0.000000e+00
     1712000   1.711999e-05   8.186397e-02   1.852075e+00   1.714276e+01   6.767798e+04  -1.268500e+05   3.263383e+04   4.981224e+10   2.839456e+10   7.069054e+09   1.474320e+05   2.584849e-25   0.000000e+00   0.000000e+00
     1720000   1.719999e-05   8.743654e-02   1.842020e+00   1.714539e+01   7.162273e+04  -1.245130e+05   3.320997e+04   4.879883e+10   3.002650e+10   7.335629e+09   1.474320e+05   2.584265e-25   0.000000e+00   0.000000e+00
     1728000   1.727999e-05   9.332140e-02   1.832156e+00   1.714807e+01   7.548453e+04  -1.220464e+05   3.380774e+04   4.773868e+10   3.163357e+10   7.609621e+09   1.474320e+05   2.584919e-25   0.000000e+00   0.000000e+00
     1736000   1.735999e-05   9.951176e-02   1.822496e+00   1.715080e+01   7.925967e+04  -1.194522e+05   3.442769e+04   4.663207e+10   3.321538e+10   7.890228e+09   1.474320e+05   2.586851e-25   0.000000e+00   0.000000e+00
     1744000   1.743999e-05   1.060004e-01   1.813047e+00   1.715358e+01   8.294102e+04  -1.167306e+05   3.508489e+04   4.543188e+10   3.479731e+10   8.373351e+09   1.474320e+05   2.590689e-25   0.000000e+00   0.000000e+00
     1752000   1.751999e-05   1.127798e-01   1.803822e+00   1.715641e+01   8.652778e+04  -1.138855e+05   3.576634e+04   4.422951e+10   3.632516e+10   8.663524e+09   1.474320e+05   2.595183e-25   0.000000e+00   0.000000e+00
     1760000   1.759999e-05   1.198422e-01   1.794829e+00   1.715930e+01   9.001603e+04  -1.109200e+05   3.647028e+04   4.297106e+10   3.781051e+10   8.935763e+09   1.474320e+05   2.599188e-25   0.000000e+00   0.000000e+00
     1768000   1.767999e-05   1.271797e-01   1.786078e+00   1.716225e+01   9.340228e+04  -1.078361e+05   3.719662e+04   4.167772e+10   3.928021e+10   9.223032e+09   1.474320e+05   2.606187e-25   0.000000e+00   0.000000e+00
     1776000   1.775999e-05   1.347838e-01   1.777578e+00   1.716526e+01   9.668323e+04  -1.046359e+05   3.794599e+04   4.033864e+10   4.072174e+10   9.511384e+09   1.474321e+05   2.614630e-25   0.000000e+00   0.000000e+00
     1784000   1.783999e-05   1.426461e-01   1.769339e+00   1.716832e+01   9.985523e+04  -1.013214e+05   3.871844e+04   3.895379e+10   4.213450e+10   9.799504e+09   1.474321e+05   2.624553e-25   0.000000e+00   0.000000e+00
     1792000   1.791999e-05   1.507576e-01   1.761370e+00   1.717145e+01   1.029146e+05  -9.789512e+04   3.951387e+04   3.752313e+10   4.351780e+10   1.008599e+10   1.474321e+05   2.635990e-25   0.000000e+00   0.000000e+00
     1800000   1.799999e-05   1.591093e-01   1.753679e+00   1.717464e+01   1.058577e+05  -9.435937e+04   4.033211e+04   3.604657e+10   4.487091e+10   1.036936e+10   1.474321e+05   2.648975e-25   0.000000e+00   0.000000e+00
     1808000   1.807999e-05   1.676917e-01   1.746275e+00   1.717790e+01   1.086808e+05  -9.071659e+04   4.117285e+04   3.452402e+10   4.619303e+10   1.064804e+10   1.474321e+05   2.663541e-25   0.000000e+00   0.000000e+00
     1816000   1.815999e-05   1.764949e-01   1.739167e+00   1.718123e+01   1.113803e+05  -8.696932e+04   4.203564e+04   3.295534e+10   4.748325e+10   1.092040e+10   1.474321e+05   2.679716e-25   0.000000e+00   0.000000e+00
     1824000   1.823999e-05   1.855091e-01   1.732363e+00   1.718463e+01   1.139524e+05  -8.312013e+04   4.291990e+04   3.134040e+10   4.874062e+10   1.118472e+10   1.474321e+05   2.697528e-25   0.000000e+00   0.000000e+00
     1832000   1.831999e-05   1.947238e-01   1.725870e+00   1.718810e+01   1.163935e+05  -7.917171e+04   4.382493e+04   2.967907e+10   4.996405e+10   1.143923e+10   1.474321e+05   2.717001e-25   0.000000e+00   0.000000e+00
     1840000   1.839999e-05   2.041284e-01   1.719698e+00   1.719164e+01   1.186971e+05  -7.512449e+04   4.476109e+04   2.788997e+10   5.121732e+10   1.200268e+10   1.474321e+05   2.745672e-25   0.000000e+00   0.000000e+00
     1848000   1.847999e-05   2.137116e-01   1.713853e+00   1.719526e+01   1.208580e+05  -7.098107e+04   4.573043e+04   2.612582e+10   5.236166e+10   1.222836e+10   1.474321e+05   2.767905e-25   0.000000e+00   0.000000e+00
     1856000   1.855999e-05   2.234619e-01   1.708343e+00   1.719896e+01   1.228759e+05  -6.674764e+04   4.671722e+04   2.431525e+10   5.346737e+10   1.243861e+10   1.474322e+05   2.791818e-25   0.000000e+00   0.000000e+00
     1864000   1.863999e-05   2.333678e-01   1.703176e+00   1.720274e+01   1.247459e+05  -6.242593e+04   4.772540e+04   2.243298e+10   5.456253e+10   1.273393e+10   1.474322e+05   2.821055e-25   0.000000e+00   0.000000e+00
     1872000   1.871999e-05   2.434172e-01   1.698357e+00   1.720660e+01   1.264652e+05  -5.801809e+04   4.875128e+04   2.055441e+10   5.563818e+10   1.289484e+10   1.474322e+05   2.853512e-25   0.000000e+00   0.000000e+00
     1880000   1.879999e-05   2.535981e-01   1.693895e+00   1.721054e+01   1.280317e+05  -5.352670e+04   4.978988e+04   1.859844e+10   5.663935e+10   1.306623e+10   1.474322e+05   2.884707e-25   0.000000e+00   0.000000e+00
     1888000   1.887999e-05   2.638980e-01   1.689795e+00   1.721456e+01   1.294397e+05  -4.895696e+04   5.084124e+04   1.659462e+10   5.759650e+10   1.321338e+10   1.474322e+05   2.917768e-25   0.000000e+00   0.000000e+00
     1896000   1.895999e-05   2.743042e-01   1.686064e+00   1.721867e+01   1.306855e+05  -4.431248e+04   5.190332e+04   1.454311e+10   5.850756e+10   1.333402e+10   1.474322e+05   2.952698e-25   0.000000e+00   0.000000e+00
     1904000   1.903999e-05   2.848033e-01   1.682707e+00   1.722287e+01   1.317653e+05  -3.959703e+04   5.297391e+04   1.244414e+10   5.937029e+10   1.342586e+10   1.474322e+05   2.989493e-25   0.000000e+00   0.000000e+00
     1912000   1.911999e-05   2.953821e-01   1.679730e+00   1.722715e+01   1.326753e+05  -3.481458e+04   5.405063e+04   1.029807e+10   6.018230e+10   1.348663e+10   1.474322e+05   3.028147e-25   0.000000e+00   0.000000e+00
     1920000   1.919999e-05   3.060266e-01   1.677138e+00   1.723152e+01   1.334083e+05  -2.997196e+04   5.513781e+04   8.028733e+09   6.087673e+10   1.366639e+10   1.474322e+05   3.064825e-25   0.000000e+00   0.000000e+00
     1928000   1.927999e-05   3.167226e-01   1.674936e+00   1.723597e+01   1.339613e+05  -2.507404e+04   5.623094e+04   5.790938e+09   6.156148e+10   1.365571e+10   1.474322e+05   3.105582e-25   0.000000e+00   0.000000e+00
     1936000   1.935999e-05   3.274556e-01   1.673128e+00   1.724051e+01   1.343336e+05  -2.012369e+04   5.732172e+04   3.509655e+09   6.218717e+10   1.360760e+10   1.474323e+05   3.148101e-25   0.000000e+00   0.000000e+00
     1944000   1.943999e-05   3.382111e-01   1.671718e+00   1.724514e+01   1.345217e+05  -1.512574e+04   5.840709e+04   1.185967e+09   6.275095e+10   1.351989e+10   1.474323e+05   3.192361e-25   0.000000e+00   0.000000e+00
     1952000   1.951999e-05   3.489741e-01   1.670709e+00   1.724986e+01   1.345223e+05  -1.008526e+04   5.948379e+04  -1.178849e+09   6.324980e+10   1.339044e+10   1.474323e+05   3.238331e-25   0.000000e+00   0.000000e+00
     1960000   1.959999e-05   3.597296e-01   1.670105e+00   1.725466e+01   1.343320e+05  -5.007582e+03   6.054840e+04  -3.583306e+09   6.368058e+10   1.321721e+10   1.474323e+05   3.285979e-25   0.000000e+00   0.000000e+00
     1968000   1.967999e-05   3.704621e-01   1.669909e+00   1.725955e+01   1.339479e+05   1.017312e+02   6.159732e+04  -6.025691e+09   6.404003e+10   1.299824e+10   1.474323e+05   3.335266e-25   0.000000e+00   0.000000e+00
     1976000   1.975999e-05   3.811560e-01   1.670122e+00   1.726452e+01   1.333669e+05   5.236833e+03   6.262684e+04  -8.504045e+09   6.432473e+10   1.273167e+10   1.474323e+05   3.386148e-25   0.000000e+00   0.000000e+00
     1984000   1.983999e-05   3.917955e-01   1.670747e+00   1.726957e+01   1.325863e+05   1.039160e+04   6.363307e+04  -1.101616e+10   6.453117e+10   1.241577e+10   1.474323e+05   3.438577e-25   0.000000e+00   0.000000e+00
     1992000   1.991999e-05   4.023644e-01   1.671785e+00   1.727470e+01   1.316019e+05   1.556003e+04   6.461521e+04  -1.364972e+10   6.467613e+10   1.222640e+10   1.474323e+05   3.499780e-25   0.000000e+00   0.000000e+00
     2000000   1.999999e-05   4.128461e-01   1.673237e+00   1.727990e+01   1.304072e+05   2.073567e+04   6.557654e+04  -1.622028e+10   6.470028e+10   1.179818e+10   1.474324e+05   3.553701e-25   0.000000e+00   0.000000e+00
     2008000   2.007999e-05   4.232240e-01   1.675103e+00   1.728519e+01   1.290060e+05   2.590971e+04   6.650148e+04  -1.881461e+10   6.463558e+10   1.131635e+10   1.474324e+05   3.608989e-25   0.000000e+00   0.000000e+00
     2016000   2.015999e-05   4.334815e-01   1.677382e+00   1.729054e+01   1.273963e+05   3.107490e+04   6.738569e+04  -2.142930e+10   6.447836e+10   1.077978e+10   1.474324e+05   3.665582e-25   0.000000e+00   0.000000e+00
     2024000   2.023999e-05   4.436019e-01   1.680074e+00   1.729597e+01   1.255768e+05   3.622368e+04   6.822476e+04  -2.406064e+10   6.422491e+10   1.018755e+10   1.474324e+05   3.723408e-25   0.000000e+00   0.000000e+00
     2032000   2.031999e-05   4.535682e-01   1.683177e+00   1.730146e+01   1.235448e+05   4.134961e+04   6.901590e+04  -2.677461e+10   6.394088e+10   9.620741e+09   1.474324e+05   3.793372e-25   0.000000e+00   0.000000e+00
     2040000   2.039999e-05   4.633632e-01   1.686689e+00   1.730701e+01   1.212959e+05   4.644827e+04   6.975801e+04  -2.944999e+10   6.350791e+10   8.921987e+09   1.474324e+05   3.857101e-25   0.000000e+00   0.000000e+00
     2048000   2.047999e-05   4.729698e-01   1.690608e+00   1.731262e+01   1.188327e+05   5.150799e+04   7.044177e+04  -3.213083e+10   6.296694e+10   8.161957e+09   1.474324e+05   3.921915e-25   0.000000e+00   0.000000e+00
     2056000   2.055999e-05   4.823707e-01   1.694929e+00   1.731828e+01   1.161549e+05   5.651999e+04   7.106228e+04  -3.481199e+10   6.231411e+10   7.340650e+09   1.474324e+05   3.987721e-25   0.000000e+00   0.000000e+00
     2064000   2.063999e-05   4.915489e-01   1.699650e+00   1.732399e+01   1.132629e+05   6.147516e+04   7.161464e+04  -3.748795e+10   6.154567e+10   6.458388e+09   1.474325e+05   4.054420e-25   0.000000e+00   0.000000e+00
     2072000   2.071999e-05   5.004872e-01   1.704764e+00   1.732973e+01   1.101588e+05   6.635965e+04   7.209555e+04  -4.014960e+10   6.061043e+10   5.559270e+09   1.474325e+05   4.117615e-25   0.000000e+00   0.000000e+00
     2080000   2.079999e-05   5.091686e-01   1.710265e+00   1.733552e+01   1.068416e+05   7.116805e+04   7.250050e+04  -4.277664e+10   5.957951e+10   4.554737e+09   1.474325e+05   4.182507e-25   0.000000e+00   0.000000e+00
     2088000   2.087999e-05   5.175762e-01   1.716148e+00   1.734133e+01   1.033152e+05   7.588909e+04   7.282273e+04  -4.537657e+10   5.842587e+10   3.491495e+09   1.474325e+05   4.247953e-25   0.000000e+00   0.000000e+00
     2096000   2.095999e-05   5.256935e-01   1.722405e+00   1.734717e+01   9.958221e+04   8.051283e+04   7.305761e+04  -4.794266e+10   5.714682e+10   2.371279e+09   1.474325e+05   4.313844e-25   0.000000e+00   0.000000e+00
     2104000   2.103999e-05   5.335040e-01   1.729027e+00   1.735302e+01   9.564548e+04   8.502916e+04   7.320066e+04  -5.046790e+10   5.573991e+10   1.196228e+09   1.474325e+05   4.380062e-25   0.000000e+00   0.000000e+00
     2112000   2.111999e-05   5.409914e-01   1.736006e+00   1.735888e+01   9.150860e+04   8.942774e+04   7.324760e+04  -5.294497e+10   5.420306e+10  -3.111352e+07   1.474325e+05   4.446488e-25   0.000000e+00   0.000000e+00
     2120000   2.119999e-05   5.481401e-01   1.743332e+00   1.736474e+01   8.717574e+04   9.369812e+04   7.319435e+04  -5.536635e+10   5.253450e+10  -1.307784e+09   1.474326e+05   4.512997e-25   0.000000e+00   0.000000e+00
     2128000   2.127999e-05   5.549345e-01   1.750994e+00   1.737059e+01   8.265166e+04   9.782969e+04   7.303711e+04  -5.772426e+10   5.073288e+10  -2.630405e+09   1.474326e+05   4.579464e-25   0.000000e+00   0.000000e+00
     2136000   2.135999e-05   5.613594e-01   1.758981e+00   1.737642e+01   7.794174e+04   1.018118e+05   7.277235e+04  -6.001073e+10   4.879729e+10  -3.995185e+09   1.474326e+05   4.645755e-25   0.000000e+00   0.000000e+00
     2144000   2.143999e-05   5.674003e-01   1.767280e+00   1.738223e+01   7.305204e+04   1.056337e+05   7.239686e+04  -6.221764e+10   4.672733e+10  -5.397920e+09   1.474326e+05   4.711735e-25   0.000000e+00   0.000000e+00
     2152000   2.151999e-05   5.730431e-01   1.775878e+00   1.738800e+01   6.798924e+04   1.092846e+05   7.190778e+04  -6.433675e+10   4.452309e+10  -6.834004e+09   1.474326e+05   4.777268e-25   0.000000e+00   0.000000e+00
     2160000   2.159999e-05   5.782742e-01   1.784761e+00   1.739373e+01   6.276070e+04   1.127538e+05   7.130264e+04  -6.635975e+10   4.218527e+10  -8.298444e+09   1.474326e+05   4.842212e-25   0.000000e+00   0.000000e+00
     2168000   2.167999e-05   5.830806e-01   1.793913e+00   1.739941e+01   5.737445e+04   1.160306e+05   7.057940e+04  -6.827829e+10   3.971514e+10  -9.785877e+09   1.474327e+05   4.906422e-25   0.000000e+00   0.000000e+00
     2176000   2.175999e-05   5.874500e-01   1.803320e+00   1.740502e+01   5.183787e+04   1.191098e+05   6.972866e+04  -7.005608e+10   3.717977e+10  -1.142791e+10   1.474327e+05   4.972878e-25   0.000000e+00   0.000000e+00
     2184000   2.183999e-05   5.913711e-01   1.812965e+00   1.741056e+01   4.616499e+04   1.219765e+05   6.875269e+04  -7.174469e+10   3.446632e+10  -1.297291e+10   1.474327e+05   5.036960e-25   0.000000e+00   0.000000e+00
     2192000   2.191999e-05   5.948330e-01   1.822831e+00   1.741602e+01   4.036215e+04   1.246210e+05   6.765281e+04  -7.330398e+10   3.162692e+10  -1.452425e+10   1.474327e+05   5.099824e-25   0.000000e+00   0.000000e+00
     2200000   2.199999e-05   5.978258e-01   1.832898e+00   1.742138e+01   3.444000e+04   1.270335e+05   6.642881e+04  -7.472598e+10   2.866541e+10  -1.607491e+10   1.474327e+05   5.161313e-25   0.000000e+00   0.000000e+00
     2208000   2.207999e-05   6.003405e-01   1.843150e+00   1.742664e+01   2.841024e+04   1.292046e+05   6.508026e+04  -7.596879e+10   2.561222e+10  -1.768367e+10   1.474327e+05   5.220080e-25   0.000000e+00   0.000000e+00
     2216000   2.215999e-05   6.023690e-01   1.853565e+00   1.743179e+01   2.228730e+04   1.311269e+05   6.360368e+04  -7.707850e+10   2.242779e+10  -1.922761e+10   1.474328e+05   5.277276e-25   0.000000e+00   0.000000e+00
     2224000   2.223999e-05   6.039043e-01   1.864123e+00   1.743681e+01   1.608191e+04   1.327903e+05   6.200439e+04  -7.802905e+10   1.913955e+10  -2.075048e+10   1.474328e+05   5.332758e-25   0.000000e+00   0.000000e+00
     2232000   2.231999e-05   6.049403e-01   1.874804e+00   1.744171e+01   9.807062e+03   1.341866e+05   6.028435e+04  -7.881401e+10   1.575426e+10  -2.224470e+10   1.474328e+05   5.386383e-25   0.000000e+00   0.000000e+00
     2240000   2.239999e-05   6.054719e-01   1.885586e+00   1.744646e+01   3.476238e+03   1.353085e+05   5.844619e+04  -7.942747e+10   1.227941e+10  -2.370266e+10   1.474328e+05   5.438005e-25   0.000000e+00   0.000000e+00
     2248000   2.247999e-05   6.054953e-01   1.896446e+00   1.745105e+01  -2.896619e+03   1.361491e+05   5.649308e+04  -7.986401e+10   8.723231e+09  -2.511679e+10   1.474328e+05   5.487486e-25   0.000000e+00   0.000000e+00
     2256000   2.255999e-05   6.050077e-01   1.907362e+00   1.745549e+01  -9.295771e+03   1.367025e+05   5.442864e+04  -8.008963e+10   5.098218e+09  -2.648169e+10   1.474329e+05   5.531179e-25   0.000000e+00   0.000000e+00
     2264000   2.263999e-05   6.040077e-01   1.918310e+00   1.745976e+01  -1.570657e+04   1.369631e+05   5.225776e+04  -8.014919e+10   1.408416e+09  -2.777956e+10   1.474329e+05   5.574521e-25   0.000000e+00   0.000000e+00
     2272000   2.271999e-05   6.024948e-01   1.929268e+00   1.746385e+01  -2.211462e+04   1.369264e+05   4.998568e+04  -8.002063e+10  -2.332882e+09  -2.901072e+10   1.474329e+05   5.615406e-25   0.000000e+00   0.000000e+00
     2280000   2.279999e-05   6.004698e-01   1.940211e+00   1.746776e+01  -2.850478e+04   1.365887e+05   4.761799e+04  -7.970141e+10  -6.114995e+09  -3.016841e+10   1.474329e+05   5.653727e-25   0.000000e+00   0.000000e+00
     2288000   2.287999e-05   5.979347e-01   1.951114e+00   1.747147e+01  -3.486844e+04   1.359401e+05   4.517686e+04  -7.929956e+10  -1.004327e+10  -3.098257e+10   1.474329e+05   5.691963e-25   0.000000e+00   0.000000e+00
     2296000   2.295999e-05   5.948921e-01   1.961953e+00   1.747498e+01  -4.118591e+04   1.349829e+05   4.265932e+04  -7.860466e+10  -1.388888e+10  -3.194071e+10   1.474330e+05   5.724954e-25   0.000000e+00   0.000000e+00
     2304000   2.303999e-05   5.913466e-01   1.972703e+00   1.747829e+01  -4.743997e+04   1.337177e+05   4.006880e+04  -7.771466e+10  -1.774033e+10  -3.280636e+10   1.474330e+05   5.754963e-25   0.000000e+00   0.000000e+00
     2312000   2.311999e-05   5.873038e-01   1.983339e+00   1.748139e+01  -5.361505e+04   1.321446e+05   3.741289e+04  -7.663018e+10  -2.158489e+10  -3.357479e+10   1.474330e+05   5.781928e-25   0.000000e+00   0.000000e+00
     2320000   2.319999e-05   5.827707e-01   1.993838e+00   1.748428e+01  -5.969564e+04   1.302646e+05   3.469953e+04  -7.535268e+10  -2.540963e+10  -3.424187e+10   1.474330e+05   5.805802e-25   0.000000e+00   0.000000e+00
     2328000   2.327999e-05   5.777555e-01   2.004174e+00   1.748694e+01  -6.566305e+04   1.280821e+05   3.193490e+04  -7.378210e+10  -2.913150e+10  -3.486648e+10   1.474330e+05   5.815045e-25   0.000000e+00   0.000000e+00
     2336000   2.335999e-05   5.722681e-01   2.014323e+00   1.748938e+01  -7.150074e+04   1.256016e+05   2.912701e+04  -7.212974e+10  -3.287146e+10  -3.531242e+10   1.474331e+05   5.832153e-25   0.000000e+00   0.000000e+00
     2344000   2.343999e-05   5.663191e-01   2.024262e+00   1.749160e+01  -7.719894e+04   1.228242e+05   2.628785e+04  -7.029551e+10  -3.655268e+10  -3.564802e+10   1.474331e+05   5.846204e-25   0.000000e+00   0.000000e+00
     2352000   2.351999e-05   5.599204e-01   2.033967e+00   1.749359e+01  -8.274328e+04   1.197551e+05   2.342631e+04  -6.828424e+10  -4.016229e+10  -3.587199e+10   1.474331e+05   5.857210e-25   0.000000e+00   0.000000e+00
     2360000   2.359999e-05   5.530847e-01   2.043415e+00   1.749535e+01  -8.811982e+04   1.164005e+05   2.055133e+04  -6.610151e+10  -4.368765e+10  -3.598379e+10   1.474331e+05   5.865195e-25   0.000000e+00   0.000000e+00
     2368000   2.367999e-05   5.458260e-01   2.052584e+00   1.749688e+01  -9.331509e+04   1.127676e+05   1.767188e+04  -6.375365e+10  -4.711640e+10  -3.598365e+10   1.474331e+05   5.870195e-25   0.000000e+00   0.000000e+00
     2376000   2.375999e-05   5.381594e-01   2.061451e+00   1.749818e+01  -9.831616e+04   1.088647e+05   1.479690e+04  -6.124770e+10  -5.043656e+10  -3.587251e+10   1.474332e+05   5.872255e-25   0.000000e+00   0.000000e+00
     2384000   2.383999e-05   5.301010e-01   2.069995e+00   1.749925e+01  -1.031107e+05   1.047009e+05   1.193520e+04  -5.859134e+10  -5.363662e+10  -3.565205e+10   1.474332e+05   5.871433e-25   0.000000e+00   0.000000e+00
     2392000   2.391999e-05   5.216676e-01   2.078196e+00   1.750009e+01  -1.076869e+05   1.002865e+05   9.094789e+03  -5.578244e+10  -5.668845e+10  -3.539126e+10   1.474332e+05   5.869036e-25   0.000000e+00   0.000000e+00
     2400000   2.399999e-05   5.128772e-01   2.086035e+00   1.750070e+01  -1.120334e+05   9.563274e+04   6.281296e+03  -5.285965e+10  -5.962991e+10  -3.492876e+10   1.474332e+05   5.862907e-25   0.000000e+00   0.000000e+00
     2408000   2.407999e-05   5.037486e-01   2.093491e+00   1.750109e+01  -1.161411e+05   9.074969e+04   3.508915e+03  -4.981238e+10  -6.242011e+10  -3.436416e+10   1.474332e+05   5.854043e-25   0.000000e+00   0.000000e+00
     2416000   2.415999e-05   4.943012e-01   2.100549e+00   1.750126e+01  -1.200033e+05   8.564549e+04   7.888273e+02  -4.664742e+10  -6.504960e+10  -3.367652e+10   1.474333e+05   5.840957e-25   0.000000e+00   0.000000e+00
     2424000   2.423999e-05   4.845551e-01   2.107189e+00   1.750122e+01  -1.236051e+05   8.034208e+04  -1.874160e+03  -4.338041e+10  -6.750625e+10  -3.288361e+10   1.474333e+05   5.824497e-25   0.000000e+00   0.000000e+00
     2432000   2.431999e-05   4.745314e-01   2.113398e+00   1.750097e+01  -1.269417e+05   7.484924e+04  -4.470283e+03  -4.002069e+10  -6.978420e+10  -3.200601e+10   1.474333e+05   5.805593e-25   0.000000e+00   0.000000e+00
     2440000   2.439999e-05   4.642517e-01   2.119161e+00   1.750051e+01  -1.300062e+05   6.918152e+04  -6.993028e+03  -3.657904e+10  -7.187702e+10  -3.105029e+10   1.474333e+05   5.784357e-25   0.000000e+00   0.000000e+00
     2448000   2.447999e-05   4.537378e-01   2.124463e+00   1.749985e+01  -1.327931e+05   6.335294e+04  -9.433106e+03  -3.310996e+10  -7.384105e+10  -2.982546e+10   1.474333e+05   5.761026e-25   0.000000e+00   0.000000e+00
     2456000   2.455999e-05   4.430123e-01   2.129293e+00   1.749900e+01  -1.352990e+05   5.737654e+04  -1.177776e+04  -2.952797e+10  -7.553622e+10  -2.878104e+10   1.474334e+05   5.735967e-25   0.000000e+00   0.000000e+00
     2464000   2.463999e-05   4.320977e-01   2.133640e+00   1.749797e+01  -1.375163e+05   5.127240e+04  -1.403655e+04  -2.589695e+10  -7.703386e+10  -2.768004e+10   1.474334e+05   5.708924e-25   0.000000e+00   0.000000e+00
     2472000   2.471999e-05   4.210174e-01   2.137494e+00   1.749676e+01  -1.394414e+05   4.505644e+04  -1.620524e+04  -2.222788e+10  -7.833137e+10  -2.652960e+10   1.474334e+05   5.679997e-25   0.000000e+00   0.000000e+00
     2480000   2.479999e-05   4.097949e-01   2.140846e+00   1.749538e+01  -1.410720e+05   3.874475e+04  -1.828015e+04  -1.853162e+10  -7.942709e+10  -2.533697e+10   1.474334e+05   5.649286e-25   0.000000e+00   0.000000e+00
     2488000   2.487999e-05   3.984538e-01   2.143691e+00   1.749383e+01  -1.424069e+05   3.235242e+04  -2.025414e+04  -1.489448e+10  -8.041833e+10  -2.373459e+10   1.474334e+05   5.616943e-25   0.000000e+00   0.000000e+00
     2496000   2.495999e-05   3.870176e-01   2.146021e+00   1.749214e+01  -1.434494e+05   2.589115e+04  -2.210279e+04  -1.117104e+10  -8.107939e+10  -2.247818e+10   1.474335e+05   5.579493e-25   0.000000e+00   0.000000e+00
     2504000   2.503999e-05   3.755099e-01   2.147832e+00   1.749030e+01  -1.441944e+05   1.938511e+04  -2.385016e+04  -7.455046e+09  -8.153777e+10  -2.120383e+10   1.474335e+05   5.540506e-25   0.000000e+00   0.000000e+00
     2512000   2.511999e-05   3.639544e-01   2.149122e+00   1.748833e+01  -1.446427e+05   1.285045e+04  -2.549510e+04  -3.756555e+09  -8.179566e+10  -1.991848e+10   1.474335e+05   5.500078e-25   0.000000e+00   0.000000e+00
     2520000   2.519999e-05   3.523749e-01   2.149888e+00   1.748622e+01  -1.447961e+05   6.303073e+03  -2.703699e+04  -8.527289e+07  -8.185603e+10  -1.862884e+10   1.474335e+05   5.458305e-25   0.000000e+00   0.000000e+00
     2528000   2.527999e-05   3.407948e-01   2.150130e+00   1.748400e+01  -1.446573e+05  -2.413476e+02  -2.847575e+04   3.549501e+09  -8.172254e+10  -1.734133e+10   1.474335e+05   5.415278e-25   0.000000e+00   0.000000e+00
     2536000   2.535999e-05   3.292374e-01   2.149850e+00   1.748167e+01  -1.442294e+05  -6.767478e+03  -2.981181e+04   7.138898e+09  -8.139956e+10  -1.606204e+10   1.474336e+05   5.371091e-25   0.000000e+00   0.000000e+00
     2544000   2.543999e-05   3.177257e-01   2.149048e+00   1.747924e+01  -1.435164e+05  -1.326035e+04  -3.104604e+04   1.067450e+10  -8.089202e+10  -1.479670e+10   1.474336e+05   5.325834e-25   0.000000e+00   0.000000e+00
     2552000   2.551999e-05   3.062823e-01   2.147729e+00   1.747671e+01  -1.425231e+05  -1.970542e+04  -3.217978e+04   1.414838e+10  -8.020544e+10  -1.355063e+10   1.474336e+05   5.279599e-25   0.000000e+00   0.000000e+00
     2560000   2.559999e-05   2.949293e-01   2.145897e+00   1.747409e+01  -1.412558e+05  -2.609068e+04  -3.320771e+04   1.751687e+10  -7.939570e+10  -1.213388e+10   1.474336e+05   5.233937e-25   0.000000e+00   0.000000e+00
     2568000   2.567999e-05   2.836885e-01   2.143557e+00   1.747140e+01  -1.397209e+05  -3.240090e+04  -3.413092e+04   2.084002e+10  -7.833292e+10  -1.095186e+10   1.474336e+05   5.181695e-25   0.000000e+00   0.000000e+00
     2576000   2.575999e-05   2.725810e-01   2.140715e+00   1.746863e+01  -1.379237e+05  -3.861970e+04  -3.496091e+04   2.407646e+10  -7.711140e+10  -9.804092e+09   1.474337e+05   5.128773e-25   0.000000e+00   0.000000e+00
     2584000   2.583999e-05   2.616275e-01   2.137381e+00   1.746580e+01  -1.358711e+05  -4.473468e+04  -3.570057e+04   2.722036e+10  -7.573871e+10  -8.693971e+09   1.474337e+05   5.075272e-25   0.000000e+00   0.000000e+00
     2592000   2.591999e-05   2.508482e-01   2.133561e+00   1.746292e+01  -1.335710e+05  -5.073406e+04  -3.635302e+04   3.026646e+10  -7.422264e+10  -7.624396e+09   1.474337e+05   5.021294e-25   0.000000e+00   0.000000e+00
     2600000   2.599999e-05   2.402626e-01   2.129266e+00   1.745999e+01  -1.310312e+05  -5.660668e+04  -3.692161e+04   3.321003e+10  -7.257117e+10  -6.597785e+09   1.474337e+05   4.966941e-25   0.000000e+00   0.000000e+00
     2608000   2.607999e-05   2.298894e-01   2.124508e+00   1.745702e+01  -1.282602e+05  -6.234204e+04  -3.740985e+04   3.604685e+10  -7.079241e+10  -5.616074e+09   1.474337e+05   4.912316e-25   0.000000e+00   0.000000e+00
     2616000   2.615999e-05   2.197469e-01   2.119296e+00   1.745401e+01  -1.252666e+05  -6.793027e+04  -3.782141e+04   3.877325e+10  -6.889454e+10  -4.680732e+09   1.474337e+05   4.857521e-25   0.000000e+00   0.000000e+00
     2624000   2.623999e-05   2.098524e-01   2.113643e+00   1.745097e+01  -1.220595e+05  -7.336218e+04  -3.816003e+04   4.138602e+10  -6.688576e+10  -3.792771e+09   1.474338e+05   4.802657e-25   0.000000e+00   0.000000e+00
     2632000   2.631999e-05   2.002228e-01   2.107562e+00   1.744790e+01  -1.186479e+05  -7.862923e+04  -3.842952e+04   4.388246e+10  -6.477427e+10  -2.952767e+09   1.474338e+05   4.747824e-25   0.000000e+00   0.000000e+00
     2640000   2.639999e-05   1.908739e-01   2.101067e+00   1.744482e+01  -1.150442e+05  -8.372104e+04  -3.863088e+04   4.621630e+10  -6.252539e+10  -2.130094e+09   1.474338e+05   4.685720e-25   0.000000e+00   0.000000e+00
     2648000   2.647999e-05   1.818207e-01   2.094171e+00   1.744172e+01  -1.112535e+05  -8.863455e+04  -3.877236e+04   4.849698e+10  -6.025785e+10  -1.408038e+09   1.474338e+05   4.635409e-25   0.000000e+00   0.000000e+00
     2656000   2.655999e-05   1.730779e-01   2.086890e+00   1.743862e+01  -1.072886e+05  -9.335953e+04  -3.885728e+04   5.060526e+10  -5.785531e+10  -7.226853e+08   1.474338e+05   4.576318e-25   0.000000e+00   0.000000e+00
     2664000   2.663999e-05   1.646589e-01   2.079239e+00   1.743551e+01  -1.031600e+05  -9.788960e+04  -3.888919e+04   5.258726e+10  -5.538628e+10  -8.283124e+07   1.474338e+05   4.517777e-25   0.000000e+00   0.000000e+00
     2672000   2.671999e-05   1.565764e-01   2.071233e+00   1.743240e+01  -9.887799e+04  -1.022197e+05  -3.887170e+04   5.444283e+10  -5.285858e+10   5.128742e+08   1.474339e+05   4.459882e-25   0.000000e+00   0.000000e+00
     2680000   2.679999e-05   1.488423e-01   2.062889e+00   1.742929e+01  -9.445254e+04  -1.063456e+05  -3.880826e+04   5.617221e+10  -5.027981e+10   1.066056e+09   1.474339e+05   4.402722e-25   0.000000e+00   0.000000e+00
     2688000   2.687999e-05   1.414676e-01   2.054224e+00   1.742619e+01  -8.989377e+04  -1.102633e+05  -3.870221e+04   5.777597e+10  -4.765729e+10   1.578584e+09   1.474339e+05   4.346385e-25   0.000000e+00   0.000000e+00
     2696000   2.695999e-05   1.344626e-01   2.045253e+00   1.742310e+01  -8.521169e+04  -1.139697e+05  -3.855671e+04   5.925503e+10  -4.499805e+10   2.052544e+09   1.474339e+05   4.290950e-25   0.000000e+00   0.000000e+00
     2704000   2.703999e-05   1.278367e-01   2.035994e+00   1.742002e+01  -8.041624e+04  -1.174622e+05  -3.837477e+04   6.061058e+10  -4.230885e+10   2.490204e+09   1.474339e+05   4.236491e-25   0.000000e+00   0.000000e+00
     2712000   2.711999e-05   1.215987e-01   2.026465e+00   1.741696e+01  -7.551724e+04  -1.207385e+05  -3.815918e+04   6.184407e+10  -3.959614e+10   2.893987e+09   1.474339e+05   4.183079e-25   0.000000e+00   0.000000e+00
     2720000   2.719999e-05   1.157565e-01   2.016682e+00   1.741392e+01  -7.052439e+04  -1.237971e+05  -3.791256e+04   6.295720e+10  -3.686606e+10   3.266439e+09   1.474339e+05   4.130774e-25   0.000000e+00   0.000000e+00
     2728000   2.727999e-05   1.103171e-01   2.006663e+00   1.741089e+01  -6.544724e+04  -1.266367e+05  -3.763731e+04   6.395190e+10  -3.412443e+10   3.610206e+09   1.474340e+05   4.079634e-25   0.000000e+00   0.000000e+00
     2736000   2.735999e-05   1.052869e-01   1.996426e+00   1.740790e+01  -6.029515e+04  -1.292568e+05  -3.733566e+04   6.482924e+10  -3.137580e+10   3.926391e+09   1.474340e+05   4.029549e-25   0.000000e+00   0.000000e+00
     2744000   2.743999e-05   1.006716e-01   1.985988e+00   1.740492e+01  -5.507793e+04  -1.316567e+05  -3.700964e+04   6.558235e+10  -2.862286e+10   4.220515e+09   1.474340e+05   3.979545e-25   0.000000e+00   0.000000e+00
     2752000   2.751999e-05   9.647607e-02   1.975367e+00   1.740197e+01  -4.980055e+04  -1.338373e+05  -3.666418e+04   6.628217e+10  -2.588274e+10   4.449481e+09   1.474340e+05   3.936882e-25   0.000000e+00   0.000000e+00
     2760000   2.759999e-05   9.270467e-02   1.964580e+00   1.739906e+01  -4.447957e+04  -1.357958e+05  -3.630227e+04   6.668659e+10  -2.305445e+10   4.530226e+09   1.474340e+05   3.871894e-25   0.000000e+00   0.000000e+00
     2768000   2.767999e-05   8.936018e-02   1.953645e+00   1.739617e+01  -3.912688e+04  -1.375315e+05  -3.593000e+04   6.711337e+10  -2.034105e+10   4.774557e+09   1.474340e+05   3.826684e-25   0.000000e+00   0.000000e+00
     2776000   2.775999e-05   8.644517e-02   1.942581e+00   1.739331e+01  -3.374417e+04  -1.390508e+05  -3.553862e+04   6.743729e+10  -1.764578e+10   5.008531e+09   1.474340e+05   3.782915e-25   0.000000e+00   0.000000e+00
     2784000   2.783999e-05   8.396170e-02   1.931403e+00   1.739048e+01  -2.833957e+04  -1.403554e+05  -3.512885e+04   6.766131e+10  -1.497214e+10   5.234453e+09   1.474341e+05   3.740604e-25   0.000000e+00   0.000000e+00
     2792000   2.791999e-05   8.191121e-02   1.920129e+00   1.738769e+01  -2.292094e+04  -1.414470e+05  -3.470126e+04   6.778842e+10  -1.232336e+10   5.454550e+09   1.474341e+05   3.699765e-25   0.000000e+00   0.000000e+00
     2800000   2.799999e-05   8.029452e-02   1.908777e+00   1.738493e+01  -1.749593e+04  -1.423278e+05  -3.425622e+04   6.782165e+10  -9.702355e+09   5.670953e+09   1.474341e+05   3.660408e-25   0.000000e+00   0.000000e+00
     2808000   2.807999e-05   7.911184e-02   1.897362e+00   1.738221e+01  -1.207151e+04  -1.429999e+05  -3.379527e+04   6.778407e+10  -7.096382e+09   5.813796e+09   1.474341e+05   3.623826e-25   0.000000e+00   0.000000e+00
     2816000   2.815999e-05   7.836289e-02   1.885902e+00   1.737952e+01  -6.654418e+03  -1.434650e+05  -3.332160e+04   6.762896e+10  -4.537303e+09   6.028117e+09   1.474341e+05   3.586466e-25   0.000000e+00   0.000000e+00
     2824000   2.823999e-05   7.804671e-02   1.874413e+00   1.737688e+01  -1.253139e+03  -1.437268e+05  -3.283073e+04   6.738920e+10  -2.014179e+09   6.244077e+09   1.474341e+05   3.550644e-25   0.000000e+00   0.000000e+00
     2832000   2.831999e-05   7.816178e-02   1.862912e+00   1.737427e+01   4.125674e+03  -1.437883e+05  -3.232246e+04   6.706779e+10   4.711442e+08   6.463290e+09   1.474341e+05   3.516360e-25   0.000000e+00   0.000000e+00
     2840000   2.839999e-05   7.870605e-02   1.851413e+00   1.737170e+01   9.475606e+03  -1.436524e+05  -3.179647e+04   6.666768e+10   2.917050e+09   6.687227e+09   1.474341e+05   3.483617e-25   0.000000e+00   0.000000e+00
     2848000   2.847999e-05   7.967695e-02   1.839932e+00   1.736918e+01   1.479048e+04  -1.433226e+05  -3.125234e+04   6.619173e+10   5.322145e+09   6.917213e+09   1.474342e+05   3.452413e-25   0.000000e+00   0.000000e+00
     2856000   2.855999e-05   8.107143e-02   1.828486e+00   1.736670e+01   2.006433e+04  -1.428020e+05  -3.068952e+04   6.564273e+10   7.685239e+09   7.154420e+09   1.474342e+05   3.422748e-25   0.000000e+00   0.000000e+00
     2864000   2.863999e-05   8.288599e-02   1.817089e+00   1.736427e+01   2.529143e+04  -1.420941e+05  -3.010741e+04   6.502336e+10   1.000534e+10   7.399864e+09   1.474342e+05   3.394621e-25   0.000000e+00   0.000000e+00
     2872000   2.871999e-05   8.511666e-02   1.805756e+00   1.736189e+01   3.046625e+04  -1.412023e+05  -2.950530e+04   6.433619e+10   1.228163e+10   7.654401e+09   1.474342e+05   3.368034e-25   0.000000e+00   0.000000e+00
     2880000   2.879999e-05   8.775909e-02   1.794501e+00   1.735955e+01   3.558509e+04  -1.401292e+05  -2.888512e+04   6.362357e+10   1.453870e+10   7.848676e+09   1.474342e+05   3.346627e-25   0.000000e+00   0.000000e+00
     2888000   2.887999e-05   9.080863e-02   1.783340e+00   1.735727e+01   4.064254e+04  -1.388782e+05  -2.824659e+04   6.280244e+10   1.672800e+10   8.116108e+09   1.474342e+05   3.322548e-25   0.000000e+00   0.000000e+00
     2896000   2.895999e-05   9.426008e-02   1.772286e+00   1.735503e+01   4.563186e+04  -1.374539e+05  -2.758626e+04   6.192102e+10   1.887157e+10   8.393920e+09   1.474342e+05   3.300058e-25   0.000000e+00   0.000000e+00
     2904000   2.903999e-05   9.810779e-02   1.761352e+00   1.735285e+01   5.054834e+04  -1.358600e+05  -2.690328e+04   6.098142e+10   2.096927e+10   8.682320e+09   1.474342e+05   3.279162e-25   0.000000e+00   0.000000e+00
     2912000   2.911999e-05   1.023457e-01   1.750552e+00   1.735073e+01   5.538687e+04  -1.341024e+05  -2.618578e+04   5.997367e+10   2.296749e+10   9.230808e+09   1.474343e+05   3.260364e-25   0.000000e+00   0.000000e+00
     2920000   2.919999e-05   1.069675e-01   1.739900e+00   1.734866e+01   6.014308e+04  -1.321843e+05  -2.543570e+04   5.892280e+10   2.497679e+10   9.522690e+09   1.474343e+05   3.242444e-25   0.000000e+00   0.000000e+00
     2928000   2.927999e-05   1.119663e-01   1.729407e+00   1.734666e+01   6.481308e+04  -1.301073e+05  -2.466190e+04   5.781851e+10   2.693987e+10   9.824018e+09   1.474343e+05   3.226048e-25   0.000000e+00   0.000000e+00
     2936000   2.935999e-05   1.173352e-01   1.719087e+00   1.734472e+01   6.939265e+04  -1.278752e+05  -2.386361e+04   5.666243e+10   2.885681e+10   1.013449e+10   1.474343e+05   3.211183e-25   0.000000e+00   0.000000e+00
     2944000   2.943999e-05   1.230666e-01   1.708951e+00   1.734284e+01   7.387772e+04  -1.254915e+05  -2.304014e+04   5.545607e+10   3.072777e+10   1.045367e+10   1.474343e+05   3.197859e-25   0.000000e+00   0.000000e+00
     2952000   2.951999e-05   1.291530e-01   1.699012e+00   1.734103e+01   7.826435e+04  -1.229598e+05  -2.219109e+04   5.420578e+10   3.256253e+10   1.074550e+10   1.474343e+05   3.186396e-25   0.000000e+00   0.000000e+00
     2960000   2.959999e-05   1.355862e-01   1.689281e+00   1.733929e+01   8.254898e+04  -1.202833e+05  -2.131854e+04   5.290241e+10   3.434407e+10   1.106930e+10   1.474343e+05   3.176064e-25   0.000000e+00   0.000000e+00
     2968000   2.967999e-05   1.423580e-01   1.679770e+00   1.733762e+01   8.672749e+04  -1.174660e+05  -2.041983e+04   5.155296e+10   3.608063e+10   1.139929e+10   1.474343e+05   3.167354e-25   0.000000e+00   0.000000e+00
     2976000   2.975999e-05   1.494597e-01   1.670490e+00   1.733603e+01   9.079623e+04  -1.145115e+05  -1.949451e+04   5.015838e+10   3.777256e+10   1.173446e+10   1.474343e+05   3.160277e-25   0.000000e+00   0.000000e+00
     2984000   2.983999e-05   1.568824e-01   1.661452e+00   1.733451e+01   9.475163e+04  -1.114235e+05  -1.854220e+04   4.871949e+10   3.942020e+10   1.207371e+10   1.474344e+05   3.154847e-25   0.000000e+00   0.000000e+00
     2992000   2.991999e-05   1.646168e-01   1.652666e+00   1.733306e+01   9.859018e+04  -1.082055e+05  -1.756264e+04   4.723699e+10   4.102389e+10   1.241576e+10   1.474344e+05   3.151074e-25   0.000000e+00   0.000000e+00
     3000000   2.999999e-05   1.726536e-01   1.644143e+00   1.733170e+01   1.023084e+05  -1.048609e+05  -1.655564e+04   4.571148e+10   4.258395e+10   1.275925e+10   1.474344e+05   3.148973e-25   0.000000e+00   0.000000e+00
     3008000   3.007999e-05   1.809829e-01   1.635892e+00   1.733041e+01   1.059029e+05  -1.013932e+05  -1.552116e+04   4.414343e+10   4.410066e+10   1.310268e+10   1.474344e+05   3.148555e-25   0.000000e+00   0.000000e+00
     3016000   3.015999e-05   1.895947e-01   1.627923e+00   1.732921e+01   1.093702e+05  -9.780588e+04  -1.445925e+04   4.253322e+10   4.557425e+10   1.344443e+10   1.474344e+05   3.149833e-25   0.000000e+00   0.000000e+00
     3024000   3.023999e-05   1.984786e-01   1.620246e+00   1.732810e+01   1.127070e+05  -9.410242e+04  -1.337014e+04   4.088115e+10   4.700490e+10   1.378276e+10   1.474344e+05   3.152818e-25   0.000000e+00   0.000000e+00
     3032000   3.031999e-05   2.076242e-01   1.612870e+00   1.732707e+01   1.159094e+05  -9.028821e+04  -1.224530e+04   3.917523e+10   4.836039e+10   1.423940e+10   1.474344e+05   3.157072e-25   0.000000e+00   0.000000e+00
     3040000   3.039999e-05   2.170205e-01   1.605803e+00   1.732614e+01   1.189740e+05  -8.636557e+04  -1.109395e+04   3.743314e+10   4.969793e+10   1.454314e+10   1.474344e+05   3.162061e-25   0.000000e+00   0.000000e+00
     3048000   3.047999e-05   2.266563e-01   1.599054e+00   1.732530e+01   1.218978e+05  -8.233749e+04  -9.919062e+03   3.566117e+10   5.101179e+10   1.479910e+10   1.474344e+05   3.170045e-25   0.000000e+00   0.000000e+00
     3056000   3.055999e-05   2.365203e-01   1.592631e+00   1.732455e+01   1.246781e+05  -7.820597e+04  -8.724259e+03   3.384098e+10   5.226868e+10   1.506904e+10   1.474345e+05   3.178850e-25   0.000000e+00   0.000000e+00
     3064000   3.063999e-05   2.466009e-01   1.586544e+00   1.732391e+01   1.273112e+05  -7.397567e+04  -7.508345e+03   3.198005e+10   5.348111e+10   1.532653e+10   1.474345e+05   3.189346e-25   0.000000e+00   0.000000e+00
     3072000   3.071999e-05   2.568861e-01   1.580798e+00   1.732335e+01   1.297938e+05  -6.965017e+04  -6.272400e+03   3.007838e+10   5.464865e+10   1.556946e+10   1.474345e+05   3.201535e-25   0.000000e+00   0.000000e+00
     3080000   3.079999e-05   2.673638e-01   1.575402e+00   1.732290e+01   1.321227e+05  -6.523309e+04  -5.017676e+03   2.813597e+10   5.577078e+10   1.579566e+10   1.474345e+05   3.215418e-25   0.000000e+00   0.000000e+00
     3088000   3.087999e-05   2.780215e-01   1.570363e+00   1.732255e+01   1.342945e+05  -6.072807e+04  -3.745597e+03   2.615282e+10   5.684681e+10   1.600292e+10   1.474345e+05   3.230992e-25   0.000000e+00   0.000000e+00
     3096000   3.095999e-05   2.888466e-01   1.565688e+00   1.732230e+01   1.363060e+05  -5.613884e+04  -2.457773e+03   2.412893e+10   5.787593e+10   1.618893e+10   1.474345e+05   3.248254e-25   0.000000e+00   0.000000e+00
     3104000   3.103999e-05   2.998261e-01   1.561383e+00   1.732216e+01   1.381540e+05  -5.146918e+04  -1.155996e+03   2.206433e+10   5.885718e+10   1.635136e+10   1.474345e+05   3.267198e-25   0.000000e+00   0.000000e+00
     3112000   3.111999e-05   3.109467e-01   1.557454e+00   1.732212e+01   1.398326e+05  -4.673059e+04   1.689824e+02   1.992630e+10   5.968494e+10   1.662053e+10   1.474345e+05   3.280538e-25   0.000000e+00   0.000000e+00
     3120000   3.119999e-05   3.221948e-01   1.553908e+00   1.732219e+01   1.413412e+05  -4.192085e+04   1.502372e+03   1.778137e+10   6.054984e+10   1.670948e+10   1.474345e+05   3.300734e-25   0.000000e+00   0.000000e+00
     3128000   3.127999e-05   3.335567e-01   1.550749e+00   1.732236e+01   1.426766e+05  -3.704402e+04   2.841712e+03   1.559805e+10   6.136176e+10   1.676890e+10   1.474346e+05   3.322493e-25   0.000000e+00   0.000000e+00
     3136000   3.135999e-05   3.450183e-01   1.547983e+00   1.732264e+01   1.438358e+05  -3.210441e+04   4.184546e+03   1.337677e+10   6.211921e+10   1.679644e+10   1.474346e+05   3.345801e-25   0.000000e+00   0.000000e+00
     3144000   3.143999e-05   3.565656e-01   1.545614e+00   1.732303e+01   1.448159e+05  -2.710644e+04   5.528229e+03   1.111803e+10   6.282053e+10   1.678974e+10   1.474346e+05   3.370641e-25   0.000000e+00   0.000000e+00
     3152000   3.151999e-05   3.681840e-01   1.543647e+00   1.732353e+01   1.456137e+05  -2.205467e+04   6.869929e+03   8.822467e+09   6.346391e+10   1.674645e+10   1.474346e+05   3.396992e-25   0.000000e+00   0.000000e+00
     3160000   3.159999e-05   3.798589e-01   1.542086e+00   1.732413e+01   1.462265e+05  -1.695381e+04   8.206623e+03   6.490846e+09   6.404736e+10   1.666425e+10   1.474346e+05   3.424833e-25   0.000000e+00   0.000000e+00
     3168000   3.167999e-05   3.915753e-01   1.540935e+00   1.732484e+01   1.466513e+05  -1.180874e+04   9.535109e+03   4.124076e+09   6.456875e+10   1.654086e+10   1.474346e+05   3.454140e-25   0.000000e+00   0.000000e+00
     3176000   3.175999e-05   4.033180e-01   1.540198e+00   1.732565e+01   1.468852e+05  -6.625810e+03   1.085443e+04   1.713044e+09   6.496560e+10   1.647936e+10   1.474346e+05   3.481483e-25   0.000000e+00   0.000000e+00
     3184000   3.183999e-05   4.150717e-01   1.539876e+00   1.732657e+01   1.469252e+05  -1.413345e+03   1.216405e+04  -7.168623e+08   6.533450e+10   1.625369e+10   1.474346e+05   3.511117e-25   0.000000e+00   0.000000e+00
     3192000   3.191999e-05   4.268208e-01   1.539972e+00   1.732760e+01   1.467697e+05   3.825847e+03   1.345379e+04  -3.175574e+09   6.563338e+10   1.598214e+10   1.474347e+05   3.542067e-25   0.000000e+00   0.000000e+00
     3200000   3.199999e-05   4.385496e-01   1.540489e+00   1.732873e+01   1.464164e+05   9.086064e+03   1.471991e+04  -5.661346e+09   6.585970e+10   1.566276e+10   1.474347e+05   3.574303e-25   0.000000e+00   0.000000e+00
     3208000   3.207999e-05   4.502421e-01   1.541427e+00   1.732995e+01   1.458632e+05   1.436140e+04   1.595850e+04  -8.172217e+09   6.601080e+10   1.529371e+10   1.474347e+05   3.607789e-25   0.000000e+00   0.000000e+00
     3216000   3.215999e-05   4.618823e-01   1.542787e+00   1.733128e+01   1.451082e+05   1.964571e+04   1.716553e+04  -1.070599e+10   6.608387e+10   1.487331e+10   1.474347e+05   3.642491e-25   0.000000e+00   0.000000e+00
     3224000   3.223999e-05   4.734540e-01   1.544570e+00   1.733270e+01   1.441496e+05   2.493266e+04   1.833682e+04  -1.326020e+10   6.607603e+10   1.439999e+10   1.474347e+05   3.678369e-25   0.000000e+00   0.000000e+00
     3232000   3.231999e-05   4.849408e-01   1.546776e+00   1.733421e+01   1.429860e+05   3.021564e+04   1.946808e+04  -1.583216e+10   6.598430e+10   1.387236e+10   1.474347e+05   3.715386e-25   0.000000e+00   0.000000e+00
     3240000   3.239999e-05   4.963262e-01   1.549404e+00   1.733581e+01   1.416161e+05   3.548782e+04   2.055491e+04  -1.841887e+10   6.580560e+10   1.328920e+10   1.474347e+05   3.753499e-25   0.000000e+00   0.000000e+00
     3248000   3.247999e-05   5.075938e-01   1.552453e+00   1.733750e+01   1.400391e+05   4.073816e+04   2.159733e+04  -2.100429e+10   6.545606e+10   1.272898e+10   1.474347e+05   3.785617e-25   0.000000e+00   0.000000e+00
     3256000   3.255999e-05   5.187270e-01   1.555922e+00   1.733927e+01   1.382551e+05   4.595995e+04   2.258773e+04  -2.359585e+10   6.507309e+10   1.202161e+10   1.474348e+05   3.822863e-25   0.000000e+00   0.000000e+00
     3264000   3.263999e-05   5.297091e-01   1.559806e+00   1.734111e+01   1.362637e+05   5.114731e+04   2.351927e+04  -2.618867e+10   6.459472e+10   1.125757e+10   1.474348e+05   3.861021e-25   0.000000e+00   0.000000e+00
     3272000   3.271999e-05   5.405236e-01   1.564104e+00   1.734303e+01   1.340650e+05   5.629248e+04   2.438741e+04  -2.877861e+10   6.401804e+10   1.043653e+10   1.474348e+05   3.900044e-25   0.000000e+00   0.000000e+00
     3280000   3.279999e-05   5.511540e-01   1.568812e+00   1.734501e+01   1.316593e+05   6.138749e+04   2.518758e+04  -3.136124e+10   6.334024e+10   9.558393e+09   1.474348e+05   3.939884e-25   0.000000e+00   0.000000e+00
     3288000   3.287999e-05   5.615836e-01   1.573924e+00   1.734706e+01   1.290475e+05   6.642414e+04   2.591523e+04  -3.393185e+10   6.255851e+10   8.623378e+09   1.474348e+05   3.980488e-25   0.000000e+00   0.000000e+00
     3296000   3.295999e-05   5.717961e-01   1.579438e+00   1.734916e+01   1.262307e+05   7.139400e+04   2.656581e+04  -3.648542e+10   6.167018e+10   7.631986e+09   1.474348e+05   4.021805e-25   0.000000e+00   0.000000e+00
     3304000   3.303999e-05   5.817751e-01   1.585346e+00   1.735130e+01   1.232104e+05   7.628845e+04   2.713485e+04  -3.901665e+10   6.067269e+10   6.585037e+09   1.474348e+05   4.063778e-25   0.000000e+00   0.000000e+00
     3312000   3.311999e-05   5.915044e-01   1.591642e+00   1.735350e+01   1.199887e+05   8.109865e+04   2.761795e+04  -4.151994e+10   5.956363e+10   5.483680e+09   1.474349e+05   4.106351e-25   0.000000e+00   0.000000e+00
     3320000   3.319999e-05   6.009680e-01   1.598319e+00   1.735572e+01   1.165687e+05   8.581469e+04   2.801119e+04  -4.392029e+10   5.823308e+10   4.374278e+09   1.474349e+05   4.135331e-25   0.000000e+00   0.000000e+00
     3328000   3.327999e-05   6.101504e-01   1.605369e+00   1.735797e+01   1.129586e+05   9.041998e+04   2.831305e+04  -4.631964e+10   5.687570e+10   3.163034e+09   1.474349e+05   4.174943e-25   0.000000e+00   0.000000e+00
     3336000   3.335999e-05   6.190363e-01   1.612783e+00   1.736025e+01   1.091589e+05   9.491165e+04   2.851594e+04  -4.866323e+10   5.539735e+10   1.901548e+09   1.474349e+05   4.213850e-25   0.000000e+00   0.000000e+00
     3344000   3.343999e-05   6.276109e-01   1.620552e+00   1.736253e+01   1.051739e+05   9.928048e+04   2.861607e+04  -5.095064e+10   5.380439e+10   5.943863e+08   1.474349e+05   4.253074e-25   0.000000e+00   0.000000e+00
     3352000   3.351999e-05   6.358594e-01   1.628664e+00   1.736482e+01   1.010085e+05   1.035173e+05   2.860989e+04  -5.317546e+10   5.209607e+10  -7.555440e+08   1.474349e+05   4.292550e-25   0.000000e+00   0.000000e+00
     3360000   3.359999e-05   6.437675e-01   1.637111e+00   1.736711e+01   9.666770e+04   1.076127e+05   2.849411e+04  -5.533111e+10   5.027198e+10  -2.144976e+09   1.474349e+05   4.332210e-25   0.000000e+00   0.000000e+00
     3368000   3.367999e-05   6.513217e-01   1.645878e+00   1.736938e+01   9.215748e+04   1.115577e+05   2.826572e+04  -5.741092e+10   4.833211e+10  -3.570285e+09   1.474350e+05   4.371981e-25   0.000000e+00   0.000000e+00
     3376000   3.375999e-05   6.585084e-01   1.654955e+00   1.737163e+01   8.748413e+04   1.153428e+05   2.792200e+04  -5.940811e+10   4.627686e+10  -5.027493e+09   1.474350e+05   4.411787e-25   0.000000e+00   0.000000e+00
     3384000   3.383999e-05   6.653150e-01   1.664329e+00   1.737384e+01   8.265454e+04   1.189589e+05   2.746057e+04  -6.131591e+10   4.410705e+10  -6.512280e+09   1.474350e+05   4.451548e-25   0.000000e+00   0.000000e+00
     3392000   3.391999e-05   6.717291e-01   1.673984e+00   1.737602e+01   7.767613e+04   1.223969e+05   2.687941e+04  -6.312749e+10   4.182403e+10  -8.019997e+09   1.474350e+05   4.491179e-25   0.000000e+00   0.000000e+00
     3400000   3.399999e-05   6.777394e-01   1.683907e+00   1.737814e+01   7.255687e+04   1.256477e+05   2.617688e+04  -6.483610e+10   3.942959e+10  -9.545684e+09   1.474350e+05   4.530591e-25   0.000000e+00   0.000000e+00
     3408000   3.407999e-05   6.833347e-01   1.694083e+00   1.738020e+01   6.730526e+04   1.287027e+05   2.535175e+04  -6.643505e+10   3.692611e+10  -1.108409e+10   1.474350e+05   4.569688e-25   0.000000e+00   0.000000e+00
     3416000   3.415999e-05   6.885050e-01   1.704494e+00   1.738220e+01   6.193354e+04   1.315519e+05   2.440166e+04  -6.782138e+10   3.428136e+10  -1.267534e+10   1.474350e+05   4.597265e-25   0.000000e+00   0.000000e+00
     3424000   3.423999e-05   6.932412e-01   1.715125e+00   1.738411e+01   5.645322e+04   1.341866e+05   2.332571e+04  -6.916534e+10   3.157112e+10  -1.422270e+10   1.474351e+05   4.633863e-25   0.000000e+00   0.000000e+00
     3432000   3.431999e-05   6.975348e-01   1.725958e+00   1.738592e+01   5.087049e+04   1.366006e+05   2.212616e+04  -7.038086e+10   2.876395e+10  -1.576433e+10   1.474351e+05   4.669863e-25   0.000000e+00   0.000000e+00
     3440000   3.439999e-05   7.013781e-01   1.736975e+00   1.738764e+01   4.519935e+04   1.387858e+05   2.079991e+04  -7.133963e+10   2.584548e+10  -1.742408e+10   1.474351e+05   4.694329e-25   0.000000e+00   0.000000e+00
     3448000   3.447999e-05   7.047647e-01   1.748158e+00   1.738925e+01   3.945467e+04   1.407346e+05   1.934490e+04  -7.225352e+10   2.286104e+10  -1.894754e+10   1.474351e+05   4.726300e-25   0.000000e+00   0.000000e+00
     3456000   3.455999e-05   7.076890e-01   1.759486e+00   1.739073e+01   3.364263e+04   1.424414e+05   1.776893e+04  -7.302286e+10   1.979807e+10  -2.044706e+10   1.474351e+05   4.757419e-25   0.000000e+00   0.000000e+00
     3464000   3.463999e-05   7.101460e-01   1.770942e+00   1.739209e+01   2.777498e+04   1.439003e+05   1.607416e+04  -7.364330e+10   1.666285e+10  -2.191628e+10   1.474351e+05   4.787569e-25   0.000000e+00   0.000000e+00
     3472000   3.471999e-05   7.121318e-01   1.782504e+00   1.739330e+01   2.186377e+04   1.451057e+05   1.426329e+04  -7.411096e+10   1.346218e+10  -2.334887e+10   1.474352e+05   4.816634e-25   0.000000e+00   0.000000e+00
     3480000   3.479999e-05   7.136434e-01   1.794152e+00   1.739437e+01   1.592138e+04   1.460527e+05   1.233948e+04  -7.442241e+10   1.020338e+10  -2.473853e+10   1.474352e+05   4.844491e-25   0.000000e+00   0.000000e+00
     3488000   3.487999e-05   7.146788e-01   1.805865e+00   1.739527e+01   9.961311e+03   1.467369e+05   1.030533e+04  -7.455076e+10   6.894693e+09  -2.610490e+10   1.474352e+05   4.869292e-25   0.000000e+00   0.000000e+00
     3496000   3.495999e-05   7.152371e-01   1.817622e+00   1.739601e+01   3.996817e+03   1.471547e+05   8.165387e+03  -7.453471e+10   3.544308e+09  -2.738349e+10   1.474352e+05   4.893320e-25   0.000000e+00   0.000000e+00
     3504000   3.503999e-05   7.153185e-01   1.829402e+00   1.739658e+01  -1.959920e+03   1.473031e+05   5.925616e+03  -7.435662e+10   1.615840e+08  -2.859978e+10   1.474352e+05   4.915814e-25   0.000000e+00   0.000000e+00
     3512000   3.511999e-05   7.149241e-01   1.841184e+00   1.739696e+01  -7.895892e+03   1.471799e+05   3.591220e+03  -7.401551e+10  -3.244481e+09  -2.974823e+10   1.474353e+05   4.936650e-25   0.000000e+00   0.000000e+00
     3520000   3.519999e-05   7.140560e-01   1.852944e+00   1.739715e+01  -1.379804e+04   1.467835e+05   1.167837e+03  -7.351105e+10  -6.664558e+09  -3.082360e+10   1.474353e+05   4.955708e-25   0.000000e+00   0.000000e+00
     3528000   3.527999e-05   7.127176e-01   1.864662e+00   1.739714e+01  -1.965330e+04   1.461134e+05  -1.338486e+03  -7.284351e+10  -1.008904e+10  -3.182097e+10   1.474353e+05   4.972869e-25   0.000000e+00   0.000000e+00
     3536000   3.535999e-05   7.109131e-01   1.876315e+00   1.739693e+01  -2.544867e+04   1.451694e+05  -3.921327e+03  -7.201383e+10  -1.350808e+10  -3.273584e+10   1.474353e+05   4.988017e-25   0.000000e+00   0.000000e+00
     3544000   3.543999e-05   7.086478e-01   1.887882e+00   1.739651e+01  -3.117123e+04   1.439525e+05  -6.573920e+03  -7.102362e+10  -1.691167e+10  -3.356413e+10   1.474353e+05   5.001042e-25   0.000000e+00   0.000000e+00
     3552000   3.551999e-05   7.059280e-01   1.899340e+00   1.739588e+01  -3.680822e+04   1.424642e+05  -9.289190e+03  -6.987513e+10  -2.028969e+10  -3.430222e+10   1.474353e+05   5.011838e-25   0.000000e+00   0.000000e+00
     3560000   3.559999e-05   7.027612e-01   1.910669e+00   1.739503e+01  -4.234511e+04   1.407075e+05  -1.206081e+04  -6.854525e+10  -2.362408e+10  -3.495576e+10   1.474354e+05   5.017731e-25   0.000000e+00   0.000000e+00
     3568000   3.567999e-05   6.991557e-01   1.921846e+00   1.739395e+01  -4.777462e+04   1.386850e+05  -1.487453e+04  -6.726362e+10  -2.694789e+10  -3.521719e+10   1.474354e+05   5.027322e-25   0.000000e+00   0.000000e+00
     3576000   3.575999e-05   6.951201e-01   1.932851e+00   1.739265e+01  -5.309306e+04   1.363990e+05  -1.770958e+04  -6.567354e+10  -3.019051e+10  -3.564237e+10   1.474354e+05   5.030441e-25   0.000000e+00   0.000000e+00
     3584000   3.583999e-05   6.906643e-01   1.943663e+00   1.739112e+01  -5.827856e+04   1.338562e+05  -2.057466e+04  -6.394078e+10  -3.336670e+10  -3.596801e+10   1.474354e+05   5.030907e-25   0.000000e+00   0.000000e+00
     3592000   3.591999e-05   6.857994e-01   1.954262e+00   1.738935e+01  -6.331991e+04   1.310623e+05  -2.346179e+04  -6.207071e+10  -3.646668e+10  -3.619342e+10   1.474354e+05   5.028660e-25   0.000000e+00   0.000000e+00
     3600000   3.599999e-05   6.805373e-01   1.964627e+00   1.738736e+01  -6.820635e+04   1.280238e+05  -2.636293e+04  -6.006924e+10  -3.948093e+10  -3.631845e+10   1.474354e+05   5.023651e-25   0.000000e+00   0.000000e+00
     3608000   3.607999e-05   6.748908e-01   1.974739e+00   1.738514e+01  -7.292763e+04   1.247479e+05  -2.927008e+04  -5.794279e+10  -4.240027e+10  -3.634357e+10   1.474355e+05   5.015843e-25   0.000000e+00   0.000000e+00
     3616000   3.615999e-05   6.688735e-01   1.984580e+00   1.738268e+01  -7.747403e+04   1.212425e+05  -3.217527e+04  -5.569825e+10  -4.521593e+10  -3.626980e+10   1.474355e+05   5.005211e-25   0.000000e+00   0.000000e+00
     3624000   3.623999e-05   6.624999e-01   1.994132e+00   1.737999e+01  -8.183637e+04   1.175163e+05  -3.507065e+04  -5.334294e+10  -4.791961e+10  -3.609875e+10   1.474355e+05   4.991739e-25   0.000000e+00   0.000000e+00
     3632000   3.631999e-05   6.557849e-01   2.003377e+00   1.737707e+01  -8.600432e+04   1.135794e+05  -3.795000e+04  -5.082486e+10  -5.047342e+10  -3.588008e+10   1.474355e+05   4.971010e-25   0.000000e+00   0.000000e+00
     3640000   3.639999e-05   6.487446e-01   2.012299e+00   1.737392e+01  -8.996908e+04   1.094425e+05  -4.080617e+04  -4.827951e+10  -5.292819e+10  -3.550917e+10   1.474355e+05   4.951719e-25   0.000000e+00   0.000000e+00
     3648000   3.647999e-05   6.413954e-01   2.020883e+00   1.737054e+01  -9.372672e+04   1.051144e+05  -4.362908e+04  -4.564817e+10  -5.524974e+10  -3.504901e+10   1.474355e+05   4.929659e-25   0.000000e+00   0.000000e+00
     3656000   3.655999e-05   6.337540e-01   2.029113e+00   1.736694e+01  -9.727069e+04   1.006062e+05  -4.641173e+04  -4.293925e+10  -5.743209e+10  -3.450331e+10   1.474356e+05   4.904861e-25   0.000000e+00   0.000000e+00
     3664000   3.663999e-05   6.258379e-01   2.036975e+00   1.736311e+01  -1.005951e+05   9.592914e+04  -4.914743e+04  -4.016133e+10  -5.946994e+10  -3.387621e+10   1.474356e+05   4.877367e-25   0.000000e+00   0.000000e+00
     3672000   3.671999e-05   6.176648e-01   2.044457e+00   1.735907e+01  -1.036949e+05   9.109498e+04  -5.182986e+04  -3.732312e+10  -6.135863e+10  -3.317219e+10   1.474356e+05   4.847230e-25   0.000000e+00   0.000000e+00
     3680000   3.679999e-05   6.092528e-01   2.051547e+00   1.735482e+01  -1.065654e+05   8.611583e+04  -5.445305e+04  -3.443337e+10  -6.309422e+10  -3.239611e+10   1.474356e+05   4.814511e-25   0.000000e+00   0.000000e+00
     3688000   3.687999e-05   6.006205e-01   2.058232e+00   1.735036e+01  -1.092030e+05   8.100406e+04  -5.701145e+04  -3.150085e+10  -6.467347e+10  -3.155307e+10   1.474356e+05   4.779281e-25   0.000000e+00   0.000000e+00
     3696000   3.695999e-05   5.917863e-01   2.064504e+00   1.734570e+01  -1.116134e+05   7.577023e+04  -5.948605e+04  -2.864982e+10  -6.611648e+10  -3.046123e+10   1.474357e+05   4.740192e-25   0.000000e+00   0.000000e+00
     3704000   3.703999e-05   5.827687e-01   2.070353e+00   1.734085e+01  -1.137856e+05   7.042992e+04  -6.188482e+04  -2.565294e+10  -6.736405e+10  -2.949947e+10   1.474357e+05   4.698462e-25   0.000000e+00   0.000000e+00
     3712000   3.711999e-05   5.735870e-01   2.075770e+00   1.733580e+01  -1.157174e+05   6.499632e+04  -6.420464e+04  -2.264023e+10  -6.844848e+10  -2.848845e+10   1.474357e+05   4.654438e-25   0.000000e+00   0.000000e+00
     3720000   3.719999e-05   5.642604e-01   2.080750e+00   1.733058e+01  -1.174079e+05   5.948251e+04  -6.644180e+04  -1.962023e+10  -6.936949e+10  -2.743398e+10   1.474357e+05   4.608228e-25   0.000000e+00   0.000000e+00
     3728000   3.727999e-05   5.548082e-01   2.085286e+00   1.732518e+01  -1.188567e+05   5.390154e+04  -6.859306e+04  -1.660122e+10  -7.012749e+10  -2.634192e+10   1.474357e+05   4.559945e-25   0.000000e+00   0.000000e+00
     3736000   3.735999e-05   5.452498e-01   2.089373e+00   1.731961e+01  -1.200643e+05   4.826643e+04  -7.065565e+04  -1.359127e+10  -7.072353e+10  -2.521815e+10   1.474357e+05   4.509705e-25   0.000000e+00   0.000000e+00
     3744000   3.743999e-05   5.356043e-01   2.093007e+00   1.731387e+01  -1.210317e+05   4.259005e+04  -7.262726e+04  -1.059814e+10  -7.115932e+10  -2.406845e+10   1.474357e+05   4.457630e-25   0.000000e+00   0.000000e+00
     3752000   3.751999e-05   5.258911e-01   2.096186e+00   1.730799e+01  -1.217606e+05   3.688514e+04  -7.450605e+04  -7.629271e+09  -7.143714e+10  -2.289856e+10   1.474358e+05   4.403844e-25   0.000000e+00   0.000000e+00
     3760000   3.759999e-05   5.161289e-01   2.098908e+00   1.730195e+01  -1.222532e+05   3.116424e+04  -7.629063e+04  -4.691774e+09  -7.155986e+10  -2.171408e+10   1.474358e+05   4.348475e-25   0.000000e+00   0.000000e+00
     3768000   3.767999e-05   5.063368e-01   2.101173e+00   1.729578e+01  -1.225128e+05   2.543965e+04  -7.797912e+04  -1.796564e+09  -7.153675e+10  -2.051604e+10   1.474358e+05   4.292180e-25   0.000000e+00   0.000000e+00
     3776000   3.775999e-05   4.965330e-01   2.102979e+00   1.728948e+01  -1.225454e+05   1.972302e+04  -7.956729e+04   9.358970e+08  -7.133960e+10  -1.912566e+10   1.474358e+05   4.225852e-25   0.000000e+00   0.000000e+00
     3784000   3.783999e-05   4.867354e-01   2.104329e+00   1.728306e+01  -1.223572e+05   1.402735e+04  -8.105097e+04   3.758220e+09  -7.102872e+10  -1.796701e+10   1.474358e+05   4.168547e-25   0.000000e+00   0.000000e+00
     3792000   3.791999e-05   4.769618e-01   2.105224e+00   1.727652e+01  -1.219455e+05   8.362110e+03  -8.244211e+04   6.526063e+09  -7.057970e+10  -1.681267e+10   1.474358e+05   4.110250e-25   0.000000e+00   0.000000e+00
     3800000   3.799999e-05   4.672300e-01   2.105668e+00   1.726987e+01  -1.213146e+05   2.738155e+03  -8.374122e+04   9.234209e+09  -6.999747e+10  -1.566685e+10   1.474359e+05   4.051091e-25   0.000000e+00   0.000000e+00
     3808000   3.807999e-05   4.575572e-01   2.105664e+00   1.726312e+01  -1.204697e+05  -2.834067e+03  -8.494913e+04   1.187785e+10  -6.928731e+10  -1.453349e+10   1.474359e+05   3.991197e-25   0.000000e+00   0.000000e+00
     3816000   3.815999e-05   4.479604e-01   2.105216e+00   1.725628e+01  -1.194160e+05  -8.344542e+03  -8.606699e+04   1.445259e+10  -6.845474e+10  -1.341627e+10   1.474359e+05   3.930698e-25   0.000000e+00   0.000000e+00
     3824000   3.823999e-05   4.384560e-01   2.104330e+00   1.724935e+01  -1.181592e+05  -1.378370e+04  -8.709624e+04   1.695446e+10  -6.750550e+10  -1.231855e+10   1.474359e+05   3.869718e-25   0.000000e+00   0.000000e+00
     3832000   3.831999e-05   4.290602e-01   2.103013e+00   1.724234e+01  -1.167053e+05  -1.914246e+04  -8.803855e+04   1.937988e+10  -6.644554e+10  -1.124339e+10   1.474359e+05   3.808384e-25   0.000000e+00   0.000000e+00
     3840000   3.839999e-05   4.197883e-01   2.101270e+00   1.723527e+01  -1.150605e+05  -2.441219e+04  -8.889585e+04   2.172568e+10  -6.528092e+10  -1.019357e+10   1.474359e+05   3.746816e-25   0.000000e+00   0.000000e+00
     3848000   3.847999e-05   4.106554e-01   2.099109e+00   1.722812e+01  -1.132312e+05  -2.958478e+04  -8.967042e+04   2.399299e+10  -6.401709e+10  -9.176625e+09   1.474359e+05   3.685280e-25   0.000000e+00   0.000000e+00
     3856000   3.855999e-05   4.016760e-01   2.096539e+00   1.722092e+01  -1.112242e+05  -3.465232e+04  -9.036459e+04   2.616864e+10  -6.265678e+10  -8.182729e+09   1.474359e+05   3.622981e-25   0.000000e+00   0.000000e+00
     3864000   3.863999e-05   3.928640e-01   2.093568e+00   1.721367e+01  -1.090493e+05  -3.960859e+04  -9.097679e+04   2.821684e+10  -6.122136e+10  -7.168636e+09   1.474360e+05   3.559476e-25   0.000000e+00   0.000000e+00
     3872000   3.871999e-05   3.842325e-01   2.090205e+00   1.720637e+01  -1.067112e+05  -4.444529e+04  -9.151338e+04   3.021921e+10  -5.968380e+10  -6.251653e+09   1.474360e+05   3.496588e-25   0.000000e+00   0.000000e+00
     3880000   3.879999e-05   3.757944e-01   2.086460e+00   1.719903e+01  -1.042176e+05  -4.915511e+04  -9.197742e+04   3.204420e+10  -5.798572e+10  -5.319976e+09   1.474360e+05   3.421488e-25   0.000000e+00   0.000000e+00
     3888000   3.887999e-05   3.675615e-01   2.082344e+00   1.719165e+01  -1.015800e+05  -5.372856e+04  -9.236949e+04   3.387972e+10  -5.634028e+10  -4.487005e+09   1.474360e+05   3.363180e-25   0.000000e+00   0.000000e+00
     3896000   3.895999e-05   3.595454e-01   2.077867e+00   1.718425e+01  -9.879922e+04  -5.816793e+04  -9.269618e+04   3.562371e+10  -5.463452e+10  -3.685811e+09   1.474360e+05   3.305376e-25   0.000000e+00   0.000000e+00
     3904000   3.903999e-05   3.517572e-01   2.073041e+00   1.717682e+01  -9.588262e+04  -6.246862e+04  -9.296007e+04   3.727581e+10  -5.287439e+10  -2.916892e+09   1.474360e+05   3.248163e-25   0.000000e+00   0.000000e+00
     3912000   3.911999e-05   3.442076e-01   2.067876e+00   1.716938e+01  -9.283753e+04  -6.662652e+04  -9.316375e+04   3.883598e+10  -5.106572e+10  -2.180530e+09   1.474360e+05   3.191623e-25   0.000000e+00   0.000000e+00
     3920000   3.919999e-05   3.369064e-01   2.062384e+00   1.716192e+01  -8.967129e+04  -7.063797e+04  -9.330982e+04   4.030442e+10  -4.921419e+10  -1.476795e+09   1.474360e+05   3.135832e-25   0.000000e+00   0.000000e+00
     3928000   3.927999e-05   3.298632e-01   2.056578e+00   1.715445e+01  -8.639124e+04  -7.449977e+04  -9.340089e+04   4.168161e+10  -4.732532e+10  -8.055681e+08   1.474361e+05   3.080862e-25   0.000000e+00   0.000000e+00
     3936000   3.935999e-05   3.230867e-01   2.050468e+00   1.714698e+01  -8.300464e+04  -7.820915e+04  -9.343956e+04   4.296827e+10  -4.540443e+10  -1.665481e+08   1.474361e+05   3.026777e-25   0.000000e+00   0.000000e+00
     3944000   3.943999e-05   3.165851e-01   2.044069e+00   1.713950e+01  -7.951869e+04  -8.176375e+04  -9.342838e+04   4.416531e+10  -4.345670e+10   4.407299e+08   1.474361e+05   2.973638e-25   0.000000e+00   0.000000e+00
     3952000   3.951999e-05   3.103662e-01   2.037390e+00   1.713203e+01  -7.594053e+04  -8.516162e+04  -9.336987e+04   4.527388e+10  -4.148708e+10   1.016882e+09   1.474361e+05   2.921498e-25   0.000000e+00   0.000000e+00
     3960000   3.959999e-05   3.044369e-01   2.030447e+00   1.712456e+01  -7.227719e+04  -8.840120e+04  -9.326648e+04   4.629530e+10  -3.950030e+10   1.562659e+09   1.474361e+05   2.870406e-25   0.000000e+00   0.000000e+00
     3968000   3.967999e-05   2.988039e-01   2.023251e+00   1.711711e+01  -6.853591e+04  -9.148087e+04  -9.312081e+04   4.721094e+10  -3.747565e+10   2.068537e+09   1.474361e+05   2.817432e-25   0.000000e+00   0.000000e+00
     3976000   3.975999e-05   2.934730e-01   2.015814e+00   1.710966e+01  -6.472441e+04  -9.439881e+04  -9.293558e+04   4.806249e+10  -3.547245e+10   2.557739e+09   1.474361e+05   2.768841e-25   0.000000e+00   0.000000e+00
     3984000   3.983999e-05   2.884497e-01   2.008151e+00   1.710224e+01  -6.084810e+04  -9.715636e+04  -9.271225e+04   4.883162e+10  -3.346626e+10   3.021316e+09   1.474361e+05   2.721445e-25   0.000000e+00   0.000000e+00
     3992000   3.991999e-05   2.837387e-01   2.000274e+00   1.709483e+01  -5.691912e+04  -9.974724e+04  -9.245601e+04   4.942693e+10  -3.135828e+10   3.401941e+09   1.474361e+05   2.662805e-25   0.000000e+00   0.000000e+00
     4000000   3.999999e-05   2.793441e-01   1.992196e+00   1.708745e+01  -5.293877e+04  -1.021761e+05  -9.216801e+04   5.006254e+10  -2.936953e+10   3.803726e+09   1.474361e+05   2.620484e-25   0.000000e+00   0.000000e+00
     4008000   4.007999e-05   2.752698e-01   1.983930e+00   1.708009e+01  -4.891115e+04  -1.044465e+05  -9.184793e+04   5.061557e+10  -2.739186e+10   4.194822e+09   1.474361e+05   2.579086e-25   0.000000e+00   0.000000e+00
     4016000   4.015999e-05   2.715194e-01   1.975488e+00   1.707275e+01  -4.484224e+04  -1.065590e+05  -9.149735e+04   5.109506e+10  -2.542320e+10   4.566501e+09   1.474362e+05   2.538850e-25   0.000000e+00   0.000000e+00
     4024000   4.023999e-05   2.680960e-01   1.966885e+00   1.706545e+01  -4.073784e+04  -1.085145e+05  -9.111778e+04   5.150318e+10  -2.346647e+10   4.919922e+09   1.474362e+05   2.499783e-25   0.000000e+00   0.000000e+00
     4032000   4.031999e-05   2.650021e-01   1.958130e+00   1.705817e+01  -3.660357e+04  -1.103140e+05  -9.071062e+04   5.184214e+10  -2.152435e+10   5.256260e+09   1.474362e+05   2.461889e-25   0.000000e+00   0.000000e+00
     4040000   4.039999e-05   2.622400e-01   1.949238e+00   1.705093e+01  -3.244488e+04  -1.119589e+05  -9.027720e+04   5.211419e+10  -1.959933e+10   5.576703e+09   1.474362e+05   2.425168e-25   0.000000e+00   0.000000e+00
     4048000   4.047999e-05   2.598115e-01   1.940221e+00   1.704373e+01  -2.826702e+04  -1.134504e+05  -8.981873e+04   5.232161e+10  -1.769372e+10   5.882437e+09   1.474362e+05   2.389616e-25   0.000000e+00   0.000000e+00
     4056000   4.055999e-05   2.577177e-01   1.931090e+00   1.703656e+01  -2.407508e+04  -1.147904e+05  -8.933636e+04   5.246668e+10  -1.580960e+10   6.174643e+09   1.474362e+05   2.355228e-25   0.000000e+00   0.000000e+00
     4064000   4.063999e-05   2.559597e-01   1.921859e+00   1.702944e+01  -1.987395e+04  -1.159806e+05  -8.883112e+04   5.255170e+10  -1.394888e+10   6.454490e+09   1.474362e+05   2.321993e-25   0.000000e+00   0.000000e+00
     4072000   4.071999e-05   2.545380e-01   1.912537e+00   1.702235e+01  -1.566835e+04  -1.170229e+05  -8.830394e+04   5.257895e+10  -1.211330e+10   6.723124e+09   1.474362e+05   2.289901e-25   0.000000e+00   0.000000e+00
     4080000   4.079999e-05   2.534528e-01   1.903139e+00   1.701531e+01  -1.146280e+04  -1.179194e+05  -8.775569e+04   5.255070e+10  -1.030440e+10   6.981669e+09   1.474362e+05   2.258936e-25   0.000000e+00   0.000000e+00
     4088000   4.087999e-05   2.527038e-01   1.893674e+00   1.700831e+01  -7.260935e+03  -1.186711e+05  -8.718881e+04   5.248174e+10  -8.500925e+09   7.199537e+09   1.474362e+05   2.229451e-25   0.000000e+00   0.000000e+00
     4096000   4.095999e-05   2.522908e-01   1.884155e+00   1.700136e+01  -3.067479e+03  -1.192809e+05  -8.660313e+04   5.234635e+10  -6.749002e+09   7.441156e+09   1.474362e+05   2.200505e-25   0.000000e+00   0.000000e+00
     4104000   4.103999e-05   2.522125e-01   1.874593e+00   1.699445e+01   1.108291e+03  -1.197483e+05  -8.600329e+04   5.209285e+10  -4.976185e+09   7.599660e+09   1.474362e+05   2.165745e-25   0.000000e+00   0.000000e+00
     4112000   4.111999e-05   2.524677e-01   1.864999e+00   1.698760e+01   5.267450e+03  -1.200788e+05  -8.538616e+04   5.187851e+10  -3.290559e+09   7.827568e+09   1.474363e+05   2.140415e-25   0.000000e+00   0.000000e+00
     4120000   4.119999e-05   2.530548e-01   1.855384e+00   1.698079e+01   9.407654e+03  -1.202756e+05  -8.475102e+04   5.161934e+10  -1.635064e+09   8.050025e+09   1.474363e+05   2.116059e-25   0.000000e+00   0.000000e+00
     4128000   4.127999e-05   2.539723e-01   1.845758e+00   1.697404e+01   1.352540e+04  -1.203412e+05  -8.409828e+04   5.131729e+10  -1.037493e+07   8.267806e+09   1.474363e+05   2.092660e-25   0.000000e+00   0.000000e+00
     4136000   4.135999e-05   2.552182e-01   1.836133e+00   1.696734e+01   1.761732e+04  -1.202781e+05  -8.342827e+04   5.097427e+10   1.582955e+09   8.481643e+09   1.474363e+05   2.070198e-25   0.000000e+00   0.000000e+00
     4144000   4.143999e-05   2.567903e-01   1.826517e+00   1.696069e+01   2.168023e+04  -1.200887e+05  -8.274130e+04   5.059212e+10   3.144484e+09   8.692219e+09   1.474363e+05   2.048654e-25   0.000000e+00   0.000000e+00
     4152000   4.151999e-05   2.586862e-01   1.816922e+00   1.695410e+01   2.571106e+04  -1.197758e+05  -8.203759e+04   5.017263e+10   4.673876e+09   8.900170e+09   1.474363e+05   2.028010e-25   0.000000e+00   0.000000e+00
     4160000   4.159999e-05   2.609031e-01   1.807356e+00   1.694757e+01   2.970690e+04  -1.193418e+05  -8.131732e+04   4.971753e+10   6.170897e+09   9.106080e+09   1.474363e+05   2.008245e-25   0.000000e+00   0.000000e+00
     4168000   4.167999e-05   2.634383e-01   1.797830e+00   1.694109e+01   3.366512e+04  -1.187885e+05  -8.058174e+04   4.923670e+10   7.678237e+09   9.250821e+09   1.474363e+05   1.989620e-25   0.000000e+00   0.000000e+00
     4176000   4.175999e-05   2.662885e-01   1.788353e+00   1.693467e+01   3.758328e+04  -1.181167e+05  -7.983363e+04   4.871218e+10   9.111163e+09   9.451623e+09   1.474363e+05   1.971370e-25   0.000000e+00   0.000000e+00
     4184000   4.183999e-05   2.694505e-01   1.778935e+00   1.692832e+01   4.145824e+04  -1.173316e+05  -7.906950e+04   4.815697e+10   1.051160e+10   9.651455e+09   1.474363e+05   1.953954e-25   0.000000e+00   0.000000e+00
     4192000   4.191999e-05   2.729206e-01   1.769583e+00   1.692202e+01   4.528761e+04  -1.164357e+05  -7.828941e+04   4.757253e+10   1.187966e+10   9.850686e+09   1.474363e+05   1.937356e-25   0.000000e+00   0.000000e+00
     4200000   4.199999e-05   2.766952e-01   1.760308e+00   1.691579e+01   4.906910e+04  -1.154317e+05  -7.749340e+04   4.696025e+10   1.321554e+10   1.004964e+10   1.474363e+05   1.921558e-25   0.000000e+00   0.000000e+00
     4208000   4.207999e-05   2.807703e-01   1.751117e+00   1.690962e+01   5.280053e+04  -1.143220e+05  -7.668147e+04   4.632144e+10   1.451947e+10   1.024858e+10   1.474363e+05   1.906543e-25   0.000000e+00   0.000000e+00
     4216000   4.215999e-05   2.851419e-01   1.742019e+00   1.690352e+01   5.647985e+04  -1.131094e+05  -7.585361e+04   4.565734e+10   1.579177e+10   1.044773e+10   1.474363e+05   1.892294e-25   0.000000e+00   0.000000e+00
     4224000   4.223999e-05   2.898056e-01   1.733022e+00   1.689749e+01   6.010162e+04  -1.117939e+05  -7.501593e+04   4.486843e+10   1.710113e+10   1.046230e+10   1.474364e+05   1.870573e-25   0.000000e+00   0.000000e+00
     4232000   4.231999e-05   2.947566e-01   1.724135e+00   1.689152e+01   6.366319e+04  -1.103770e+05  -7.417133e+04   4.416683e+10   1.831584e+10   1.065276e+10   1.474364e+05   1.858626e-25   0.000000e+00   0.000000e+00
     4240000   4.239999e-05   2.999902e-01   1.715365e+00   1.688562e+01   6.716770e+04  -1.088642e+05  -7.331149e+04   4.344243e+10   1.950114e+10   1.084317e+10   1.474364e+05   1.847359e-25   0.000000e+00   0.000000e+00
     4248000   4.247999e-05   3.055021e-01   1.706719e+00   1.687979e+01   7.061935e+04  -1.072635e+05  -7.242198e+04   4.276638e+10   2.059091e+10   1.120459e+10   1.474364e+05   1.842231e-25   0.000000e+00   0.000000e+00
     4256000   4.255999e-05   3.112876e-01   1.698205e+00   1.687403e+01   7.400922e+04  -1.055705e+05  -7.151910e+04   4.195992e+10   2.172187e+10   1.135651e+10   1.474364e+05   1.829028e-25   0.000000e+00   0.000000e+00
     4264000   4.263999e-05   3.173418e-01   1.689830e+00   1.686835e+01   7.733433e+04  -1.037880e+05  -7.060404e+04   4.116450e+10   2.283559e+10   1.151979e+10   1.474364e+05   1.819145e-25   0.000000e+00   0.000000e+00
     4272000   4.271999e-05   3.236594e-01   1.681601e+00   1.686274e+01   8.059501e+04  -1.019176e+05  -6.967595e+04   4.034938e+10   2.392095e+10   1.168222e+10   1.474364e+05   1.809907e-25   0.000000e+00   0.000000e+00
     4280000   4.279999e-05   3.302352e-01   1.673525e+00   1.685720e+01   8.378971e+04  -9.996143e+04  -6.873491e+04   3.951527e+10   2.497836e+10   1.184372e+10   1.474364e+05   1.801302e-25   0.000000e+00   0.000000e+00
     4288000   4.287999e-05   3.370640e-01   1.665610e+00   1.685174e+01   8.691695e+04  -9.792178e+04  -6.778098e+04   3.866279e+10   2.600825e+10   1.200417e+10   1.474364e+05   1.793319e-25   0.000000e+00   0.000000e+00
