     timestep     time              x             y              z              vx             vy             vz             ax             ay             az         v_magnitude      ELoss        Electronic      Nuclear
           0   0.000000e+00   1.814237e+01   1.736548e+01   1.000000e-01  -7.703930e+04  -8.465627e+04  -1.592129e+05   0.000000e+00   0.000000e+00   0.000000e+00   1.960880e+05   0.000000e+00   0.000000e+00   0.000000e+00
        8000   7.999000e-09   1.814177e+01   1.736479e+01   9.872633e-02  -7.444740e+04  -8.698329e+04  -1.591917e+05   3.239173e+11  -2.908948e+11   7.462688e+09   1.960880e+05   2.597577e-25   0.000000e+00   0.000000e+00
       16000   1.599900e-08   1.814118e+01   1.736409e+01   9.745314e-02  -7.185704e+04  -8.931020e+04  -1.590935e+05   3.236463e+11  -2.908085e+11   1.706990e+10   1.960880e+05   2.597714e-25   0.000000e+00   0.000000e+00
       24000   2.399900e-08   1.814062e+01   1.736337e+01   9.618104e-02  -6.926947e+04  -9.163585e+04  -1.589186e+05   3.232194e+11  -2.905785e+11   2.666757e+10   1.960880e+05   2.597850e-25   0.000000e+00   0.000000e+00
       32000   3.199900e-08   1.814007e+01   1.736262e+01   9.491065e-02  -6.668595e+04  -9.395907e+04  -1.586669e+05   3.226369e+11  -2.902048e+11   3.625103e+10   1.960880e+05   2.597984e-25   0.000000e+00   0.000000e+00
       40000   3.999900e-08   1.813955e+01   1.736186e+01   9.364257e-02  -6.410770e+04  -9.627874e+04  -1.583386e+05   3.218990e+11  -2.896878e+11   4.581560e+10   1.960880e+05   2.598114e-25   0.000000e+00   0.000000e+00
       48000   4.799900e-08   1.813905e+01   1.736108e+01   9.237743e-02  -6.153597e+04  -9.859370e+04  -1.579339e+05   3.210062e+11  -2.890277e+11   5.535662e+10   1.960880e+05   2.598241e-25   0.000000e+00   0.000000e+00
       56000   5.599900e-08   1.813857e+01   1.736028e+01   9.111583e-02  -5.897201e+04  -1.009028e+05  -1.574530e+05   3.199589e+11  -2.882249e+11   6.486946e+10   1.960880e+05   2.598364e-25   0.000000e+00   0.000000e+00
       64000   6.399900e-08   1.813811e+01   1.735947e+01   8.985839e-02  -5.641704e+04  -1.032049e+05  -1.568960e+05   3.187575e+11  -2.872798e+11   7.434948e+10   1.960880e+05   2.598482e-25   0.000000e+00   0.000000e+00
       72000   7.199900e-08   1.813766e+01   1.735863e+01   8.860570e-02  -5.387230e+04  -1.054989e+05  -1.562634e+05   3.174028e+11  -2.861930e+11   8.379207e+10   1.960880e+05   2.598594e-25   0.000000e+00   0.000000e+00
       80000   7.999900e-08   1.813724e+01   1.735778e+01   8.735837e-02  -5.133901e+04  -1.077836e+05  -1.555555e+05   3.158952e+11  -2.849650e+11   9.319264e+10   1.960880e+05   2.598699e-25   0.000000e+00   0.000000e+00
       88000   8.799900e-08   1.813684e+01   1.735691e+01   8.611701e-02  -4.881839e+04  -1.100580e+05  -1.547725e+05   3.142357e+11  -2.835966e+11   1.025466e+11   1.960880e+05   2.598798e-25   0.000000e+00   0.000000e+00
       96000   9.599900e-08   1.813646e+01   1.735602e+01   8.488221e-02  -4.631164e+04  -1.123208e+05  -1.539149e+05   3.124250e+11  -2.820884e+11   1.118494e+11   1.960880e+05   2.598888e-25   0.000000e+00   0.000000e+00
      104000   1.039990e-07   1.813610e+01   1.735511e+01   8.365457e-02  -4.381999e+04  -1.145710e+05  -1.529830e+05   3.104639e+11  -2.804413e+11   1.210966e+11   1.960880e+05   2.598971e-25   0.000000e+00   0.000000e+00
      112000   1.119990e-07   1.813576e+01   1.735419e+01   8.243468e-02  -4.134462e+04  -1.168075e+05  -1.519775e+05   3.083534e+11  -2.786561e+11   1.302836e+11   1.960880e+05   2.599044e-25   0.000000e+00   0.000000e+00
      120000   1.199990e-07   1.813544e+01   1.735324e+01   8.122313e-02  -3.888673e+04  -1.190291e+05  -1.508987e+05   3.060945e+11  -2.767338e+11   1.394060e+11   1.960880e+05   2.599107e-25   0.000000e+00   0.000000e+00
      128000   1.279990e-07   1.813514e+01   1.735228e+01   8.002050e-02  -3.644750e+04  -1.212349e+05  -1.497471e+05   3.036883e+11  -2.746754e+11   1.484593e+11   1.960880e+05   2.599160e-25   0.000000e+00   0.000000e+00
      136000   1.359990e-07   1.813486e+01   1.735130e+01   7.882737e-02  -3.402811e+04  -1.234236e+05  -1.485235e+05   3.011360e+11  -2.724820e+11   1.574392e+11   1.960880e+05   2.599203e-25   0.000000e+00   0.000000e+00
      144000   1.439990e-07   1.813459e+01   1.735031e+01   7.764431e-02  -3.162972e+04  -1.255942e+05  -1.472283e+05   2.984387e+11  -2.701547e+11   1.663413e+11   1.960880e+05   2.599233e-25   0.000000e+00   0.000000e+00
      152000   1.519990e-07   1.813435e+01   1.734929e+01   7.647190e-02  -2.925348e+04  -1.277457e+05  -1.458622e+05   2.955977e+11  -2.676949e+11   1.751613e+11   1.960881e+05   2.599252e-25   0.000000e+00   0.000000e+00
      160000   1.599990e-07   1.813413e+01   1.734826e+01   7.531070e-02  -2.690054e+04  -1.298770e+05  -1.444260e+05   2.926144e+11  -2.651037e+11   1.838949e+11   1.960881e+05   2.599259e-25   0.000000e+00   0.000000e+00
      168000   1.679990e-07   1.813392e+01   1.734722e+01   7.416127e-02  -2.457203e+04  -1.319870e+05  -1.429202e+05   2.894902e+11  -2.623825e+11   1.925378e+11   1.960881e+05   2.599252e-25   0.000000e+00   0.000000e+00
      176000   1.759990e-07   1.813373e+01   1.734615e+01   7.302416e-02  -2.226907e+04  -1.340748e+05  -1.413456e+05   2.862266e+11  -2.595328e+11   2.010859e+11   1.960881e+05   2.599232e-25   0.000000e+00   0.000000e+00
      184000   1.839990e-07   1.813356e+01   1.734507e+01   7.189992e-02  -1.999277e+04  -1.361392e+05  -1.397030e+05   2.828252e+11  -2.565560e+11   2.095351e+11   1.960881e+05   2.599198e-25   0.000000e+00   0.000000e+00
      192000   1.919990e-07   1.813341e+01   1.734397e+01   7.078909e-02  -1.774423e+04  -1.381793e+05  -1.379933e+05   2.792875e+11  -2.534538e+11   2.178811e+11   1.960881e+05   2.599150e-25   0.000000e+00   0.000000e+00
      200000   1.999990e-07   1.813328e+01   1.734286e+01   6.969221e-02  -1.552453e+04  -1.401941e+05  -1.362172e+05   2.756152e+11  -2.502276e+11   2.261201e+11   1.960881e+05   2.599087e-25   0.000000e+00   0.000000e+00
      208000   2.079990e-07   1.813316e+01   1.734173e+01   6.860979e-02  -1.333475e+04  -1.421826e+05  -1.343757e+05   2.718100e+11  -2.468793e+11   2.342480e+11   1.960881e+05   2.599009e-25   0.000000e+00   0.000000e+00
      216000   2.159990e-07   1.813307e+01   1.734058e+01   6.754237e-02  -1.117593e+04  -1.441439e+05  -1.324695e+05   2.678739e+11  -2.434104e+11   2.422609e+11   1.960881e+05   2.598915e-25   0.000000e+00   0.000000e+00
      224000   2.239990e-07   1.813299e+01   1.733942e+01   6.649045e-02  -9.049114e+03  -1.460769e+05  -1.304998e+05   2.638085e+11  -2.398229e+11   2.501549e+11   1.960881e+05   2.598806e-25   0.000000e+00   0.000000e+00
      232000   2.319990e-07   1.813292e+01   1.733825e+01   6.545454e-02  -6.955334e+03  -1.479807e+05  -1.284674e+05   2.596159e+11  -2.361186e+11   2.579261e+11   1.960881e+05   2.598681e-25   0.000000e+00   0.000000e+00
      240000   2.399990e-07   1.813287e+01   1.733706e+01   6.443514e-02  -4.895598e+03  -1.498545e+05  -1.263733e+05   2.552980e+11  -2.322994e+11   2.655709e+11   1.960881e+05   2.598540e-25   0.000000e+00   0.000000e+00
      248000   2.479990e-07   1.813284e+01   1.733585e+01   6.343273e-02  -2.870899e+03  -1.516972e+05  -1.242186e+05   2.508569e+11  -2.283673e+11   2.730855e+11   1.960881e+05   2.598383e-25   0.000000e+00   0.000000e+00
      256000   2.559990e-07   1.813283e+01   1.733463e+01   6.244780e-02  -8.822151e+02  -1.535080e+05  -1.220043e+05   2.462947e+11  -2.243242e+11   2.804663e+11   1.960881e+05   2.598209e-25   0.000000e+00   0.000000e+00
      264000   2.639990e-07   1.813283e+01   1.733339e+01   6.148082e-02   1.069494e+03  -1.552861e+05  -1.197315e+05   2.416135e+11  -2.201724e+11   2.877098e+11   1.960881e+05   2.598018e-25   0.000000e+00   0.000000e+00
      272000   2.719990e-07   1.813285e+01   1.733214e+01   6.053225e-02   2.983284e+03  -1.570305e+05  -1.174013e+05   2.368155e+11  -2.159138e+11   2.948124e+11   1.960881e+05   2.597811e-25   0.000000e+00   0.000000e+00
      280000   2.799990e-07   1.813288e+01   1.733088e+01   5.960254e-02   4.858231e+03  -1.587404e+05  -1.150149e+05   2.319031e+11  -2.115508e+11   3.017707e+11   1.960881e+05   2.597587e-25   0.000000e+00   0.000000e+00
      288000   2.879990e-07   1.813292e+01   1.732961e+01   5.869216e-02   6.693429e+03  -1.604150e+05  -1.125734e+05   2.268785e+11  -2.070856e+11   3.085814e+11   1.960881e+05   2.597346e-25   0.000000e+00   0.000000e+00
      296000   2.959990e-07   1.813298e+01   1.732832e+01   5.780151e-02   8.487989e+03  -1.620535e+05  -1.100780e+05   2.217441e+11  -2.025203e+11   3.152411e+11   1.960881e+05   2.597087e-25   0.000000e+00   0.000000e+00
      304000   3.039990e-07   1.813306e+01   1.732701e+01   5.693105e-02   1.024104e+04  -1.636551e+05  -1.075299e+05   2.165024e+11  -1.978574e+11   3.217468e+11   1.960881e+05   2.596813e-25   0.000000e+00   0.000000e+00
      312000   3.119990e-07   1.813315e+01   1.732570e+01   5.608117e-02   1.195174e+04  -1.652190e+05  -1.049304e+05   2.111558e+11  -1.930993e+11   3.280951e+11   1.960881e+05   2.596521e-25   0.000000e+00   0.000000e+00
      320000   3.199990e-07   1.813325e+01   1.732437e+01   5.525230e-02   1.361926e+04  -1.667444e+05  -1.022808e+05   2.057069e+11  -1.882483e+11   3.342832e+11   1.960881e+05   2.596212e-25   0.000000e+00   0.000000e+00
      328000   3.279990e-07   1.813337e+01   1.732303e+01   5.444481e-02   1.524278e+04  -1.682307e+05  -9.958233e+04   2.001582e+11  -1.833070e+11   3.403079e+11   1.960881e+05   2.595887e-25   0.000000e+00   0.000000e+00
      336000   3.359990e-07   1.813349e+01   1.732168e+01   5.365910e-02   1.682152e+04  -1.696771e+05  -9.683632e+04   1.945125e+11  -1.782779e+11   3.461664e+11   1.960881e+05   2.595546e-25   0.000000e+00   0.000000e+00
      344000   3.439990e-07   1.813363e+01   1.732031e+01   5.289555e-02   1.835472e+04  -1.710829e+05  -9.404411e+04   1.887723e+11  -1.731634e+11   3.518560e+11   1.960881e+05   2.595188e-25   0.000000e+00   0.000000e+00
      352000   3.519990e-07   1.813379e+01   1.731894e+01   5.215452e-02   1.984163e+04  -1.724475e+05  -9.120707e+04   1.829404e+11  -1.679663e+11   3.573738e+11   1.960881e+05   2.594814e-25   0.000000e+00   0.000000e+00
      360000   3.599990e-07   1.813395e+01   1.731756e+01   5.143636e-02   2.128153e+04  -1.737702e+05  -8.832659e+04   1.770195e+11  -1.626891e+11   3.627172e+11   1.960882e+05   2.594424e-25   0.000000e+00   0.000000e+00
      368000   3.679990e-07   1.813413e+01   1.731616e+01   5.074141e-02   2.267371e+04  -1.750503e+05  -8.540407e+04   1.710126e+11  -1.573345e+11   3.678837e+11   1.960882e+05   2.594019e-25   0.000000e+00   0.000000e+00
      376000   3.759990e-07   1.813431e+01   1.731475e+01   5.007000e-02   2.401750e+04  -1.762873e+05  -8.244092e+04   1.649223e+11  -1.519053e+11   3.728707e+11   1.960882e+05   2.593598e-25   0.000000e+00   0.000000e+00
      384000   3.839990e-07   1.813451e+01   1.731334e+01   4.942245e-02   2.531224e+04  -1.774806e+05  -7.943861e+04   1.587517e+11  -1.464040e+11   3.776759e+11   1.960882e+05   2.593163e-25   0.000000e+00   0.000000e+00
      392000   3.919990e-07   1.813472e+01   1.731192e+01   4.879908e-02   2.655731e+04  -1.786296e+05  -7.639860e+04   1.525037e+11  -1.408336e+11   3.822970e+11   1.960882e+05   2.592713e-25   0.000000e+00   0.000000e+00
      400000   3.999990e-07   1.813494e+01   1.731048e+01   4.820017e-02   2.775210e+04  -1.797338e+05  -7.332235e+04   1.461812e+11  -1.351968e+11   3.867318e+11   1.960882e+05   2.592249e-25   0.000000e+00   0.000000e+00
      408000   4.079990e-07   1.813516e+01   1.730904e+01   4.762602e-02   2.889602e+04  -1.807926e+05  -7.021139e+04   1.397873e+11  -1.294965e+11   3.909781e+11   1.960882e+05   2.591771e-25   0.000000e+00   0.000000e+00
      416000   4.159990e-07   1.813540e+01   1.730759e+01   4.707688e-02   2.998851e+04  -1.818055e+05  -6.706721e+04   1.333250e+11  -1.237355e+11   3.950340e+11   1.960882e+05   2.591280e-25   0.000000e+00   0.000000e+00
      424000   4.239990e-07   1.813564e+01   1.730613e+01   4.655303e-02   3.102904e+04  -1.827722e+05  -6.389135e+04   1.267974e+11  -1.179167e+11   3.988974e+11   1.960882e+05   2.590776e-25   0.000000e+00   0.000000e+00
      432000   4.319990e-07   1.813589e+01   1.730466e+01   4.605470e-02   3.201709e+04  -1.836920e+05  -6.068536e+04   1.202076e+11  -1.120429e+11   4.025666e+11   1.960882e+05   2.590259e-25   0.000000e+00   0.000000e+00
      440000   4.399990e-07   1.813615e+01   1.730319e+01   4.558214e-02   3.295219e+04  -1.845647e+05  -5.745080e+04   1.135587e+11  -1.061172e+11   4.060399e+11   1.960882e+05   2.589731e-25   0.000000e+00   0.000000e+00
      448000   4.479990e-07   1.813642e+01   1.730171e+01   4.513556e-02   3.383388e+04  -1.853898e+05  -5.418925e+04   1.068540e+11  -1.001425e+11   4.093155e+11   1.960882e+05   2.589192e-25   0.000000e+00   0.000000e+00
      456000   4.559990e-07   1.813670e+01   1.730023e+01   4.471518e-02   3.466171e+04  -1.861669e+05  -5.090229e+04   1.000967e+11  -9.412176e+10   4.123918e+11   1.960882e+05   2.588642e-25   0.000000e+00   0.000000e+00
      464000   4.639990e-07   1.813698e+01   1.729873e+01   4.432119e-02   3.543576e+04  -1.868956e+05  -4.759130e+04   9.335913e+10  -8.805223e+10   4.152994e+11   1.960882e+05   2.588606e-25   0.000000e+00   0.000000e+00
      472000   4.719990e-07   1.813726e+01   1.729724e+01   4.395377e-02   3.615524e+04  -1.875756e+05  -4.425807e+04   8.650360e+10  -8.194732e+10   4.179732e+11   1.960882e+05   2.588019e-25   0.000000e+00   0.000000e+00
      480000   4.799990e-07   1.813755e+01   1.729573e+01   4.361311e-02   3.681970e+04  -1.882066e+05  -4.090427e+04   7.960531e+10  -7.580543e+10   4.204437e+11   1.960882e+05   2.587423e-25   0.000000e+00   0.000000e+00
      488000   4.879990e-07   1.813785e+01   1.729422e+01   4.329936e-02   3.742881e+04  -1.887884e+05  -3.753151e+04   7.266758e+10  -6.962959e+10   4.227096e+11   1.960882e+05   2.586820e-25   0.000000e+00   0.000000e+00
      496000   4.959990e-07   1.813815e+01   1.729271e+01   4.301265e-02   3.798228e+04  -1.893206e+05  -3.414146e+04   6.569375e+10  -6.342287e+10   4.247700e+11   1.960882e+05   2.586209e-25   0.000000e+00   0.000000e+00
      504000   5.039990e-07   1.813846e+01   1.729120e+01   4.275313e-02   3.847982e+04  -1.898031e+05  -3.073574e+04   5.868718e+10  -5.718831e+10   4.266238e+11   1.960882e+05   2.585591e-25   0.000000e+00   0.000000e+00
      512000   5.119990e-07   1.813877e+01   1.728968e+01   4.252092e-02   3.892119e+04  -1.902356e+05  -2.731603e+04   5.165123e+10  -5.092898e+10   4.282702e+11   1.960882e+05   2.584967e-25   0.000000e+00   0.000000e+00
      520000   5.199990e-07   1.813908e+01   1.728815e+01   4.231611e-02   3.930616e+04  -1.906179e+05  -2.388397e+04   4.458931e+10  -4.464797e+10   4.297085e+11   1.960882e+05   2.584338e-25   0.000000e+00   0.000000e+00
      528000   5.279990e-07   1.813940e+01   1.728663e+01   4.213880e-02   3.963455e+04  -1.909499e+05  -2.044125e+04   3.750480e+10  -3.834836e+10   4.309381e+11   1.960882e+05   2.583704e-25   0.000000e+00   0.000000e+00
      536000   5.359990e-07   1.813972e+01   1.728510e+01   4.198908e-02   3.990618e+04  -1.912314e+05  -1.698952e+04   3.040115e+10  -3.203323e+10   4.319582e+11   1.960882e+05   2.583066e-25   0.000000e+00   0.000000e+00
      544000   5.439990e-07   1.814004e+01   1.728357e+01   4.186699e-02   4.012092e+04  -1.914624e+05  -1.353047e+04   2.328176e+10  -2.570566e+10   4.327686e+11   1.960882e+05   2.582425e-25   0.000000e+00   0.000000e+00
      552000   5.519990e-07   1.814036e+01   1.728203e+01   4.177260e-02   4.027865e+04  -1.916427e+05  -1.006578e+04   1.615010e+10  -1.936876e+10   4.333688e+11   1.960882e+05   2.581782e-25   0.000000e+00   0.000000e+00
      560000   5.599990e-07   1.814068e+01   1.728050e+01   4.170595e-02   4.037929e+04  -1.917722e+05  -6.597134e+03   9.009599e+09  -1.302561e+10   4.337586e+11   1.960882e+05   2.581137e-25   0.000000e+00   0.000000e+00
      568000   5.679990e-07   1.814100e+01   1.727897e+01   4.166705e-02   4.042278e+04  -1.918511e+05  -3.126208e+03   1.863722e+09  -6.679304e+09   4.339379e+11   1.960883e+05   2.580490e-25   0.000000e+00   0.000000e+00
      576000   5.759990e-07   1.814133e+01   1.727743e+01   4.165593e-02   4.040910e+04  -1.918791e+05   3.453108e+02  -5.284070e+09  -3.329189e+08   4.339066e+11   1.960883e+05   2.579843e-25   0.000000e+00   0.000000e+00
      584000   5.839990e-07   1.814165e+01   1.727590e+01   4.167258e-02   4.033823e+04  -1.918564e+05   3.815737e+03  -1.243031e+10   6.010463e+09   4.336648e+11   1.960883e+05   2.579197e-25   0.000000e+00   0.000000e+00
      592000   5.919990e-07   1.814197e+01   1.727436e+01   4.171698e-02   4.021022e+04  -1.917829e+05   7.283386e+03  -1.957154e+10   1.234777e+10   4.332126e+11   1.960883e+05   2.578552e-25   0.000000e+00   0.000000e+00
      600000   5.999990e-07   1.814229e+01   1.727283e+01   4.178910e-02   4.002510e+04  -1.916588e+05   1.074658e+04  -2.670427e+10   1.867593e+10   4.325504e+11   1.960883e+05   2.577909e-25   0.000000e+00   0.000000e+00
      608000   6.079990e-07   1.814261e+01   1.727129e+01   4.188890e-02   3.978297e+04  -1.914842e+05   1.420363e+04  -3.382506e+10   2.499189e+10   4.316784e+11   1.960883e+05   2.577268e-25   0.000000e+00   0.000000e+00
      616000   6.159990e-07   1.814293e+01   1.726976e+01   4.201634e-02   3.948394e+04  -1.912590e+05   1.765287e+04  -4.093043e+10   3.129261e+10   4.305971e+11   1.960883e+05   2.576630e-25   0.000000e+00   0.000000e+00
      624000   6.239990e-07   1.814324e+01   1.726823e+01   4.217133e-02   3.912813e+04  -1.909835e+05   2.109263e+04  -4.801693e+10   3.757505e+10   4.293072e+11   1.960883e+05   2.575997e-25   0.000000e+00   0.000000e+00
      632000   6.319990e-07   1.814356e+01   1.726671e+01   4.235379e-02   3.871572e+04  -1.906579e+05   2.452123e+04  -5.508111e+10   4.383620e+10   4.278092e+11   1.960883e+05   2.575368e-25   0.000000e+00   0.000000e+00
      640000   6.399990e-07   1.814386e+01   1.726518e+01   4.256363e-02   3.824689e+04  -1.902822e+05   2.793702e+04  -6.211952e+10   5.007305e+10   4.261040e+11   1.960883e+05   2.574745e-25   0.000000e+00   0.000000e+00
      648000   6.479990e-07   1.814417e+01   1.726366e+01   4.280074e-02   3.772188e+04  -1.898568e+05   3.133834e+04  -6.912872e+10   5.628261e+10   4.241924e+11   1.960883e+05   2.574127e-25   0.000000e+00   0.000000e+00
      656000   6.559990e-07   1.814447e+01   1.726215e+01   4.306500e-02   3.714091e+04  -1.893817e+05   3.472355e+04  -7.610531e+10   6.246191e+10   4.220754e+11   1.960883e+05   2.573517e-25   0.000000e+00   0.000000e+00
      664000   6.639990e-07   1.814476e+01   1.726063e+01   4.335627e-02   3.650428e+04  -1.888574e+05   3.809100e+04  -8.304586e+10   6.860801e+10   4.197540e+11   1.960883e+05   2.572914e-25   0.000000e+00   0.000000e+00
      672000   6.719990e-07   1.814505e+01   1.725912e+01   4.367441e-02   3.581228e+04  -1.882841e+05   4.143907e+04  -8.994699e+10   7.471797e+10   4.172295e+11   1.960883e+05   2.572319e-25   0.000000e+00   0.000000e+00
      680000   6.799990e-07   1.814533e+01   1.725762e+01   4.401924e-02   3.506524e+04  -1.876621e+05   4.476613e+04  -9.680532e+10   8.078888e+10   4.145030e+11   1.960883e+05   2.571732e-25   0.000000e+00   0.000000e+00
      688000   6.879990e-07   1.814561e+01   1.725612e+01   4.439060e-02   3.426351e+04  -1.869916e+05   4.807058e+04  -1.036175e+11   8.681786e+10   4.115760e+11   1.960883e+05   2.571155e-25   0.000000e+00   0.000000e+00
      696000   6.959990e-07   1.814588e+01   1.725463e+01   4.478831e-02   3.340748e+04  -1.862731e+05   5.135081e+04  -1.103802e+11   9.280205e+10   4.084499e+11   1.960883e+05   2.570588e-25   0.000000e+00   0.000000e+00
      704000   7.039990e-07   1.814615e+01   1.725314e+01   4.521215e-02   3.249756e+04  -1.855069e+05   5.460525e+04  -1.170900e+11   9.873862e+10   4.051263e+11   1.960883e+05   2.570032e-25   0.000000e+00   0.000000e+00
      712000   7.119990e-07   1.814640e+01   1.725166e+01   4.566192e-02   3.153418e+04  -1.846934e+05   5.783231e+04  -1.237438e+11   1.046247e+11   4.016068e+11   1.960883e+05   2.569486e-25   0.000000e+00   0.000000e+00
      720000   7.199990e-07   1.814665e+01   1.725019e+01   4.613739e-02   3.051781e+04  -1.838330e+05   6.103044e+04  -1.303382e+11   1.104577e+11   3.978931e+11   1.960883e+05   2.568952e-25   0.000000e+00   0.000000e+00
      728000   7.279990e-07   1.814689e+01   1.724872e+01   4.663832e-02   2.944893e+04  -1.829262e+05   6.419808e+04  -1.368700e+11   1.162346e+11   3.939872e+11   1.960883e+05   2.568430e-25   0.000000e+00   0.000000e+00
      736000   7.359990e-07   1.814712e+01   1.724726e+01   4.716447e-02   2.832806e+04  -1.819734e+05   6.733372e+04  -1.433360e+11   1.219529e+11   3.898909e+11   1.960883e+05   2.567921e-25   0.000000e+00   0.000000e+00
      744000   7.439990e-07   1.814734e+01   1.724581e+01   4.771557e-02   2.715573e+04  -1.809751e+05   7.043583e+04  -1.497329e+11   1.276098e+11   3.856063e+11   1.960883e+05   2.567425e-25   0.000000e+00   0.000000e+00
      752000   7.519990e-07   1.814756e+01   1.724436e+01   4.829135e-02   2.593252e+04  -1.799318e+05   7.350292e+04  -1.560578e+11   1.332027e+11   3.811354e+11   1.960883e+05   2.566942e-25   0.000000e+00   0.000000e+00
      760000   7.599990e-07   1.814776e+01   1.724293e+01   4.889152e-02   2.465901e+04  -1.788441e+05   7.653350e+04  -1.623073e+11   1.387289e+11   3.764805e+11   1.960883e+05   2.566474e-25   0.000000e+00   0.000000e+00
      768000   7.679990e-07   1.814795e+01   1.724150e+01   4.951579e-02   2.333581e+04  -1.777123e+05   7.952612e+04  -1.684785e+11   1.441860e+11   3.716439e+11   1.960883e+05   2.566019e-25   0.000000e+00   0.000000e+00
      776000   7.759990e-07   1.814813e+01   1.724009e+01   5.016383e-02   2.196356e+04  -1.765373e+05   8.247932e+04  -1.745684e+11   1.495712e+11   3.666279e+11   1.960884e+05   2.565579e-25   0.000000e+00   0.000000e+00
      784000   7.839990e-07   1.814830e+01   1.723868e+01   5.083535e-02   2.054293e+04  -1.753194e+05   8.539169e+04  -1.805738e+11   1.548821e+11   3.614350e+11   1.960884e+05   2.565155e-25   0.000000e+00   0.000000e+00
      792000   7.919990e-07   1.814846e+01   1.723728e+01   5.152999e-02   1.907461e+04  -1.740593e+05   8.826181e+04  -1.864919e+11   1.601163e+11   3.560678e+11   1.960884e+05   2.564745e-25   0.000000e+00   0.000000e+00
      800000   7.999990e-07   1.814861e+01   1.723589e+01   5.224742e-02   1.755929e+04  -1.727577e+05   9.108831e+04  -1.923197e+11   1.652713e+11   3.505289e+11   1.960884e+05   2.564352e-25   0.000000e+00   0.000000e+00
      808000   8.079990e-07   1.814874e+01   1.723452e+01   5.298728e-02   1.599773e+04  -1.714152e+05   9.386982e+04  -1.980544e+11   1.703447e+11   3.448210e+11   1.960884e+05   2.563974e-25   0.000000e+00   0.000000e+00
      816000   8.159990e-07   1.814886e+01   1.723315e+01   5.374921e-02   1.439067e+04  -1.700324e+05   9.660500e+04  -2.036931e+11   1.753342e+11   3.389470e+11   1.960884e+05   2.563612e-25   0.000000e+00   0.000000e+00
      824000   8.239990e-07   1.814897e+01   1.723180e+01   5.453283e-02   1.273890e+04  -1.686101e+05   9.929253e+04  -2.092329e+11   1.802374e+11   3.329096e+11   1.960884e+05   2.563266e-25   0.000000e+00   0.000000e+00
      832000   8.319990e-07   1.814907e+01   1.723045e+01   5.533776e-02   1.104321e+04  -1.671489e+05   1.019311e+05  -2.146713e+11   1.850521e+11   3.267119e+11   1.960884e+05   2.562936e-25   0.000000e+00   0.000000e+00
      840000   8.399990e-07   1.814915e+01   1.722912e+01   5.616360e-02   9.304433e+03  -1.656495e+05   1.045195e+05  -2.200055e+11   1.897761e+11   3.203568e+11   1.960884e+05   2.562623e-25   0.000000e+00   0.000000e+00
      848000   8.479990e-07   1.814921e+01   1.722780e+01   5.700994e-02   7.523405e+03  -1.641127e+05   1.070564e+05  -2.252328e+11   1.944072e+11   3.138475e+11   1.960884e+05   2.562327e-25   0.000000e+00   0.000000e+00
      856000   8.559990e-07   1.814927e+01   1.722650e+01   5.787636e-02   5.700995e+03  -1.625392e+05   1.095406e+05  -2.303506e+11   1.989432e+11   3.071872e+11   1.960884e+05   2.562047e-25   0.000000e+00   0.000000e+00
      864000   8.639990e-07   1.814931e+01   1.722520e+01   5.876244e-02   3.838089e+03  -1.609299e+05   1.119710e+05  -2.353565e+11   2.033821e+11   3.003792e+11   1.960884e+05   2.561784e-25   0.000000e+00   0.000000e+00
      872000   8.719990e-07   1.814933e+01   1.722392e+01   5.966775e-02   1.935592e+03  -1.592854e+05   1.143463e+05  -2.402479e+11   2.077218e+11   2.934266e+11   1.960884e+05   2.561538e-25   0.000000e+00   0.000000e+00
      880000   8.799990e-07   1.814934e+01   1.722265e+01   6.059183e-02  -5.570335e+00  -1.576066e+05   1.166654e+05  -2.450224e+11   2.119604e+11   2.863330e+11   1.960884e+05   2.561308e-25   0.000000e+00   0.000000e+00
      888000   8.879990e-07   1.814933e+01   1.722140e+01   6.153424e-02  -1.984453e+03  -1.558943e+05   1.189273e+05  -2.496777e+11   2.160959e+11   2.791019e+11   1.960884e+05   2.561095e-25   0.000000e+00   0.000000e+00
      896000   8.959990e-07   1.814930e+01   1.722016e+01   6.249452e-02  -4.000094e+03  -1.541493e+05   1.211307e+05  -2.542114e+11   2.201264e+11   2.717366e+11   1.960884e+05   2.560898e-25   0.000000e+00   0.000000e+00
      904000   9.039990e-07   1.814926e+01   1.721893e+01   6.347218e-02  -6.051510e+03  -1.523725e+05   1.232747e+05  -2.586213e+11   2.240501e+11   2.642409e+11   1.960884e+05   2.560717e-25   0.000000e+00   0.000000e+00
      912000   9.119990e-07   1.814921e+01   1.721772e+01   6.446675e-02  -8.137703e+03  -1.505648e+05   1.253582e+05  -2.629052e+11   2.278651e+11   2.566183e+11   1.960884e+05   2.560552e-25   0.000000e+00   0.000000e+00
      920000   9.199990e-07   1.814913e+01   1.721653e+01   6.547774e-02  -1.025766e+04  -1.487270e+05   1.273803e+05  -2.670610e+11   2.315699e+11   2.488726e+11   1.960884e+05   2.560403e-25   0.000000e+00   0.000000e+00
      928000   9.279990e-07   1.814904e+01   1.721534e+01   6.650467e-02  -1.241034e+04  -1.468600e+05   1.293399e+05  -2.710865e+11   2.351626e+11   2.410076e+11   1.960884e+05   2.560270e-25   0.000000e+00   0.000000e+00
      936000   9.359990e-07   1.814894e+01   1.721418e+01   6.754701e-02  -1.459469e+04  -1.449647e+05   1.312361e+05  -2.749799e+11   2.386417e+11   2.330271e+11   1.960884e+05   2.560152e-25   0.000000e+00   0.000000e+00
      944000   9.439990e-07   1.814881e+01   1.721302e+01   6.860427e-02  -1.680966e+04  -1.430420e+05   1.330680e+05  -2.787392e+11   2.420055e+11   2.249349e+11   1.960884e+05   2.560050e-25   0.000000e+00   0.000000e+00
      952000   9.519990e-07   1.814867e+01   1.721189e+01   6.967593e-02  -1.905416e+04  -1.410929e+05   1.348347e+05  -2.823625e+11   2.452526e+11   2.167350e+11   1.960884e+05   2.559962e-25   0.000000e+00   0.000000e+00
      960000   9.599990e-07   1.814851e+01   1.721077e+01   7.076145e-02  -2.132710e+04  -1.391183e+05   1.365355e+05  -2.858480e+11   2.483815e+11   2.084315e+11   1.960884e+05   2.559888e-25   0.000000e+00   0.000000e+00
      968000   9.679990e-07   1.814833e+01   1.720966e+01   7.186032e-02  -2.362736e+04  -1.371191e+05   1.381694e+05  -2.891940e+11   2.513907e+11   2.000282e+11   1.960884e+05   2.559829e-25   0.000000e+00   0.000000e+00
      976000   9.759990e-07   1.814813e+01   1.720857e+01   7.297198e-02  -2.595383e+04  -1.350964e+05   1.397356e+05  -2.923989e+11   2.542790e+11   1.915294e+11   1.960884e+05   2.559783e-25   0.000000e+00   0.000000e+00
      984000   9.839990e-07   1.814791e+01   1.720750e+01   7.409590e-02  -2.830536e+04  -1.330510e+05   1.412336e+05  -2.954609e+11   2.570450e+11   1.829391e+11   1.960884e+05   2.559750e-25   0.000000e+00   0.000000e+00
      992000   9.919990e-07   1.814767e+01   1.720644e+01   7.523153e-02  -3.068082e+04  -1.309840e+05   1.426624e+05  -2.983788e+11   2.596874e+11   1.742615e+11   1.960885e+05   2.559730e-25   0.000000e+00   0.000000e+00
     1000000   9.999990e-07   1.814742e+01   1.720540e+01   7.637832e-02  -3.307904e+04  -1.288963e+05   1.440215e+05  -3.011509e+11   2.622052e+11   1.655009e+11   1.960885e+05   2.559722e-25   0.000000e+00   0.000000e+00
     1008000   1.007999e-06   1.814714e+01   1.720438e+01   7.753569e-02  -3.549885e+04  -1.267890e+05   1.453102e+05  -3.037759e+11   2.645972e+11   1.566614e+11   1.960885e+05   2.559726e-25   0.000000e+00   0.000000e+00
     1016000   1.015999e-06   1.814685e+01   1.720338e+01   7.870309e-02  -3.793906e+04  -1.246631e+05   1.465279e+05  -3.062525e+11   2.668622e+11   1.477474e+11   1.960885e+05   2.559742e-25   0.000000e+00   0.000000e+00
     1024000   1.023999e-06   1.814654e+01   1.720239e+01   7.987995e-02  -4.039849e+04  -1.225196e+05   1.476740e+05  -3.085795e+11   2.689994e+11   1.387633e+11   1.960885e+05   2.559767e-25   0.000000e+00   0.000000e+00
     1032000   1.031999e-06   1.814620e+01   1.720142e+01   8.106568e-02  -4.287593e+04  -1.203594e+05   1.487479e+05  -3.107558e+11   2.710076e+11   1.297132e+11   1.960885e+05   2.559803e-25   0.000000e+00   0.000000e+00
     1040000   1.039999e-06   1.814585e+01   1.720046e+01   8.225972e-02  -4.537018e+04  -1.181838e+05   1.497492e+05  -3.127803e+11   2.728862e+11   1.206017e+11   1.960885e+05   2.559849e-25   0.000000e+00   0.000000e+00
     1048000   1.047999e-06   1.814548e+01   1.719952e+01   8.346148e-02  -4.787959e+04  -1.159937e+05   1.506775e+05  -3.145481e+11   2.746121e+11   1.114502e+11   1.960885e+05   2.558894e-25   0.000000e+00   0.000000e+00
     1056000   1.055999e-06   1.814509e+01   1.719861e+01   8.467036e-02  -5.040295e+04  -1.137903e+05   1.515322e+05  -3.162663e+11   2.762280e+11   1.022323e+11   1.960885e+05   2.558953e-25   0.000000e+00   0.000000e+00
     1064000   1.063999e-06   1.814467e+01   1.719770e+01   8.588579e-02  -5.293944e+04  -1.115744e+05   1.523130e+05  -3.178302e+11   2.777118e+11   9.296624e+10   1.960885e+05   2.559019e-25   0.000000e+00   0.000000e+00
     1072000   1.071999e-06   1.814424e+01   1.719682e+01   8.710717e-02  -5.548782e+04  -1.093472e+05   1.530196e+05  -3.192388e+11   2.790630e+11   8.365651e+10   1.960885e+05   2.559093e-25   0.000000e+00   0.000000e+00
     1080000   1.079999e-06   1.814378e+01   1.719595e+01   8.833391e-02  -5.804684e+04  -1.071098e+05   1.536514e+05  -3.204915e+11   2.802808e+11   7.430764e+10   1.960885e+05   2.559172e-25   0.000000e+00   0.000000e+00
     1088000   1.087999e-06   1.814331e+01   1.719511e+01   8.956540e-02  -6.061527e+04  -1.048631e+05   1.542084e+05  -3.215877e+11   2.813648e+11   6.492413e+10   1.960885e+05   2.559258e-25   0.000000e+00   0.000000e+00
     1096000   1.095999e-06   1.814281e+01   1.719428e+01   9.080104e-02  -6.319183e+04  -1.026083e+05   1.546901e+05  -3.225269e+11   2.823146e+11   5.551052e+10   1.960885e+05   2.559348e-25   0.000000e+00   0.000000e+00
     1104000   1.103999e-06   1.814230e+01   1.719346e+01   9.204024e-02  -6.577528e+04  -1.003464e+05   1.550965e+05  -3.233087e+11   2.831296e+11   4.607137e+10   1.960885e+05   2.559442e-25   0.000000e+00   0.000000e+00
     1112000   1.111999e-06   1.814176e+01   1.719267e+01   9.328238e-02  -6.836435e+04  -9.807856e+04   1.554272e+05  -3.239326e+11   2.838096e+11   3.661124e+10   1.960885e+05   2.559540e-25   0.000000e+00   0.000000e+00
     1120000   1.119999e-06   1.814120e+01   1.719190e+01   9.452687e-02  -7.095778e+04  -9.580581e+04   1.556822e+05  -3.243984e+11   2.843543e+11   2.713471e+10   1.960885e+05   2.559641e-25   0.000000e+00   0.000000e+00
     1128000   1.127999e-06   1.814063e+01   1.719114e+01   9.577310e-02  -7.355430e+04  -9.352925e+04   1.558613e+05  -3.247058e+11   2.847634e+11   1.764635e+10   1.960885e+05   2.559745e-25   0.000000e+00   0.000000e+00
     1136000   1.135999e-06   1.814003e+01   1.719040e+01   9.702045e-02  -7.615265e+04  -9.124996e+04   1.559645e+05  -3.248549e+11   2.850368e+11   8.150742e+09   1.960885e+05   2.559849e-25   0.000000e+00   0.000000e+00
     1144000   1.143999e-06   1.813941e+01   1.718968e+01   9.826833e-02  -7.875156e+04  -8.896902e+04   1.559917e+05  -3.248454e+11   2.851744e+11  -1.347522e+09   1.960885e+05   2.559955e-25   0.000000e+00   0.000000e+00
     1152000   1.151999e-06   1.813877e+01   1.718898e+01   9.951611e-02  -8.134975e+04  -8.668753e+04   1.559429e+05  -3.246774e+11   2.851762e+11  -1.084386e+10   1.960885e+05   2.560060e-25   0.000000e+00   0.000000e+00
     1160000   1.159999e-06   1.813811e+01   1.718829e+01   1.007632e-01  -8.394636e+04  -8.440636e+04   1.558181e+05  -3.244309e+11   2.850856e+11  -2.035429e+10   1.960885e+05   2.561225e-25   0.000000e+00   0.000000e+00
     1168000   1.167999e-06   1.813742e+01   1.718762e+01   1.020090e-01  -8.653997e+04  -8.212665e+04   1.556174e+05  -3.239452e+11   2.848180e+11  -2.983520e+10   1.960885e+05   2.561341e-25   0.000000e+00   0.000000e+00
     1176000   1.175999e-06   1.813672e+01   1.718698e+01   1.032529e-01  -8.912907e+04  -7.984963e+04   1.553408e+05  -3.233017e+11   2.844148e+11  -3.930054e+10   1.960885e+05   2.561455e-25   0.000000e+00   0.000000e+00
     1184000   1.183999e-06   1.813600e+01   1.718635e+01   1.044943e-01  -9.171238e+04  -7.757638e+04   1.549886e+05  -3.225006e+11   2.838760e+11  -4.874573e+10   1.960885e+05   2.561566e-25   0.000000e+00   0.000000e+00
     1192000   1.191999e-06   1.813525e+01   1.718574e+01   1.057325e-01  -9.428866e+04  -7.530798e+04   1.545609e+05  -3.215423e+11   2.832021e+11  -5.816623e+10   1.960885e+05   2.561673e-25   0.000000e+00   0.000000e+00
     1200000   1.199999e-06   1.813449e+01   1.718514e+01   1.069670e-01  -9.685664e+04  -7.304551e+04   1.540580e+05  -3.204274e+11   2.823933e+11  -6.755749e+10   1.960886e+05   2.561776e-25   0.000000e+00   0.000000e+00
     1208000   1.207999e-06   1.813370e+01   1.718457e+01   1.081972e-01  -9.941508e+04  -7.079004e+04   1.534801e+05  -3.191564e+11   2.814500e+11  -7.691498e+10   1.960886e+05   2.561874e-25   0.000000e+00   0.000000e+00
     1216000   1.215999e-06   1.813290e+01   1.718401e+01   1.094225e-01  -1.019627e+05  -6.854266e+04   1.528274e+05  -3.177301e+11   2.803727e+11  -8.623419e+10   1.960886e+05   2.561967e-25   0.000000e+00   0.000000e+00
     1224000   1.223999e-06   1.813207e+01   1.718347e+01   1.106423e-01  -1.044983e+05  -6.630444e+04   1.521004e+05  -3.161491e+11   2.791618e+11  -9.551062e+10   1.960886e+05   2.562053e-25   0.000000e+00   0.000000e+00
     1232000   1.231999e-06   1.813123e+01   1.718295e+01   1.118559e-01  -1.070207e+05  -6.407643e+04   1.512994e+05  -3.144143e+11   2.778180e+11  -1.047398e+11   1.960886e+05   2.562132e-25   0.000000e+00   0.000000e+00
     1240000   1.239999e-06   1.813036e+01   1.718244e+01   1.130629e-01  -1.095286e+05  -6.185970e+04   1.504247e+05  -3.125266e+11   2.763418e+11  -1.139173e+11   1.960886e+05   2.562203e-25   0.000000e+00   0.000000e+00
     1248000   1.247999e-06   1.812948e+01   1.718196e+01   1.142625e-01  -1.120207e+05  -5.965531e+04   1.494769e+05  -3.104870e+11   2.747340e+11  -1.230387e+11   1.960886e+05   2.562267e-25   0.000000e+00   0.000000e+00
     1256000   1.255999e-06   1.812857e+01   1.718149e+01   1.154543e-01  -1.144960e+05  -5.746431e+04   1.484563e+05  -3.082964e+11   2.729953e+11  -1.320996e+11   1.960886e+05   2.562321e-25   0.000000e+00   0.000000e+00
     1264000   1.263999e-06   1.812764e+01   1.718104e+01   1.166376e-01  -1.169531e+05  -5.528774e+04   1.473634e+05  -3.059561e+11   2.711265e+11  -1.410956e+11   1.960886e+05   2.562366e-25   0.000000e+00   0.000000e+00
     1272000   1.271999e-06   1.812670e+01   1.718061e+01   1.178119e-01  -1.193908e+05  -5.312663e+04   1.461989e+05  -3.034672e+11   2.691285e+11  -1.500225e+11   1.960886e+05   2.562401e-25   0.000000e+00   0.000000e+00
     1280000   1.279999e-06   1.812573e+01   1.718019e+01   1.189766e-01  -1.218081e+05  -5.098203e+04   1.449633e+05  -3.008310e+11   2.670022e+11  -1.588758e+11   1.960886e+05   2.562425e-25   0.000000e+00   0.000000e+00
     1288000   1.287999e-06   1.812475e+01   1.717979e+01   1.201311e-01  -1.242038e+05  -4.885494e+04   1.436571e+05  -2.980488e+11   2.647486e+11  -1.676514e+11   1.960886e+05   2.562438e-25   0.000000e+00   0.000000e+00
     1296000   1.295999e-06   1.812375e+01   1.717941e+01   1.212749e-01  -1.265765e+05  -4.674639e+04   1.422810e+05  -2.951221e+11   2.623688e+11  -1.763450e+11   1.960886e+05   2.562440e-25   0.000000e+00   0.000000e+00
     1304000   1.303999e-06   1.812272e+01   1.717904e+01   1.224075e-01  -1.289253e+05  -4.465738e+04   1.408358e+05  -2.920524e+11   2.598638e+11  -1.849525e+11   1.960886e+05   2.562429e-25   0.000000e+00   0.000000e+00
     1312000   1.311999e-06   1.812168e+01   1.717869e+01   1.235281e-01  -1.312490e+05  -4.258890e+04   1.393220e+05  -2.888413e+11   2.572348e+11  -1.934697e+11   1.960886e+05   2.562406e-25   0.000000e+00   0.000000e+00
     1320000   1.319999e-06   1.812062e+01   1.717836e+01   1.246364e-01  -1.335464e+05  -4.054195e+04   1.377405e+05  -2.854903e+11   2.544830e+11  -2.018925e+11   1.960886e+05   2.562370e-25   0.000000e+00   0.000000e+00
     1328000   1.327999e-06   1.811955e+01   1.717804e+01   1.257318e-01  -1.358165e+05  -3.851750e+04   1.360920e+05  -2.820012e+11   2.516098e+11  -2.102169e+11   1.960886e+05   2.562320e-25   0.000000e+00   0.000000e+00
     1336000   1.335999e-06   1.811845e+01   1.717774e+01   1.268137e-01  -1.380581e+05  -3.651652e+04   1.343773e+05  -2.783757e+11   2.486164e+11  -2.184388e+11   1.960886e+05   2.562257e-25   0.000000e+00   0.000000e+00
     1344000   1.343999e-06   1.811734e+01   1.717746e+01   1.278817e-01  -1.402701e+05  -3.453996e+04   1.325973e+05  -2.746157e+11   2.455042e+11  -2.265543e+11   1.960886e+05   2.562179e-25   0.000000e+00   0.000000e+00
     1352000   1.351999e-06   1.811621e+01   1.717719e+01   1.289351e-01  -1.424516e+05  -3.258877e+04   1.307527e+05  -2.707231e+11   2.422746e+11  -2.345596e+11   1.960886e+05   2.562087e-25   0.000000e+00   0.000000e+00
     1360000   1.359999e-06   1.811506e+01   1.717694e+01   1.299735e-01  -1.446013e+05  -3.066388e+04   1.288446e+05  -2.666999e+11   2.389292e+11  -2.424508e+11   1.960886e+05   2.561980e-25   0.000000e+00   0.000000e+00
     1368000   1.367999e-06   1.811389e+01   1.717670e+01   1.309965e-01  -1.467184e+05  -2.876621e+04   1.268738e+05  -2.625481e+11   2.354696e+11  -2.502240e+11   1.960886e+05   2.561857e-25   0.000000e+00   0.000000e+00
     1376000   1.375999e-06   1.811271e+01   1.717648e+01   1.320034e-01  -1.488018e+05  -2.689667e+04   1.248413e+05  -2.582697e+11   2.318972e+11  -2.578756e+11   1.960886e+05   2.561720e-25   0.000000e+00   0.000000e+00
     1384000   1.383999e-06   1.811151e+01   1.717627e+01   1.329938e-01  -1.508504e+05  -2.505615e+04   1.227481e+05  -2.538671e+11   2.282138e+11  -2.654020e+11   1.960886e+05   2.561567e-25   0.000000e+00   0.000000e+00
     1392000   1.391999e-06   1.811030e+01   1.717608e+01   1.339672e-01  -1.528633e+05  -2.324554e+04   1.205952e+05  -2.493423e+11   2.244211e+11  -2.727994e+11   1.960886e+05   2.561398e-25   0.000000e+00   0.000000e+00
     1400000   1.399999e-06   1.810907e+01   1.717590e+01   1.349231e-01  -1.548395e+05  -2.146570e+04   1.183837e+05  -2.446976e+11   2.205208e+11  -2.800643e+11   1.960886e+05   2.561213e-25   0.000000e+00   0.000000e+00
     1408000   1.407999e-06   1.810782e+01   1.717573e+01   1.358612e-01  -1.567781e+05  -1.971749e+04   1.161146e+05  -2.399355e+11   2.165148e+11  -2.871933e+11   1.960887e+05   2.561012e-25   0.000000e+00   0.000000e+00
     1416000   1.415999e-06   1.810656e+01   1.717558e+01   1.367808e-01  -1.586782e+05  -1.800175e+04   1.137890e+05  -2.350583e+11   2.124049e+11  -2.941830e+11   1.960887e+05   2.560795e-25   0.000000e+00   0.000000e+00
     1424000   1.423999e-06   1.810528e+01   1.717545e+01   1.376816e-01  -1.605388e+05  -1.631929e+04   1.114080e+05  -2.300684e+11   2.081930e+11  -3.010299e+11   1.960887e+05   2.560561e-25   0.000000e+00   0.000000e+00
     1432000   1.431999e-06   1.810399e+01   1.717532e+01   1.385632e-01  -1.623590e+05  -1.467093e+04   1.089729e+05  -2.249683e+11   2.038811e+11  -3.077309e+11   1.960887e+05   2.560311e-25   0.000000e+00   0.000000e+00
     1440000   1.439999e-06   1.810268e+01   1.717521e+01   1.394251e-01  -1.641380e+05  -1.305746e+04   1.064847e+05  -2.197607e+11   1.994712e+11  -3.142827e+11   1.960887e+05   2.560045e-25   0.000000e+00   0.000000e+00
     1448000   1.447999e-06   1.810136e+01   1.717511e+01   1.402668e-01  -1.658749e+05  -1.147965e+04   1.039447e+05  -2.144481e+11   1.949653e+11  -3.206822e+11   1.960887e+05   2.559763e-25   0.000000e+00   0.000000e+00
     1456000   1.455999e-06   1.810003e+01   1.717503e+01   1.410880e-01  -1.675689e+05  -9.938270e+03   1.013542e+05  -2.090331e+11   1.903655e+11  -3.269263e+11   1.960887e+05   2.559464e-25   0.000000e+00   0.000000e+00
     1464000   1.463999e-06   1.809868e+01   1.717495e+01   1.418883e-01  -1.692194e+05  -8.434101e+03   9.871392e+04  -2.035491e+11   1.856661e+11  -3.330669e+11   1.960887e+05   2.559779e-25   0.000000e+00   0.000000e+00
     1472000   1.471999e-06   1.809732e+01   1.717489e+01   1.426673e-01  -1.708254e+05  -6.967855e+03   9.602557e+04  -1.979361e+11   1.808813e+11  -3.389927e+11   1.960887e+05   2.559439e-25   0.000000e+00   0.000000e+00
     1480000   1.479999e-06   1.809595e+01   1.717484e+01   1.434246e-01  -1.723861e+05  -5.540238e+03   9.329047e+04  -1.922290e+11   1.760093e+11  -3.447543e+11   1.960887e+05   2.559082e-25   0.000000e+00   0.000000e+00
     1488000   1.487999e-06   1.809456e+01   1.717480e+01   1.441599e-01  -1.739008e+05  -4.151938e+03   9.050994e+04  -1.864307e+11   1.710522e+11  -3.503489e+11   1.960887e+05   2.558710e-25   0.000000e+00   0.000000e+00
     1496000   1.495999e-06   1.809317e+01   1.717478e+01   1.448727e-01  -1.753687e+05  -2.803628e+03   8.768533e+04  -1.805440e+11   1.660125e+11  -3.557738e+11   1.960887e+05   2.558322e-25   0.000000e+00   0.000000e+00
     1504000   1.503999e-06   1.809176e+01   1.717476e+01   1.455627e-01  -1.767893e+05  -1.495958e+03   8.481801e+04  -1.745718e+11   1.608925e+11  -3.610265e+11   1.960887e+05   2.557919e-25   0.000000e+00   0.000000e+00
     1512000   1.511999e-06   1.809034e+01   1.717475e+01   1.462296e-01  -1.781617e+05  -2.295610e+02   8.190937e+04  -1.685173e+11   1.556945e+11  -3.661045e+11   1.960887e+05   2.557501e-25   0.000000e+00   0.000000e+00
     1520000   1.519999e-06   1.808891e+01   1.717475e+01   1.468732e-01  -1.794853e+05   9.949486e+02   7.896081e+04  -1.623832e+11   1.504212e+11  -3.710053e+11   1.960887e+05   2.557068e-25   0.000000e+00   0.000000e+00
     1528000   1.527999e-06   1.808747e+01   1.717477e+01   1.474929e-01  -1.807596e+05   2.176978e+03   7.597376e+04  -1.561728e+11   1.450748e+11  -3.757266e+11   1.960887e+05   2.556621e-25   0.000000e+00   0.000000e+00
     1536000   1.535999e-06   1.808602e+01   1.717479e+01   1.480886e-01  -1.819839e+05   3.315952e+03   7.294967e+04  -1.498890e+11   1.396580e+11  -3.802662e+11   1.960887e+05   2.556160e-25   0.000000e+00   0.000000e+00
     1544000   1.543999e-06   1.808456e+01   1.717482e+01   1.486600e-01  -1.831576e+05   4.411319e+03   6.988999e+04  -1.435350e+11   1.341733e+11  -3.846219e+11   1.960887e+05   2.555685e-25   0.000000e+00   0.000000e+00
     1552000   1.551999e-06   1.808309e+01   1.717486e+01   1.492068e-01  -1.842803e+05   5.462545e+03   6.679621e+04  -1.371139e+11   1.286232e+11  -3.887917e+11   1.960887e+05   2.555197e-25   0.000000e+00   0.000000e+00
     1560000   1.559999e-06   1.808161e+01   1.717491e+01   1.497287e-01  -1.853513e+05   6.469118e+03   6.366982e+04  -1.306289e+11   1.230105e+11  -3.927736e+11   1.960887e+05   2.554696e-25   0.000000e+00   0.000000e+00
     1568000   1.567999e-06   1.808012e+01   1.717496e+01   1.502254e-01  -1.863702e+05   7.430547e+03   6.051233e+04  -1.240832e+11   1.173377e+11  -3.965656e+11   1.960887e+05   2.554183e-25   0.000000e+00   0.000000e+00
     1576000   1.575999e-06   1.807863e+01   1.717503e+01   1.506968e-01  -1.873364e+05   8.346363e+03   5.732527e+04  -1.174801e+11   1.116076e+11  -4.001661e+11   1.960887e+05   2.553657e-25   0.000000e+00   0.000000e+00
     1584000   1.583999e-06   1.807712e+01   1.717510e+01   1.511425e-01  -1.882497e+05   9.216118e+03   5.411018e+04  -1.108227e+11   1.058228e+11  -4.035733e+11   1.960887e+05   2.553121e-25   0.000000e+00   0.000000e+00
     1592000   1.591999e-06   1.807561e+01   1.717517e+01   1.515625e-01  -1.891095e+05   1.003938e+04   5.086862e+04  -1.041143e+11   9.998616e+10  -4.067856e+11   1.960887e+05   2.552573e-25   0.000000e+00   0.000000e+00
     1600000   1.599999e-06   1.807410e+01   1.717526e+01   1.519564e-01  -1.899154e+05   1.081576e+04   4.760214e+04  -9.735834e+10   9.410036e+10  -4.098015e+11   1.960887e+05   2.552014e-25   0.000000e+00   0.000000e+00
     1608000   1.607999e-06   1.807258e+01   1.717535e+01   1.523241e-01  -1.906671e+05   1.154486e+04   4.431232e+04  -9.055799e+10   8.816822e+10  -4.126196e+11   1.960887e+05   2.551446e-25   0.000000e+00   0.000000e+00
     1616000   1.615999e-06   1.807105e+01   1.717544e+01   1.526653e-01  -1.913642e+05   1.222633e+04   4.100075e+04  -8.371663e+10   8.219256e+10  -4.152386e+11   1.960888e+05   2.550868e-25   0.000000e+00   0.000000e+00
     1624000   1.623999e-06   1.806951e+01   1.717554e+01   1.529800e-01  -1.920064e+05   1.285983e+04   3.766903e+04  -7.683761e+10   7.617624e+10  -4.176572e+11   1.960888e+05   2.550282e-25   0.000000e+00   0.000000e+00
     1632000   1.631999e-06   1.806798e+01   1.717565e+01   1.532680e-01  -1.925935e+05   1.344504e+04   3.431877e+04  -6.992428e+10   7.012211e+10  -4.198743e+11   1.960888e+05   2.549687e-25   0.000000e+00   0.000000e+00
     1640000   1.639999e-06   1.806643e+01   1.717576e+01   1.535291e-01  -1.931251e+05   1.398168e+04   3.095158e+04  -6.298003e+10   6.403306e+10  -4.218889e+11   1.960888e+05   2.549085e-25   0.000000e+00   0.000000e+00
     1648000   1.647999e-06   1.806489e+01   1.717587e+01   1.537632e-01  -1.936011e+05   1.446948e+04   2.756909e+04  -5.600823e+10   5.791201e+10  -4.237001e+11   1.960888e+05   2.548476e-25   0.000000e+00   0.000000e+00
     1656000   1.655999e-06   1.806333e+01   1.717599e+01   1.539701e-01  -1.940212e+05   1.490819e+04   2.417292e+04  -4.901230e+10   5.176187e+10  -4.253071e+11   1.960888e+05   2.547861e-25   0.000000e+00   0.000000e+00
     1664000   1.663999e-06   1.806178e+01   1.717611e+01   1.541499e-01  -1.943852e+05   1.529759e+04   2.076472e+04  -4.199563e+10   4.558559e+10  -4.267090e+11   1.960888e+05   2.547240e-25   0.000000e+00   0.000000e+00
     1672000   1.671999e-06   1.806022e+01   1.717623e+01   1.543023e-01  -1.946931e+05   1.563749e+04   1.734613e+04  -3.496162e+10   3.938612e+10  -4.279053e+11   1.960888e+05   2.546614e-25   0.000000e+00   0.000000e+00
     1680000   1.679999e-06   1.805867e+01   1.717636e+01   1.544274e-01  -1.949446e+05   1.592771e+04   1.391878e+04  -2.791370e+10   3.316644e+10  -4.288955e+11   1.960888e+05   2.545983e-25   0.000000e+00   0.000000e+00
     1688000   1.687999e-06   1.805711e+01   1.717649e+01   1.545250e-01  -1.951396e+05   1.616810e+04   1.048435e+04  -2.085527e+10   2.692953e+10  -4.296790e+11   1.960888e+05   2.545349e-25   0.000000e+00   0.000000e+00
     1696000   1.695999e-06   1.805554e+01   1.717662e+01   1.545951e-01  -1.952782e+05   1.635854e+04   7.044471e+03  -1.378977e+10   2.067839e+10  -4.302557e+11   1.960888e+05   2.544712e-25   0.000000e+00   0.000000e+00
     1704000   1.703999e-06   1.805398e+01   1.717675e+01   1.546377e-01  -1.953603e+05   1.649892e+04   3.600809e+03  -6.720589e+09   1.441602e+10  -4.306252e+11   1.960888e+05   2.544072e-25   0.000000e+00   0.000000e+00
     1712000   1.711999e-06   1.805242e+01   1.717688e+01   1.546527e-01  -1.953858e+05   1.658917e+04   1.550207e+02   3.488451e+08   8.145433e+09  -4.307874e+11   1.960888e+05   2.543431e-25   0.000000e+00   0.000000e+00
     1720000   1.719999e-06   1.805086e+01   1.717701e+01   1.546402e-01  -1.953547e+05   1.662923e+04  -3.291236e+03   7.415127e+09   1.869656e+09  -4.307423e+11   1.960888e+05   2.542789e-25   0.000000e+00   0.000000e+00
     1728000   1.727999e-06   1.804929e+01   1.717715e+01   1.546001e-01  -1.952671e+05   1.661907e+04  -6.736302e+03   1.447485e+10  -4.408286e+09  -4.304899e+11   1.960888e+05   2.542147e-25   0.000000e+00   0.000000e+00
     1736000   1.735999e-06   1.804773e+01   1.717728e+01   1.545324e-01  -1.951231e+05   1.655869e+04  -1.017852e+04   2.152463e+10  -1.068537e+10  -4.300304e+11   1.960888e+05   2.541505e-25   0.000000e+00   0.000000e+00
     1744000   1.743999e-06   1.804617e+01   1.717741e+01   1.544372e-01  -1.949228e+05   1.644811e+04  -1.361624e+04   2.856107e+10  -1.695855e+10  -4.293641e+11   1.960888e+05   2.540865e-25   0.000000e+00   0.000000e+00
     1752000   1.751999e-06   1.804461e+01   1.717754e+01   1.543146e-01  -1.946662e+05   1.628737e+04  -1.704780e+04   3.558080e+10  -2.322480e+10  -4.284914e+11   1.960888e+05   2.540226e-25   0.000000e+00   0.000000e+00
     1760000   1.759999e-06   1.804306e+01   1.717767e+01   1.541645e-01  -1.943535e+05   1.607653e+04  -2.047155e+04   4.258045e+10  -2.948108e+10  -4.274127e+11   1.960888e+05   2.539590e-25   0.000000e+00   0.000000e+00
     1768000   1.767999e-06   1.804150e+01   1.717780e+01   1.539871e-01  -1.939849e+05   1.581570e+04  -2.388585e+04   4.955668e+10  -3.572437e+10  -4.261285e+11   1.960888e+05   2.538957e-25   0.000000e+00   0.000000e+00
     1776000   1.775999e-06   1.803995e+01   1.717793e+01   1.537824e-01  -1.935607e+05   1.550498e+04  -2.728906e+04   5.650616e+10  -4.195164e+10  -4.246396e+11   1.960888e+05   2.538328e-25   0.000000e+00   0.000000e+00
     1784000   1.783999e-06   1.803841e+01   1.717805e+01   1.535505e-01  -1.930809e+05   1.514452e+04  -3.067954e+04   6.342556e+10  -4.815985e+10  -4.229467e+11   1.960888e+05   2.537703e-25   0.000000e+00   0.000000e+00
     1792000   1.791999e-06   1.803686e+01   1.717817e+01   1.532915e-01  -1.925459e+05   1.473447e+04  -3.405566e+04   7.031160e+10  -5.434601e+10  -4.210506e+11   1.960888e+05   2.537084e-25   0.000000e+00   0.000000e+00
     1800000   1.799999e-06   1.803533e+01   1.717828e+01   1.530056e-01  -1.919560e+05   1.427504e+04  -3.741581e+04   7.716099e+10  -6.050708e+10  -4.189524e+11   1.960888e+05   2.536470e-25   0.000000e+00   0.000000e+00
     1808000   1.807999e-06   1.803379e+01   1.717840e+01   1.526929e-01  -1.913115e+05   1.376643e+04  -4.075836e+04   8.397048e+10  -6.664009e+10  -4.166531e+11   1.960888e+05   2.535863e-25   0.000000e+00   0.000000e+00
     1816000   1.815999e-06   1.803226e+01   1.717850e+01   1.523535e-01  -1.906126e+05   1.320888e+04  -4.408172e+04   9.073685e+10  -7.274204e+10  -4.141538e+11   1.960888e+05   2.535263e-25   0.000000e+00   0.000000e+00
     1824000   1.823999e-06   1.803074e+01   1.717861e+01   1.519877e-01  -1.898598e+05   1.260264e+04  -4.738429e+04   9.745687e+10  -7.880994e+10  -4.114558e+11   1.960888e+05   2.534671e-25   0.000000e+00   0.000000e+00
     1832000   1.831999e-06   1.802923e+01   1.717871e+01   1.515955e-01  -1.890534e+05   1.194801e+04  -5.066448e+04   1.041274e+11  -8.484086e+10  -4.085604e+11   1.960889e+05   2.534087e-25   0.000000e+00   0.000000e+00
     1840000   1.839999e-06   1.802772e+01   1.717880e+01   1.511771e-01  -1.881939e+05   1.124529e+04  -5.392073e+04   1.107452e+11  -9.083182e+10  -4.054690e+11   1.960889e+05   2.533511e-25   0.000000e+00   0.000000e+00
     1848000   1.847999e-06   1.802622e+01   1.717889e+01   1.507328e-01  -1.872816e+05   1.049481e+04  -5.715147e+04   1.173073e+11  -9.677992e+10  -4.021833e+11   1.960889e+05   2.532946e-25   0.000000e+00   0.000000e+00
     1856000   1.855999e-06   1.802472e+01   1.717897e+01   1.502627e-01  -1.863171e+05   9.696925e+03  -6.035515e+04   1.238104e+11  -1.026822e+11  -3.987048e+11   1.960889e+05   2.532390e-25   0.000000e+00   0.000000e+00
     1864000   1.863999e-06   1.802324e+01   1.717904e+01   1.497672e-01  -1.853008e+05   8.852016e+03  -6.353023e+04   1.302516e+11  -1.085359e+11  -3.950352e+11   1.960889e+05   2.531844e-25   0.000000e+00   0.000000e+00
     1872000   1.871999e-06   1.802176e+01   1.717911e+01   1.492463e-01  -1.842333e+05   7.960483e+03  -6.667520e+04   1.366279e+11  -1.143380e+11  -3.911764e+11   1.960889e+05   2.531310e-25   0.000000e+00   0.000000e+00
     1880000   1.879999e-06   1.802029e+01   1.717917e+01   1.487005e-01  -1.831150e+05   7.022748e+03  -6.978855e+04   1.429361e+11  -1.200857e+11  -3.871303e+11   1.960889e+05   2.530787e-25   0.000000e+00   0.000000e+00
     1888000   1.887999e-06   1.801883e+01   1.717922e+01   1.481298e-01  -1.819465e+05   6.039259e+03  -7.286879e+04   1.491735e+11  -1.257762e+11  -3.828988e+11   1.960889e+05   2.530276e-25   0.000000e+00   0.000000e+00
     1896000   1.895999e-06   1.801738e+01   1.717926e+01   1.475347e-01  -1.807284e+05   5.010484e+03  -7.591444e+04   1.553370e+11  -1.314067e+11  -3.784840e+11   1.960889e+05   2.529777e-25   0.000000e+00   0.000000e+00
     1904000   1.903999e-06   1.801594e+01   1.717930e+01   1.469153e-01  -1.794613e+05   3.936914e+03  -7.892404e+04   1.614238e+11  -1.369744e+11  -3.738881e+11   1.960889e+05   2.529290e-25   0.000000e+00   0.000000e+00
     1912000   1.911999e-06   1.801451e+01   1.717933e+01   1.462720e-01  -1.781458e+05   2.819062e+03  -8.189616e+04   1.674310e+11  -1.424767e+11  -3.691133e+11   1.960889e+05   2.528817e-25   0.000000e+00   0.000000e+00
     1920000   1.919999e-06   1.801309e+01   1.717934e+01   1.456050e-01  -1.767826e+05   1.657463e+03  -8.482938e+04   1.733559e+11  -1.479107e+11  -3.641620e+11   1.960889e+05   2.528357e-25   0.000000e+00   0.000000e+00
     1928000   1.927999e-06   1.801168e+01   1.717935e+01   1.449148e-01  -1.753723e+05   4.526745e+02  -8.772229e+04   1.791956e+11  -1.532738e+11  -3.590366e+11   1.960889e+05   2.527911e-25   0.000000e+00   0.000000e+00
     1936000   1.935999e-06   1.801028e+01   1.717935e+01   1.442016e-01  -1.739157e+05  -7.947270e+02  -9.057350e+04   1.849475e+11  -1.585634e+11  -3.537397e+11   1.960889e+05   2.527479e-25   0.000000e+00   0.000000e+00
     1944000   1.943999e-06   1.800889e+01   1.717934e+01   1.434658e-01  -1.724134e+05  -2.084142e+03  -9.338167e+04   1.906089e+11  -1.637769e+11  -3.482737e+11   1.960889e+05   2.527061e-25   0.000000e+00   0.000000e+00
     1952000   1.951999e-06   1.800752e+01   1.717932e+01   1.427076e-01  -1.708662e+05  -3.414953e+03  -9.614543e+04   1.961772e+11  -1.689117e+11  -3.426414e+11   1.960889e+05   2.526658e-25   0.000000e+00   0.000000e+00
     1960000   1.959999e-06   1.800616e+01   1.717929e+01   1.419275e-01  -1.692748e+05  -4.786517e+03  -9.886349e+04   2.016497e+11  -1.739652e+11  -3.368455e+11   1.960889e+05   2.526269e-25   0.000000e+00   0.000000e+00
     1968000   1.967999e-06   1.800481e+01   1.717924e+01   1.411259e-01  -1.676400e+05  -6.198177e+03  -1.015345e+05   2.070241e+11  -1.789350e+11  -3.308888e+11   1.960889e+05   2.525896e-25   0.000000e+00   0.000000e+00
     1976000   1.975999e-06   1.800348e+01   1.717919e+01   1.403031e-01  -1.659627e+05  -7.649252e+03  -1.041573e+05   2.122977e+11  -1.838186e+11  -3.247743e+11   1.960889e+05   2.525537e-25   0.000000e+00   0.000000e+00
     1984000   1.983999e-06   1.800216e+01   1.717912e+01   1.394595e-01  -1.642436e+05  -9.139043e+03  -1.067305e+05   2.174682e+11  -1.886136e+11  -3.185049e+11   1.960889e+05   2.525194e-25   0.000000e+00   0.000000e+00
     1992000   1.991999e-06   1.800085e+01   1.717904e+01   1.385956e-01  -1.624835e+05  -1.066683e+04  -1.092529e+05   2.225331e+11  -1.933176e+11  -3.120836e+11   1.960889e+05   2.524866e-25   0.000000e+00   0.000000e+00
     2000000   1.999999e-06   1.799956e+01   1.717895e+01   1.377116e-01  -1.606834e+05  -1.223190e+04  -1.117233e+05   2.274457e+11  -1.979358e+11  -3.054494e+11   1.960889e+05   2.523777e-25   0.000000e+00   0.000000e+00
     2008000   2.007999e-06   1.799828e+01   1.717884e+01   1.368081e-01  -1.588444e+05  -1.383351e+04  -1.141401e+05   2.322917e+11  -2.024482e+11  -2.987368e+11   1.960889e+05   2.523489e-25   0.000000e+00   0.000000e+00
     2016000   2.015999e-06   1.799702e+01   1.717873e+01   1.358855e-01  -1.569671e+05  -1.547082e+04  -1.165027e+05   2.370255e+11  -2.068629e+11  -2.918821e+11   1.960889e+05   2.523216e-25   0.000000e+00   0.000000e+00
     2024000   2.023999e-06   1.799577e+01   1.717860e+01   1.349442e-01  -1.550523e+05  -1.714305e+04  -1.188098e+05   2.416449e+11  -2.111777e+11  -2.848884e+11   1.960889e+05   2.522959e-25   0.000000e+00   0.000000e+00
     2032000   2.031999e-06   1.799454e+01   1.717845e+01   1.339847e-01  -1.531010e+05  -1.884939e+04  -1.210605e+05   2.461478e+11  -2.153904e+11  -2.777593e+11   1.960889e+05   2.522716e-25   0.000000e+00   0.000000e+00
     2040000   2.039999e-06   1.799332e+01   1.717830e+01   1.330074e-01  -1.511142e+05  -2.058902e+04  -1.232536e+05   2.505321e+11  -2.194990e+11  -2.704982e+11   1.960890e+05   2.522489e-25   0.000000e+00   0.000000e+00
     2048000   2.047999e-06   1.799212e+01   1.717812e+01   1.320128e-01  -1.490928e+05  -2.236110e+04  -1.253881e+05   2.547958e+11  -2.235014e+11  -2.631085e+11   1.960890e+05   2.522277e-25   0.000000e+00   0.000000e+00
     2056000   2.055999e-06   1.799093e+01   1.717794e+01   1.310014e-01  -1.470378e+05  -2.416476e+04  -1.274630e+05   2.589371e+11  -2.273957e+11  -2.555939e+11   1.960890e+05   2.522080e-25   0.000000e+00   0.000000e+00
     2064000   2.063999e-06   1.798977e+01   1.717774e+01   1.299736e-01  -1.449502e+05  -2.599914e+04  -1.294773e+05   2.629540e+11  -2.311799e+11  -2.479580e+11   1.960890e+05   2.521897e-25   0.000000e+00   0.000000e+00
     2072000   2.071999e-06   1.798861e+01   1.717752e+01   1.289299e-01  -1.428309e+05  -2.786334e+04  -1.314300e+05   2.668447e+11  -2.348522e+11  -2.402045e+11   1.960890e+05   2.521729e-25   0.000000e+00   0.000000e+00
     2080000   2.079999e-06   1.798748e+01   1.717729e+01   1.278709e-01  -1.406810e+05  -2.975648e+04  -1.333203e+05   2.706074e+11  -2.384108e+11  -2.323371e+11   1.960890e+05   2.521575e-25   0.000000e+00   0.000000e+00
     2088000   2.087999e-06   1.798636e+01   1.717704e+01   1.267970e-01  -1.385015e+05  -3.167761e+04  -1.351471e+05   2.742405e+11  -2.418539e+11  -2.243596e+11   1.960890e+05   2.521435e-25   0.000000e+00   0.000000e+00
     2096000   2.095999e-06   1.798526e+01   1.717678e+01   1.257087e-01  -1.362935e+05  -3.362583e+04  -1.369097e+05   2.777423e+11  -2.451798e+11  -2.162760e+11   1.960890e+05   2.521309e-25   0.000000e+00   0.000000e+00
     2104000   2.103999e-06   1.798418e+01   1.717651e+01   1.246066e-01  -1.340580e+05  -3.560018e+04  -1.386072e+05   2.811112e+11  -2.483868e+11  -2.080899e+11   1.960890e+05   2.521196e-25   0.000000e+00   0.000000e+00
     2112000   2.111999e-06   1.798312e+01   1.717621e+01   1.234911e-01  -1.317961e+05  -3.759970e+04  -1.402389e+05   2.843457e+11  -2.514734e+11  -1.998056e+11   1.960890e+05   2.521096e-25   0.000000e+00   0.000000e+00
     2120000   2.119999e-06   1.798207e+01   1.717591e+01   1.223629e-01  -1.295088e+05  -3.962343e+04  -1.418039e+05   2.874444e+11  -2.544381e+11  -1.914268e+11   1.960890e+05   2.521009e-25   0.000000e+00   0.000000e+00
     2128000   2.127999e-06   1.798105e+01   1.717558e+01   1.212225e-01  -1.271973e+05  -4.167038e+04  -1.433015e+05   2.904059e+11  -2.572794e+11  -1.829577e+11   1.960890e+05   2.520934e-25   0.000000e+00   0.000000e+00
     2136000   2.135999e-06   1.798004e+01   1.717524e+01   1.200703e-01  -1.248627e+05  -4.373957e+04  -1.447310e+05   2.932288e+11  -2.599959e+11  -1.744023e+11   1.960890e+05   2.520870e-25   0.000000e+00   0.000000e+00
     2144000   2.143999e-06   1.797905e+01   1.717488e+01   1.189069e-01  -1.225060e+05  -4.582998e+04  -1.460917e+05   2.959119e+11  -2.625863e+11  -1.657648e+11   1.960890e+05   2.520818e-25   0.000000e+00   0.000000e+00
     2152000   2.151999e-06   1.797808e+01   1.717451e+01   1.177330e-01  -1.201285e+05  -4.794061e+04  -1.473830e+05   2.984540e+11  -2.650492e+11  -1.570493e+11   1.960890e+05   2.520778e-25   0.000000e+00   0.000000e+00
     2160000   2.159999e-06   1.797713e+01   1.717411e+01   1.165490e-01  -1.177312e+05  -5.007043e+04  -1.486043e+05   3.008540e+11  -2.673836e+11  -1.482600e+11   1.960890e+05   2.520747e-25   0.000000e+00   0.000000e+00
     2168000   2.167999e-06   1.797620e+01   1.717370e+01   1.153555e-01  -1.153152e+05  -5.221840e+04  -1.497549e+05   3.031108e+11  -2.695882e+11  -1.394011e+11   1.960890e+05   2.520727e-25   0.000000e+00   0.000000e+00
     2176000   2.175999e-06   1.797528e+01   1.717328e+01   1.141531e-01  -1.128818e+05  -5.438349e+04  -1.508345e+05   3.052235e+11  -2.716619e+11  -1.304769e+11   1.960890e+05   2.520715e-25   0.000000e+00   0.000000e+00
     2184000   2.183999e-06   1.797439e+01   1.717283e+01   1.129424e-01  -1.104320e+05  -5.656465e+04  -1.518424e+05   3.071910e+11  -2.736039e+11  -1.214917e+11   1.960890e+05   2.520713e-25   0.000000e+00   0.000000e+00
     2192000   2.191999e-06   1.797352e+01   1.717237e+01   1.117238e-01  -1.079671e+05  -5.876080e+04  -1.527782e+05   3.090126e+11  -2.754130e+11  -1.124498e+11   1.960890e+05   2.520719e-25   0.000000e+00   0.000000e+00
     2200000   2.199999e-06   1.797266e+01   1.717189e+01   1.104981e-01  -1.054882e+05  -6.097090e+04  -1.536415e+05   3.106874e+11  -2.770885e+11  -1.033556e+11   1.960890e+05   2.520733e-25   0.000000e+00   0.000000e+00
     2208000   2.207999e-06   1.797183e+01   1.717140e+01   1.092658e-01  -1.029965e+05  -6.319386e+04  -1.544318e+05   3.122147e+11  -2.786295e+11  -9.421333e+10   1.960890e+05   2.520754e-25   0.000000e+00   0.000000e+00
     2216000   2.215999e-06   1.797101e+01   1.717088e+01   1.080274e-01  -1.004932e+05  -6.542861e+04  -1.551487e+05   3.135939e+11  -2.800353e+11  -8.502747e+10   1.960890e+05   2.520781e-25   0.000000e+00   0.000000e+00
     2224000   2.223999e-06   1.797022e+01   1.717035e+01   1.067836e-01  -9.797938e+04  -6.767407e+04  -1.557921e+05   3.148244e+11  -2.813052e+11  -7.580241e+10   1.960890e+05   2.520815e-25   0.000000e+00   0.000000e+00
     2232000   2.231999e-06   1.796945e+01   1.716980e+01   1.055349e-01  -9.545636e+04  -6.992913e+04  -1.563615e+05   3.159056e+11  -2.824386e+11  -6.654257e+10   1.960890e+05   2.520854e-25   0.000000e+00   0.000000e+00
     2240000   2.239999e-06   1.796869e+01   1.716923e+01   1.042820e-01  -9.292529e+04  -7.219272e+04  -1.568567e+05   3.168371e+11  -2.834350e+11  -5.725239e+10   1.960890e+05   2.520897e-25   0.000000e+00   0.000000e+00
     2248000   2.247999e-06   1.796796e+01   1.716864e+01   1.030254e-01  -9.038737e+04  -7.446373e+04  -1.572774e+05   3.176185e+11  -2.842939e+11  -4.793632e+10   1.960890e+05   2.520945e-25   0.000000e+00   0.000000e+00
     2256000   2.255999e-06   1.796725e+01   1.716804e+01   1.017658e-01  -8.784379e+04  -7.674106e+04  -1.576236e+05   3.182496e+11  -2.850149e+11  -3.859882e+10   1.960891e+05   2.520995e-25   0.000000e+00   0.000000e+00
     2264000   2.263999e-06   1.796655e+01   1.716742e+01   1.005036e-01  -8.529577e+04  -7.902360e+04  -1.578950e+05   3.187299e+11  -2.855977e+11  -2.924437e+10   1.960891e+05   2.521049e-25   0.000000e+00   0.000000e+00
     2272000   2.271999e-06   1.796588e+01   1.716678e+01   9.923963e-02  -8.274423e+04  -8.131060e+04  -1.580914e+05   3.191204e+11  -2.861133e+11  -1.987146e+10   1.960891e+05   2.522193e-25   0.000000e+00   0.000000e+00
     2280000   2.279999e-06   1.796523e+01   1.716612e+01   9.797437e-02  -8.019044e+04  -8.360081e+04  -1.582129e+05   3.193015e+11  -2.864174e+11  -1.049465e+10   1.960891e+05   2.522261e-25   0.000000e+00   0.000000e+00
     2288000   2.287999e-06   1.796460e+01   1.716544e+01   9.670843e-02  -7.763581e+04  -8.589290e+04  -1.582593e+05   3.193317e+11  -2.865827e+11  -1.114234e+09   1.960891e+05   2.522330e-25   0.000000e+00   0.000000e+00
     2296000   2.295999e-06   1.796399e+01   1.716474e+01   9.544242e-02  -7.508153e+04  -8.818576e+04  -1.582307e+05   3.192108e+11  -2.866091e+11   8.265307e+09   1.960891e+05   2.522399e-25   0.000000e+00   0.000000e+00
     2304000   2.303999e-06   1.796340e+01   1.716403e+01   9.417694e-02  -7.252884e+04  -9.047828e+04  -1.581271e+05   3.189389e+11  -2.864968e+11   1.763949e+10   1.960891e+05   2.522468e-25   0.000000e+00   0.000000e+00
     2312000   2.311999e-06   1.796283e+01   1.716329e+01   9.291258e-02  -6.997891e+04  -9.276934e+04  -1.579485e+05   3.185164e+11  -2.862457e+11   2.700383e+10   1.960891e+05   2.522535e-25   0.000000e+00   0.000000e+00
     2320000   2.319999e-06   1.796228e+01   1.716254e+01   9.164996e-02  -6.743298e+04  -9.505784e+04  -1.576951e+05   3.179432e+11  -2.858561e+11   3.635387e+10   1.960891e+05   2.522600e-25   0.000000e+00   0.000000e+00
     2328000   2.327999e-06   1.796175e+01   1.716177e+01   9.038966e-02  -6.489222e+04  -9.734267e+04  -1.573669e+05   3.172199e+11  -2.853282e+11   4.568512e+10   1.960891e+05   2.522663e-25   0.000000e+00   0.000000e+00
     2336000   2.335999e-06   1.796124e+01   1.716098e+01   8.913229e-02  -6.235786e+04  -9.962272e+04  -1.569641e+05   3.163467e+11  -2.846623e+11   5.499315e+10   1.960891e+05   2.522722e-25   0.000000e+00   0.000000e+00
     2344000   2.343999e-06   1.796075e+01   1.716018e+01   8.787844e-02  -5.983108e+04  -1.018969e+05  -1.564870e+05   3.153240e+11  -2.838588e+11   6.427350e+10   1.960891e+05   2.522777e-25   0.000000e+00   0.000000e+00
     2352000   2.351999e-06   1.796028e+01   1.715935e+01   8.662869e-02  -5.731307e+04  -1.041641e+05  -1.559358e+05   3.141524e+11  -2.829180e+11   7.352175e+10   1.960891e+05   2.522828e-25   0.000000e+00   0.000000e+00
     2360000   2.359999e-06   1.795983e+01   1.715851e+01   8.538366e-02  -5.480503e+04  -1.064232e+05  -1.553108e+05   3.128325e+11  -2.818406e+11   8.273350e+10   1.960891e+05   2.522873e-25   0.000000e+00   0.000000e+00
     2368000   2.367999e-06   1.795941e+01   1.715765e+01   8.414392e-02  -5.230815e+04  -1.086732e+05  -1.546122e+05   3.113648e+11  -2.806270e+11   9.190433e+10   1.960891e+05   2.522912e-25   0.000000e+00   0.000000e+00
     2376000   2.375999e-06   1.795900e+01   1.715677e+01   8.291006e-02  -4.982359e+04  -1.109129e+05  -1.538404e+05   3.097501e+11  -2.792780e+11   1.010299e+11   1.960891e+05   2.522945e-25   0.000000e+00   0.000000e+00
     2384000   2.383999e-06   1.795861e+01   1.715588e+01   8.168267e-02  -4.735254e+04  -1.131413e+05  -1.529958e+05   3.079892e+11  -2.777942e+11   1.101058e+11   1.960891e+05   2.522971e-25   0.000000e+00   0.000000e+00
     2392000   2.391999e-06   1.795824e+01   1.715496e+01   8.046232e-02  -4.489615e+04  -1.153572e+05  -1.520789e+05   3.060829e+11  -2.761765e+11   1.191278e+11   1.960891e+05   2.522990e-25   0.000000e+00   0.000000e+00
     2400000   2.399999e-06   1.795789e+01   1.715403e+01   7.924960e-02  -4.245560e+04  -1.175597e+05  -1.510900e+05   3.040320e+11  -2.744256e+11   1.280916e+11   1.960891e+05   2.523000e-25   0.000000e+00   0.000000e+00
     2408000   2.407999e-06   1.795756e+01   1.715308e+01   7.804507e-02  -4.003203e+04  -1.197477e+05  -1.500296e+05   3.018377e+11  -2.725425e+11   1.369928e+11   1.960891e+05   2.523001e-25   0.000000e+00   0.000000e+00
     2416000   2.415999e-06   1.795725e+01   1.715212e+01   7.684931e-02  -3.762658e+04  -1.219201e+05  -1.488982e+05   2.995008e+11  -2.705281e+11   1.458273e+11   1.960891e+05   2.522993e-25   0.000000e+00   0.000000e+00
     2424000   2.423999e-06   1.795696e+01   1.715113e+01   7.566289e-02  -3.524039e+04  -1.240758e+05  -1.476965e+05   2.970226e+11  -2.683836e+11   1.545909e+11   1.960891e+05   2.522975e-25   0.000000e+00   0.000000e+00
     2432000   2.431999e-06   1.795669e+01   1.715013e+01   7.448635e-02  -3.287459e+04  -1.262139e+05  -1.464250e+05   2.944041e+11  -2.661100e+11   1.632793e+11   1.960891e+05   2.522946e-25   0.000000e+00   0.000000e+00
     2440000   2.439999e-06   1.795643e+01   1.714911e+01   7.332027e-02  -3.053030e+04  -1.283332e+05  -1.450842e+05   2.916466e+11  -2.637085e+11   1.718885e+11   1.960891e+05   2.522907e-25   0.000000e+00   0.000000e+00
     2448000   2.447999e-06   1.795620e+01   1.714808e+01   7.216519e-02  -2.820862e+04  -1.304329e+05  -1.436750e+05   2.887514e+11  -2.611803e+11   1.804144e+11   1.960891e+05   2.522857e-25   0.000000e+00   0.000000e+00
     2456000   2.455999e-06   1.795598e+01   1.714703e+01   7.102165e-02  -2.591064e+04  -1.325118e+05  -1.421978e+05   2.857199e+11  -2.585268e+11   1.888529e+11   1.960891e+05   2.522795e-25   0.000000e+00   0.000000e+00
     2464000   2.463999e-06   1.795578e+01   1.714596e+01   6.989020e-02  -2.363746e+04  -1.345689e+05  -1.406536e+05   2.825534e+11  -2.557492e+11   1.971999e+11   1.960892e+05   2.522720e-25   0.000000e+00   0.000000e+00
     2472000   2.471999e-06   1.795560e+01   1.714487e+01   6.877137e-02  -2.139015e+04  -1.366034e+05  -1.390429e+05   2.792535e+11  -2.528491e+11   2.054517e+11   1.960892e+05   2.522633e-25   0.000000e+00   0.000000e+00
     2480000   2.479999e-06   1.795544e+01   1.714377e+01   6.766569e-02  -1.916976e+04  -1.386142e+05  -1.373666e+05   2.758216e+11  -2.498279e+11   2.136041e+11   1.960892e+05   2.522534e-25   0.000000e+00   0.000000e+00
     2488000   2.487999e-06   1.795530e+01   1.714265e+01   6.657368e-02  -1.697735e+04  -1.406003e+05  -1.356255e+05   2.722595e+11  -2.466871e+11   2.216535e+11   1.960892e+05   2.522421e-25   0.000000e+00   0.000000e+00
     2496000   2.495999e-06   1.795517e+01   1.714152e+01   6.549585e-02  -1.481396e+04  -1.425609e+05  -1.338204e+05   2.685687e+11  -2.434283e+11   2.295958e+11   1.960892e+05   2.522294e-25   0.000000e+00   0.000000e+00
     2504000   2.503999e-06   1.795506e+01   1.714037e+01   6.443272e-02  -1.268060e+04  -1.444949e+05  -1.319522e+05   2.647510e+11  -2.400533e+11   2.374275e+11   1.960892e+05   2.522154e-25   0.000000e+00   0.000000e+00
     2512000   2.511999e-06   1.795497e+01   1.713921e+01   6.338478e-02  -1.057828e+04  -1.464014e+05  -1.300219e+05   2.608081e+11  -2.365637e+11   2.451447e+11   1.960892e+05   2.521999e-25   0.000000e+00   0.000000e+00
     2520000   2.519999e-06   1.795489e+01   1.713803e+01   6.235253e-02  -8.508000e+03  -1.482796e+05  -1.280302e+05   2.567419e+11  -2.329613e+11   2.527439e+11   1.960892e+05   2.521830e-25   0.000000e+00   0.000000e+00
     2528000   2.527999e-06   1.795483e+01   1.713684e+01   6.133646e-02  -6.470737e+03  -1.501285e+05  -1.259783e+05   2.525544e+11  -2.292479e+11   2.602214e+11   1.960892e+05   2.521647e-25   0.000000e+00   0.000000e+00
     2536000   2.535999e-06   1.795479e+01   1.713563e+01   6.033704e-02  -4.467454e+03  -1.519473e+05  -1.238670e+05   2.482473e+11  -2.254253e+11   2.675736e+11   1.960892e+05   2.521448e-25   0.000000e+00   0.000000e+00
     2544000   2.543999e-06   1.795476e+01   1.713441e+01   5.935474e-02  -2.499098e+03  -1.537350e+05  -1.216974e+05   2.438228e+11  -2.214957e+11   2.747972e+11   1.960892e+05   2.521235e-25   0.000000e+00   0.000000e+00
     2552000   2.551999e-06   1.795475e+01   1.713317e+01   5.839003e-02  -5.666008e+02  -1.554909e+05  -1.194706e+05   2.392829e+11  -2.174608e+11   2.818887e+11   1.960892e+05   2.521007e-25   0.000000e+00   0.000000e+00
     2560000   2.559999e-06   1.795475e+01   1.713192e+01   5.744336e-02   1.329122e+03  -1.572141e+05  -1.171876e+05   2.346297e+11  -2.133227e+11   2.888447e+11   1.960892e+05   2.520763e-25   0.000000e+00   0.000000e+00
     2568000   2.567999e-06   1.795477e+01   1.713065e+01   5.651518e-02   3.187174e+03  -1.589038e+05  -1.148495e+05   2.298654e+11  -2.090836e+11   2.956620e+11   1.960892e+05   2.520505e-25   0.000000e+00   0.000000e+00
     2576000   2.575999e-06   1.795480e+01   1.712938e+01   5.560592e-02   5.006674e+03  -1.605592e+05  -1.124574e+05   2.249923e+11  -2.047455e+11   3.023373e+11   1.960892e+05   2.520231e-25   0.000000e+00   0.000000e+00
     2584000   2.583999e-06   1.795485e+01   1.712809e+01   5.471600e-02   6.786761e+03  -1.621795e+05  -1.100124e+05   2.200124e+11  -2.003107e+11   3.088675e+11   1.960892e+05   2.519941e-25   0.000000e+00   0.000000e+00
     2592000   2.591999e-06   1.795491e+01   1.712678e+01   5.384586e-02   8.526590e+03  -1.637639e+05  -1.075159e+05   2.149283e+11  -1.957812e+11   3.152495e+11   1.960892e+05   2.519637e-25   0.000000e+00   0.000000e+00
     2600000   2.599999e-06   1.795498e+01   1.712547e+01   5.299588e-02   1.022534e+04  -1.653117e+05  -1.049688e+05   2.097423e+11  -1.911595e+11   3.214803e+11   1.960892e+05   2.519317e-25   0.000000e+00   0.000000e+00
     2608000   2.607999e-06   1.795507e+01   1.712414e+01   5.216649e-02   1.188220e+04  -1.668222e+05  -1.023726e+05   2.044567e+11  -1.864479e+11   3.275570e+11   1.960892e+05   2.518983e-25   0.000000e+00   0.000000e+00
     2616000   2.615999e-06   1.795517e+01   1.712280e+01   5.135805e-02   1.349638e+04  -1.682946e+05  -9.972834e+04   1.990741e+11  -1.816486e+11   3.334767e+11   1.960892e+05   2.518633e-25   0.000000e+00   0.000000e+00
     2624000   2.623999e-06   1.795529e+01   1.712144e+01   5.057096e-02   1.506712e+04  -1.697284e+05  -9.703738e+04   1.935969e+11  -1.767640e+11   3.392366e+11   1.960892e+05   2.518268e-25   0.000000e+00   0.000000e+00
     2632000   2.631999e-06   1.795541e+01   1.712008e+01   4.980557e-02   1.659368e+04  -1.711226e+05  -9.430098e+04   1.880278e+11  -1.717967e+11   3.448341e+11   1.960892e+05   2.517888e-25   0.000000e+00   0.000000e+00
     2640000   2.639999e-06   1.795555e+01   1.711871e+01   4.906226e-02   1.807532e+04  -1.724769e+05  -9.152047e+04   1.823692e+11  -1.667490e+11   3.502664e+11   1.960892e+05   2.517494e-25   0.000000e+00   0.000000e+00
     2648000   2.647999e-06   1.795570e+01   1.711732e+01   4.834136e-02   1.951135e+04  -1.737904e+05  -8.869716e+04   1.766239e+11  -1.616235e+11   3.555311e+11   1.960892e+05   2.517086e-25   0.000000e+00   0.000000e+00
     2656000   2.655999e-06   1.795586e+01   1.711593e+01   4.764321e-02   2.090108e+04  -1.750626e+05  -8.583242e+04   1.707946e+11  -1.564226e+11   3.606256e+11   1.960892e+05   2.516664e-25   0.000000e+00   0.000000e+00
     2664000   2.663999e-06   1.795604e+01   1.711452e+01   4.696815e-02   2.224384e+04  -1.762930e+05  -8.292761e+04   1.648839e+11  -1.511491e+11   3.655476e+11   1.960892e+05   2.516227e-25   0.000000e+00   0.000000e+00
     2672000   2.671999e-06   1.795622e+01   1.711311e+01   4.631648e-02   2.353900e+04  -1.774808e+05  -7.998412e+04   1.588946e+11  -1.458054e+11   3.702948e+11   1.960892e+05   2.515778e-25   0.000000e+00   0.000000e+00
     2680000   2.679999e-06   1.795641e+01   1.711168e+01   4.568850e-02   2.478595e+04  -1.786257e+05  -7.700336e+04   1.528295e+11  -1.403943e+11   3.748650e+11   1.960893e+05   2.515314e-25   0.000000e+00   0.000000e+00
     2688000   2.687999e-06   1.795662e+01   1.711025e+01   4.508452e-02   2.598407e+04  -1.797270e+05  -7.398675e+04   1.466915e+11  -1.349183e+11   3.792559e+11   1.960893e+05   2.514839e-25   0.000000e+00   0.000000e+00
     2696000   2.695999e-06   1.795683e+01   1.710881e+01   4.450481e-02   2.713282e+04  -1.807842e+05  -7.093574e+04   1.404835e+11  -1.293802e+11   3.834657e+11   1.960893e+05   2.514350e-25   0.000000e+00   0.000000e+00
     2704000   2.703999e-06   1.795705e+01   1.710735e+01   4.394963e-02   2.823162e+04  -1.817969e+05  -6.785179e+04   1.342082e+11  -1.237827e+11   3.874922e+11   1.960893e+05   2.513850e-25   0.000000e+00   0.000000e+00
     2712000   2.711999e-06   1.795728e+01   1.710590e+01   4.341926e-02   2.927997e+04  -1.827646e+05  -6.473636e+04   1.278688e+11  -1.181285e+11   3.913337e+11   1.960893e+05   2.513338e-25   0.000000e+00   0.000000e+00
     2720000   2.719999e-06   1.795752e+01   1.710443e+01   4.291393e-02   3.027736e+04  -1.836868e+05  -6.159094e+04   1.214681e+11  -1.124204e+11   3.949883e+11   1.960893e+05   2.512814e-25   0.000000e+00   0.000000e+00
     2728000   2.727999e-06   1.795777e+01   1.710296e+01   4.243388e-02   3.122330e+04  -1.845632e+05  -5.841705e+04   1.150092e+11  -1.066613e+11   3.984543e+11   1.960893e+05   2.512280e-25   0.000000e+00   0.000000e+00
     2736000   2.735999e-06   1.795802e+01   1.710148e+01   4.197933e-02   3.211735e+04  -1.853932e+05  -5.521618e+04   1.084951e+11  -1.008538e+11   4.017302e+11   1.960893e+05   2.511735e-25   0.000000e+00   0.000000e+00
     2744000   2.743999e-06   1.795828e+01   1.709999e+01   4.155049e-02   3.295908e+04  -1.861767e+05  -5.198987e+04   1.019648e+11  -9.500300e+10   4.048448e+11   1.960893e+05   2.511624e-25   0.000000e+00   0.000000e+00
     2752000   2.751999e-06   1.795855e+01   1.709850e+01   4.114756e-02   3.374836e+04  -1.869132e+05  -4.873941e+04   9.534797e+10  -8.910639e+10   4.077359e+11   1.960893e+05   2.511049e-25   0.000000e+00   0.000000e+00
     2760000   2.759999e-06   1.795882e+01   1.709700e+01   4.077072e-02   3.448452e+04  -1.876023e+05  -4.546661e+04   8.868528e+10  -8.317005e+10   4.104325e+11   1.960893e+05   2.510466e-25   0.000000e+00   0.000000e+00
     2768000   2.767999e-06   1.795910e+01   1.709550e+01   4.042015e-02   3.516720e+04  -1.882438e+05  -4.217301e+04   8.197987e+10  -7.719685e+10   4.129334e+11   1.960893e+05   2.509875e-25   0.000000e+00   0.000000e+00
     2776000   2.775999e-06   1.795938e+01   1.709399e+01   4.009600e-02   3.579608e+04  -1.888373e+05  -3.886020e+04   7.523492e+10  -7.118971e+10   4.152374e+11   1.960893e+05   2.509276e-25   0.000000e+00   0.000000e+00
     2784000   2.783999e-06   1.795967e+01   1.709248e+01   3.979843e-02   3.637085e+04  -1.893827e+05  -3.552974e+04   6.845359e+10  -6.515151e+10   4.173434e+11   1.960893e+05   2.508671e-25   0.000000e+00   0.000000e+00
     2792000   2.791999e-06   1.795996e+01   1.709096e+01   3.952757e-02   3.689124e+04  -1.898797e+05  -3.218323e+04   6.163908e+10  -5.908519e+10   4.192505e+11   1.960893e+05   2.508059e-25   0.000000e+00   0.000000e+00
     2800000   2.799999e-06   1.796026e+01   1.708944e+01   3.928354e-02   3.735699e+04  -1.903280e+05  -2.882226e+04   5.479463e+10  -5.299367e+10   4.209579e+11   1.960893e+05   2.507441e-25   0.000000e+00   0.000000e+00
     2808000   2.807999e-06   1.796056e+01   1.708791e+01   3.906645e-02   3.776788e+04  -1.907275e+05  -2.544844e+04   4.792345e+10  -4.687989e+10   4.224647e+11   1.960893e+05   2.506817e-25   0.000000e+00   0.000000e+00
     2816000   2.815999e-06   1.796086e+01   1.708639e+01   3.887639e-02   3.812370e+04  -1.910780e+05  -2.206336e+04   4.102880e+10  -4.074677e+10   4.237704e+11   1.960893e+05   2.506190e-25   0.000000e+00   0.000000e+00
     2824000   2.823999e-06   1.796117e+01   1.708486e+01   3.871346e-02   3.842428e+04  -1.913794e+05  -1.866865e+04   3.411394e+10  -3.459729e+10   4.248743e+11   1.960893e+05   2.505558e-25   0.000000e+00   0.000000e+00
     2832000   2.831999e-06   1.796148e+01   1.708333e+01   3.857772e-02   3.866947e+04  -1.916315e+05  -1.526591e+04   2.718214e+10  -2.843437e+10   4.257759e+11   1.960893e+05   2.504923e-25   0.000000e+00   0.000000e+00
     2840000   2.839999e-06   1.796179e+01   1.708179e+01   3.846922e-02   3.885915e+04  -1.918343e+05  -1.185677e+04   2.023668e+10  -2.226098e+10   4.264750e+11   1.960893e+05   2.504285e-25   0.000000e+00   0.000000e+00
     2848000   2.847999e-06   1.796210e+01   1.708026e+01   3.838802e-02   3.899322e+04  -1.919877e+05  -8.442853e+03   1.328086e+10  -1.608006e+10   4.269711e+11   1.960893e+05   2.503645e-25   0.000000e+00   0.000000e+00
     2856000   2.855999e-06   1.796241e+01   1.707872e+01   3.833414e-02   3.907162e+04  -1.920916e+05  -5.025777e+03   6.317976e+09  -9.894568e+09   4.272641e+11   1.960893e+05   2.503004e-25   0.000000e+00   0.000000e+00
     2864000   2.863999e-06   1.796273e+01   1.707718e+01   3.830761e-02   3.909429e+04  -1.921460e+05  -1.607169e+03  -6.486670e+08  -3.707452e+09   4.273540e+11   1.960893e+05   2.502362e-25   0.000000e+00   0.000000e+00
     2872000   2.871999e-06   1.796304e+01   1.707565e+01   3.830843e-02   3.906123e+04  -1.921509e+05   1.811345e+03  -7.615762e+09   2.478346e+09   4.272406e+11   1.960893e+05   2.501720e-25   0.000000e+00   0.000000e+00
     2880000   2.879999e-06   1.796335e+01   1.707411e+01   3.833659e-02   3.897244e+04  -1.921063e+05   5.228139e+03  -1.458000e+10   8.659884e+09   4.269242e+11   1.960893e+05   2.501078e-25   0.000000e+00   0.000000e+00
     2888000   2.887999e-06   1.796366e+01   1.707257e+01   3.839207e-02   3.882796e+04  -1.920124e+05   8.641591e+03  -2.153806e+10   1.483423e+10   4.264050e+11   1.960893e+05   2.500438e-25   0.000000e+00   0.000000e+00
     2896000   2.895999e-06   1.796397e+01   1.707104e+01   3.847484e-02   3.862785e+04  -1.918690e+05   1.205008e+04  -2.848664e+10   2.099846e+10   4.256831e+11   1.960894e+05   2.499799e-25   0.000000e+00   0.000000e+00
     2904000   2.903999e-06   1.796428e+01   1.706950e+01   3.858485e-02   3.837220e+04  -1.916764e+05   1.545198e+04  -3.542243e+10   2.714966e+10   4.247591e+11   1.960894e+05   2.499164e-25   0.000000e+00   0.000000e+00
     2912000   2.911999e-06   1.796459e+01   1.706797e+01   3.872205e-02   3.806113e+04  -1.914347e+05   1.884568e+04  -4.234213e+10   3.328492e+10   4.236333e+11   1.960894e+05   2.498531e-25   0.000000e+00   0.000000e+00
     2920000   2.919999e-06   1.796489e+01   1.706644e+01   3.888636e-02   3.769477e+04  -1.911439e+05   2.222958e+04  -4.924243e+10   3.940135e+10   4.223064e+11   1.960894e+05   2.497902e-25   0.000000e+00   0.000000e+00
     2928000   2.927999e-06   1.796519e+01   1.706491e+01   3.907769e-02   3.727330e+04  -1.908043e+05   2.560205e+04  -5.612004e+10   4.549608e+10   4.207791e+11   1.960894e+05   2.497277e-25   0.000000e+00   0.000000e+00
     2936000   2.935999e-06   1.796548e+01   1.706339e+01   3.929596e-02   3.679691e+04  -1.904160e+05   2.896151e+04  -6.297169e+10   5.156622e+10   4.190521e+11   1.960894e+05   2.496658e-25   0.000000e+00   0.000000e+00
     2944000   2.943999e-06   1.796578e+01   1.706186e+01   3.954104e-02   3.626583e+04  -1.899793e+05   3.230635e+04  -6.979409e+10   5.760895e+10   4.171263e+11   1.960894e+05   2.496044e-25   0.000000e+00   0.000000e+00
     2952000   2.951999e-06   1.796606e+01   1.706035e+01   3.981282e-02   3.568029e+04  -1.894943e+05   3.563500e+04  -7.658399e+10   6.362142e+10   4.150027e+11   1.960894e+05   2.495437e-25   0.000000e+00   0.000000e+00
     2960000   2.959999e-06   1.796635e+01   1.705883e+01   4.011115e-02   3.504057e+04  -1.889614e+05   3.894587e+04  -8.333814e+10   6.960083e+10   4.126823e+11   1.960894e+05   2.494836e-25   0.000000e+00   0.000000e+00
     2968000   2.967999e-06   1.796663e+01   1.705732e+01   4.043590e-02   3.434698e+04  -1.883808e+05   4.223739e+04  -9.005330e+10   7.554437e+10   4.101662e+11   1.960894e+05   2.494243e-25   0.000000e+00   0.000000e+00
     2976000   2.975999e-06   1.796690e+01   1.705582e+01   4.078689e-02   3.359982e+04  -1.877528e+05   4.550801e+04  -9.672626e+10   8.144928e+10   4.074558e+11   1.960894e+05   2.493658e-25   0.000000e+00   0.000000e+00
     2984000   2.983999e-06   1.796716e+01   1.705432e+01   4.116397e-02   3.279947e+04  -1.870777e+05   4.875617e+04  -1.033538e+11   8.731282e+10   4.045523e+11   1.960894e+05   2.493081e-25   0.000000e+00   0.000000e+00
     2992000   2.991999e-06   1.796742e+01   1.705283e+01   4.156693e-02   3.194629e+04  -1.863559e+05   5.198033e+04  -1.099328e+11   9.313224e+10   4.014571e+11   1.960894e+05   2.492513e-25   0.000000e+00   0.000000e+00
     3000000   2.999999e-06   1.796767e+01   1.705134e+01   4.199558e-02   3.104068e+04  -1.855877e+05   5.517897e+04  -1.164601e+11   9.890485e+10   3.981718e+11   1.960894e+05   2.491955e-25   0.000000e+00   0.000000e+00
     3008000   3.007999e-06   1.796792e+01   1.704986e+01   4.244972e-02   3.008307e+04  -1.847736e+05   5.835057e+04  -1.229325e+11   1.046280e+11   3.946980e+11   1.960894e+05   2.491408e-25   0.000000e+00   0.000000e+00
     3016000   3.015999e-06   1.796815e+01   1.704838e+01   4.292912e-02   2.907390e+04  -1.839138e+05   6.149364e+04  -1.293469e+11   1.102990e+11   3.910373e+11   1.960894e+05   2.490870e-25   0.000000e+00   0.000000e+00
     3024000   3.023999e-06   1.796838e+01   1.704691e+01   4.343354e-02   2.801367e+04  -1.830089e+05   6.460667e+04  -1.357002e+11   1.159152e+11   3.871916e+11   1.960894e+05   2.490344e-25   0.000000e+00   0.000000e+00
     3032000   3.031999e-06   1.796860e+01   1.704545e+01   4.396274e-02   2.690287e+04  -1.820593e+05   6.768821e+04  -1.419895e+11   1.214741e+11   3.831628e+11   1.960894e+05   2.489829e-25   0.000000e+00   0.000000e+00
     3040000   3.039999e-06   1.796881e+01   1.704400e+01   4.451646e-02   2.574201e+04  -1.810655e+05   7.073679e+04  -1.482116e+11   1.269731e+11   3.789527e+11   1.960894e+05   2.489326e-25   0.000000e+00   0.000000e+00
     3048000   3.047999e-06   1.796901e+01   1.704256e+01   4.509444e-02   2.453166e+04  -1.800279e+05   7.375097e+04  -1.543636e+11   1.324097e+11   3.745634e+11   1.960894e+05   2.488836e-25   0.000000e+00   0.000000e+00
     3056000   3.055999e-06   1.796921e+01   1.704112e+01   4.569638e-02   2.327238e+04  -1.789471e+05   7.672933e+04  -1.604425e+11   1.377813e+11   3.699970e+11   1.960894e+05   2.488358e-25   0.000000e+00   0.000000e+00
     3064000   3.063999e-06   1.796939e+01   1.703969e+01   4.632201e-02   2.196478e+04  -1.778236e+05   7.967045e+04  -1.664453e+11   1.430855e+11   3.652558e+11   1.960894e+05   2.487893e-25   0.000000e+00   0.000000e+00
     3072000   3.071999e-06   1.796956e+01   1.703828e+01   4.697101e-02   2.060946e+04  -1.766579e+05   8.257295e+04  -1.723693e+11   1.483199e+11   3.603420e+11   1.960894e+05   2.487441e-25   0.000000e+00   0.000000e+00
     3080000   3.079999e-06   1.796972e+01   1.703687e+01   4.764307e-02   1.920708e+04  -1.754507e+05   8.543546e+04  -1.782115e+11   1.534821e+11   3.552580e+11   1.960894e+05   2.487003e-25   0.000000e+00   0.000000e+00
     3088000   3.087999e-06   1.796986e+01   1.703547e+01   4.833786e-02   1.775830e+04  -1.742024e+05   8.825663e+04  -1.839690e+11   1.585697e+11   3.500063e+11   1.960894e+05   2.486578e-25   0.000000e+00   0.000000e+00
     3096000   3.095999e-06   1.797000e+01   1.703408e+01   4.905506e-02   1.626380e+04  -1.729138e+05   9.103512e+04  -1.896393e+11   1.635804e+11   3.445894e+11   1.960894e+05   2.486168e-25   0.000000e+00   0.000000e+00
     3104000   3.103999e-06   1.797012e+01   1.703270e+01   4.979431e-02   1.472431e+04  -1.715853e+05   9.376962e+04  -1.952194e+11   1.685119e+11   3.390098e+11   1.960894e+05   2.485772e-25   0.000000e+00   0.000000e+00
     3112000   3.111999e-06   1.797024e+01   1.703134e+01   5.055525e-02   1.314054e+04  -1.702178e+05   9.645884e+04  -2.007066e+11   1.733620e+11   3.332704e+11   1.960895e+05   2.485391e-25   0.000000e+00   0.000000e+00
     3120000   3.119999e-06   1.797033e+01   1.702998e+01   5.133753e-02   1.151325e+04  -1.688118e+05   9.910152e+04  -2.060985e+11   1.781285e+11   3.273737e+11   1.960895e+05   2.485024e-25   0.000000e+00   0.000000e+00
     3128000   3.127999e-06   1.797042e+01   1.702863e+01   5.214075e-02   9.843217e+03  -1.673679e+05   1.016964e+05  -2.113923e+11   1.828092e+11   3.213228e+11   1.960895e+05   2.484673e-25   0.000000e+00   0.000000e+00
     3136000   3.135999e-06   1.797049e+01   1.702730e+01   5.296454e-02   8.131235e+03  -1.658870e+05   1.042423e+05  -2.165854e+11   1.874021e+11   3.151204e+11   1.960895e+05   2.484336e-25   0.000000e+00   0.000000e+00
     3144000   3.143999e-06   1.797055e+01   1.702598e+01   5.380849e-02   6.378120e+03  -1.643697e+05   1.067379e+05  -2.216755e+11   1.919049e+11   3.087695e+11   1.960895e+05   2.484014e-25   0.000000e+00   0.000000e+00
     3152000   3.151999e-06   1.797059e+01   1.702467e+01   5.467221e-02   4.584705e+03  -1.628168e+05   1.091822e+05  -2.266599e+11   1.963158e+11   3.022732e+11   1.960895e+05   2.483707e-25   0.000000e+00   0.000000e+00
     3160000   3.159999e-06   1.797062e+01   1.702338e+01   5.555527e-02   2.751845e+03  -1.612289e+05   1.115739e+05  -2.315363e+11   2.006326e+11   2.956347e+11   1.960895e+05   2.483415e-25   0.000000e+00   0.000000e+00
     3168000   3.167999e-06   1.797064e+01   1.702209e+01   5.645725e-02   8.804133e+02  -1.596069e+05   1.139120e+05  -2.363024e+11   2.048536e+11   2.888570e+11   1.960895e+05   2.483138e-25   0.000000e+00   0.000000e+00
     3176000   3.175999e-06   1.797064e+01   1.702082e+01   5.737771e-02  -1.028697e+03  -1.579515e+05   1.161953e+05  -2.409558e+11   2.089767e+11   2.819435e+11   1.960895e+05   2.482876e-25   0.000000e+00   0.000000e+00
     3184000   3.183999e-06   1.797062e+01   1.701956e+01   5.831622e-02  -2.974577e+03  -1.562636e+05   1.184227e+05  -2.454942e+11   2.130001e+11   2.748974e+11   1.960895e+05   2.482629e-25   0.000000e+00   0.000000e+00
     3192000   3.191999e-06   1.797059e+01   1.701832e+01   5.927232e-02  -4.956297e+03  -1.545438e+05   1.205933e+05  -2.499155e+11   2.169220e+11   2.677221e+11   1.960895e+05   2.482396e-25   0.000000e+00   0.000000e+00
     3200000   3.199999e-06   1.797054e+01   1.701709e+01   6.024556e-02  -6.972912e+03  -1.527931e+05   1.227059e+05  -2.542176e+11   2.207407e+11   2.604210e+11   1.960895e+05   2.482179e-25   0.000000e+00   0.000000e+00
     3208000   3.207999e-06   1.797048e+01   1.701588e+01   6.123546e-02  -9.023460e+03  -1.510122e+05   1.247597e+05  -2.583984e+11   2.244545e+11   2.529977e+11   1.960895e+05   2.481976e-25   0.000000e+00   0.000000e+00
     3216000   3.215999e-06   1.797040e+01   1.701468e+01   6.224155e-02  -1.110696e+04  -1.492021e+05   1.267536e+05  -2.624557e+11   2.280616e+11   2.454556e+11   1.960895e+05   2.481787e-25   0.000000e+00   0.000000e+00
     3224000   3.223999e-06   1.797030e+01   1.701349e+01   6.326336e-02  -1.322242e+04  -1.473635e+05   1.286866e+05  -2.663877e+11   2.315606e+11   2.377984e+11   1.960895e+05   2.481613e-25   0.000000e+00   0.000000e+00
     3232000   3.231999e-06   1.797019e+01   1.701232e+01   6.430038e-02  -1.536883e+04  -1.454974e+05   1.305580e+05  -2.701925e+11   2.349498e+11   2.300297e+11   1.960895e+05   2.481452e-25   0.000000e+00   0.000000e+00
     3240000   3.239999e-06   1.797005e+01   1.701116e+01   6.535212e-02  -1.754516e+04  -1.436046e+05   1.323668e+05  -2.738682e+11   2.382277e+11   2.221533e+11   1.960895e+05   2.481305e-25   0.000000e+00   0.000000e+00
     3248000   3.247999e-06   1.796991e+01   1.701002e+01   6.641808e-02  -1.975038e+04  -1.416861e+05   1.341122e+05  -2.774131e+11   2.413930e+11   2.141728e+11   1.960895e+05   2.481172e-25   0.000000e+00   0.000000e+00
     3256000   3.255999e-06   1.796974e+01   1.700889e+01   6.749774e-02  -2.198342e+04  -1.397426e+05   1.357933e+05  -2.808254e+11   2.444441e+11   2.060922e+11   1.960895e+05   2.481051e-25   0.000000e+00   0.000000e+00
     3264000   3.263999e-06   1.796955e+01   1.700778e+01   6.859060e-02  -2.424323e+04  -1.377753e+05   1.374094e+05  -2.841035e+11   2.473797e+11   1.979151e+11   1.960895e+05   2.480943e-25   0.000000e+00   0.000000e+00
     3272000   3.271999e-06   1.796935e+01   1.700669e+01   6.969612e-02  -2.652872e+04  -1.357849e+05   1.389597e+05  -2.872457e+11   2.501986e+11   1.896457e+11   1.960895e+05   2.480848e-25   0.000000e+00   0.000000e+00
     3280000   3.279999e-06   1.796913e+01   1.700561e+01   7.081377e-02  -2.883880e+04  -1.337724e+05   1.404435e+05  -2.902507e+11   2.528995e+11   1.812877e+11   1.960895e+05   2.480764e-25   0.000000e+00   0.000000e+00
     3288000   3.287999e-06   1.796889e+01   1.700455e+01   7.194303e-02  -3.117236e+04  -1.317388e+05   1.418601e+05  -2.931169e+11   2.554812e+11   1.728451e+11   1.960895e+05   2.480692e-25   0.000000e+00   0.000000e+00
     3296000   3.295999e-06   1.796863e+01   1.700350e+01   7.308335e-02  -3.352829e+04  -1.296850e+05   1.432088e+05  -2.958429e+11   2.579425e+11   1.643220e+11   1.960895e+05   2.480631e-25   0.000000e+00   0.000000e+00
     3304000   3.303999e-06   1.796835e+01   1.700248e+01   7.423419e-02  -3.590547e+04  -1.276120e+05   1.444890e+05  -2.984275e+11   2.602825e+11   1.557225e+11   1.960895e+05   2.480581e-25   0.000000e+00   0.000000e+00
     3312000   3.311999e-06   1.796806e+01   1.700146e+01   7.539499e-02  -3.830276e+04  -1.255208e+05   1.457001e+05  -3.008693e+11   2.625001e+11   1.470505e+11   1.960895e+05   2.480541e-25   0.000000e+00   0.000000e+00
     3320000   3.319999e-06   1.796774e+01   1.700047e+01   7.656521e-02  -4.071900e+04  -1.234124e+05   1.468416e+05  -3.031673e+11   2.645942e+11   1.383103e+11   1.960895e+05   2.480510e-25   0.000000e+00   0.000000e+00
     3328000   3.327999e-06   1.796740e+01   1.699949e+01   7.774427e-02  -4.315253e+04  -1.212877e+05   1.479130e+05  -3.051972e+11   2.665465e+11   1.295286e+11   1.960896e+05   2.479410e-25   0.000000e+00   0.000000e+00
     3336000   3.335999e-06   1.796705e+01   1.699853e+01   7.893163e-02  -4.560224e+04  -1.191479e+05   1.489138e+05  -3.072051e+11   2.683901e+11   1.206674e+11   1.960896e+05   2.479395e-25   0.000000e+00   0.000000e+00
     3344000   3.343999e-06   1.796667e+01   1.699758e+01   8.012670e-02  -4.806742e+04  -1.169938e+05   1.498435e+05  -3.090661e+11   2.701077e+11   1.117506e+11   1.960896e+05   2.479387e-25   0.000000e+00   0.000000e+00
     3352000   3.351999e-06   1.796628e+01   1.699665e+01   8.132893e-02  -5.054690e+04  -1.148265e+05   1.507017e+05  -3.107794e+11   2.716987e+11   1.027822e+11   1.960896e+05   2.479386e-25   0.000000e+00   0.000000e+00
     3360000   3.359999e-06   1.796587e+01   1.699574e+01   8.253774e-02  -5.303950e+04  -1.126470e+05   1.514879e+05  -3.123441e+11   2.731623e+11   9.376666e+10   1.960896e+05   2.479393e-25   0.000000e+00   0.000000e+00
     3368000   3.367999e-06   1.796543e+01   1.699485e+01   8.375255e-02  -5.554401e+04  -1.104562e+05   1.522018e+05  -3.137595e+11   2.744979e+11   8.470810e+10   1.960896e+05   2.479406e-25   0.000000e+00   0.000000e+00
     3376000   3.375999e-06   1.796498e+01   1.699398e+01   8.497278e-02  -5.805925e+04  -1.082553e+05   1.528431e+05  -3.150250e+11   2.757050e+11   7.561088e+10   1.960896e+05   2.479425e-25   0.000000e+00   0.000000e+00
     3384000   3.383999e-06   1.796450e+01   1.699312e+01   8.619784e-02  -6.058401e+04  -1.060453e+05   1.534115e+05  -3.161399e+11   2.767830e+11   6.647929e+10   1.960896e+05   2.479449e-25   0.000000e+00   0.000000e+00
     3392000   3.391999e-06   1.796401e+01   1.699228e+01   8.742716e-02  -6.311709e+04  -1.038272e+05   1.539067e+05  -3.171038e+11   2.777314e+11   5.731768e+10   1.960896e+05   2.479478e-25   0.000000e+00   0.000000e+00
     3400000   3.399999e-06   1.796349e+01   1.699146e+01   8.866015e-02  -6.565727e+04  -1.016019e+05   1.543285e+05  -3.179161e+11   2.785499e+11   4.813037e+10   1.960896e+05   2.479510e-25   0.000000e+00   0.000000e+00
     3408000   3.407999e-06   1.796296e+01   1.699066e+01   8.989622e-02  -6.820334e+04  -9.937071e+04   1.546767e+05  -3.185766e+11   2.792381e+11   3.892172e+10   1.960896e+05   2.479547e-25   0.000000e+00   0.000000e+00
     3416000   3.415999e-06   1.796240e+01   1.698987e+01   9.113479e-02  -7.075409e+04  -9.713449e+04   1.549512e+05  -3.190848e+11   2.797958e+11   2.969609e+10   1.960896e+05   2.479585e-25   0.000000e+00   0.000000e+00
     3424000   3.423999e-06   1.796182e+01   1.698910e+01   9.237525e-02  -7.330829e+04  -9.489432e+04   1.551518e+05  -3.194407e+11   2.802227e+11   2.045784e+10   1.960896e+05   2.479626e-25   0.000000e+00   0.000000e+00
     3432000   3.431999e-06   1.796123e+01   1.698835e+01   9.361702e-02  -7.586473e+04  -9.265127e+04   1.552785e+05  -3.196441e+11   2.805187e+11   1.121135e+10   1.960896e+05   2.479669e-25   0.000000e+00   0.000000e+00
     3440000   3.439999e-06   1.796061e+01   1.698762e+01   9.485951e-02  -7.842219e+04  -9.040637e+04   1.553312e+05  -3.196948e+11   2.806836e+11   1.960988e+09   1.960896e+05   2.479712e-25   0.000000e+00   0.000000e+00
     3448000   3.447999e-06   1.795997e+01   1.698690e+01   9.610212e-02  -8.097944e+04  -8.816068e+04   1.553099e+05  -3.195930e+11   2.807175e+11  -7.288871e+09   1.960896e+05   2.479756e-25   0.000000e+00   0.000000e+00
     3456000   3.455999e-06   1.795932e+01   1.698621e+01   9.734427e-02  -8.353527e+04  -8.591524e+04   1.552146e+05  -3.193386e+11   2.806203e+11  -1.653385e+10   1.960896e+05   2.479799e-25   0.000000e+00   0.000000e+00
     3464000   3.463999e-06   1.795864e+01   1.698553e+01   9.858536e-02  -8.608845e+04  -8.367111e+04   1.550454e+05  -3.189319e+11   2.803921e+11  -2.576959e+10   1.960896e+05   2.479841e-25   0.000000e+00   0.000000e+00
     3472000   3.471999e-06   1.795794e+01   1.698487e+01   9.982480e-02  -8.863777e+04  -8.142932e+04   1.548023e+05  -3.183730e+11   2.800330e+11  -3.499172e+10   1.960896e+05   2.479882e-25   0.000000e+00   0.000000e+00
     3480000   3.479999e-06   1.795722e+01   1.698423e+01   1.010620e-01  -9.118252e+04  -7.919057e+04   1.544854e+05  -3.177355e+11   2.795968e+11  -4.421335e+10   1.960896e+05   2.480989e-25   0.000000e+00   0.000000e+00
     3488000   3.487999e-06   1.795648e+01   1.698360e+01   1.022964e-01  -9.372105e+04  -7.695618e+04   1.540949e+05  -3.168719e+11   2.789794e+11  -5.339695e+10   1.960896e+05   2.481037e-25   0.000000e+00   0.000000e+00
     3496000   3.495999e-06   1.795572e+01   1.698300e+01   1.035273e-01  -9.625207e+04  -7.472725e+04   1.536311e+05  -3.158573e+11   2.782318e+11  -6.255400e+10   1.960896e+05   2.481081e-25   0.000000e+00   0.000000e+00
     3504000   3.503999e-06   1.795494e+01   1.698241e+01   1.047543e-01  -9.877437e+04  -7.250482e+04   1.530942e+05  -3.146922e+11   2.773544e+11  -7.168019e+10   1.960896e+05   2.481121e-25   0.000000e+00   0.000000e+00
     3512000   3.511999e-06   1.795414e+01   1.698184e+01   1.059766e-01  -1.012867e+05  -7.028992e+04   1.524843e+05  -3.133773e+11   2.763475e+11  -8.077120e+10   1.960896e+05   2.481157e-25   0.000000e+00   0.000000e+00
     3520000   3.519999e-06   1.795332e+01   1.698128e+01   1.071938e-01  -1.037880e+05  -6.808360e+04   1.518019e+05  -3.119132e+11   2.752117e+11  -8.982275e+10   1.960896e+05   2.481186e-25   0.000000e+00   0.000000e+00
     3528000   3.527999e-06   1.795248e+01   1.698075e+01   1.084053e-01  -1.062770e+05  -6.588688e+04   1.510473e+05  -3.103006e+11   2.739474e+11  -9.883056e+10   1.960896e+05   2.481210e-25   0.000000e+00   0.000000e+00
     3536000   3.535999e-06   1.795162e+01   1.698023e+01   1.096104e-01  -1.087524e+05  -6.370078e+04   1.502207e+05  -3.085405e+11   2.725553e+11  -1.077904e+11   1.960896e+05   2.481227e-25   0.000000e+00   0.000000e+00
     3544000   3.543999e-06   1.795074e+01   1.697973e+01   1.108086e-01  -1.112132e+05  -6.152633e+04   1.493227e+05  -3.066336e+11   2.710361e+11  -1.166980e+11   1.960897e+05   2.481237e-25   0.000000e+00   0.000000e+00
     3552000   3.551999e-06   1.794984e+01   1.697924e+01   1.119994e-01  -1.136582e+05  -5.936455e+04   1.483537e+05  -3.045809e+11   2.693903e+11  -1.255493e+11   1.960897e+05   2.481239e-25   0.000000e+00   0.000000e+00
     3560000   3.559999e-06   1.794892e+01   1.697878e+01   1.131821e-01  -1.160861e+05  -5.721643e+04   1.473141e+05  -3.023836e+11   2.676188e+11  -1.343399e+11   1.960897e+05   2.481233e-25   0.000000e+00   0.000000e+00
     3568000   3.567999e-06   1.794798e+01   1.697833e+01   1.143562e-01  -1.184959e+05  -5.508298e+04   1.462044e+05  -3.000426e+11   2.657223e+11  -1.430659e+11   1.960897e+05   2.481218e-25   0.000000e+00   0.000000e+00
     3576000   3.575999e-06   1.794702e+01   1.697790e+01   1.155212e-01  -1.208864e+05  -5.296520e+04   1.450252e+05  -2.975592e+11   2.637018e+11  -1.517230e+11   1.960897e+05   2.481194e-25   0.000000e+00   0.000000e+00
     3584000   3.583999e-06   1.794605e+01   1.697748e+01   1.166764e-01  -1.232565e+05  -5.086408e+04   1.437771e+05  -2.949345e+11   2.615582e+11  -1.603072e+11   1.960897e+05   2.481160e-25   0.000000e+00   0.000000e+00
     3592000   3.591999e-06   1.794505e+01   1.697708e+01   1.178214e-01  -1.256050e+05  -4.878060e+04   1.424605e+05  -2.921701e+11   2.592925e+11  -1.688145e+11   1.960897e+05   2.481116e-25   0.000000e+00   0.000000e+00
     3600000   3.599999e-06   1.794404e+01   1.697670e+01   1.189556e-01  -1.279308e+05  -4.671573e+04   1.410762e+05  -2.892671e+11   2.569056e+11  -1.772408e+11   1.960897e+05   2.481061e-25   0.000000e+00   0.000000e+00
     3608000   3.607999e-06   1.794300e+01   1.697633e+01   1.200785e-01  -1.302329e+05  -4.467043e+04   1.396249e+05  -2.862271e+11   2.543987e+11  -1.855823e+11   1.960897e+05   2.480995e-25   0.000000e+00   0.000000e+00
     3616000   3.615999e-06   1.794195e+01   1.697598e+01   1.211894e-01  -1.325101e+05  -4.264567e+04   1.381071e+05  -2.830515e+11   2.517730e+11  -1.938349e+11   1.960897e+05   2.480918e-25   0.000000e+00   0.000000e+00
     3624000   3.623999e-06   1.794088e+01   1.697565e+01   1.222880e-01  -1.347614e+05  -4.064238e+04   1.365238e+05  -2.797420e+11   2.490296e+11  -2.019948e+11   1.960897e+05   2.480829e-25   0.000000e+00   0.000000e+00
     3632000   3.631999e-06   1.793980e+01   1.697533e+01   1.233736e-01  -1.369856e+05  -3.866151e+04   1.348755e+05  -2.763003e+11   2.461698e+11  -2.100581e+11   1.960897e+05   2.480727e-25   0.000000e+00   0.000000e+00
     3640000   3.639999e-06   1.793869e+01   1.697503e+01   1.244458e-01  -1.391818e+05  -3.670397e+04   1.331631e+05  -2.727279e+11   2.431948e+11  -2.180211e+11   1.960897e+05   2.480613e-25   0.000000e+00   0.000000e+00
     3648000   3.647999e-06   1.793757e+01   1.697475e+01   1.255041e-01  -1.413489e+05  -3.477069e+04   1.313874e+05  -2.690268e+11   2.401062e+11  -2.258801e+11   1.960897e+05   2.480486e-25   0.000000e+00   0.000000e+00
     3656000   3.655999e-06   1.793643e+01   1.697448e+01   1.265479e-01  -1.434859e+05  -3.286258e+04   1.295493e+05  -2.651986e+11   2.369051e+11  -2.336313e+11   1.960897e+05   2.480345e-25   0.000000e+00   0.000000e+00
     3664000   3.663999e-06   1.793528e+01   1.697422e+01   1.275767e-01  -1.455918e+05  -3.098051e+04   1.276496e+05  -2.612454e+11   2.335932e+11  -2.412711e+11   1.960897e+05   2.480191e-25   0.000000e+00   0.000000e+00
     3672000   3.671999e-06   1.793410e+01   1.697398e+01   1.285901e-01  -1.476655e+05  -2.912538e+04   1.256892e+05  -2.571691e+11   2.301719e+11  -2.487959e+11   1.960897e+05   2.480024e-25   0.000000e+00   0.000000e+00
     3680000   3.679999e-06   1.793291e+01   1.697376e+01   1.295876e-01  -1.497061e+05  -2.729805e+04   1.236692e+05  -2.529716e+11   2.266428e+11  -2.562022e+11   1.960897e+05   2.479842e-25   0.000000e+00   0.000000e+00
     3688000   3.687999e-06   1.793171e+01   1.697354e+01   1.305686e-01  -1.517127e+05  -2.549938e+04   1.215903e+05  -2.486552e+11   2.230075e+11  -2.634866e+11   1.960897e+05   2.479647e-25   0.000000e+00   0.000000e+00
     3696000   3.695999e-06   1.793049e+01   1.697335e+01   1.315329e-01  -1.536843e+05  -2.373021e+04   1.194537e+05  -2.442218e+11   2.192677e+11  -2.706455e+11   1.960897e+05   2.479437e-25   0.000000e+00   0.000000e+00
     3704000   3.703999e-06   1.792925e+01   1.697316e+01   1.324798e-01  -1.556200e+05  -2.199138e+04   1.172603e+05  -2.396737e+11   2.154250e+11  -2.776757e+11   1.960897e+05   2.479213e-25   0.000000e+00   0.000000e+00
     3712000   3.711999e-06   1.792800e+01   1.697300e+01   1.334089e-01  -1.575188e+05  -2.028369e+04   1.150112e+05  -2.350132e+11   2.114813e+11  -2.845738e+11   1.960897e+05   2.478974e-25   0.000000e+00   0.000000e+00
     3720000   3.719999e-06   1.792673e+01   1.697284e+01   1.343198e-01  -1.593799e+05  -1.860795e+04   1.127075e+05  -2.302424e+11   2.074382e+11  -2.913367e+11   1.960897e+05   2.478720e-25   0.000000e+00   0.000000e+00
     3728000   3.727999e-06   1.792545e+01   1.697270e+01   1.352121e-01  -1.612024e+05  -1.696494e+04   1.103502e+05  -2.253639e+11   2.032978e+11  -2.979611e+11   1.960897e+05   2.478452e-25   0.000000e+00   0.000000e+00
     3736000   3.735999e-06   1.792415e+01   1.697257e+01   1.360853e-01  -1.629854e+05  -1.535544e+04   1.079405e+05  -2.203799e+11   1.990618e+11  -3.044440e+11   1.960897e+05   2.478169e-25   0.000000e+00   0.000000e+00
     3744000   3.743999e-06   1.792284e+01   1.697245e+01   1.369390e-01  -1.647282e+05  -1.378020e+04   1.054795e+05  -2.152928e+11   1.947323e+11  -3.107823e+11   1.960897e+05   2.477872e-25   0.000000e+00   0.000000e+00
     3752000   3.751999e-06   1.792151e+01   1.697235e+01   1.377728e-01  -1.664298e+05  -1.223997e+04   1.029684e+05  -2.101053e+11   1.903111e+11  -3.169731e+11   1.960897e+05   2.477560e-25   0.000000e+00   0.000000e+00
     3760000   3.759999e-06   1.792018e+01   1.697226e+01   1.385863e-01  -1.680896e+05  -1.073547e+04   1.004083e+05  -2.048198e+11   1.858003e+11  -3.230135e+11   1.960898e+05   2.477233e-25   0.000000e+00   0.000000e+00
     3768000   3.767999e-06   1.791882e+01   1.697218e+01   1.393792e-01  -1.697067e+05  -9.267406e+03   9.780056e+04  -1.994390e+11   1.812020e+11  -3.289007e+11   1.960898e+05   2.476892e-25   0.000000e+00   0.000000e+00
     3776000   3.775999e-06   1.791746e+01   1.697211e+01   1.401510e-01  -1.712804e+05  -7.836470e+03   9.514632e+04  -1.939654e+11   1.765184e+11  -3.346319e+11   1.960898e+05   2.476536e-25   0.000000e+00   0.000000e+00
     3784000   3.783999e-06   1.791608e+01   1.697205e+01   1.409014e-01  -1.728099e+05  -6.443339e+03   9.244687e+04  -1.884016e+11   1.717514e+11  -3.402044e+11   1.960898e+05   2.476166e-25   0.000000e+00   0.000000e+00
     3792000   3.791999e-06   1.791469e+01   1.697200e+01   1.416300e-01  -1.742945e+05  -5.088669e+03   8.970348e+04  -1.827506e+11   1.669034e+11  -3.456157e+11   1.960898e+05   2.475782e-25   0.000000e+00   0.000000e+00
     3800000   3.799999e-06   1.791329e+01   1.697197e+01   1.423366e-01  -1.757337e+05  -3.773100e+03   8.691745e+04  -1.770149e+11   1.619766e+11  -3.508632e+11   1.960898e+05   2.475384e-25   0.000000e+00   0.000000e+00
     3808000   3.807999e-06   1.791188e+01   1.697194e+01   1.430206e-01  -1.771266e+05  -2.497253e+03   8.409010e+04  -1.711973e+11   1.569731e+11  -3.559445e+11   1.960898e+05   2.474972e-25   0.000000e+00   0.000000e+00
     3816000   3.815999e-06   1.791046e+01   1.697193e+01   1.436819e-01  -1.784726e+05  -1.261732e+03   8.122278e+04  -1.653008e+11   1.518954e+11  -3.608573e+11   1.960898e+05   2.474546e-25   0.000000e+00   0.000000e+00
     3824000   3.823999e-06   1.790903e+01   1.697192e+01   1.443201e-01  -1.797712e+05  -6.712288e+01   7.831684e+04  -1.593281e+11   1.467458e+11  -3.655992e+11   1.960898e+05   2.474108e-25   0.000000e+00   0.000000e+00
     3832000   3.831999e-06   1.790758e+01   1.697193e+01   1.449349e-01  -1.810216e+05   1.086010e+03   7.537365e+04  -1.532822e+11   1.415266e+11  -3.701680e+11   1.960898e+05   2.473656e-25   0.000000e+00   0.000000e+00
     3840000   3.839999e-06   1.790613e+01   1.697194e+01   1.455260e-01  -1.822235e+05   2.197119e+03   7.239461e+04  -1.471660e+11   1.362403e+11  -3.745617e+11   1.960898e+05   2.473192e-25   0.000000e+00   0.000000e+00
     3848000   3.847999e-06   1.790467e+01   1.697196e+01   1.460931e-01  -1.833761e+05   3.265677e+03   6.938113e+04  -1.409824e+11   1.308893e+11  -3.787782e+11   1.960898e+05   2.472716e-25   0.000000e+00   0.000000e+00
     3856000   3.855999e-06   1.790320e+01   1.697199e+01   1.466360e-01  -1.844790e+05   4.291176e+03   6.633464e+04  -1.347344e+11   1.254760e+11  -3.828155e+11   1.960898e+05   2.472228e-25   0.000000e+00   0.000000e+00
     3864000   3.863999e-06   1.790172e+01   1.697203e+01   1.471544e-01  -1.855317e+05   5.273128e+03   6.325656e+04  -1.284251e+11   1.200030e+11  -3.866718e+11   1.960898e+05   2.471728e-25   0.000000e+00   0.000000e+00
     3872000   3.871999e-06   1.790023e+01   1.697208e+01   1.476480e-01  -1.865337e+05   6.211065e+03   6.014837e+04  -1.220574e+11   1.144727e+11  -3.903453e+11   1.960898e+05   2.471217e-25   0.000000e+00   0.000000e+00
     3880000   3.879999e-06   1.789873e+01   1.697213e+01   1.481167e-01  -1.874846e+05   7.104480e+03   5.701095e+04  -1.156596e+11   1.088773e+11  -3.939198e+11   1.960898e+05   2.471665e-25   0.000000e+00   0.000000e+00
     3888000   3.887999e-06   1.789723e+01   1.697219e+01   1.485601e-01  -1.883840e+05   7.952966e+03   5.384625e+04  -1.091818e+11   1.032363e+11  -3.972227e+11   1.960898e+05   2.471119e-25   0.000000e+00   0.000000e+00
     3896000   3.895999e-06   1.789572e+01   1.697226e+01   1.489781e-01  -1.892314e+05   8.756124e+03   5.065588e+04  -1.026549e+11   9.754599e+10  -4.003379e+11   1.960898e+05   2.470562e-25   0.000000e+00   0.000000e+00
     3904000   3.903999e-06   1.789420e+01   1.697233e+01   1.493705e-01  -1.900264e+05   9.513571e+03   4.744135e+04  -9.608207e+10   9.180894e+10  -4.032638e+11   1.960898e+05   2.469996e-25   0.000000e+00   0.000000e+00
     3912000   3.911999e-06   1.789268e+01   1.697241e+01   1.497371e-01  -1.907686e+05   1.022494e+04   4.420417e+04  -8.946654e+10   8.602786e+10  -4.059992e+11   1.960898e+05   2.469421e-25   0.000000e+00   0.000000e+00
     3920000   3.919999e-06   1.789115e+01   1.697249e+01   1.500777e-01  -1.914577e+05   1.088990e+04   4.094587e+04  -8.281143e+10   8.020544e+10  -4.085427e+11   1.960898e+05   2.468838e-25   0.000000e+00   0.000000e+00
     3928000   3.927999e-06   1.788962e+01   1.697258e+01   1.503922e-01  -1.920935e+05   1.150812e+04   3.766800e+04  -7.611994e+10   7.434440e+10  -4.108933e+11   1.960898e+05   2.468247e-25   0.000000e+00   0.000000e+00
     3936000   3.935999e-06   1.788808e+01   1.697268e+01   1.506804e-01  -1.926756e+05   1.207931e+04   3.437209e+04  -6.939526e+10   6.844746e+10  -4.130499e+11   1.960898e+05   2.467649e-25   0.000000e+00   0.000000e+00
     3944000   3.943999e-06   1.788653e+01   1.697278e+01   1.509421e-01  -1.932037e+05   1.260319e+04   3.105972e+04  -6.264061e+10   6.251740e+10  -4.150115e+11   1.960898e+05   2.467043e-25   0.000000e+00   0.000000e+00
     3952000   3.951999e-06   1.788499e+01   1.697288e+01   1.511773e-01  -1.936777e+05   1.307950e+04   2.773243e+04  -5.585922e+10   5.655697e+10  -4.167772e+11   1.960898e+05   2.466432e-25   0.000000e+00   0.000000e+00
     3960000   3.959999e-06   1.788343e+01   1.697299e+01   1.513858e-01  -1.940974e+05   1.350802e+04   2.439180e+04  -4.905430e+10   5.056898e+10  -4.183462e+11   1.960898e+05   2.465814e-25   0.000000e+00   0.000000e+00
     3968000   3.967999e-06   1.788188e+01   1.697310e+01   1.515675e-01  -1.944625e+05   1.388853e+04   2.103942e+04  -4.222910e+10   4.455622e+10  -4.197179e+11   1.960898e+05   2.465192e-25   0.000000e+00   0.000000e+00
     3976000   3.975999e-06   1.788032e+01   1.697321e+01   1.517224e-01  -1.947730e+05   1.422085e+04   1.767685e+04  -3.538687e+10   3.852152e+10  -4.208916e+11   1.960899e+05   2.464565e-25   0.000000e+00   0.000000e+00
     3984000   3.983999e-06   1.787876e+01   1.697332e+01   1.518503e-01  -1.950287e+05   1.450482e+04   1.430568e+04  -2.853085e+10   3.246771e+10  -4.218669e+11   1.960899e+05   2.463934e-25   0.000000e+00   0.000000e+00
     3992000   3.991999e-06   1.787720e+01   1.697344e+01   1.519513e-01  -1.952295e+05   1.474029e+04   1.092750e+04  -2.166429e+10   2.639763e+10  -4.226433e+11   1.960899e+05   2.463300e-25   0.000000e+00   0.000000e+00
     4000000   3.999999e-06   1.787564e+01   1.697356e+01   1.520252e-01  -1.953753e+05   1.492714e+04   7.543916e+03  -1.479045e+10   2.031414e+10  -4.232205e+11   1.960899e+05   2.462663e-25   0.000000e+00   0.000000e+00
     4008000   4.007999e-06   1.787408e+01   1.697368e+01   1.520720e-01  -1.954661e+05   1.506528e+04   4.156507e+03  -7.912573e+09   1.422010e+10  -4.235984e+11   1.960899e+05   2.462024e-25   0.000000e+00   0.000000e+00
     4016000   4.015999e-06   1.787251e+01   1.697380e+01   1.520917e-01  -1.955019e+05   1.515464e+04   7.668739e+02  -1.033913e+09   8.118373e+09  -4.237767e+11   1.960899e+05   2.461384e-25   0.000000e+00   0.000000e+00
     4024000   4.023999e-06   1.787095e+01   1.697392e+01   1.520842e-01  -1.954826e+05   1.519516e+04  -2.623388e+03   5.842286e+09   2.011847e+09  -4.237554e+11   1.960899e+05   2.460743e-25   0.000000e+00   0.000000e+00
     4032000   4.031999e-06   1.786939e+01   1.697404e+01   1.520497e-01  -1.954084e+05   1.518681e+04  -6.012681e+03   1.271278e+10  -4.096601e+09  -4.235347e+11   1.960899e+05   2.460101e-25   0.000000e+00   0.000000e+00
     4040000   4.039999e-06   1.786782e+01   1.697416e+01   1.519880e-01  -1.952793e+05   1.512961e+04  -9.399410e+03   1.957435e+10  -1.020409e+10  -4.231146e+11   1.960899e+05   2.459460e-25   0.000000e+00   0.000000e+00
     4048000   4.047999e-06   1.786626e+01   1.697428e+01   1.518993e-01  -1.950952e+05   1.502355e+04  -1.278198e+04   2.642375e+10  -1.630773e+10  -4.224953e+11   1.960899e+05   2.458820e-25   0.000000e+00   0.000000e+00
     4056000   4.055999e-06   1.786470e+01   1.697440e+01   1.517835e-01  -1.948565e+05   1.486869e+04  -1.615881e+04   3.325778e+10  -2.240463e+10  -4.216774e+11   1.960899e+05   2.458181e-25   0.000000e+00   0.000000e+00
     4064000   4.063999e-06   1.786314e+01   1.697452e+01   1.516408e-01  -1.945632e+05   1.466510e+04  -1.952829e+04   4.007324e+10  -2.849191e+10  -4.206611e+11   1.960899e+05   2.457545e-25   0.000000e+00   0.000000e+00
     4072000   4.071999e-06   1.786159e+01   1.697464e+01   1.514711e-01  -1.942154e+05   1.441285e+04  -2.288885e+04   4.686692e+10  -3.456669e+10  -4.194470e+11   1.960899e+05   2.456911e-25   0.000000e+00   0.000000e+00
     4080000   4.079999e-06   1.786004e+01   1.697475e+01   1.512746e-01  -1.938134e+05   1.411207e+04  -2.623892e+04   5.363566e+10  -4.062608e+10  -4.180358e+11   1.960899e+05   2.456281e-25   0.000000e+00   0.000000e+00
     4088000   4.087999e-06   1.785849e+01   1.697486e+01   1.510513e-01  -1.933573e+05   1.376288e+04  -2.957690e+04   6.037630e+10  -4.666721e+10  -4.164281e+11   1.960899e+05   2.455655e-25   0.000000e+00   0.000000e+00
     4096000   4.095999e-06   1.785694e+01   1.697497e+01   1.508014e-01  -1.928474e+05   1.336544e+04  -3.290124e+04   6.708569e+10  -5.268722e+10  -4.146247e+11   1.960899e+05   2.455034e-25   0.000000e+00   0.000000e+00
     4104000   4.103999e-06   1.785540e+01   1.697508e+01   1.505249e-01  -1.922840e+05   1.291994e+04  -3.621038e+04   7.376070e+10  -5.868323e+10  -4.126266e+11   1.960899e+05   2.454417e-25   0.000000e+00   0.000000e+00
     4112000   4.111999e-06   1.785387e+01   1.697518e+01   1.502221e-01  -1.916673e+05   1.242657e+04  -3.950275e+04   8.039824e+10  -6.465239e+10  -4.104348e+11   1.960899e+05   2.453807e-25   0.000000e+00   0.000000e+00
     4120000   4.119999e-06   1.785234e+01   1.697528e+01   1.498930e-01  -1.909977e+05   1.188557e+04  -4.277682e+04   8.699521e+10  -7.059188e+10  -4.080503e+11   1.960899e+05   2.453203e-25   0.000000e+00   0.000000e+00
     4128000   4.127999e-06   1.785081e+01   1.697537e+01   1.495377e-01  -1.902755e+05   1.129719e+04  -4.603104e+04   9.354857e+10  -7.649885e+10  -4.054743e+11   1.960899e+05   2.452605e-25   0.000000e+00   0.000000e+00
     4136000   4.135999e-06   1.784929e+01   1.697546e+01   1.491565e-01  -1.895011e+05   1.066168e+04  -4.926389e+04   1.000553e+11  -8.237049e+10  -4.027081e+11   1.960899e+05   2.452015e-25   0.000000e+00   0.000000e+00
     4144000   4.143999e-06   1.784778e+01   1.697554e+01   1.487495e-01  -1.886748e+05   9.979353e+03  -5.247386e+04   1.065123e+11  -8.820400e+10  -3.997530e+11   1.960899e+05   2.451433e-25   0.000000e+00   0.000000e+00
     4152000   4.151999e-06   1.784627e+01   1.697562e+01   1.483170e-01  -1.877970e+05   9.250520e+03  -5.565944e+04   1.129167e+11  -9.399660e+10  -3.966104e+11   1.960899e+05   2.450859e-25   0.000000e+00   0.000000e+00
     4160000   4.159999e-06   1.784477e+01   1.697569e+01   1.478591e-01  -1.868682e+05   8.475519e+03  -5.881913e+04   1.192655e+11  -9.974551e+10  -3.932820e+11   1.960899e+05   2.450294e-25   0.000000e+00   0.000000e+00
     4168000   4.167999e-06   1.784328e+01   1.697575e+01   1.473760e-01  -1.858889e+05   7.654710e+03  -6.195146e+04   1.255557e+11  -1.054480e+11  -3.897692e+11   1.960899e+05   2.449739e-25   0.000000e+00   0.000000e+00
     4176000   4.175999e-06   1.784180e+01   1.697581e+01   1.468679e-01  -1.848595e+05   6.788476e+03  -6.505495e+04   1.317846e+11  -1.111013e+11  -3.860739e+11   1.960899e+05   2.449193e-25   0.000000e+00   0.000000e+00
     4184000   4.183999e-06   1.784033e+01   1.697586e+01   1.463352e-01  -1.837805e+05   5.877221e+03  -6.812815e+04   1.379491e+11  -1.167028e+11  -3.821977e+11   1.960899e+05   2.448657e-25   0.000000e+00   0.000000e+00
     4192000   4.191999e-06   1.783886e+01   1.697590e+01   1.457780e-01  -1.826525e+05   4.921371e+03  -7.116963e+04   1.440465e+11  -1.222497e+11  -3.781427e+11   1.960899e+05   2.448132e-25   0.000000e+00   0.000000e+00
     4200000   4.199999e-06   1.783740e+01   1.697594e+01   1.451965e-01  -1.814760e+05   3.921373e+03  -7.417796e+04   1.500741e+11  -1.277394e+11  -3.739107e+11   1.960900e+05   2.447618e-25   0.000000e+00   0.000000e+00
     4208000   4.207999e-06   1.783596e+01   1.697597e+01   1.445912e-01  -1.802515e+05   2.877694e+03  -7.715173e+04   1.560289e+11  -1.331693e+11  -3.695037e+11   1.960900e+05   2.447116e-25   0.000000e+00   0.000000e+00
     4216000   4.215999e-06   1.783452e+01   1.697599e+01   1.439622e-01  -1.789797e+05   1.790825e+03  -8.008955e+04   1.619084e+11  -1.385368e+11  -3.649239e+11   1.960900e+05   2.446625e-25   0.000000e+00   0.000000e+00
     4224000   4.223999e-06   1.783309e+01   1.697600e+01   1.433099e-01  -1.776612e+05   6.612743e+02  -8.299005e+04   1.677098e+11  -1.438392e+11  -3.601735e+11   1.960900e+05   2.446146e-25   0.000000e+00   0.000000e+00
     4232000   4.231999e-06   1.783168e+01   1.697600e+01   1.426345e-01  -1.762965e+05  -5.104272e+02  -8.585187e+04   1.734305e+11  -1.490741e+11  -3.552548e+11   1.960900e+05   2.445679e-25   0.000000e+00   0.000000e+00
     4240000   4.239999e-06   1.783027e+01   1.697599e+01   1.419363e-01  -1.748865e+05  -1.723729e+03  -8.867368e+04   1.790679e+11  -1.542389e+11  -3.501701e+11   1.960900e+05   2.445225e-25   0.000000e+00   0.000000e+00
     4248000   4.247999e-06   1.782888e+01   1.697597e+01   1.412158e-01  -1.734317e+05  -2.978061e+03  -9.145415e+04   1.846194e+11  -1.593311e+11  -3.449218e+11   1.960900e+05   2.444783e-25   0.000000e+00   0.000000e+00
     4256000   4.255999e-06   1.782750e+01   1.697594e+01   1.404732e-01  -1.719328e+05  -4.272832e+03  -9.419200e+04   1.900825e+11  -1.643483e+11  -3.395126e+11   1.960900e+05   2.444355e-25   0.000000e+00   0.000000e+00
     4264000   4.263999e-06   1.782613e+01   1.697590e+01   1.397088e-01  -1.703906e+05  -5.607433e+03  -9.688593e+04   1.954548e+11  -1.692882e+11  -3.339449e+11   1.960900e+05   2.443940e-25   0.000000e+00   0.000000e+00
     4272000   4.271999e-06   1.782477e+01   1.697585e+01   1.389231e-01  -1.688058e+05  -6.981234e+03  -9.953469e+04   2.007337e+11  -1.741482e+11  -3.282214e+11   1.960900e+05   2.443538e-25   0.000000e+00   0.000000e+00
     4280000   4.279999e-06   1.782343e+01   1.697579e+01   1.381164e-01  -1.671791e+05  -8.393589e+03  -1.021371e+05   2.059170e+11  -1.789261e+11  -3.223449e+11   1.960900e+05   2.443150e-25   0.000000e+00   0.000000e+00
     4288000   4.287999e-06   1.782210e+01   1.697571e+01   1.372891e-01  -1.655114e+05  -9.843831e+03  -1.046918e+05   2.110022e+11  -1.836195e+11  -3.163182e+11   1.960900e+05   2.442776e-25   0.000000e+00   0.000000e+00
