     timestep     time              x             y              z              vx             vy             vz             ax             ay             az         v_magnitude      ELoss        Electronic      Nuclear
           0   0.000000e+00   2.282786e+01   3.830792e+01   1.000000e-01  -2.338350e+04   9.072802e+04  -1.138304e+05   0.000000e+00   0.000000e+00   0.000000e+00   1.474304e+05   0.000000e+00   0.000000e+00   0.000000e+00
        8000   7.999000e-09   2.282766e+01   3.830864e+01   9.909003e-02  -2.536251e+04   9.041542e+04  -1.136552e+05  -2.471674e+11  -3.905103e+10   2.408958e+10   1.474304e+05   4.894443e-26   0.000000e+00   0.000000e+00
       16000   1.599900e-08   2.282745e+01   3.830936e+01   9.818161e-02  -2.733798e+04   9.010324e+04  -1.134449e+05  -2.466881e+11  -3.899173e+10   2.847733e+10   1.474304e+05   4.893615e-26   0.000000e+00   0.000000e+00
       24000   2.399900e-08   2.282723e+01   3.831008e+01   9.727501e-02  -2.930931e+04   8.979158e+04  -1.131996e+05  -2.461328e+11  -3.892060e+10   3.285504e+10   1.474304e+05   4.892787e-26   0.000000e+00   0.000000e+00
       32000   3.199900e-08   2.282698e+01   3.831080e+01   9.637051e-02  -3.127590e+04   8.948054e+04  -1.129193e+05  -2.455017e+11  -3.883766e+10   3.722136e+10   1.474304e+05   4.891956e-26   0.000000e+00   0.000000e+00
       40000   3.999900e-08   2.282673e+01   3.831151e+01   9.546839e-02  -3.323714e+04   8.917021e+04  -1.126041e+05  -2.447952e+11  -3.874295e+10   4.157496e+10   1.474304e+05   4.891125e-26   0.000000e+00   0.000000e+00
       48000   4.799900e-08   2.282645e+01   3.831223e+01   9.456894e-02  -3.519242e+04   8.886068e+04  -1.122541e+05  -2.440133e+11  -3.863648e+10   4.591449e+10   1.474304e+05   4.890292e-26   0.000000e+00   0.000000e+00
       56000   5.599900e-08   2.282616e+01   3.831293e+01   9.367242e-02  -3.714115e+04   8.855206e+04  -1.118695e+05  -2.431564e+11  -3.851829e+10   5.023863e+10   1.474304e+05   4.889456e-26   0.000000e+00   0.000000e+00
       64000   6.399900e-08   2.282586e+01   3.831364e+01   9.277912e-02  -3.908272e+04   8.824442e+04  -1.114504e+05  -2.422248e+11  -3.838843e+10   5.454606e+10   1.474304e+05   4.888619e-26   0.000000e+00   0.000000e+00
       72000   7.199900e-08   2.282554e+01   3.831435e+01   9.188931e-02  -4.101655e+04   8.793787e+04  -1.109968e+05  -2.412188e+11  -3.824693e+10   5.883544e+10   1.474304e+05   4.887779e-26   0.000000e+00   0.000000e+00
       80000   7.999900e-08   2.282520e+01   3.831505e+01   9.100326e-02  -4.294203e+04   8.763250e+04  -1.105090e+05  -2.401388e+11  -3.809383e+10   6.310548e+10   1.474304e+05   4.886937e-26   0.000000e+00   0.000000e+00
       88000   8.799900e-08   2.282485e+01   3.831575e+01   9.012125e-02  -4.485857e+04   8.732840e+04  -1.099872e+05  -2.389851e+11  -3.792918e+10   6.735485e+10   1.474304e+05   4.886092e-26   0.000000e+00   0.000000e+00
       96000   9.599900e-08   2.282448e+01   3.831645e+01   8.924355e-02  -4.676559e+04   8.702567e+04  -1.094314e+05  -2.377581e+11  -3.775304e+10   7.158228e+10   1.474304e+05   4.885243e-26   0.000000e+00   0.000000e+00
      104000   1.039990e-07   2.282410e+01   3.831714e+01   8.837044e-02  -4.866250e+04   8.672439e+04  -1.088419e+05  -2.364582e+11  -3.756544e+10   7.578645e+10   1.474304e+05   4.884392e-26   0.000000e+00   0.000000e+00
      112000   1.119990e-07   2.282370e+01   3.831783e+01   8.750217e-02  -5.054873e+04   8.642465e+04  -1.082189e+05  -2.350858e+11  -3.736646e+10   7.996610e+10   1.474304e+05   4.883536e-26   0.000000e+00   0.000000e+00
      120000   1.199990e-07   2.282329e+01   3.831852e+01   8.663903e-02  -5.242368e+04   8.612655e+04  -1.075625e+05  -2.336415e+11  -3.715614e+10   8.411994e+10   1.474304e+05   4.882678e-26   0.000000e+00   0.000000e+00
      128000   1.279990e-07   2.282287e+01   3.831921e+01   8.578126e-02  -5.428680e+04   8.583018e+04  -1.068730e+05  -2.321256e+11  -3.693455e+10   8.824670e+10   1.474304e+05   4.881815e-26   0.000000e+00   0.000000e+00
      136000   1.359990e-07   2.282242e+01   3.831990e+01   8.492914e-02  -5.613750e+04   8.553563e+04  -1.061506e+05  -2.305387e+11  -3.670175e+10   9.234514e+10   1.474304e+05   4.880948e-26   0.000000e+00   0.000000e+00
      144000   1.439990e-07   2.282197e+01   3.832058e+01   8.408294e-02  -5.797523e+04   8.524298e+04  -1.053956e+05  -2.288813e+11  -3.645782e+10   9.641400e+10   1.474304e+05   4.880077e-26   0.000000e+00   0.000000e+00
      152000   1.519990e-07   2.282150e+01   3.832126e+01   8.324290e-02  -5.979941e+04   8.495233e+04  -1.046081e+05  -2.271540e+11  -3.620282e+10   1.004520e+11   1.474304e+05   4.879201e-26   0.000000e+00   0.000000e+00
      160000   1.599990e-07   2.282101e+01   3.832194e+01   8.240929e-02  -6.160950e+04   8.466377e+04  -1.037884e+05  -2.253572e+11  -3.593683e+10   1.044580e+11   1.474304e+05   4.878321e-26   0.000000e+00   0.000000e+00
      168000   1.679990e-07   2.282051e+01   3.832262e+01   8.158237e-02  -6.340494e+04   8.437737e+04  -1.029369e+05  -2.234917e+11  -3.565992e+10   1.084308e+11   1.474304e+05   4.877436e-26   0.000000e+00   0.000000e+00
      176000   1.759990e-07   2.282000e+01   3.832329e+01   8.076239e-02  -6.518519e+04   8.409324e+04  -1.020536e+05  -2.215579e+11  -3.537218e+10   1.123690e+11   1.474304e+05   4.876546e-26   0.000000e+00   0.000000e+00
      184000   1.839990e-07   2.281947e+01   3.832396e+01   7.994960e-02  -6.694969e+04   8.381145e+04  -1.011390e+05  -2.195565e+11  -3.507369e+10   1.162716e+11   1.474304e+05   4.875651e-26   0.000000e+00   0.000000e+00
      192000   1.919990e-07   2.281893e+01   3.832463e+01   7.914425e-02  -6.869791e+04   8.353209e+04  -1.001934e+05  -2.174883e+11  -3.476453e+10   1.201374e+11   1.474304e+05   4.874751e-26   0.000000e+00   0.000000e+00
      200000   1.999990e-07   2.281837e+01   3.832530e+01   7.834659e-02  -7.042932e+04   8.325524e+04  -9.921694e+04  -2.153537e+11  -3.444480e+10   1.239651e+11   1.474304e+05   4.873845e-26   0.000000e+00   0.000000e+00
      208000   2.079990e-07   2.281780e+01   3.832596e+01   7.755686e-02  -7.214339e+04   8.298100e+04  -9.821004e+04  -2.131535e+11  -3.411458e+10   1.277537e+11   1.474304e+05   4.872934e-26   0.000000e+00   0.000000e+00
      216000   2.159990e-07   2.281721e+01   3.832663e+01   7.677531e-02  -7.383960e+04   8.270944e+04  -9.717299e+04  -2.108885e+11  -3.377398e+10   1.315019e+11   1.474304e+05   4.872017e-26   0.000000e+00   0.000000e+00
      224000   2.239990e-07   2.281662e+01   3.832729e+01   7.600217e-02  -7.551744e+04   8.244064e+04  -9.610611e+04  -2.085593e+11  -3.342308e+10   1.352087e+11   1.474304e+05   4.871094e-26   0.000000e+00   0.000000e+00
      232000   2.319990e-07   2.281601e+01   3.832794e+01   7.523769e-02  -7.717638e+04   8.217470e+04  -9.500976e+04  -2.061667e+11  -3.306200e+10   1.388729e+11   1.474304e+05   4.870166e-26   0.000000e+00   0.000000e+00
      240000   2.399990e-07   2.281538e+01   3.832860e+01   7.448209e-02  -7.881593e+04   8.191168e+04  -9.388426e+04  -2.037115e+11  -3.269082e+10   1.424934e+11   1.474304e+05   4.869231e-26   0.000000e+00   0.000000e+00
      248000   2.479990e-07   2.281475e+01   3.832926e+01   7.373561e-02  -8.043560e+04   8.165167e+04  -9.272998e+04  -2.011944e+11  -3.230967e+10   1.460691e+11   1.474304e+05   4.868290e-26   0.000000e+00   0.000000e+00
      256000   2.559990e-07   2.281410e+01   3.832991e+01   7.299849e-02  -8.203488e+04   8.139475e+04  -9.154727e+04  -1.986162e+11  -3.191865e+10   1.495990e+11   1.474304e+05   4.867343e-26   0.000000e+00   0.000000e+00
      264000   2.639990e-07   2.281343e+01   3.833056e+01   7.227093e-02  -8.361329e+04   8.114100e+04  -9.033652e+04  -1.959778e+11  -3.151787e+10   1.530820e+11   1.474304e+05   4.866390e-26   0.000000e+00   0.000000e+00
      272000   2.719990e-07   2.281276e+01   3.833121e+01   7.155318e-02  -8.517036e+04   8.089049e+04  -8.909809e+04  -1.932799e+11  -3.110745e+10   1.565170e+11   1.474304e+05   4.865431e-26   0.000000e+00   0.000000e+00
      280000   2.799990e-07   2.281207e+01   3.833185e+01   7.084544e-02  -8.670561e+04   8.064331e+04  -8.783237e+04  -1.905235e+11  -3.068750e+10   1.599029e+11   1.474304e+05   4.864465e-26   0.000000e+00   0.000000e+00
      288000   2.879990e-07   2.281137e+01   3.833250e+01   7.014793e-02  -8.821858e+04   8.039952e+04  -8.653977e+04  -1.877094e+11  -3.025815e+10   1.632389e+11   1.474304e+05   4.863493e-26   0.000000e+00   0.000000e+00
      296000   2.959990e-07   2.281066e+01   3.833314e+01   6.946087e-02  -8.970881e+04   8.015920e+04  -8.522068e+04  -1.848386e+11  -2.981952e+10   1.665239e+11   1.474304e+05   4.862514e-26   0.000000e+00   0.000000e+00
      304000   3.039990e-07   2.280994e+01   3.833378e+01   6.878447e-02  -9.117585e+04   7.992243e+04  -8.387552e+04  -1.819118e+11  -2.937173e+10   1.697568e+11   1.474304e+05   4.861529e-26   0.000000e+00   0.000000e+00
      312000   3.119990e-07   2.280920e+01   3.833442e+01   6.811893e-02  -9.261925e+04   7.968928e+04  -8.250471e+04  -1.789301e+11  -2.891492e+10   1.729368e+11   1.474304e+05   4.860538e-26   0.000000e+00   0.000000e+00
      320000   3.199990e-07   2.280845e+01   3.833505e+01   6.746446e-02  -9.403858e+04   7.945982e+04  -8.110868e+04  -1.758943e+11  -2.844921e+10   1.760628e+11   1.474304e+05   4.859539e-26   0.000000e+00   0.000000e+00
      328000   3.279990e-07   2.280770e+01   3.833569e+01   6.682126e-02  -9.543341e+04   7.923411e+04  -7.968785e+04  -1.728055e+11  -2.797475e+10   1.791340e+11   1.474304e+05   4.858535e-26   0.000000e+00   0.000000e+00
      336000   3.359990e-07   2.280693e+01   3.833632e+01   6.618952e-02  -9.680333e+04   7.901224e+04  -7.824268e+04  -1.696646e+11  -2.749165e+10   1.821494e+11   1.474304e+05   4.857524e-26   0.000000e+00   0.000000e+00
      344000   3.439990e-07   2.280615e+01   3.833695e+01   6.556944e-02  -9.814791e+04   7.879427e+04  -7.677361e+04  -1.664725e+11  -2.700008e+10   1.851081e+11   1.474304e+05   4.856506e-26   0.000000e+00   0.000000e+00
      352000   3.519990e-07   2.280536e+01   3.833758e+01   6.496120e-02  -9.946675e+04   7.858026e+04  -7.528110e+04  -1.632304e+11  -2.650015e+10   1.880092e+11   1.474304e+05   4.855482e-26   0.000000e+00   0.000000e+00
      360000   3.599990e-07   2.280456e+01   3.833821e+01   6.436500e-02  -1.007595e+05   7.837029e+04  -7.376561e+04  -1.599391e+11  -2.599203e+10   1.908519e+11   1.474304e+05   4.854451e-26   0.000000e+00   0.000000e+00
      368000   3.679990e-07   2.280374e+01   3.833884e+01   6.378101e-02  -1.020256e+05   7.816441e+04  -7.222762e+04  -1.565998e+11  -2.547586e+10   1.936354e+11   1.474304e+05   4.853414e-26   0.000000e+00   0.000000e+00
      376000   3.759990e-07   2.280292e+01   3.833946e+01   6.320942e-02  -1.032649e+05   7.796270e+04  -7.066761e+04  -1.532134e+11  -2.495178e+10   1.963587e+11   1.474305e+05   4.852370e-26   0.000000e+00   0.000000e+00
      384000   3.839990e-07   2.280209e+01   3.834008e+01   6.265039e-02  -1.044769e+05   7.776521e+04  -6.908604e+04  -1.497811e+11  -2.441995e+10   1.990212e+11   1.474305e+05   4.851320e-26   0.000000e+00   0.000000e+00
      392000   3.919990e-07   2.280125e+01   3.834070e+01   6.210410e-02  -1.056613e+05   7.757200e+04  -6.748343e+04  -1.463039e+11  -2.388052e+10   2.016219e+11   1.474305e+05   4.850264e-26   0.000000e+00   0.000000e+00
      400000   3.999990e-07   2.280040e+01   3.834132e+01   6.157071e-02  -1.068177e+05   7.738314e+04  -6.586026e+04  -1.427829e+11  -2.333365e+10   2.041602e+11   1.474305e+05   4.849202e-26   0.000000e+00   0.000000e+00
      408000   4.079990e-07   2.279954e+01   3.834194e+01   6.105039e-02  -1.079457e+05   7.719875e+04  -6.421691e+04  -1.392241e+11  -2.276367e+10   2.066630e+11   1.474305e+05   4.849073e-26   0.000000e+00   0.000000e+00
      416000   4.159990e-07   2.279867e+01   3.834256e+01   6.054329e-02  -1.090451e+05   7.701888e+04  -6.255392e+04  -1.356178e+11  -2.220211e+10   2.090743e+11   1.474305e+05   4.847994e-26   0.000000e+00   0.000000e+00
      424000   4.239990e-07   2.279780e+01   3.834318e+01   6.004958e-02  -1.101155e+05   7.684353e+04  -6.087190e+04  -1.319710e+11  -2.163360e+10   2.114209e+11   1.474305e+05   4.846909e-26   0.000000e+00   0.000000e+00
      432000   4.319990e-07   2.279691e+01   3.834379e+01   5.956939e-02  -1.111566e+05   7.667276e+04  -5.917136e+04  -1.282849e+11  -2.105830e+10   2.137022e+11   1.474305e+05   4.845818e-26   0.000000e+00   0.000000e+00
      440000   4.399990e-07   2.279602e+01   3.834440e+01   5.910288e-02  -1.121680e+05   7.650662e+04  -5.745284e+04  -1.245606e+11  -2.047640e+10   2.159173e+11   1.474305e+05   4.844720e-26   0.000000e+00   0.000000e+00
      448000   4.479990e-07   2.279512e+01   3.834501e+01   5.865019e-02  -1.131494e+05   7.634516e+04  -5.571686e+04  -1.207992e+11  -1.988805e+10   2.180658e+11   1.474305e+05   4.843617e-26   0.000000e+00   0.000000e+00
      456000   4.559990e-07   2.279421e+01   3.834562e+01   5.821146e-02  -1.141006e+05   7.618843e+04  -5.396396e+04  -1.170019e+11  -1.929342e+10   2.201469e+11   1.474305e+05   4.842507e-26   0.000000e+00   0.000000e+00
      464000   4.639990e-07   2.279329e+01   3.834623e+01   5.778681e-02  -1.150214e+05   7.603648e+04  -5.219469e+04  -1.131700e+11  -1.869270e+10   2.221600e+11   1.474305e+05   4.841392e-26   0.000000e+00   0.000000e+00
      472000   4.719990e-07   2.279237e+01   3.834684e+01   5.737639e-02  -1.159113e+05   7.588936e+04  -5.040958e+04  -1.093045e+11  -1.808605e+10   2.241046e+11   1.474305e+05   4.840271e-26   0.000000e+00   0.000000e+00
      480000   4.799990e-07   2.279144e+01   3.834745e+01   5.698030e-02  -1.167701e+05   7.574712e+04  -4.860919e+04  -1.054067e+11  -1.747366e+10   2.259801e+11   1.474305e+05   4.839145e-26   0.000000e+00   0.000000e+00
      488000   4.879990e-07   2.279050e+01   3.834805e+01   5.659868e-02  -1.175977e+05   7.560980e+04  -4.679408e+04  -1.014778e+11  -1.685571e+10   2.277860e+11   1.474305e+05   4.838014e-26   0.000000e+00   0.000000e+00
      496000   4.959990e-07   2.278956e+01   3.834866e+01   5.623163e-02  -1.183937e+05   7.547744e+04  -4.496480e+04  -9.751901e+10  -1.623237e+10   2.295217e+11   1.474305e+05   4.836878e-26   0.000000e+00   0.000000e+00
      504000   5.039990e-07   2.278861e+01   3.834926e+01   5.587928e-02  -1.191579e+05   7.535009e+04  -4.312192e+04  -9.353156e+10  -1.560383e+10   2.311867e+11   1.474305e+05   4.835736e-26   0.000000e+00   0.000000e+00
      512000   5.119990e-07   2.278765e+01   3.834986e+01   5.554172e-02  -1.198901e+05   7.522779e+04  -4.126601e+04  -8.951667e+10  -1.497027e+10   2.327805e+11   1.474305e+05   4.834590e-26   0.000000e+00   0.000000e+00
      520000   5.199990e-07   2.278669e+01   3.835046e+01   5.521905e-02  -1.205901e+05   7.511058e+04  -3.939762e+04  -8.547558e+10  -1.433189e+10   2.343027e+11   1.474305e+05   4.833440e-26   0.000000e+00   0.000000e+00
      528000   5.279990e-07   2.278572e+01   3.835106e+01   5.491139e-02  -1.212577e+05   7.499850e+04  -3.751735e+04  -8.140955e+10  -1.368887e+10   2.357529e+11   1.474305e+05   4.832285e-26   0.000000e+00   0.000000e+00
      536000   5.359990e-07   2.278475e+01   3.835166e+01   5.461881e-02  -1.218926e+05   7.489157e+04  -3.562577e+04  -7.731983e+10  -1.304140e+10   2.371306e+11   1.474305e+05   4.831126e-26   0.000000e+00   0.000000e+00
      544000   5.439990e-07   2.278377e+01   3.835226e+01   5.434140e-02  -1.224947e+05   7.478985e+04  -3.372346e+04  -7.320767e+10  -1.238967e+10   2.384355e+11   1.474305e+05   4.829963e-26   0.000000e+00   0.000000e+00
      552000   5.519990e-07   2.278279e+01   3.835286e+01   5.407926e-02  -1.230639e+05   7.469335e+04  -3.181100e+04  -6.907434e+10  -1.173387e+10   2.396671e+11   1.474305e+05   4.828797e-26   0.000000e+00   0.000000e+00
      560000   5.599990e-07   2.278180e+01   3.835346e+01   5.383245e-02  -1.235998e+05   7.460212e+04  -2.988898e+04  -6.492113e+10  -1.107421e+10   2.408252e+11   1.474305e+05   4.827627e-26   0.000000e+00   0.000000e+00
      568000   5.679990e-07   2.278081e+01   3.835405e+01   5.360106e-02  -1.241025e+05   7.451617e+04  -2.795799e+04  -6.074929e+10  -1.041087e+10   2.419094e+11   1.474305e+05   4.826454e-26   0.000000e+00   0.000000e+00
      576000   5.759990e-07   2.277982e+01   3.835465e+01   5.338515e-02  -1.245718e+05   7.443555e+04  -2.601862e+04  -5.656012e+10  -9.744059e+09   2.429194e+11   1.474305e+05   4.825277e-26   0.000000e+00   0.000000e+00
      584000   5.839990e-07   2.277882e+01   3.835524e+01   5.318478e-02  -1.250075e+05   7.436028e+04  -2.407147e+04  -5.235491e+10  -9.073969e+09   2.438550e+11   1.474305e+05   4.824098e-26   0.000000e+00   0.000000e+00
      592000   5.919990e-07   2.277782e+01   3.835584e+01   5.300002e-02  -1.254094e+05   7.429038e+04  -2.211714e+04  -4.813494e+10  -8.400802e+09   2.447158e+11   1.474305e+05   4.822917e-26   0.000000e+00   0.000000e+00
      600000   5.999990e-07   2.277681e+01   3.835643e+01   5.283092e-02  -1.257776e+05   7.422587e+04  -2.015622e+04  -4.390150e+10  -7.724760e+09   2.455016e+11   1.474305e+05   4.821733e-26   0.000000e+00   0.000000e+00
      608000   6.079990e-07   2.277580e+01   3.835703e+01   5.267754e-02  -1.261118e+05   7.416679e+04  -1.818932e+04  -3.965591e+10  -7.046045e+09   2.462123e+11   1.474305e+05   4.820546e-26   0.000000e+00   0.000000e+00
      616000   6.159990e-07   2.277479e+01   3.835762e+01   5.253991e-02  -1.264120e+05   7.411314e+04  -1.621702e+04  -3.539945e+10  -6.364860e+09   2.468477e+11   1.474305e+05   4.819358e-26   0.000000e+00   0.000000e+00
      624000   6.239990e-07   2.277378e+01   3.835821e+01   5.241808e-02  -1.266782e+05   7.406496e+04  -1.423995e+04  -3.113344e+10  -5.681410e+09   2.474075e+11   1.474305e+05   4.818169e-26   0.000000e+00   0.000000e+00
      632000   6.319990e-07   2.277277e+01   3.835880e+01   5.231208e-02  -1.269101e+05   7.402225e+04  -1.225871e+04  -2.685917e+10  -4.995902e+09   2.478917e+11   1.474305e+05   4.816978e-26   0.000000e+00   0.000000e+00
      640000   6.399990e-07   2.277175e+01   3.835940e+01   5.222195e-02  -1.271079e+05   7.398503e+04  -1.027389e+04  -2.257796e+10  -4.308540e+09   2.483001e+11   1.474305e+05   4.815786e-26   0.000000e+00   0.000000e+00
      648000   6.479990e-07   2.277073e+01   3.835999e+01   5.214771e-02  -1.272714e+05   7.395332e+04  -8.286106e+03  -1.829111e+10  -3.619533e+09   2.486327e+11   1.474305e+05   4.814593e-26   0.000000e+00   0.000000e+00
      656000   6.559990e-07   2.276971e+01   3.836058e+01   5.208938e-02  -1.274005e+05   7.392712e+04  -6.295967e+03  -1.399994e+10  -2.929089e+09   2.488893e+11   1.474305e+05   4.813400e-26   0.000000e+00   0.000000e+00
      664000   6.639990e-07   2.276869e+01   3.836117e+01   5.204698e-02  -1.274954e+05   7.390646e+04  -4.304079e+03  -9.705753e+09  -2.237416e+09   2.490700e+11   1.474305e+05   4.812206e-26   0.000000e+00   0.000000e+00
      672000   6.719990e-07   2.276767e+01   3.836176e+01   5.202052e-02  -1.275558e+05   7.389133e+04  -2.311050e+03  -5.409859e+09  -1.544725e+09   2.491746e+11   1.474305e+05   4.811012e-26   0.000000e+00   0.000000e+00
      680000   6.799990e-07   2.276665e+01   3.836235e+01   5.201000e-02  -1.275819e+05   7.388174e+04  -3.174882e+02  -1.113569e+09  -8.512260e+08   2.492032e+11   1.474305e+05   4.809819e-26   0.000000e+00   0.000000e+00
      688000   6.879990e-07   2.276563e+01   3.836294e+01   5.201544e-02  -1.275736e+05   7.387771e+04   1.675999e+03   3.181807e+09  -1.571288e+08   2.491559e+11   1.474305e+05   4.808626e-26   0.000000e+00   0.000000e+00
      696000   6.959990e-07   2.276461e+01   3.836354e+01   5.203682e-02  -1.275310e+05   7.387923e+04   3.668804e+03   7.474960e+09   5.373548e+08   2.490326e+11   1.474305e+05   4.807433e-26   0.000000e+00   0.000000e+00
      704000   7.039990e-07   2.276359e+01   3.836413e+01   5.207413e-02  -1.274540e+05   7.388631e+04   5.660319e+03   1.176458e+10   1.232013e+09   2.488335e+11   1.474305e+05   4.806242e-26   0.000000e+00   0.000000e+00
      712000   7.119990e-07   2.276257e+01   3.836472e+01   5.212738e-02  -1.273428e+05   7.389894e+04   7.649937e+03   1.604937e+10   1.926634e+09   2.485586e+11   1.474305e+05   4.805051e-26   0.000000e+00   0.000000e+00
      720000   7.199990e-07   2.276156e+01   3.836531e+01   5.219653e-02  -1.271973e+05   7.391713e+04   9.637054e+03   2.032802e+10   2.621005e+09   2.482080e+11   1.474305e+05   4.803863e-26   0.000000e+00   0.000000e+00
      728000   7.279990e-07   2.276054e+01   3.836590e+01   5.228156e-02  -1.270175e+05   7.394088e+04   1.162106e+04   2.459924e+10   3.314914e+09   2.477819e+11   1.474305e+05   4.802676e-26   0.000000e+00   0.000000e+00
      736000   7.359990e-07   2.275952e+01   3.836649e+01   5.238245e-02  -1.268037e+05   7.397017e+04   1.360136e+04   2.886172e+10   4.008148e+09   2.472804e+11   1.474305e+05   4.801490e-26   0.000000e+00   0.000000e+00
      744000   7.439990e-07   2.275851e+01   3.836708e+01   5.249917e-02  -1.265558e+05   7.400501e+04   1.557735e+04   3.311417e+10   4.700495e+09   2.467038e+11   1.474305e+05   4.800308e-26   0.000000e+00   0.000000e+00
      752000   7.519990e-07   2.275750e+01   3.836768e+01   5.263168e-02  -1.262739e+05   7.404538e+04   1.754842e+04   3.735530e+10   5.391740e+09   2.460522e+11   1.474305e+05   4.799127e-26   0.000000e+00   0.000000e+00
      760000   7.599990e-07   2.275649e+01   3.836827e+01   5.277993e-02  -1.259581e+05   7.409127e+04   1.951398e+04   4.158383e+10   6.081672e+09   2.453258e+11   1.474305e+05   4.797950e-26   0.000000e+00   0.000000e+00
      768000   7.679990e-07   2.275548e+01   3.836886e+01   5.294388e-02  -1.256086e+05   7.414268e+04   2.147344e+04   4.579847e+10   6.770078e+09   2.445250e+11   1.474305e+05   4.796775e-26   0.000000e+00   0.000000e+00
      776000   7.759990e-07   2.275448e+01   3.836946e+01   5.312349e-02  -1.252254e+05   7.419959e+04   2.342618e+04   4.999795e+10   7.456745e+09   2.436499e+11   1.474305e+05   4.795604e-26   0.000000e+00   0.000000e+00
      784000   7.839990e-07   2.275348e+01   3.837005e+01   5.331868e-02  -1.248087e+05   7.426198e+04   2.537164e+04   5.418100e+10   8.141461e+09   2.427009e+11   1.474305e+05   4.794436e-26   0.000000e+00   0.000000e+00
      792000   7.919990e-07   2.275248e+01   3.837064e+01   5.352941e-02  -1.243585e+05   7.432985e+04   2.730920e+04   5.834635e+10   8.824014e+09   2.416783e+11   1.474305e+05   4.793272e-26   0.000000e+00   0.000000e+00
      800000   7.999990e-07   2.275149e+01   3.837124e+01   5.375561e-02  -1.238752e+05   7.440316e+04   2.923829e+04   6.249274e+10   9.504193e+09   2.405824e+11   1.474305e+05   4.792111e-26   0.000000e+00   0.000000e+00
      808000   8.079990e-07   2.275050e+01   3.837183e+01   5.399720e-02  -1.233587e+05   7.448191e+04   3.115832e+04   6.661893e+10   1.018179e+10   2.394136e+11   1.474305e+05   4.790955e-26   0.000000e+00   0.000000e+00
      816000   8.159990e-07   2.274952e+01   3.837243e+01   5.425412e-02  -1.228093e+05   7.456606e+04   3.306872e+04   7.072366e+10   1.085658e+10   2.381723e+11   1.474305e+05   4.789803e-26   0.000000e+00   0.000000e+00
      824000   8.239990e-07   2.274854e+01   3.837303e+01   5.452627e-02  -1.222272e+05   7.465561e+04   3.496889e+04   7.480569e+10   1.152837e+10   2.368589e+11   1.474305e+05   4.788656e-26   0.000000e+00   0.000000e+00
      832000   8.319990e-07   2.274756e+01   3.837362e+01   5.481359e-02  -1.216125e+05   7.475051e+04   3.685827e+04   7.886381e+10   1.219695e+10   2.354738e+11   1.474305e+05   4.787514e-26   0.000000e+00   0.000000e+00
      840000   8.399990e-07   2.274659e+01   3.837422e+01   5.511598e-02  -1.209654e+05   7.485075e+04   3.873628e+04   8.289677e+10   1.286209e+10   2.340175e+11   1.474305e+05   4.786377e-26   0.000000e+00   0.000000e+00
      848000   8.479990e-07   2.274563e+01   3.837482e+01   5.543334e-02  -1.202862e+05   7.495629e+04   4.060236e+04   8.690338e+10   1.352361e+10   2.324904e+11   1.474306e+05   4.785244e-26   0.000000e+00   0.000000e+00
      856000   8.559990e-07   2.274467e+01   3.837542e+01   5.576558e-02  -1.195750e+05   7.506712e+04   4.245594e+04   9.088242e+10   1.418129e+10   2.308931e+11   1.474306e+05   4.784118e-26   0.000000e+00   0.000000e+00
      864000   8.639990e-07   2.274371e+01   3.837602e+01   5.611260e-02  -1.188322e+05   7.518319e+04   4.429646e+04   9.483269e+10   1.483492e+10   2.292260e+11   1.474306e+05   4.782996e-26   0.000000e+00   0.000000e+00
      872000   8.719990e-07   2.274277e+01   3.837663e+01   5.647429e-02  -1.180578e+05   7.530447e+04   4.612336e+04   9.875302e+10   1.548430e+10   2.274896e+11   1.474306e+05   4.781881e-26   0.000000e+00   0.000000e+00
      880000   8.799990e-07   2.274182e+01   3.837723e+01   5.685053e-02  -1.172522e+05   7.543092e+04   4.793611e+04   1.026422e+11   1.612923e+10   2.256846e+11   1.474306e+05   4.780772e-26   0.000000e+00   0.000000e+00
      888000   8.879990e-07   2.274089e+01   3.837783e+01   5.724123e-02  -1.164156e+05   7.556252e+04   4.973414e+04   1.064991e+11   1.676950e+10   2.238115e+11   1.474306e+05   4.779668e-26   0.000000e+00   0.000000e+00
      896000   8.959990e-07   2.273996e+01   3.837844e+01   5.764624e-02  -1.155483e+05   7.569922e+04   5.151691e+04   1.103226e+11   1.740492e+10   2.218710e+11   1.474306e+05   4.778571e-26   0.000000e+00   0.000000e+00
      904000   9.039990e-07   2.273904e+01   3.837904e+01   5.806545e-02  -1.146505e+05   7.584099e+04   5.328389e+04   1.141114e+11   1.803527e+10   2.198635e+11   1.474306e+05   4.777481e-26   0.000000e+00   0.000000e+00
      912000   9.119990e-07   2.273813e+01   3.837965e+01   5.849874e-02  -1.137226e+05   7.598777e+04   5.503455e+04   1.178645e+11   1.866037e+10   2.177898e+11   1.474306e+05   4.776397e-26   0.000000e+00   0.000000e+00
      920000   9.199990e-07   2.273722e+01   3.838026e+01   5.894596e-02  -1.127648e+05   7.613954e+04   5.676835e+04   1.215808e+11   1.928001e+10   2.156505e+11   1.474306e+05   4.775320e-26   0.000000e+00   0.000000e+00
      928000   9.279990e-07   2.273632e+01   3.838087e+01   5.940699e-02  -1.117774e+05   7.629624e+04   5.848478e+04   1.252591e+11   1.989401e+10   2.134462e+11   1.474306e+05   4.774249e-26   0.000000e+00   0.000000e+00
      936000   9.359990e-07   2.273543e+01   3.838148e+01   5.988167e-02  -1.107607e+05   7.645783e+04   6.018332e+04   1.288983e+11   2.050215e+10   2.111778e+11   1.474306e+05   4.773186e-26   0.000000e+00   0.000000e+00
      944000   9.439990e-07   2.273455e+01   3.838209e+01   6.036987e-02  -1.097151e+05   7.662426e+04   6.186345e+04   1.324973e+11   2.110427e+10   2.088459e+11   1.474306e+05   4.772129e-26   0.000000e+00   0.000000e+00
      952000   9.519990e-07   2.273368e+01   3.838271e+01   6.087144e-02  -1.086409e+05   7.679548e+04   6.352468e+04   1.360552e+11   2.170015e+10   2.064512e+11   1.474306e+05   4.771080e-26   0.000000e+00   0.000000e+00
      960000   9.599990e-07   2.273281e+01   3.838332e+01   6.138621e-02  -1.075384e+05   7.697144e+04   6.516650e+04   1.395707e+11   2.228961e+10   2.039944e+11   1.474306e+05   4.770039e-26   0.000000e+00   0.000000e+00
      968000   9.679990e-07   2.273196e+01   3.838394e+01   6.191405e-02  -1.064079e+05   7.715210e+04   6.678843e+04   1.430429e+11   2.287247e+10   2.014764e+11   1.474306e+05   4.769004e-26   0.000000e+00   0.000000e+00
      976000   9.759990e-07   2.273111e+01   3.838456e+01   6.245477e-02  -1.052498e+05   7.733739e+04   6.838996e+04   1.464707e+11   2.344855e+10   1.988980e+11   1.474306e+05   4.767977e-26   0.000000e+00   0.000000e+00
      984000   9.839990e-07   2.273027e+01   3.838518e+01   6.300823e-02  -1.040645e+05   7.752726e+04   6.997063e+04   1.498532e+11   2.401764e+10   1.962599e+11   1.474306e+05   4.766958e-26   0.000000e+00   0.000000e+00
      992000   9.919990e-07   2.272945e+01   3.838580e+01   6.357425e-02  -1.028523e+05   7.772165e+04   7.152996e+04   1.531892e+11   2.457959e+10   1.935629e+11   1.474306e+05   4.765946e-26   0.000000e+00   0.000000e+00
     1000000   9.999990e-07   2.272863e+01   3.838642e+01   6.415265e-02  -1.016136e+05   7.792051e+04   7.306748e+04   1.564778e+11   2.513420e+10   1.908080e+11   1.474306e+05   4.764942e-26   0.000000e+00   0.000000e+00
     1008000   1.007999e-06   2.272782e+01   3.838704e+01   6.474327e-02  -1.003487e+05   7.812378e+04   7.458273e+04   1.597181e+11   2.568130e+10   1.879959e+11   1.474306e+05   4.763946e-26   0.000000e+00   0.000000e+00
     1016000   1.015999e-06   2.272702e+01   3.838767e+01   6.534591e-02  -9.905819e+04   7.833139e+04   7.607526e+04   1.629090e+11   2.622072e+10   1.851276e+11   1.474306e+05   4.762958e-26   0.000000e+00   0.000000e+00
     1024000   1.023999e-06   2.272623e+01   3.838830e+01   6.596041e-02  -9.774232e+04   7.854329e+04   7.754462e+04   1.660497e+11   2.675228e+10   1.822039e+11   1.474306e+05   4.761977e-26   0.000000e+00   0.000000e+00
     1032000   1.031999e-06   2.272546e+01   3.838893e+01   6.658657e-02  -9.640153e+04   7.875941e+04   7.899038e+04   1.691391e+11   2.727581e+10   1.792257e+11   1.474306e+05   4.761004e-26   0.000000e+00   0.000000e+00
     1040000   1.039999e-06   2.272469e+01   3.838956e+01   6.722419e-02  -9.503623e+04   7.897968e+04   8.041209e+04   1.721765e+11   2.779115e+10   1.761940e+11   1.474306e+05   4.760039e-26   0.000000e+00   0.000000e+00
     1048000   1.047999e-06   2.272394e+01   3.839019e+01   6.787309e-02  -9.364684e+04   7.920404e+04   8.180934e+04   1.751608e+11   2.829813e+10   1.731097e+11   1.474306e+05   4.759082e-26   0.000000e+00   0.000000e+00
     1056000   1.055999e-06   2.272319e+01   3.839082e+01   6.853307e-02  -9.223380e+04   7.943243e+04   8.318170e+04   1.780912e+11   2.879659e+10   1.699737e+11   1.474306e+05   4.758133e-26   0.000000e+00   0.000000e+00
     1064000   1.063999e-06   2.272246e+01   3.839146e+01   6.920393e-02  -9.079753e+04   7.966477e+04   8.452878e+04   1.809668e+11   2.928637e+10   1.667871e+11   1.474306e+05   4.757191e-26   0.000000e+00   0.000000e+00
     1072000   1.071999e-06   2.272174e+01   3.839210e+01   6.988547e-02  -8.933847e+04   7.990099e+04   8.585016e+04   1.837869e+11   2.976731e+10   1.635508e+11   1.474306e+05   4.756258e-26   0.000000e+00   0.000000e+00
     1080000   1.079999e-06   2.272103e+01   3.839274e+01   7.057747e-02  -8.785709e+04   8.014102e+04   8.714546e+04   1.865505e+11   3.023927e+10   1.602658e+11   1.474306e+05   4.755332e-26   0.000000e+00   0.000000e+00
     1088000   1.087999e-06   2.272034e+01   3.839338e+01   7.127972e-02  -8.635382e+04   8.038479e+04   8.841428e+04   1.892568e+11   3.070207e+10   1.569331e+11   1.474306e+05   4.754414e-26   0.000000e+00   0.000000e+00
     1096000   1.095999e-06   2.271965e+01   3.839402e+01   7.199202e-02  -8.482913e+04   8.063223e+04   8.965626e+04   1.919051e+11   3.115559e+10   1.535538e+11   1.474306e+05   4.753503e-26   0.000000e+00   0.000000e+00
     1104000   1.103999e-06   2.271898e+01   3.839467e+01   7.271415e-02  -8.328349e+04   8.088326e+04   9.087102e+04   1.944946e+11   3.159967e+10   1.501289e+11   1.474306e+05   4.752600e-26   0.000000e+00   0.000000e+00
     1112000   1.111999e-06   2.271832e+01   3.839532e+01   7.344589e-02  -8.171737e+04   8.113780e+04   9.205820e+04   1.970244e+11   3.203418e+10   1.466594e+11   1.474306e+05   4.751705e-26   0.000000e+00   0.000000e+00
     1120000   1.119999e-06   2.271767e+01   3.839597e+01   7.418701e-02  -8.013126e+04   8.139578e+04   9.321745e+04   1.994940e+11   3.245896e+10   1.431464e+11   1.474306e+05   4.750817e-26   0.000000e+00   0.000000e+00
     1128000   1.127999e-06   2.271704e+01   3.839662e+01   7.493729e-02  -7.852563e+04   8.165712e+04   9.434843e+04   2.019025e+11   3.287389e+10   1.395910e+11   1.474306e+05   4.749937e-26   0.000000e+00   0.000000e+00
     1136000   1.135999e-06   2.271641e+01   3.839728e+01   7.569651e-02  -7.690098e+04   8.192173e+04   9.545079e+04   2.042492e+11   3.327884e+10   1.359943e+11   1.474306e+05   4.749064e-26   0.000000e+00   0.000000e+00
     1144000   1.143999e-06   2.271581e+01   3.839793e+01   7.646443e-02  -7.525781e+04   8.218955e+04   9.652422e+04   2.065335e+11   3.367366e+10   1.323574e+11   1.474306e+05   4.748198e-26   0.000000e+00   0.000000e+00
     1152000   1.151999e-06   2.271521e+01   3.839859e+01   7.724082e-02  -7.359661e+04   8.246049e+04   9.756840e+04   2.087547e+11   3.405825e+10   1.286814e+11   1.474306e+05   4.747339e-26   0.000000e+00   0.000000e+00
     1160000   1.159999e-06   2.271463e+01   3.839925e+01   7.802544e-02  -7.191790e+04   8.273446e+04   9.858302e+04   2.109122e+11   3.443246e+10   1.249675e+11   1.474306e+05   4.746487e-26   0.000000e+00   0.000000e+00
     1168000   1.167999e-06   2.271406e+01   3.839991e+01   7.881806e-02  -7.022219e+04   8.301138e+04   9.956778e+04   2.130052e+11   3.479620e+10   1.212167e+11   1.474306e+05   4.745642e-26   0.000000e+00   0.000000e+00
     1176000   1.175999e-06   2.271350e+01   3.840058e+01   7.961845e-02  -6.851013e+04   8.329101e+04   1.005224e+05   2.150131e+11   3.512705e+10   1.174352e+11   1.474306e+05   4.744100e-26   0.000000e+00   0.000000e+00
     1184000   1.183999e-06   2.271296e+01   3.840125e+01   8.042634e-02  -6.678213e+04   8.357341e+04   1.014466e+05   2.169754e+11   3.546997e+10   1.136144e+11   1.474306e+05   4.743257e-26   0.000000e+00   0.000000e+00
     1192000   1.191999e-06   2.271244e+01   3.840192e+01   8.124151e-02  -6.503869e+04   8.385850e+04   1.023402e+05   2.188716e+11   3.580208e+10   1.097602e+11   1.474306e+05   4.742420e-26   0.000000e+00   0.000000e+00
     1200000   1.199999e-06   2.271192e+01   3.840259e+01   8.206370e-02  -6.328036e+04   8.414621e+04   1.032027e+05   2.207011e+11   3.612327e+10   1.058739e+11   1.474306e+05   4.741588e-26   0.000000e+00   0.000000e+00
     1208000   1.207999e-06   2.271142e+01   3.840326e+01   8.289267e-02  -6.150765e+04   8.443644e+04   1.040341e+05   2.224634e+11   3.643346e+10   1.019565e+11   1.474306e+05   4.740762e-26   0.000000e+00   0.000000e+00
     1216000   1.215999e-06   2.271094e+01   3.840394e+01   8.372816e-02  -5.972112e+04   8.472912e+04   1.048339e+05   2.241579e+11   3.673254e+10   9.800935e+10   1.474306e+05   4.739940e-26   0.000000e+00   0.000000e+00
     1224000   1.223999e-06   2.271047e+01   3.840462e+01   8.456993e-02  -5.792131e+04   8.502414e+04   1.056021e+05   2.257842e+11   3.702040e+10   9.403360e+10   1.474306e+05   4.739124e-26   0.000000e+00   0.000000e+00
     1232000   1.231999e-06   2.271001e+01   3.840530e+01   8.541771e-02  -5.610876e+04   8.532141e+04   1.063384e+05   2.273418e+11   3.729698e+10   9.003046e+10   1.474306e+05   4.738312e-26   0.000000e+00   0.000000e+00
     1240000   1.239999e-06   2.270957e+01   3.840598e+01   8.627126e-02  -5.428402e+04   8.562086e+04   1.070425e+05   2.288303e+11   3.756217e+10   8.600117e+10   1.474306e+05   4.737504e-26   0.000000e+00   0.000000e+00
     1248000   1.247999e-06   2.270914e+01   3.840667e+01   8.713031e-02  -5.244766e+04   8.592238e+04   1.077143e+05   2.302492e+11   3.781589e+10   8.194694e+10   1.474306e+05   4.736701e-26   0.000000e+00   0.000000e+00
     1256000   1.255999e-06   2.270873e+01   3.840736e+01   8.799460e-02  -5.060022e+04   8.622588e+04   1.083536e+05   2.315982e+11   3.805807e+10   7.786901e+10   1.474306e+05   4.735902e-26   0.000000e+00   0.000000e+00
     1264000   1.263999e-06   2.270833e+01   3.840805e+01   8.886388e-02  -4.874227e+04   8.653128e+04   1.089602e+05   2.328768e+11   3.828862e+10   7.376863e+10   1.474306e+05   4.735107e-26   0.000000e+00   0.000000e+00
     1272000   1.271999e-06   2.270795e+01   3.840874e+01   8.973787e-02  -4.687438e+04   8.683847e+04   1.095339e+05   2.340848e+11   3.850748e+10   6.964704e+10   1.474306e+05   4.734316e-26   0.000000e+00   0.000000e+00
     1280000   1.279999e-06   2.270758e+01   3.840944e+01   9.061633e-02  -4.499710e+04   8.714736e+04   1.100745e+05   2.352217e+11   3.871458e+10   6.550550e+10   1.474306e+05   4.733528e-26   0.000000e+00   0.000000e+00
     1288000   1.287999e-06   2.270723e+01   3.841014e+01   9.149898e-02  -4.311102e+04   8.745787e+04   1.105819e+05   2.362873e+11   3.890986e+10   6.134526e+10   1.474306e+05   4.732743e-26   0.000000e+00   0.000000e+00
     1296000   1.295999e-06   2.270689e+01   3.841084e+01   9.238555e-02  -4.121670e+04   8.776989e+04   1.110560e+05   2.372813e+11   3.909324e+10   5.716760e+10   1.474306e+05   4.731961e-26   0.000000e+00   0.000000e+00
     1304000   1.303999e-06   2.270657e+01   3.841154e+01   9.327578e-02  -3.931471e+04   8.808333e+04   1.114965e+05   2.382033e+11   3.926469e+10   5.297377e+10   1.474306e+05   4.731182e-26   0.000000e+00   0.000000e+00
     1312000   1.311999e-06   2.270627e+01   3.841225e+01   9.416941e-02  -3.740564e+04   8.839809e+04   1.119035e+05   2.390532e+11   3.942414e+10   4.876506e+10   1.474306e+05   4.730406e-26   0.000000e+00   0.000000e+00
     1320000   1.319999e-06   2.270597e+01   3.841296e+01   9.506615e-02  -3.549005e+04   8.871408e+04   1.122767e+05   2.398307e+11   3.957155e+10   4.454273e+10   1.474306e+05   4.729632e-26   0.000000e+00   0.000000e+00
     1328000   1.327999e-06   2.270570e+01   3.841367e+01   9.596574e-02  -3.356854e+04   8.903121e+04   1.126161e+05   2.405356e+11   3.970687e+10   4.030808e+10   1.474307e+05   4.728860e-26   0.000000e+00   0.000000e+00
     1336000   1.335999e-06   2.270544e+01   3.841438e+01   9.686792e-02  -3.164167e+04   8.934936e+04   1.129216e+05   2.411678e+11   3.983006e+10   3.606238e+10   1.474307e+05   4.728089e-26   0.000000e+00   0.000000e+00
     1344000   1.343999e-06   2.270519e+01   3.841510e+01   9.777240e-02  -2.971005e+04   8.966845e+04   1.131931e+05   2.417270e+11   3.994109e+10   3.180693e+10   1.474307e+05   4.727321e-26   0.000000e+00   0.000000e+00
     1352000   1.351999e-06   2.270496e+01   3.841582e+01   9.867892e-02  -2.777424e+04   8.998839e+04   1.134305e+05   2.422131e+11   4.003992e+10   2.754300e+10   1.474307e+05   4.726554e-26   0.000000e+00   0.000000e+00
     1360000   1.359999e-06   2.270475e+01   3.841654e+01   9.958720e-02  -2.583483e+04   9.030906e+04   1.136338e+05   2.426260e+11   4.012653e+10   2.327190e+10   1.474307e+05   4.725788e-26   0.000000e+00   0.000000e+00
     1368000   1.367999e-06   2.270455e+01   3.841726e+01   1.004970e-01  -2.389242e+04   9.063037e+04   1.138028e+05   2.429637e+11   4.019857e+10   1.899638e+10   1.474307e+05   4.724939e-26   0.000000e+00   0.000000e+00
     1376000   1.375999e-06   2.270436e+01   3.841799e+01   1.014080e-01  -2.194760e+04   9.095221e+04   1.139377e+05   2.432296e+11   4.026057e+10   1.471489e+10   1.474307e+05   4.724161e-26   0.000000e+00   0.000000e+00
     1384000   1.383999e-06   2.270420e+01   3.841872e+01   1.023199e-01  -2.000095e+04   9.127451e+04   1.140383e+05   2.434222e+11   4.031028e+10   1.043012e+10   1.474307e+05   4.723384e-26   0.000000e+00   0.000000e+00
     1392000   1.391999e-06   2.270404e+01   3.841945e+01   1.032325e-01  -1.805304e+04   9.159715e+04   1.141046e+05   2.435413e+11   4.034770e+10   6.143383e+09   1.474307e+05   4.722607e-26   0.000000e+00   0.000000e+00
     1400000   1.399999e-06   2.270391e+01   3.842018e+01   1.041455e-01  -1.610448e+04   9.192004e+04   1.141366e+05   2.435869e+11   4.037280e+10   1.855957e+09   1.474307e+05   4.721829e-26   0.000000e+00   0.000000e+00
     1408000   1.407999e-06   2.270379e+01   3.842092e+01   1.050586e-01  -1.415585e+04   9.224308e+04   1.141343e+05   2.435591e+11   4.038559e+10  -2.430859e+09   1.474307e+05   4.721051e-26   0.000000e+00   0.000000e+00
     1416000   1.415999e-06   2.270368e+01   3.842166e+01   1.059715e-01  -1.220773e+04   9.256617e+04   1.140977e+05   2.434579e+11   4.038606e+10  -6.715771e+09   1.474307e+05   4.720272e-26   0.000000e+00   0.000000e+00
     1424000   1.423999e-06   2.270359e+01   3.842240e+01   1.068840e-01  -1.026072e+04   9.288922e+04   1.140268e+05   2.432833e+11   4.037423e+10  -1.099749e+10   1.474307e+05   4.719493e-26   0.000000e+00   0.000000e+00
     1432000   1.431999e-06   2.270352e+01   3.842314e+01   1.077959e-01  -8.315394e+03   9.321213e+04   1.139217e+05   2.430355e+11   4.035011e+10  -1.527472e+10   1.474307e+05   4.718711e-26   0.000000e+00   0.000000e+00
     1440000   1.439999e-06   2.270346e+01   3.842389e+01   1.087067e-01  -6.372345e+03   9.353479e+04   1.137824e+05   2.427146e+11   4.031369e+10  -1.954617e+10   1.474307e+05   4.717929e-26   0.000000e+00   0.000000e+00
     1448000   1.447999e-06   2.270342e+01   3.842464e+01   1.096163e-01  -4.432156e+03   9.385711e+04   1.136090e+05   2.423206e+11   4.026501e+10  -2.381057e+10   1.474307e+05   4.717145e-26   0.000000e+00   0.000000e+00
     1456000   1.455999e-06   2.270339e+01   3.842539e+01   1.105243e-01  -2.495411e+03   9.417900e+04   1.134015e+05   2.418537e+11   4.020409e+10  -2.806661e+10   1.474307e+05   4.716359e-26   0.000000e+00   0.000000e+00
     1464000   1.463999e-06   2.270338e+01   3.842615e+01   1.114306e-01  -5.626910e+02   9.450035e+04   1.131599e+05   2.413142e+11   4.013094e+10  -3.231304e+10   1.474307e+05   4.715570e-26   0.000000e+00   0.000000e+00
     1472000   1.471999e-06   2.270338e+01   3.842690e+01   1.123348e-01   1.365422e+03   9.482106e+04   1.128845e+05   2.407021e+11   4.004560e+10  -3.654856e+10   1.474307e+05   4.714779e-26   0.000000e+00   0.000000e+00
     1480000   1.479999e-06   2.270340e+01   3.842766e+01   1.132367e-01   3.288349e+03   9.514104e+04   1.125752e+05   2.400177e+11   3.994811e+10  -4.077191e+10   1.474307e+05   4.713986e-26   0.000000e+00   0.000000e+00
     1488000   1.487999e-06   2.270343e+01   3.842843e+01   1.141359e-01   5.205512e+03   9.546020e+04   1.122322e+05   2.392612e+11   3.983849e+10  -4.498182e+10   1.474307e+05   4.713189e-26   0.000000e+00   0.000000e+00
     1496000   1.495999e-06   2.270348e+01   3.842919e+01   1.150323e-01   7.116336e+03   9.577843e+04   1.118555e+05   2.384330e+11   3.971680e+10  -4.917702e+10   1.474307e+05   4.712389e-26   0.000000e+00   0.000000e+00
     1504000   1.503999e-06   2.270355e+01   3.842996e+01   1.159255e-01   9.020248e+03   9.609563e+04   1.114454e+05   2.375332e+11   3.958307e+10  -5.335625e+10   1.474307e+05   4.711586e-26   0.000000e+00   0.000000e+00
     1512000   1.511999e-06   2.270362e+01   3.843073e+01   1.168153e-01   1.091668e+04   9.641172e+04   1.110019e+05   2.365621e+11   3.943737e+10  -5.751827e+10   1.474307e+05   4.710780e-26   0.000000e+00   0.000000e+00
     1520000   1.519999e-06   2.270372e+01   3.843150e+01   1.177015e-01   1.280505e+04   9.672660e+04   1.105251e+05   2.355202e+11   3.927973e+10  -6.166183e+10   1.474307e+05   4.709969e-26   0.000000e+00   0.000000e+00
     1528000   1.527999e-06   2.270383e+01   3.843228e+01   1.185837e-01   1.468481e+04   9.704017e+04   1.100153e+05   2.344076e+11   3.911022e+10  -6.578568e+10   1.474307e+05   4.709155e-26   0.000000e+00   0.000000e+00
     1536000   1.535999e-06   2.270395e+01   3.843305e+01   1.194616e-01   1.655539e+04   9.735233e+04   1.094726e+05   2.332249e+11   3.892890e+10  -6.988859e+10   1.474307e+05   4.708336e-26   0.000000e+00   0.000000e+00
     1544000   1.543999e-06   2.270409e+01   3.843383e+01   1.203351e-01   1.841622e+04   9.766300e+04   1.088972e+05   2.319724e+11   3.873583e+10  -7.396934e+10   1.474307e+05   4.707513e-26   0.000000e+00   0.000000e+00
     1552000   1.551999e-06   2.270425e+01   3.843462e+01   1.212039e-01   2.026676e+04   9.797207e+04   1.082892e+05   2.306504e+11   3.853109e+10  -7.802669e+10   1.474307e+05   4.706685e-26   0.000000e+00   0.000000e+00
     1560000   1.559999e-06   2.270442e+01   3.843540e+01   1.220677e-01   2.210644e+04   9.827946e+04   1.076488e+05   2.292594e+11   3.831474e+10  -8.205945e+10   1.474307e+05   4.705852e-26   0.000000e+00   0.000000e+00
     1568000   1.567999e-06   2.270460e+01   3.843619e+01   1.229262e-01   2.393472e+04   9.858508e+04   1.069763e+05   2.277999e+11   3.808687e+10  -8.606641e+10   1.474307e+05   4.705014e-26   0.000000e+00   0.000000e+00
     1576000   1.575999e-06   2.270480e+01   3.843698e+01   1.237792e-01   2.575106e+04   9.888882e+04   1.062718e+05   2.262723e+11   3.784755e+10  -9.004637e+10   1.474307e+05   4.704171e-26   0.000000e+00   0.000000e+00
     1584000   1.583999e-06   2.270501e+01   3.843777e+01   1.246265e-01   2.755490e+04   9.919061e+04   1.055356e+05   2.246771e+11   3.759686e+10  -9.399815e+10   1.474307e+05   4.703323e-26   0.000000e+00   0.000000e+00
     1592000   1.591999e-06   2.270524e+01   3.843857e+01   1.254677e-01   2.934571e+04   9.949034e+04   1.047679e+05   2.230149e+11   3.733491e+10  -9.792056e+10   1.474307e+05   4.702469e-26   0.000000e+00   0.000000e+00
     1600000   1.599999e-06   2.270548e+01   3.843936e+01   1.263027e-01   3.112296e+04   9.978794e+04   1.039689e+05   2.212860e+11   3.706177e+10  -1.018124e+11   1.474307e+05   4.701609e-26   0.000000e+00   0.000000e+00
     1608000   1.607999e-06   2.270574e+01   3.844016e+01   1.271311e-01   3.288611e+04   1.000833e+05   1.031390e+05   2.194912e+11   3.677754e+10  -1.056726e+11   1.474307e+05   4.700743e-26   0.000000e+00   0.000000e+00
     1616000   1.615999e-06   2.270601e+01   3.844096e+01   1.279528e-01   3.463464e+04   1.003763e+05   1.022783e+05   2.176309e+11   3.648232e+10  -1.095000e+11   1.474307e+05   4.699871e-26   0.000000e+00   0.000000e+00
     1624000   1.623999e-06   2.270629e+01   3.844177e+01   1.287675e-01   3.636803e+04   1.006670e+05   1.013871e+05   2.157058e+11   3.617622e+10  -1.132934e+11   1.474307e+05   4.698993e-26   0.000000e+00   0.000000e+00
     1632000   1.631999e-06   2.270659e+01   3.844257e+01   1.295749e-01   3.808576e+04   1.009551e+05   1.004657e+05   2.137164e+11   3.585933e+10  -1.170517e+11   1.474307e+05   4.698109e-26   0.000000e+00   0.000000e+00
     1640000   1.639999e-06   2.270690e+01   3.844338e+01   1.303748e-01   3.978732e+04   1.012407e+05   9.951434e+04   2.116633e+11   3.553177e+10  -1.207737e+11   1.474307e+05   4.697218e-26   0.000000e+00   0.000000e+00
     1648000   1.647999e-06   2.270723e+01   3.844419e+01   1.311671e-01   4.147220e+04   1.015236e+05   9.853338e+04   2.095473e+11   3.519365e+10  -1.244585e+11   1.474307e+05   4.696320e-26   0.000000e+00   0.000000e+00
     1656000   1.655999e-06   2.270757e+01   3.844501e+01   1.319513e-01   4.313991e+04   1.018038e+05   9.752310e+04   2.073689e+11   3.484509e+10  -1.281048e+11   1.474307e+05   4.695416e-26   0.000000e+00   0.000000e+00
     1664000   1.663999e-06   2.270792e+01   3.844582e+01   1.327274e-01   4.478994e+04   1.020811e+05   9.648381e+04   2.051289e+11   3.448620e+10  -1.317116e+11   1.474307e+05   4.694505e-26   0.000000e+00   0.000000e+00
     1672000   1.671999e-06   2.270828e+01   3.844664e+01   1.334950e-01   4.642181e+04   1.023555e+05   9.541582e+04   2.028280e+11   3.411710e+10  -1.352779e+11   1.474307e+05   4.693587e-26   0.000000e+00   0.000000e+00
     1680000   1.679999e-06   2.270866e+01   3.844746e+01   1.342539e-01   4.803502e+04   1.026270e+05   9.431947e+04   2.004668e+11   3.373793e+10  -1.388026e+11   1.474307e+05   4.692662e-26   0.000000e+00   0.000000e+00
     1688000   1.687999e-06   2.270905e+01   3.844828e+01   1.350040e-01   4.962911e+04   1.028953e+05   9.319509e+04   1.980460e+11   3.334880e+10  -1.422846e+11   1.474307e+05   4.691729e-26   0.000000e+00   0.000000e+00
     1696000   1.695999e-06   2.270946e+01   3.844911e+01   1.357450e-01   5.120360e+04   1.031605e+05   9.204303e+04   1.955666e+11   3.294986e+10  -1.457229e+11   1.474307e+05   4.690790e-26   0.000000e+00   0.000000e+00
     1704000   1.703999e-06   2.270987e+01   3.844993e+01   1.364766e-01   5.275802e+04   1.034225e+05   9.086364e+04   1.930291e+11   3.254124e+10  -1.491165e+11   1.474307e+05   4.689843e-26   0.000000e+00   0.000000e+00
     1712000   1.711999e-06   2.271030e+01   3.845076e+01   1.371987e-01   5.429191e+04   1.036811e+05   8.965728e+04   1.904345e+11   3.212306e+10  -1.524645e+11   1.474307e+05   4.688889e-26   0.000000e+00   0.000000e+00
     1720000   1.719999e-06   2.271074e+01   3.845159e+01   1.379111e-01   5.580482e+04   1.039364e+05   8.842433e+04   1.877835e+11   3.169548e+10  -1.557657e+11   1.474307e+05   4.687927e-26   0.000000e+00   0.000000e+00
     1728000   1.727999e-06   2.271119e+01   3.845243e+01   1.386134e-01   5.729630e+04   1.041882e+05   8.716515e+04   1.850768e+11   3.125864e+10  -1.590193e+11   1.474307e+05   4.686958e-26   0.000000e+00   0.000000e+00
     1736000   1.735999e-06   2.271166e+01   3.845326e+01   1.393056e-01   5.876590e+04   1.044365e+05   8.588015e+04   1.823155e+11   3.081269e+10  -1.622243e+11   1.474307e+05   4.685982e-26   0.000000e+00   0.000000e+00
     1744000   1.743999e-06   2.271213e+01   3.845410e+01   1.399875e-01   6.021320e+04   1.046812e+05   8.456970e+04   1.795002e+11   3.035776e+10  -1.653797e+11   1.474307e+05   4.684998e-26   0.000000e+00   0.000000e+00
     1752000   1.751999e-06   2.271262e+01   3.845493e+01   1.406587e-01   6.163776e+04   1.049222e+05   8.323420e+04   1.766319e+11   2.989402e+10  -1.684846e+11   1.474307e+05   4.684006e-26   0.000000e+00   0.000000e+00
     1760000   1.759999e-06   2.271312e+01   3.845577e+01   1.413191e-01   6.303917e+04   1.051595e+05   8.187408e+04   1.737115e+11   2.942161e+10  -1.715382e+11   1.474307e+05   4.683007e-26   0.000000e+00   0.000000e+00
     1768000   1.767999e-06   2.271363e+01   3.845662e+01   1.419686e-01   6.441700e+04   1.053930e+05   8.048973e+04   1.707398e+11   2.894070e+10  -1.745394e+11   1.474307e+05   4.682000e-26   0.000000e+00   0.000000e+00
     1776000   1.775999e-06   2.271415e+01   3.845746e+01   1.426069e-01   6.577086e+04   1.056225e+05   7.908158e+04   1.677177e+11   2.845144e+10  -1.774875e+11   1.474307e+05   4.680986e-26   0.000000e+00   0.000000e+00
     1784000   1.783999e-06   2.271468e+01   3.845831e+01   1.432339e-01   6.710035e+04   1.058482e+05   7.765007e+04   1.646463e+11   2.795400e+10  -1.803816e+11   1.474307e+05   4.679964e-26   0.000000e+00   0.000000e+00
     1792000   1.791999e-06   2.271522e+01   3.845915e+01   1.438493e-01   6.840507e+04   1.060698e+05   7.619562e+04   1.615264e+11   2.744854e+10  -1.832208e+11   1.474307e+05   4.678935e-26   0.000000e+00   0.000000e+00
     1800000   1.799999e-06   2.271578e+01   3.846000e+01   1.444529e-01   6.968464e+04   1.062873e+05   7.471868e+04   1.583589e+11   2.693522e+10  -1.860043e+11   1.474307e+05   4.677898e-26   0.000000e+00   0.000000e+00
     1808000   1.807999e-06   2.271634e+01   3.846086e+01   1.450447e-01   7.093869e+04   1.065007e+05   7.321970e+04   1.551450e+11   2.641421e+10  -1.887313e+11   1.474307e+05   4.676854e-26   0.000000e+00   0.000000e+00
     1816000   1.815999e-06   2.271691e+01   3.846171e+01   1.456244e-01   7.216684e+04   1.067099e+05   7.169913e+04   1.518854e+11   2.588568e+10  -1.914010e+11   1.474308e+05   4.675802e-26   0.000000e+00   0.000000e+00
     1824000   1.823999e-06   2.271749e+01   3.846256e+01   1.461918e-01   7.336873e+04   1.069149e+05   7.015744e+04   1.485813e+11   2.534982e+10  -1.940127e+11   1.474308e+05   4.674743e-26   0.000000e+00   0.000000e+00
     1832000   1.831999e-06   2.271808e+01   3.846342e+01   1.467468e-01   7.454402e+04   1.071155e+05   6.859508e+04   1.452336e+11   2.480678e+10  -1.965655e+11   1.474308e+05   4.673676e-26   0.000000e+00   0.000000e+00
     1840000   1.839999e-06   2.271869e+01   3.846428e+01   1.472893e-01   7.569235e+04   1.073118e+05   6.701254e+04   1.418433e+11   2.425675e+10  -1.990587e+11   1.474308e+05   4.672603e-26   0.000000e+00   0.000000e+00
     1848000   1.847999e-06   2.271930e+01   3.846514e+01   1.478190e-01   7.681340e+04   1.075036e+05   6.541030e+04   1.384116e+11   2.369990e+10  -2.014917e+11   1.474308e+05   4.671522e-26   0.000000e+00   0.000000e+00
     1856000   1.855999e-06   2.271991e+01   3.846600e+01   1.483358e-01   7.790683e+04   1.076909e+05   6.378884e+04   1.349394e+11   2.313643e+10  -2.038636e+11   1.474308e+05   4.670435e-26   0.000000e+00   0.000000e+00
     1864000   1.863999e-06   2.272054e+01   3.846686e+01   1.488396e-01   7.897232e+04   1.078738e+05   6.214865e+04   1.314277e+11   2.256649e+10  -2.061739e+11   1.474308e+05   4.669340e-26   0.000000e+00   0.000000e+00
     1872000   1.871999e-06   2.272118e+01   3.846772e+01   1.493301e-01   8.000957e+04   1.080520e+05   6.049022e+04   1.278778e+11   2.199029e+10  -2.084218e+11   1.474308e+05   4.668238e-26   0.000000e+00   0.000000e+00
     1880000   1.879999e-06   2.272182e+01   3.846859e+01   1.498074e-01   8.101826e+04   1.082256e+05   5.881406e+04   1.242905e+11   2.140801e+10  -2.106067e+11   1.474308e+05   4.667130e-26   0.000000e+00   0.000000e+00
     1888000   1.887999e-06   2.272247e+01   3.846945e+01   1.502711e-01   8.199811e+04   1.083945e+05   5.712068e+04   1.206671e+11   2.081983e+10  -2.127280e+11   1.474308e+05   4.666015e-26   0.000000e+00   0.000000e+00
     1896000   1.895999e-06   2.272313e+01   3.847032e+01   1.507212e-01   8.294884e+04   1.085587e+05   5.541058e+04   1.170086e+11   2.022595e+10  -2.147851e+11   1.474308e+05   4.664894e-26   0.000000e+00   0.000000e+00
     1904000   1.903999e-06   2.272380e+01   3.847119e+01   1.511576e-01   8.387016e+04   1.087181e+05   5.368429e+04   1.133161e+11   1.962654e+10  -2.167774e+11   1.474308e+05   4.663767e-26   0.000000e+00   0.000000e+00
     1912000   1.911999e-06   2.272448e+01   3.847206e+01   1.515802e-01   8.476181e+04   1.088727e+05   5.194232e+04   1.095908e+11   1.902181e+10  -2.187043e+11   1.474308e+05   4.662633e-26   0.000000e+00   0.000000e+00
     1920000   1.919999e-06   2.272516e+01   3.847293e+01   1.519887e-01   8.562352e+04   1.090224e+05   5.018519e+04   1.058337e+11   1.841194e+10  -2.205653e+11   1.474308e+05   4.661493e-26   0.000000e+00   0.000000e+00
     1928000   1.927999e-06   2.272585e+01   3.847381e+01   1.523831e-01   8.645506e+04   1.091673e+05   4.841345e+04   1.020461e+11   1.779714e+10  -2.223598e+11   1.474308e+05   4.660347e-26   0.000000e+00   0.000000e+00
     1936000   1.935999e-06   2.272654e+01   3.847468e+01   1.527633e-01   8.725618e+04   1.093072e+05   4.662761e+04   9.822901e+10   1.717758e+10  -2.240874e+11   1.474308e+05   4.659196e-26   0.000000e+00   0.000000e+00
     1944000   1.943999e-06   2.272724e+01   3.847555e+01   1.531291e-01   8.802664e+04   1.094421e+05   4.482823e+04   9.438362e+10   1.655348e+10  -2.257475e+11   1.474308e+05   4.658039e-26   0.000000e+00   0.000000e+00
     1952000   1.951999e-06   2.272795e+01   3.847643e+01   1.534805e-01   8.876624e+04   1.095720e+05   4.301583e+04   9.051111e+10   1.592502e+10  -2.273397e+11   1.474308e+05   4.656876e-26   0.000000e+00   0.000000e+00
     1960000   1.959999e-06   2.272866e+01   3.847731e+01   1.538173e-01   8.947475e+04   1.096969e+05   4.119097e+04   8.661264e+10   1.529240e+10  -2.288636e+11   1.474308e+05   4.655709e-26   0.000000e+00   0.000000e+00
     1968000   1.967999e-06   2.272938e+01   3.847819e+01   1.541395e-01   9.015197e+04   1.098167e+05   3.935420e+04   8.268938e+10   1.465583e+10  -2.303186e+11   1.474308e+05   4.654536e-26   0.000000e+00   0.000000e+00
     1976000   1.975999e-06   2.273010e+01   3.847906e+01   1.544469e-01   9.079771e+04   1.099314e+05   3.750606e+04   7.874251e+10   1.401550e+10  -2.317045e+11   1.474308e+05   4.653358e-26   0.000000e+00   0.000000e+00
     1984000   1.983999e-06   2.273083e+01   3.847994e+01   1.547396e-01   9.141179e+04   1.100409e+05   3.564711e+04   7.477323e+10   1.337160e+10  -2.330208e+11   1.474308e+05   4.652176e-26   0.000000e+00   0.000000e+00
     1992000   1.991999e-06   2.273157e+01   3.848083e+01   1.550173e-01   9.199402e+04   1.101453e+05   3.377791e+04   7.078272e+10   1.272435e+10  -2.342672e+11   1.474308e+05   4.650990e-26   0.000000e+00   0.000000e+00
     2000000   1.999999e-06   2.273230e+01   3.848171e+01   1.552800e-01   9.254425e+04   1.102445e+05   3.189902e+04   6.677219e+10   1.207395e+10  -2.354432e+11   1.474308e+05   4.649799e-26   0.000000e+00   0.000000e+00
     2008000   2.007999e-06   2.273305e+01   3.848259e+01   1.555276e-01   9.306232e+04   1.103385e+05   3.001101e+04   6.274285e+10   1.142058e+10  -2.365487e+11   1.474308e+05   4.648604e-26   0.000000e+00   0.000000e+00
     2016000   2.015999e-06   2.273379e+01   3.848347e+01   1.557601e-01   9.354809e+04   1.104272e+05   2.811443e+04   5.869590e+10   1.076447e+10  -2.375833e+11   1.474308e+05   4.647406e-26   0.000000e+00   0.000000e+00
     2024000   2.023999e-06   2.273454e+01   3.848436e+01   1.559774e-01   9.400141e+04   1.105107e+05   2.620986e+04   5.463257e+10   1.010580e+10  -2.385468e+11   1.474308e+05   4.646204e-26   0.000000e+00   0.000000e+00
     2032000   2.031999e-06   2.273530e+01   3.848524e+01   1.561795e-01   9.442217e+04   1.105889e+05   2.429787e+04   5.055406e+10   9.444785e+09  -2.394388e+11   1.474308e+05   4.644998e-26   0.000000e+00   0.000000e+00
     2040000   2.039999e-06   2.273605e+01   3.848613e+01   1.563662e-01   9.481023e+04   1.106618e+05   2.237903e+04   4.646160e+10   8.781624e+09  -2.402591e+11   1.474308e+05   4.643790e-26   0.000000e+00   0.000000e+00
     2048000   2.047999e-06   2.273681e+01   3.848701e+01   1.565375e-01   9.516551e+04   1.107294e+05   2.045392e+04   4.235642e+10   8.116520e+09  -2.410076e+11   1.474308e+05   4.642579e-26   0.000000e+00   0.000000e+00
     2056000   2.055999e-06   2.273758e+01   3.848790e+01   1.566934e-01   9.548790e+04   1.107917e+05   1.852310e+04   3.823976e+10   7.449678e+09  -2.416840e+11   1.474308e+05   4.641365e-26   0.000000e+00   0.000000e+00
     2064000   2.063999e-06   2.273834e+01   3.848878e+01   1.568339e-01   9.577732e+04   1.108486e+05   1.658716e+04   3.411283e+10   6.781300e+09  -2.422881e+11   1.474308e+05   4.640148e-26   0.000000e+00   0.000000e+00
     2072000   2.071999e-06   2.273911e+01   3.848967e+01   1.569588e-01   9.603368e+04   1.109002e+05   1.464668e+04   2.997688e+10   6.111590e+09  -2.428199e+11   1.474308e+05   4.638930e-26   0.000000e+00   0.000000e+00
     2080000   2.079999e-06   2.273988e+01   3.849056e+01   1.570682e-01   9.625692e+04   1.109464e+05   1.270224e+04   2.583314e+10   5.440750e+09  -2.432792e+11   1.474308e+05   4.637709e-26   0.000000e+00   0.000000e+00
     2088000   2.087999e-06   2.274065e+01   3.849145e+01   1.571620e-01   9.644699e+04   1.109872e+05   1.075441e+04   2.168285e+10   4.768984e+09  -2.436658e+11   1.474308e+05   4.636487e-26   0.000000e+00   0.000000e+00
     2096000   2.095999e-06   2.274142e+01   3.849233e+01   1.572403e-01   9.660383e+04   1.110227e+05   8.803779e+03   1.752726e+10   4.096493e+09  -2.439798e+11   1.474308e+05   4.635264e-26   0.000000e+00   0.000000e+00
     2104000   2.103999e-06   2.274220e+01   3.849322e+01   1.573029e-01   9.672741e+04   1.110528e+05   6.850927e+03   1.336760e+10   3.423482e+09  -2.442210e+11   1.474308e+05   4.634039e-26   0.000000e+00   0.000000e+00
     2112000   2.111999e-06   2.274297e+01   3.849411e+01   1.573499e-01   9.681770e+04   1.110775e+05   4.896436e+03   9.205108e+09   2.750151e+09  -2.443894e+11   1.474308e+05   4.632813e-26   0.000000e+00   0.000000e+00
     2120000   2.119999e-06   2.274374e+01   3.849500e+01   1.573812e-01   9.687468e+04   1.110968e+05   2.940890e+03   5.041033e+09   2.076702e+09  -2.444850e+11   1.474308e+05   4.631587e-26   0.000000e+00   0.000000e+00
     2128000   2.127999e-06   2.274452e+01   3.849589e+01   1.573969e-01   9.689835e+04   1.111107e+05   9.848697e+02   8.766136e+08   1.403337e+09  -2.445078e+11   1.474308e+05   4.630361e-26   0.000000e+00   0.000000e+00
     2136000   2.135999e-06   2.274529e+01   3.849678e+01   1.573970e-01   9.688871e+04   1.111192e+05  -9.710415e+02  -3.286910e+09   7.302559e+08  -2.444579e+11   1.474308e+05   4.629134e-26   0.000000e+00   0.000000e+00
     2144000   2.143999e-06   2.274607e+01   3.849767e+01   1.573814e-01   9.684576e+04   1.111224e+05  -2.926262e+03  -7.448297e+09   5.765893e+07  -2.443351e+11   1.474308e+05   4.627907e-26   0.000000e+00   0.000000e+00
     2152000   2.151999e-06   2.274684e+01   3.849856e+01   1.573502e-01   9.676954e+04   1.111201e+05  -4.880210e+03  -1.160631e+10  -6.142546e+08  -2.441398e+11   1.474308e+05   4.626681e-26   0.000000e+00   0.000000e+00
     2160000   2.159999e-06   2.274762e+01   3.849944e+01   1.573033e-01   9.666007e+04   1.111125e+05  -6.832304e+03  -1.575972e+10  -1.285286e+09  -2.438718e+11   1.474308e+05   4.625455e-26   0.000000e+00   0.000000e+00
     2168000   2.167999e-06   2.274839e+01   3.850033e+01   1.572409e-01   9.651730e+04   1.110996e+05  -8.782486e+03  -1.994023e+10  -1.941543e+09  -2.437057e+11   1.474308e+05   4.630905e-26   0.000000e+00   0.000000e+00
     2176000   2.175999e-06   2.274916e+01   3.850122e+01   1.571628e-01   9.634119e+04   1.110814e+05  -1.073054e+04  -2.408616e+10  -2.611876e+09  -2.432945e+11   1.474308e+05   4.629769e-26   0.000000e+00   0.000000e+00
     2184000   2.183999e-06   2.274993e+01   3.850211e+01   1.570692e-01   9.613194e+04   1.110578e+05  -1.267500e+04  -2.822386e+10  -3.280776e+09  -2.428110e+11   1.474308e+05   4.628634e-26   0.000000e+00   0.000000e+00
     2192000   2.191999e-06   2.275070e+01   3.850300e+01   1.569600e-01   9.588963e+04   1.110289e+05  -1.461532e+04  -3.235210e+10  -3.948048e+09  -2.422553e+11   1.474308e+05   4.627500e-26   0.000000e+00   0.000000e+00
     2200000   2.199999e-06   2.275147e+01   3.850389e+01   1.568354e-01   9.561433e+04   1.109947e+05  -1.655090e+04  -3.646964e+10  -4.613495e+09  -2.416276e+11   1.474308e+05   4.626365e-26   0.000000e+00   0.000000e+00
     2208000   2.207999e-06   2.275223e+01   3.850477e+01   1.566952e-01   9.530614e+04   1.109551e+05  -1.848117e+04  -4.057527e+10  -5.276924e+09  -2.409282e+11   1.474308e+05   4.625232e-26   0.000000e+00   0.000000e+00
     2216000   2.215999e-06   2.275299e+01   3.850566e+01   1.565397e-01   9.496516e+04   1.109102e+05  -2.040556e+04  -4.466776e+10  -5.938139e+09  -2.401572e+11   1.474308e+05   4.624099e-26   0.000000e+00   0.000000e+00
     2224000   2.223999e-06   2.275375e+01   3.850655e+01   1.563687e-01   9.459149e+04   1.108601e+05  -2.232349e+04  -4.874591e+10  -6.596948e+09  -2.393150e+11   1.474308e+05   4.622967e-26   0.000000e+00   0.000000e+00
     2232000   2.231999e-06   2.275450e+01   3.850744e+01   1.561825e-01   9.418526e+04   1.108047e+05  -2.423441e+04  -5.280849e+10  -7.253161e+09  -2.384018e+11   1.474308e+05   4.621837e-26   0.000000e+00   0.000000e+00
     2240000   2.239999e-06   2.275526e+01   3.850832e+01   1.559810e-01   9.374659e+04   1.107441e+05  -2.613773e+04  -5.685430e+10  -7.906586e+09  -2.374179e+11   1.474308e+05   4.620708e-26   0.000000e+00   0.000000e+00
     2248000   2.247999e-06   2.275600e+01   3.850921e+01   1.557643e-01   9.327563e+04   1.106782e+05  -2.803290e+04  -6.088215e+10  -8.557035e+09  -2.363636e+11   1.474308e+05   4.619581e-26   0.000000e+00   0.000000e+00
     2256000   2.255999e-06   2.275675e+01   3.851009e+01   1.555325e-01   9.277253e+04   1.106072e+05  -2.991936e+04  -6.489083e+10  -9.204320e+09  -2.352393e+11   1.474308e+05   4.618455e-26   0.000000e+00   0.000000e+00
     2264000   2.263999e-06   2.275749e+01   3.851098e+01   1.552856e-01   9.223743e+04   1.105309e+05  -3.179654e+04  -6.887918e+10  -9.848255e+09  -2.340454e+11   1.474308e+05   4.617332e-26   0.000000e+00   0.000000e+00
     2272000   2.271999e-06   2.275822e+01   3.851186e+01   1.550238e-01   9.167051e+04   1.104496e+05  -3.366390e+04  -7.284599e+10  -1.048866e+10  -2.327822e+11   1.474308e+05   4.616211e-26   0.000000e+00   0.000000e+00
     2280000   2.279999e-06   2.275895e+01   3.851274e+01   1.547471e-01   9.107195e+04   1.103631e+05  -3.552088e+04  -7.679011e+10  -1.112534e+10  -2.314501e+11   1.474308e+05   4.615093e-26   0.000000e+00   0.000000e+00
     2288000   2.287999e-06   2.275968e+01   3.851363e+01   1.544555e-01   9.044193e+04   1.102716e+05  -3.736692e+04  -8.071035e+10  -1.175812e+10  -2.300496e+11   1.474308e+05   4.613977e-26   0.000000e+00   0.000000e+00
     2296000   2.295999e-06   2.276040e+01   3.851451e+01   1.541492e-01   8.978065e+04   1.101750e+05  -3.920149e+04  -8.460558e+10  -1.238682e+10  -2.285812e+11   1.474308e+05   4.612864e-26   0.000000e+00   0.000000e+00
     2304000   2.303999e-06   2.276112e+01   3.851539e+01   1.538283e-01   8.908831e+04   1.100734e+05  -4.102404e+04  -8.847463e+10  -1.301126e+10  -2.270452e+11   1.474309e+05   4.611755e-26   0.000000e+00   0.000000e+00
     2312000   2.311999e-06   2.276183e+01   3.851627e+01   1.534929e-01   8.836512e+04   1.099668e+05  -4.283403e+04  -9.231636e+10  -1.363127e+10  -2.254421e+11   1.474309e+05   4.610648e-26   0.000000e+00   0.000000e+00
     2320000   2.319999e-06   2.276253e+01   3.851715e+01   1.531430e-01   8.761132e+04   1.098553e+05  -4.463093e+04  -9.612964e+10  -1.424666e+10  -2.237725e+11   1.474309e+05   4.609545e-26   0.000000e+00   0.000000e+00
     2328000   2.327999e-06   2.276323e+01   3.851803e+01   1.527788e-01   8.682712e+04   1.097389e+05  -4.641421e+04  -9.991336e+10  -1.485727e+10  -2.220369e+11   1.474309e+05   4.608446e-26   0.000000e+00   0.000000e+00
     2336000   2.335999e-06   2.276392e+01   3.851891e+01   1.524004e-01   8.601278e+04   1.096176e+05  -4.818335e+04  -1.036664e+11  -1.546293e+10  -2.202359e+11   1.474309e+05   4.607350e-26   0.000000e+00   0.000000e+00
     2344000   2.343999e-06   2.276460e+01   3.851978e+01   1.520079e-01   8.516854e+04   1.094915e+05  -4.993781e+04  -1.073876e+11  -1.606345e+10  -2.183700e+11   1.474309e+05   4.606258e-26   0.000000e+00   0.000000e+00
     2352000   2.351999e-06   2.276528e+01   3.852066e+01   1.516014e-01   8.429467e+04   1.093606e+05  -5.167709e+04  -1.110760e+11  -1.665868e+10  -2.164397e+11   1.474309e+05   4.605170e-26   0.000000e+00   0.000000e+00
     2360000   2.359999e-06   2.276595e+01   3.852153e+01   1.511811e-01   8.339142e+04   1.092250e+05  -5.340067e+04  -1.147303e+11  -1.724846e+10  -2.144457e+11   1.474309e+05   4.604086e-26   0.000000e+00   0.000000e+00
     2368000   2.367999e-06   2.276662e+01   3.852240e+01   1.507471e-01   8.245907e+04   1.090847e+05  -5.510805e+04  -1.183497e+11  -1.783260e+10  -2.123887e+11   1.474309e+05   4.603007e-26   0.000000e+00   0.000000e+00
     2376000   2.375999e-06   2.276727e+01   3.852328e+01   1.502994e-01   8.149791e+04   1.089397e+05  -5.679872e+04  -1.219329e+11  -1.841096e+10  -2.102691e+11   1.474309e+05   4.601932e-26   0.000000e+00   0.000000e+00
     2384000   2.383999e-06   2.276792e+01   3.852415e+01   1.498383e-01   8.050824e+04   1.087901e+05  -5.847219e+04  -1.254790e+11  -1.898337e+10  -2.080878e+11   1.474309e+05   4.600861e-26   0.000000e+00   0.000000e+00
     2392000   2.391999e-06   2.276856e+01   3.852502e+01   1.493639e-01   7.949035e+04   1.086360e+05  -6.012796e+04  -1.289868e+11  -1.954967e+10  -2.058454e+11   1.474309e+05   4.599795e-26   0.000000e+00   0.000000e+00
     2400000   2.399999e-06   2.276919e+01   3.852589e+01   1.488763e-01   7.844455e+04   1.084773e+05  -6.176556e+04  -1.324555e+11  -2.010972e+10  -2.035425e+11   1.474309e+05   4.598734e-26   0.000000e+00   0.000000e+00
     2408000   2.407999e-06   2.276982e+01   3.852675e+01   1.483757e-01   7.737116e+04   1.083142e+05  -6.338448e+04  -1.358839e+11  -2.066334e+10  -2.011800e+11   1.474309e+05   4.597678e-26   0.000000e+00   0.000000e+00
     2416000   2.415999e-06   2.277043e+01   3.852762e+01   1.478622e-01   7.627052e+04   1.081467e+05  -6.498427e+04  -1.392711e+11  -2.121040e+10  -1.987584e+11   1.474309e+05   4.596627e-26   0.000000e+00   0.000000e+00
     2424000   2.423999e-06   2.277104e+01   3.852848e+01   1.473360e-01   7.514294e+04   1.079749e+05  -6.656446e+04  -1.426160e+11  -2.175074e+10  -1.962786e+11   1.474309e+05   4.595581e-26   0.000000e+00   0.000000e+00
     2432000   2.431999e-06   2.277163e+01   3.852935e+01   1.467973e-01   7.398877e+04   1.077987e+05  -6.812458e+04  -1.459177e+11  -2.228422e+10  -1.937413e+11   1.474309e+05   4.594540e-26   0.000000e+00   0.000000e+00
     2440000   2.439999e-06   2.277222e+01   3.853021e+01   1.462461e-01   7.280837e+04   1.076183e+05  -6.966417e+04  -1.491753e+11  -2.281068e+10  -1.911473e+11   1.474309e+05   4.593504e-26   0.000000e+00   0.000000e+00
     2448000   2.447999e-06   2.277280e+01   3.853107e+01   1.456827e-01   7.160208e+04   1.074338e+05  -7.118278e+04  -1.523877e+11  -2.333000e+10  -1.884974e+11   1.474309e+05   4.592474e-26   0.000000e+00   0.000000e+00
     2456000   2.455999e-06   2.277337e+01   3.853193e+01   1.451072e-01   7.037028e+04   1.072451e+05  -7.267998e+04  -1.555541e+11  -2.384202e+10  -1.857924e+11   1.474309e+05   4.591449e-26   0.000000e+00   0.000000e+00
     2464000   2.463999e-06   2.277392e+01   3.853278e+01   1.445199e-01   6.911334e+04   1.070523e+05  -7.415531e+04  -1.586735e+11  -2.434661e+10  -1.830331e+11   1.474309e+05   4.590429e-26   0.000000e+00   0.000000e+00
     2472000   2.471999e-06   2.277447e+01   3.853364e+01   1.439208e-01   6.783163e+04   1.068556e+05  -7.560836e+04  -1.617451e+11  -2.484363e+10  -1.802204e+11   1.474309e+05   4.589415e-26   0.000000e+00   0.000000e+00
     2480000   2.479999e-06   2.277501e+01   3.853449e+01   1.433102e-01   6.652555e+04   1.066549e+05  -7.703870e+04  -1.647678e+11  -2.533295e+10  -1.773552e+11   1.474309e+05   4.588406e-26   0.000000e+00   0.000000e+00
     2488000   2.487999e-06   2.277554e+01   3.853535e+01   1.426882e-01   6.519548e+04   1.064503e+05  -7.844590e+04  -1.677409e+11  -2.581443e+10  -1.744382e+11   1.474309e+05   4.587403e-26   0.000000e+00   0.000000e+00
     2496000   2.495999e-06   2.277605e+01   3.853620e+01   1.420551e-01   6.384182e+04   1.062418e+05  -7.982957e+04  -1.706635e+11  -2.628796e+10  -1.714704e+11   1.474309e+05   4.586406e-26   0.000000e+00   0.000000e+00
     2504000   2.503999e-06   2.277656e+01   3.853705e+01   1.414110e-01   6.246499e+04   1.060297e+05  -8.118929e+04  -1.735348e+11  -2.675340e+10  -1.684528e+11   1.474309e+05   4.585414e-26   0.000000e+00   0.000000e+00
     2512000   2.511999e-06   2.277705e+01   3.853789e+01   1.407562e-01   6.106540e+04   1.058138e+05  -8.252468e+04  -1.763538e+11  -2.721063e+10  -1.653861e+11   1.474309e+05   4.584427e-26   0.000000e+00   0.000000e+00
     2520000   2.519999e-06   2.277753e+01   3.853874e+01   1.400907e-01   5.964347e+04   1.055943e+05  -8.383534e+04  -1.791199e+11  -2.765953e+10  -1.622714e+11   1.474309e+05   4.583446e-26   0.000000e+00   0.000000e+00
     2528000   2.527999e-06   2.277801e+01   3.853958e+01   1.394149e-01   5.819962e+04   1.053713e+05  -8.512089e+04  -1.818322e+11  -2.809998e+10  -1.591096e+11   1.474309e+05   4.582471e-26   0.000000e+00   0.000000e+00
     2536000   2.535999e-06   2.277847e+01   3.854043e+01   1.387288e-01   5.673430e+04   1.051447e+05  -8.638097e+04  -1.844898e+11  -2.853186e+10  -1.559016e+11   1.474309e+05   4.581501e-26   0.000000e+00   0.000000e+00
     2544000   2.543999e-06   2.277891e+01   3.854127e+01   1.380328e-01   5.524793e+04   1.049148e+05  -8.761520e+04  -1.870922e+11  -2.895506e+10  -1.526485e+11   1.474309e+05   4.580537e-26   0.000000e+00   0.000000e+00
     2552000   2.551999e-06   2.277935e+01   3.854210e+01   1.373271e-01   5.374097e+04   1.046815e+05  -8.882322e+04  -1.896384e+11  -2.936947e+10  -1.493512e+11   1.474309e+05   4.579579e-26   0.000000e+00   0.000000e+00
     2560000   2.559999e-06   2.277977e+01   3.854294e+01   1.366117e-01   5.221387e+04   1.044449e+05  -9.000470e+04  -1.921278e+11  -2.977498e+10  -1.460106e+11   1.474309e+05   4.578626e-26   0.000000e+00   0.000000e+00
     2568000   2.567999e-06   2.278018e+01   3.854377e+01   1.358871e-01   5.066708e+04   1.042051e+05  -9.115928e+04  -1.945597e+11  -3.017149e+10  -1.426279e+11   1.474309e+05   4.577678e-26   0.000000e+00   0.000000e+00
     2576000   2.575999e-06   2.278058e+01   3.854461e+01   1.351533e-01   4.910106e+04   1.039622e+05  -9.228663e+04  -1.969334e+11  -3.055889e+10  -1.392040e+11   1.474309e+05   4.576736e-26   0.000000e+00   0.000000e+00
     2584000   2.583999e-06   2.278097e+01   3.854544e+01   1.344105e-01   4.751630e+04   1.037162e+05  -9.338643e+04  -1.992481e+11  -3.093708e+10  -1.357399e+11   1.474309e+05   4.575799e-26   0.000000e+00   0.000000e+00
     2592000   2.591999e-06   2.278134e+01   3.854627e+01   1.336591e-01   4.591325e+04   1.034672e+05  -9.445836e+04  -2.015033e+11  -3.130596e+10  -1.322368e+11   1.474309e+05   4.574867e-26   0.000000e+00   0.000000e+00
     2600000   2.599999e-06   2.278170e+01   3.854709e+01   1.328993e-01   4.429240e+04   1.032153e+05  -9.550211e+04  -2.036983e+11  -3.166545e+10  -1.286956e+11   1.474309e+05   4.573941e-26   0.000000e+00   0.000000e+00
     2608000   2.607999e-06   2.278205e+01   3.854792e+01   1.321312e-01   4.265424e+04   1.029606e+05  -9.651739e+04  -2.058324e+11  -3.201544e+10  -1.251175e+11   1.474309e+05   4.573020e-26   0.000000e+00   0.000000e+00
     2616000   2.615999e-06   2.278239e+01   3.854874e+01   1.313551e-01   4.099925e+04   1.027031e+05  -9.750389e+04  -2.079051e+11  -3.235585e+10  -1.215034e+11   1.474309e+05   4.572104e-26   0.000000e+00   0.000000e+00
     2624000   2.623999e-06   2.278271e+01   3.854956e+01   1.305712e-01   3.932792e+04   1.024429e+05  -9.846135e+04  -2.099158e+11  -3.268659e+10  -1.178546e+11   1.474309e+05   4.571192e-26   0.000000e+00   0.000000e+00
     2632000   2.631999e-06   2.278302e+01   3.855038e+01   1.297798e-01   3.764076e+04   1.021801e+05  -9.938947e+04  -2.118639e+11  -3.300758e+10  -1.141720e+11   1.474309e+05   4.570286e-26   0.000000e+00   0.000000e+00
     2640000   2.639999e-06   2.278331e+01   3.855120e+01   1.289811e-01   3.593826e+04   1.019148e+05  -1.002880e+05  -2.137489e+11  -3.331873e+10  -1.104568e+11   1.474309e+05   4.569385e-26   0.000000e+00   0.000000e+00
     2648000   2.647999e-06   2.278359e+01   3.855201e+01   1.281753e-01   3.422094e+04   1.016471e+05  -1.011567e+05  -2.155701e+11  -3.361997e+10  -1.067101e+11   1.474309e+05   4.568488e-26   0.000000e+00   0.000000e+00
     2656000   2.655999e-06   2.278386e+01   3.855282e+01   1.273626e-01   3.248931e+04   1.013769e+05  -1.019953e+05  -2.173272e+11  -3.391122e+10  -1.029331e+11   1.474309e+05   4.567595e-26   0.000000e+00   0.000000e+00
     2664000   2.663999e-06   2.278411e+01   3.855363e+01   1.265434e-01   3.074388e+04   1.011045e+05  -1.028035e+05  -2.190197e+11  -3.419241e+10  -9.912674e+10   1.474309e+05   4.566707e-26   0.000000e+00   0.000000e+00
     2672000   2.671999e-06   2.278435e+01   3.855444e+01   1.257179e-01   2.898517e+04   1.008299e+05  -1.035812e+05  -2.206470e+11  -3.446347e+10  -9.529231e+10   1.474309e+05   4.565824e-26   0.000000e+00   0.000000e+00
     2680000   2.679999e-06   2.278457e+01   3.855525e+01   1.248862e-01   2.721370e+04   1.005531e+05  -1.043281e+05  -2.222087e+11  -3.472432e+10  -9.143092e+10   1.474309e+05   4.564944e-26   0.000000e+00   0.000000e+00
     2688000   2.687999e-06   2.278479e+01   3.855605e+01   1.240487e-01   2.543000e+04   1.002743e+05  -1.050441e+05  -2.237043e+11  -3.497492e+10  -8.754372e+10   1.474309e+05   4.564069e-26   0.000000e+00   0.000000e+00
     2696000   2.695999e-06   2.278498e+01   3.855685e+01   1.232056e-01   2.363461e+04   9.999355e+04  -1.057288e+05  -2.251336e+11  -3.521519e+10  -8.363186e+10   1.474309e+05   4.563197e-26   0.000000e+00   0.000000e+00
     2704000   2.703999e-06   2.278516e+01   3.855765e+01   1.223571e-01   2.182804e+04   9.971090e+04  -1.063821e+05  -2.264960e+11  -3.544507e+10  -7.969652e+10   1.474309e+05   4.562330e-26   0.000000e+00   0.000000e+00
     2712000   2.711999e-06   2.278533e+01   3.855845e+01   1.215035e-01   2.001085e+04   9.942646e+04  -1.070039e+05  -2.277912e+11  -3.566452e+10  -7.573886e+10   1.474309e+05   4.561465e-26   0.000000e+00   0.000000e+00
     2720000   2.719999e-06   2.278548e+01   3.855924e+01   1.206451e-01   1.818356e+04   9.914030e+04  -1.075939e+05  -2.290188e+11  -3.587347e+10  -7.176007e+10   1.474309e+05   4.560605e-26   0.000000e+00   0.000000e+00
     2728000   2.727999e-06   2.278562e+01   3.856003e+01   1.197821e-01   1.634673e+04   9.885251e+04  -1.081520e+05  -2.301786e+11  -3.607187e+10  -6.776133e+10   1.474309e+05   4.559747e-26   0.000000e+00   0.000000e+00
     2736000   2.735999e-06   2.278575e+01   3.856082e+01   1.189148e-01   1.450089e+04   9.856318e+04  -1.086780e+05  -2.312702e+11  -3.625969e+10  -6.374383e+10   1.474309e+05   4.558893e-26   0.000000e+00   0.000000e+00
     2744000   2.743999e-06   2.278585e+01   3.856161e+01   1.180434e-01   1.264659e+04   9.827238e+04  -1.091718e+05  -2.322933e+11  -3.643687e+10  -5.970876e+10   1.474309e+05   4.558041e-26   0.000000e+00   0.000000e+00
     2752000   2.751999e-06   2.278595e+01   3.856239e+01   1.171681e-01   1.078438e+04   9.798022e+04  -1.096333e+05  -2.332476e+11  -3.660337e+10  -5.565732e+10   1.474309e+05   4.557192e-26   0.000000e+00   0.000000e+00
     2760000   2.759999e-06   2.278603e+01   3.856318e+01   1.162893e-01   8.914807e+03   9.768676e+04  -1.100623e+05  -2.341329e+11  -3.675916e+10  -5.159071e+10   1.474309e+05   4.556346e-26   0.000000e+00   0.000000e+00
     2768000   2.767999e-06   2.278609e+01   3.856396e+01   1.154072e-01   7.038433e+03   9.739210e+04  -1.104587e+05  -2.349490e+11  -3.690419e+10  -4.751014e+10   1.474309e+05   4.555503e-26   0.000000e+00   0.000000e+00
     2776000   2.775999e-06   2.278614e+01   3.856474e+01   1.145221e-01   5.155808e+03   9.709632e+04  -1.108224e+05  -2.356956e+11  -3.703844e+10  -4.341682e+10   1.474309e+05   4.554661e-26   0.000000e+00   0.000000e+00
     2784000   2.783999e-06   2.278617e+01   3.856551e+01   1.136341e-01   3.267488e+03   9.679951e+04  -1.111533e+05  -2.363726e+11  -3.716187e+10  -3.931196e+10   1.474309e+05   4.553822e-26   0.000000e+00   0.000000e+00
     2792000   2.791999e-06   2.278619e+01   3.856628e+01   1.127437e-01   1.374032e+03   9.650176e+04  -1.114514e+05  -2.369798e+11  -3.727446e+10  -3.519676e+10   1.474309e+05   4.552984e-26   0.000000e+00   0.000000e+00
     2800000   2.799999e-06   2.278619e+01   3.856705e+01   1.118510e-01  -5.240028e+02   9.620315e+04  -1.117164e+05  -2.375171e+11  -3.737618e+10  -3.107247e+10   1.474309e+05   4.552148e-26   0.000000e+00   0.000000e+00
     2808000   2.807999e-06   2.278618e+01   3.856782e+01   1.109563e-01  -2.426055e+03   9.590377e+04  -1.119485e+05  -2.379843e+11  -3.746701e+10  -2.694028e+10   1.474310e+05   4.551313e-26   0.000000e+00   0.000000e+00
     2816000   2.815999e-06   2.278616e+01   3.856859e+01   1.100599e-01  -4.331564e+03   9.560371e+04  -1.121475e+05  -2.383813e+11  -3.754693e+10  -2.280142e+10   1.474310e+05   4.550480e-26   0.000000e+00   0.000000e+00
     2824000   2.823999e-06   2.278611e+01   3.856935e+01   1.091621e-01  -6.239968e+03   9.530305e+04  -1.123133e+05  -2.387080e+11  -3.761593e+10  -1.865711e+10   1.474310e+05   4.549648e-26   0.000000e+00   0.000000e+00
     2832000   2.831999e-06   2.278606e+01   3.857011e+01   1.082630e-01  -8.150705e+03   9.500188e+04  -1.124460e+05  -2.389644e+11  -3.767399e+10  -1.450858e+10   1.474310e+05   4.548817e-26   0.000000e+00   0.000000e+00
     2840000   2.839999e-06   2.278598e+01   3.857087e+01   1.073630e-01  -1.006321e+04   9.470029e+04  -1.125454e+05  -2.391505e+11  -3.772111e+10  -1.035704e+10   1.474310e+05   4.547986e-26   0.000000e+00   0.000000e+00
     2848000   2.847999e-06   2.278589e+01   3.857163e+01   1.064624e-01  -1.197692e+04   9.439837e+04  -1.126117e+05  -2.392661e+11  -3.775727e+10  -6.203720e+09   1.474310e+05   4.547156e-26   0.000000e+00   0.000000e+00
     2856000   2.855999e-06   2.278579e+01   3.857238e+01   1.055613e-01  -1.389128e+04   9.409621e+04  -1.126447e+05  -2.393114e+11  -3.778247e+10  -2.049845e+09   1.474310e+05   4.546326e-26   0.000000e+00   0.000000e+00
     2864000   2.863999e-06   2.278567e+01   3.857313e+01   1.046601e-01  -1.580572e+04   9.379388e+04  -1.126445e+05  -2.392863e+11  -3.779671e+10   2.103367e+09   1.474310e+05   4.545496e-26   0.000000e+00   0.000000e+00
     2872000   2.871999e-06   2.278554e+01   3.857388e+01   1.037591e-01  -1.771967e+04   9.349149e+04  -1.126110e+05  -2.391908e+11  -3.779999e+10   6.254694e+09   1.474310e+05   4.544666e-26   0.000000e+00   0.000000e+00
     2880000   2.879999e-06   2.278539e+01   3.857463e+01   1.028584e-01  -1.963258e+04   9.318911e+04  -1.125444e+05  -2.390251e+11  -3.779232e+10   1.040292e+10   1.474310e+05   4.543835e-26   0.000000e+00   0.000000e+00
     2888000   2.887999e-06   2.278522e+01   3.857537e+01   1.019585e-01  -2.154389e+04   9.288684e+04  -1.124446e+05  -2.387892e+11  -3.777370e+10   1.454682e+10   1.474310e+05   4.543005e-26   0.000000e+00   0.000000e+00
     2896000   2.895999e-06   2.278504e+01   3.857612e+01   1.010594e-01  -2.345303e+04   9.258476e+04  -1.123117e+05  -2.384833e+11  -3.774414e+10   1.868518e+10   1.474310e+05   4.542173e-26   0.000000e+00   0.000000e+00
     2904000   2.903999e-06   2.278485e+01   3.857686e+01   1.001616e-01  -2.535943e+04   9.228296e+04  -1.121456e+05  -2.381073e+11  -3.770365e+10   2.281679e+10   1.474310e+05   4.541340e-26   0.000000e+00   0.000000e+00
     2912000   2.911999e-06   2.278464e+01   3.857759e+01   9.926517e-02  -2.726178e+04   9.198175e+04  -1.119466e+05  -2.375440e+11  -3.761906e+10   2.693736e+10   1.474310e+05   4.535971e-26   0.000000e+00   0.000000e+00
     2920000   2.919999e-06   2.278441e+01   3.857833e+01   9.837051e-02  -2.916012e+04   9.168104e+04  -1.117147e+05  -2.370291e+11  -3.755574e+10   3.104866e+10   1.474310e+05   4.535144e-26   0.000000e+00   0.000000e+00
     2928000   2.927999e-06   2.278417e+01   3.857906e+01   9.747783e-02  -3.105406e+04   9.138088e+04  -1.114499e+05  -2.364449e+11  -3.748155e+10   3.514962e+10   1.474310e+05   4.534315e-26   0.000000e+00   0.000000e+00
     2936000   2.935999e-06   2.278392e+01   3.857979e+01   9.658740e-02  -3.294306e+04   9.108136e+04  -1.111523e+05  -2.357915e+11  -3.739652e+10   3.923903e+10   1.474310e+05   4.533485e-26   0.000000e+00   0.000000e+00
     2944000   2.943999e-06   2.278364e+01   3.858052e+01   9.569948e-02  -3.482654e+04   9.078257e+04  -1.108221e+05  -2.350692e+11  -3.730068e+10   4.331571e+10   1.474310e+05   4.532653e-26   0.000000e+00   0.000000e+00
     2952000   2.951999e-06   2.278336e+01   3.858124e+01   9.481433e-02  -3.670398e+04   9.048458e+04  -1.104593e+05  -2.342781e+11  -3.719405e+10   4.737847e+10   1.474310e+05   4.531820e-26   0.000000e+00   0.000000e+00
     2960000   2.959999e-06   2.278306e+01   3.858197e+01   9.393222e-02  -3.857481e+04   9.018749e+04  -1.100640e+05  -2.334186e+11  -3.707667e+10   5.142612e+10   1.474310e+05   4.530984e-26   0.000000e+00   0.000000e+00
     2968000   2.967999e-06   2.278274e+01   3.858269e+01   9.305339e-02  -4.043849e+04   8.989138e+04  -1.096365e+05  -2.324909e+11  -3.694857e+10   5.545748e+10   1.474310e+05   4.530146e-26   0.000000e+00   0.000000e+00
     2976000   2.975999e-06   2.278241e+01   3.858340e+01   9.217812e-02  -4.229448e+04   8.959634e+04  -1.091768e+05  -2.314953e+11  -3.680979e+10   5.947138e+10   1.474310e+05   4.529306e-26   0.000000e+00   0.000000e+00
     2984000   2.983999e-06   2.278206e+01   3.858412e+01   9.130665e-02  -4.414224e+04   8.930246e+04  -1.086850e+05  -2.304322e+11  -3.666038e+10   6.346664e+10   1.474310e+05   4.528463e-26   0.000000e+00   0.000000e+00
     2992000   2.991999e-06   2.278170e+01   3.858483e+01   9.043924e-02  -4.598122e+04   8.900981e+04  -1.081614e+05  -2.293019e+11  -3.650037e+10   6.744212e+10   1.474310e+05   4.527618e-26   0.000000e+00   0.000000e+00
     3000000   2.999999e-06   2.278133e+01   3.858554e+01   8.957615e-02  -4.781089e+04   8.871848e+04  -1.076060e+05  -2.281048e+11  -3.632982e+10   7.139665e+10   1.474310e+05   4.526769e-26   0.000000e+00   0.000000e+00
     3008000   3.007999e-06   2.278094e+01   3.858625e+01   8.871763e-02  -4.963071e+04   8.842856e+04  -1.070191e+05  -2.268412e+11  -3.614877e+10   7.532908e+10   1.474310e+05   4.525917e-26   0.000000e+00   0.000000e+00
     3016000   3.015999e-06   2.278054e+01   3.858696e+01   8.786393e-02  -5.144017e+04   8.814013e+04  -1.064008e+05  -2.255115e+11  -3.595727e+10   7.923828e+10   1.474310e+05   4.525062e-26   0.000000e+00   0.000000e+00
     3024000   3.023999e-06   2.278012e+01   3.858766e+01   8.701530e-02  -5.323872e+04   8.785327e+04  -1.057513e+05  -2.241163e+11  -3.575539e+10   8.312310e+10   1.474310e+05   4.524204e-26   0.000000e+00   0.000000e+00
     3032000   3.031999e-06   2.277968e+01   3.858836e+01   8.617199e-02  -5.502585e+04   8.756807e+04  -1.050709e+05  -2.226558e+11  -3.554317e+10   8.698243e+10   1.474310e+05   4.523342e-26   0.000000e+00   0.000000e+00
     3040000   3.039999e-06   2.277924e+01   3.858906e+01   8.533425e-02  -5.680104e+04   8.728461e+04  -1.043597e+05  -2.211306e+11  -3.532068e+10   9.081514e+10   1.474310e+05   4.522476e-26   0.000000e+00   0.000000e+00
     3048000   3.047999e-06   2.277877e+01   3.858976e+01   8.450232e-02  -5.856377e+04   8.700297e+04  -1.036179e+05  -2.195411e+11  -3.508798e+10   9.462013e+10   1.474310e+05   4.521606e-26   0.000000e+00   0.000000e+00
     3056000   3.055999e-06   2.277830e+01   3.859046e+01   8.367644e-02  -6.031353e+04   8.672323e+04  -1.028458e+05  -2.178879e+11  -3.484514e+10   9.839630e+10   1.474310e+05   4.520732e-26   0.000000e+00   0.000000e+00
     3064000   3.063999e-06   2.277781e+01   3.859115e+01   8.285687e-02  -6.204981e+04   8.644547e+04  -1.020436e+05  -2.161715e+11  -3.459223e+10   1.021426e+11   1.474310e+05   4.519854e-26   0.000000e+00   0.000000e+00
     3072000   3.071999e-06   2.277731e+01   3.859184e+01   8.204383e-02  -6.377210e+04   8.616978e+04  -1.012116e+05  -2.143923e+11  -3.432931e+10   1.058578e+11   1.474310e+05   4.518971e-26   0.000000e+00   0.000000e+00
     3080000   3.079999e-06   2.277679e+01   3.859253e+01   8.123756e-02  -6.547991e+04   8.589623e+04  -1.003500e+05  -2.125509e+11  -3.405646e+10   1.095410e+11   1.474310e+05   4.518084e-26   0.000000e+00   0.000000e+00
     3088000   3.087999e-06   2.277626e+01   3.859321e+01   8.043830e-02  -6.717275e+04   8.562490e+04  -9.945904e+04  -2.106480e+11  -3.377375e+10   1.131910e+11   1.474310e+05   4.517193e-26   0.000000e+00   0.000000e+00
     3096000   3.095999e-06   2.277571e+01   3.859390e+01   7.964629e-02  -6.885012e+04   8.535587e+04  -9.853902e+04  -2.086840e+11  -3.348127e+10   1.168069e+11   1.474310e+05   4.516296e-26   0.000000e+00   0.000000e+00
     3104000   3.103999e-06   2.277516e+01   3.859458e+01   7.886176e-02  -7.051153e+04   8.508923e+04  -9.759022e+04  -2.066597e+11  -3.317910e+10   1.203876e+11   1.474310e+05   4.515395e-26   0.000000e+00   0.000000e+00
     3112000   3.111999e-06   2.277459e+01   3.859526e+01   7.808493e-02  -7.215651e+04   8.482503e+04  -9.661291e+04  -2.045755e+11  -3.286731e+10   1.239320e+11   1.474310e+05   4.514489e-26   0.000000e+00   0.000000e+00
     3120000   3.119999e-06   2.277400e+01   3.859594e+01   7.731603e-02  -7.378458e+04   8.456337e+04  -9.560740e+04  -2.024322e+11  -3.254601e+10   1.274391e+11   1.474310e+05   4.513578e-26   0.000000e+00   0.000000e+00
     3128000   3.127999e-06   2.277341e+01   3.859661e+01   7.655528e-02  -7.539527e+04   8.430432e+04  -9.457398e+04  -2.002304e+11  -3.221527e+10   1.309079e+11   1.474310e+05   4.512661e-26   0.000000e+00   0.000000e+00
     3136000   3.135999e-06   2.277280e+01   3.859728e+01   7.580292e-02  -7.698811e+04   8.404796e+04  -9.351297e+04  -1.979708e+11  -3.187518e+10   1.343375e+11   1.474310e+05   4.511740e-26   0.000000e+00   0.000000e+00
     3144000   3.143999e-06   2.277217e+01   3.859796e+01   7.505915e-02  -7.856265e+04   8.379435e+04  -9.242469e+04  -1.956541e+11  -3.152585e+10   1.377268e+11   1.474310e+05   4.510813e-26   0.000000e+00   0.000000e+00
     3152000   3.151999e-06   2.277154e+01   3.859863e+01   7.432419e-02  -8.011842e+04   8.354357e+04  -9.130945e+04  -1.932809e+11  -3.116737e+10   1.410749e+11   1.474310e+05   4.509880e-26   0.000000e+00   0.000000e+00
     3160000   3.159999e-06   2.277089e+01   3.859929e+01   7.359827e-02  -8.165499e+04   8.329569e+04  -9.016760e+04  -1.908520e+11  -3.079983e+10   1.443808e+11   1.474310e+05   4.508943e-26   0.000000e+00   0.000000e+00
     3168000   3.167999e-06   2.277023e+01   3.859996e+01   7.288158e-02  -8.317191e+04   8.305079e+04  -8.899947e+04  -1.883681e+11  -3.042334e+10   1.476435e+11   1.474310e+05   4.507999e-26   0.000000e+00   0.000000e+00
     3176000   3.175999e-06   2.276956e+01   3.860062e+01   7.217434e-02  -8.466910e+04   8.280835e+04  -8.780562e+04  -1.858793e+11  -3.011690e+10   1.508359e+11   1.474310e+05   4.508222e-26   0.000000e+00   0.000000e+00
     3184000   3.183999e-06   2.276888e+01   3.860128e+01   7.147676e-02  -8.614580e+04   8.256899e+04  -8.658620e+04  -1.832875e+11  -2.972320e+10   1.540104e+11   1.474310e+05   4.507244e-26   0.000000e+00   0.000000e+00
     3192000   3.191999e-06   2.276818e+01   3.860194e+01   7.078903e-02  -8.760156e+04   8.233281e+04  -8.534157e+04  -1.806431e+11  -2.932083e+10   1.571390e+11   1.474310e+05   4.506261e-26   0.000000e+00   0.000000e+00
     3200000   3.199999e-06   2.276748e+01   3.860260e+01   7.011136e-02  -8.903595e+04   8.209988e+04  -8.407210e+04  -1.779468e+11  -2.890991e+10   1.602208e+11   1.474310e+05   4.505274e-26   0.000000e+00   0.000000e+00
     3208000   3.207999e-06   2.276676e+01   3.860326e+01   6.944394e-02  -9.044857e+04   8.187027e+04  -8.277816e+04  -1.751994e+11  -2.849056e+10   1.632550e+11   1.474310e+05   4.504281e-26   0.000000e+00   0.000000e+00
     3216000   3.215999e-06   2.276603e+01   3.860391e+01   6.878697e-02  -9.183901e+04   8.164405e+04  -8.146014e+04  -1.724018e+11  -2.806288e+10   1.662406e+11   1.474310e+05   4.503284e-26   0.000000e+00   0.000000e+00
     3224000   3.223999e-06   2.276529e+01   3.860456e+01   6.814064e-02  -9.320686e+04   8.142129e+04  -8.011844e+04  -1.695548e+11  -2.762700e+10   1.691769e+11   1.474310e+05   4.502282e-26   0.000000e+00   0.000000e+00
     3232000   3.231999e-06   2.276454e+01   3.860521e+01   6.750514e-02  -9.455175e+04   8.120204e+04  -7.875344e+04  -1.666593e+11  -2.718303e+10   1.720630e+11   1.474310e+05   4.501275e-26   0.000000e+00   0.000000e+00
     3240000   3.239999e-06   2.276378e+01   3.860586e+01   6.688065e-02  -9.587328e+04   8.098638e+04  -7.736557e+04  -1.637161e+11  -2.673111e+10   1.748980e+11   1.474310e+05   4.500263e-26   0.000000e+00   0.000000e+00
     3248000   3.247999e-06   2.276300e+01   3.860651e+01   6.626735e-02  -9.717108e+04   8.077436e+04  -7.595521e+04  -1.607261e+11  -2.627135e+10   1.776813e+11   1.474310e+05   4.499246e-26   0.000000e+00   0.000000e+00
     3256000   3.255999e-06   2.276222e+01   3.860715e+01   6.566542e-02  -9.844478e+04   8.056606e+04  -7.452280e+04  -1.576902e+11  -2.580389e+10   1.804119e+11   1.474310e+05   4.498225e-26   0.000000e+00   0.000000e+00
     3264000   3.263999e-06   2.276143e+01   3.860780e+01   6.507504e-02  -9.969400e+04   8.036152e+04  -7.306876e+04  -1.546094e+11  -2.532884e+10   1.830892e+11   1.474310e+05   4.497199e-26   0.000000e+00   0.000000e+00
     3272000   3.271999e-06   2.276063e+01   3.860844e+01   6.449638e-02  -1.009184e+05   8.016082e+04  -7.159352e+04  -1.514844e+11  -2.484636e+10   1.857124e+11   1.474310e+05   4.496168e-26   0.000000e+00   0.000000e+00
     3280000   3.279999e-06   2.275981e+01   3.860908e+01   6.392960e-02  -1.021176e+05   7.996400e+04  -7.009751e+04  -1.483163e+11  -2.435656e+10   1.882807e+11   1.474310e+05   4.495132e-26   0.000000e+00   0.000000e+00
     3288000   3.287999e-06   2.275899e+01   3.860972e+01   6.337488e-02  -1.032913e+05   7.977113e+04  -6.858117e+04  -1.451060e+11  -2.385959e+10   1.907934e+11   1.474310e+05   4.494092e-26   0.000000e+00   0.000000e+00
     3296000   3.295999e-06   2.275816e+01   3.861036e+01   6.283236e-02  -1.044392e+05   7.958227e+04  -6.704496e+04  -1.418545e+11  -2.335558e+10   1.932498e+11   1.474310e+05   4.493047e-26   0.000000e+00   0.000000e+00
     3304000   3.303999e-06   2.275732e+01   3.861099e+01   6.230221e-02  -1.055609e+05   7.939746e+04  -6.548932e+04  -1.385627e+11  -2.284467e+10   1.956492e+11   1.474310e+05   4.491997e-26   0.000000e+00   0.000000e+00
     3312000   3.311999e-06   2.275647e+01   3.861163e+01   6.178458e-02  -1.066561e+05   7.921677e+04  -6.391472e+04  -1.352315e+11  -2.232701e+10   1.979910e+11   1.474311e+05   4.490943e-26   0.000000e+00   0.000000e+00
     3320000   3.319999e-06   2.275562e+01   3.861226e+01   6.127962e-02  -1.077245e+05   7.904025e+04  -6.232162e+04  -1.318621e+11  -2.180273e+10   2.002744e+11   1.474311e+05   4.489884e-26   0.000000e+00   0.000000e+00
     3328000   3.327999e-06   2.275475e+01   3.861289e+01   6.078748e-02  -1.087658e+05   7.886794e+04  -6.071049e+04  -1.284553e+11  -2.127200e+10   2.024989e+11   1.474311e+05   4.488822e-26   0.000000e+00   0.000000e+00
     3336000   3.335999e-06   2.275388e+01   3.861352e+01   6.030830e-02  -1.097797e+05   7.869991e+04  -5.908180e+04  -1.250123e+11  -2.073494e+10   2.046639e+11   1.474311e+05   4.487755e-26   0.000000e+00   0.000000e+00
     3344000   3.343999e-06   2.275299e+01   3.861415e+01   5.984222e-02  -1.107659e+05   7.853620e+04  -5.743602e+04  -1.215339e+11  -2.019172e+10   2.067687e+11   1.474311e+05   4.486684e-26   0.000000e+00   0.000000e+00
     3352000   3.351999e-06   2.275210e+01   3.861478e+01   5.938937e-02  -1.117241e+05   7.837686e+04  -5.577366e+04  -1.180213e+11  -1.964249e+10   2.088127e+11   1.474311e+05   4.485608e-26   0.000000e+00   0.000000e+00
     3360000   3.359999e-06   2.275121e+01   3.861540e+01   5.894988e-02  -1.126541e+05   7.822194e+04  -5.409518e+04  -1.144754e+11  -1.908739e+10   2.107954e+11   1.474311e+05   4.484529e-26   0.000000e+00   0.000000e+00
     3368000   3.367999e-06   2.275030e+01   3.861603e+01   5.852389e-02  -1.135557e+05   7.807148e+04  -5.240109e+04  -1.108974e+11  -1.852658e+10   2.127163e+11   1.474311e+05   4.483446e-26   0.000000e+00   0.000000e+00
     3376000   3.375999e-06   2.274939e+01   3.861665e+01   5.811151e-02  -1.144284e+05   7.792553e+04  -5.069189e+04  -1.072882e+11  -1.796023e+10   2.145747e+11   1.474311e+05   4.482359e-26   0.000000e+00   0.000000e+00
     3384000   3.383999e-06   2.274847e+01   3.861728e+01   5.771286e-02  -1.152722e+05   7.778413e+04  -4.896806e+04  -1.036489e+11  -1.738848e+10   2.163703e+11   1.474311e+05   4.481269e-26   0.000000e+00   0.000000e+00
     3392000   3.391999e-06   2.274754e+01   3.861790e+01   5.732805e-02  -1.160867e+05   7.764733e+04  -4.723013e+04  -9.998071e+10  -1.681151e+10   2.181024e+11   1.474311e+05   4.480175e-26   0.000000e+00   0.000000e+00
     3400000   3.399999e-06   2.274661e+01   3.861852e+01   5.695721e-02  -1.168718e+05   7.751516e+04  -4.547859e+04  -9.628456e+10  -1.622947e+10   2.197707e+11   1.474311e+05   4.479078e-26   0.000000e+00   0.000000e+00
     3408000   3.407999e-06   2.274567e+01   3.861914e+01   5.660043e-02  -1.176272e+05   7.738767e+04  -4.371397e+04  -9.256158e+10  -1.564252e+10   2.213746e+11   1.474311e+05   4.477978e-26   0.000000e+00   0.000000e+00
     3416000   3.415999e-06   2.274473e+01   3.861976e+01   5.625782e-02  -1.183527e+05   7.726489e+04  -4.193677e+04  -8.881286e+10  -1.505083e+10   2.229138e+11   1.474311e+05   4.476874e-26   0.000000e+00   0.000000e+00
     3424000   3.423999e-06   2.274378e+01   3.862038e+01   5.592948e-02  -1.190481e+05   7.714687e+04  -4.014752e+04  -8.503951e+10  -1.445457e+10   2.243878e+11   1.474311e+05   4.475768e-26   0.000000e+00   0.000000e+00
     3432000   3.431999e-06   2.274283e+01   3.862099e+01   5.561549e-02  -1.197133e+05   7.703363e+04  -3.834674e+04  -8.124262e+10  -1.385390e+10   2.257962e+11   1.474311e+05   4.474659e-26   0.000000e+00   0.000000e+00
     3440000   3.439999e-06   2.274187e+01   3.862161e+01   5.531596e-02  -1.203480e+05   7.692522e+04  -3.653495e+04  -7.742332e+10  -1.324900e+10   2.271386e+11   1.474311e+05   4.473547e-26   0.000000e+00   0.000000e+00
     3448000   3.447999e-06   2.274090e+01   3.862222e+01   5.503096e-02  -1.209520e+05   7.682166e+04  -3.471270e+04  -7.358272e+10  -1.264003e+10   2.284147e+11   1.474311e+05   4.472433e-26   0.000000e+00   0.000000e+00
     3456000   3.455999e-06   2.273993e+01   3.862284e+01   5.476058e-02  -1.215252e+05   7.672299e+04  -3.288049e+04  -6.972193e+10  -1.202717e+10   2.296241e+11   1.474311e+05   4.471316e-26   0.000000e+00   0.000000e+00
     3464000   3.463999e-06   2.273896e+01   3.862345e+01   5.450490e-02  -1.220675e+05   7.662924e+04  -3.103889e+04  -6.584210e+10  -1.141059e+10   2.307666e+11   1.474311e+05   4.470198e-26   0.000000e+00   0.000000e+00
     3472000   3.471999e-06   2.273798e+01   3.862406e+01   5.426398e-02  -1.225786e+05   7.654043e+04  -2.918841e+04  -6.194436e+10  -1.079046e+10   2.318417e+11   1.474311e+05   4.469077e-26   0.000000e+00   0.000000e+00
     3480000   3.479999e-06   2.273700e+01   3.862467e+01   5.403790e-02  -1.230585e+05   7.645660e+04  -2.732960e+04  -5.802984e+10  -1.016697e+10   2.328493e+11   1.474311e+05   4.467954e-26   0.000000e+00   0.000000e+00
     3488000   3.487999e-06   2.273601e+01   3.862529e+01   5.382673e-02  -1.235071e+05   7.637777e+04  -2.546300e+04  -5.409969e+10  -9.540283e+09   2.337891e+11   1.474311e+05   4.466830e-26   0.000000e+00   0.000000e+00
     3496000   3.495999e-06   2.273502e+01   3.862590e+01   5.363052e-02  -1.239241e+05   7.630396e+04  -2.358915e+04  -5.015504e+10  -8.910583e+09   2.346607e+11   1.474311e+05   4.465705e-26   0.000000e+00   0.000000e+00
     3504000   3.503999e-06   2.273403e+01   3.862651e+01   5.344932e-02  -1.243095e+05   7.623521e+04  -2.170861e+04  -4.619706e+10  -8.278050e+09   2.354641e+11   1.474311e+05   4.464578e-26   0.000000e+00   0.000000e+00
     3512000   3.511999e-06   2.273303e+01   3.862712e+01   5.328319e-02  -1.246632e+05   7.617152e+04  -1.982191e+04  -4.222689e+10  -7.642862e+09   2.361990e+11   1.474311e+05   4.463450e-26   0.000000e+00   0.000000e+00
     3520000   3.519999e-06   2.273203e+01   3.862773e+01   5.313218e-02  -1.249851e+05   7.611293e+04  -1.792961e+04  -3.824570e+10  -7.005201e+09   2.368651e+11   1.474311e+05   4.462321e-26   0.000000e+00   0.000000e+00
     3528000   3.527999e-06   2.273103e+01   3.862833e+01   5.299633e-02  -1.252751e+05   7.605945e+04  -1.603225e+04  -3.425463e+10  -6.365250e+09   2.374624e+11   1.474311e+05   4.461192e-26   0.000000e+00   0.000000e+00
     3536000   3.535999e-06   2.273003e+01   3.862894e+01   5.287568e-02  -1.255332e+05   7.601109e+04  -1.413039e+04  -3.025485e+10  -5.723191e+09   2.379908e+11   1.474311e+05   4.460062e-26   0.000000e+00   0.000000e+00
     3544000   3.543999e-06   2.272902e+01   3.862955e+01   5.277026e-02  -1.257592e+05   7.596788e+04  -1.222458e+04  -2.624751e+10  -5.079207e+09   2.384500e+11   1.474311e+05   4.458931e-26   0.000000e+00   0.000000e+00
     3552000   3.551999e-06   2.272802e+01   3.863016e+01   5.268010e-02  -1.259531e+05   7.592983e+04  -1.031538e+04  -2.223379e+10  -4.433485e+09   2.388399e+11   1.474311e+05   4.457801e-26   0.000000e+00   0.000000e+00
     3560000   3.559999e-06   2.272701e+01   3.863077e+01   5.260522e-02  -1.261149e+05   7.589695e+04  -8.403328e+03  -1.821485e+10  -3.786208e+09   2.391606e+11   1.474311e+05   4.456670e-26   0.000000e+00   0.000000e+00
     3568000   3.567999e-06   2.272600e+01   3.863137e+01   5.254565e-02  -1.262445e+05   7.586925e+04  -6.488991e+03  -1.419186e+10  -3.137563e+09   2.394119e+11   1.474311e+05   4.455540e-26   0.000000e+00   0.000000e+00
     3576000   3.575999e-06   2.272499e+01   3.863198e+01   5.250140e-02  -1.263420e+05   7.584675e+04  -4.572922e+03  -1.016597e+10  -2.487736e+09   2.395938e+11   1.474311e+05   4.454410e-26   0.000000e+00   0.000000e+00
     3584000   3.583999e-06   2.272398e+01   3.863259e+01   5.247249e-02  -1.264072e+05   7.582945e+04  -2.655675e+03  -6.138353e+09  -1.836915e+09   2.397063e+11   1.474311e+05   4.453281e-26   0.000000e+00   0.000000e+00
     3592000   3.591999e-06   2.272296e+01   3.863319e+01   5.245891e-02  -1.264402e+05   7.581736e+04  -7.378066e+02  -2.110180e+09  -1.185287e+09   2.397493e+11   1.474311e+05   4.452152e-26   0.000000e+00   0.000000e+00
     3600000   3.599999e-06   2.272195e+01   3.863380e+01   5.246068e-02  -1.264409e+05   7.581049e+04   1.180128e+03   1.917388e+09  -5.330405e+08   2.397229e+11   1.474311e+05   4.451025e-26   0.000000e+00   0.000000e+00
     3608000   3.607999e-06   2.272094e+01   3.863441e+01   5.247779e-02  -1.264095e+05   7.580884e+04   3.097575e+03   5.943184e+09   1.196362e+08   2.396271e+11   1.474311e+05   4.449899e-26   0.000000e+00   0.000000e+00
     3616000   3.615999e-06   2.271993e+01   3.863501e+01   5.251024e-02  -1.263458e+05   7.581241e+04   5.013977e+03   9.966047e+09   7.725543e+08   2.394620e+11   1.474311e+05   4.448774e-26   0.000000e+00   0.000000e+00
     3624000   3.623999e-06   2.271892e+01   3.863562e+01   5.255801e-02  -1.262500e+05   7.582120e+04   6.928781e+03   1.398481e+10   1.425524e+09   2.392276e+11   1.474311e+05   4.447651e-26   0.000000e+00   0.000000e+00
     3632000   3.631999e-06   2.271791e+01   3.863623e+01   5.262109e-02  -1.261221e+05   7.583522e+04   8.841434e+03   1.799833e+10   2.078357e+09   2.389241e+11   1.474311e+05   4.446529e-26   0.000000e+00   0.000000e+00
     3640000   3.639999e-06   2.271690e+01   3.863683e+01   5.269947e-02  -1.259621e+05   7.585445e+04   1.075138e+04   2.200543e+10   2.730864e+09   2.385515e+11   1.474311e+05   4.445410e-26   0.000000e+00   0.000000e+00
     3648000   3.647999e-06   2.271590e+01   3.863744e+01   5.279311e-02  -1.257700e+05   7.587891e+04   1.265807e+04   2.600496e+10   3.382853e+09   2.381100e+11   1.474311e+05   4.444292e-26   0.000000e+00   0.000000e+00
     3656000   3.655999e-06   2.271489e+01   3.863805e+01   5.290199e-02  -1.255460e+05   7.590858e+04   1.456096e+04   2.999577e+10   4.034136e+09   2.375998e+11   1.474311e+05   4.443178e-26   0.000000e+00   0.000000e+00
     3664000   3.663999e-06   2.271389e+01   3.863865e+01   5.302607e-02  -1.252901e+05   7.594345e+04   1.645949e+04   3.397671e+10   4.684523e+09   2.370210e+11   1.474311e+05   4.442065e-26   0.000000e+00   0.000000e+00
     3672000   3.671999e-06   2.271289e+01   3.863926e+01   5.316533e-02  -1.250024e+05   7.598353e+04   1.835311e+04   3.794664e+10   5.333825e+09   2.363739e+11   1.474311e+05   4.440956e-26   0.000000e+00   0.000000e+00
     3680000   3.679999e-06   2.271189e+01   3.863987e+01   5.331971e-02  -1.246830e+05   7.602879e+04   2.024129e+04   4.190441e+10   5.981850e+09   2.356585e+11   1.474311e+05   4.439849e-26   0.000000e+00   0.000000e+00
     3688000   3.687999e-06   2.271089e+01   3.864048e+01   5.348917e-02  -1.243320e+05   7.607923e+04   2.212347e+04   4.584889e+10   6.628411e+09   2.348753e+11   1.474311e+05   4.438745e-26   0.000000e+00   0.000000e+00
     3696000   3.695999e-06   2.270990e+01   3.864109e+01   5.367366e-02  -1.239494e+05   7.613484e+04   2.399911e+04   4.977894e+10   7.273317e+09   2.340244e+11   1.474311e+05   4.437645e-26   0.000000e+00   0.000000e+00
     3704000   3.703999e-06   2.270891e+01   3.864170e+01   5.387314e-02  -1.235355e+05   7.619560e+04   2.586768e+04   5.369343e+10   7.916380e+09   2.331060e+11   1.474311e+05   4.436548e-26   0.000000e+00   0.000000e+00
     3712000   3.711999e-06   2.270792e+01   3.864231e+01   5.408753e-02  -1.230904e+05   7.626150e+04   2.772863e+04   5.759125e+10   8.557411e+09   2.321206e+11   1.474311e+05   4.435454e-26   0.000000e+00   0.000000e+00
     3720000   3.719999e-06   2.270694e+01   3.864292e+01   5.431677e-02  -1.226141e+05   7.633252e+04   2.958143e+04   6.147127e+10   9.196222e+09   2.310684e+11   1.474311e+05   4.434365e-26   0.000000e+00   0.000000e+00
     3728000   3.727999e-06   2.270596e+01   3.864353e+01   5.456081e-02  -1.221069e+05   7.640863e+04   3.142554e+04   6.533238e+10   9.832624e+09   2.299497e+11   1.474311e+05   4.433279e-26   0.000000e+00   0.000000e+00
     3736000   3.735999e-06   2.270498e+01   3.864414e+01   5.481956e-02  -1.215689e+05   7.648983e+04   3.326044e+04   6.917348e+10   1.046643e+10   2.287649e+11   1.474311e+05   4.432198e-26   0.000000e+00   0.000000e+00
     3744000   3.743999e-06   2.270401e+01   3.864475e+01   5.509295e-02  -1.210002e+05   7.657609e+04   3.508561e+04   7.299347e+10   1.109746e+10   2.275144e+11   1.474311e+05   4.431120e-26   0.000000e+00   0.000000e+00
     3752000   3.751999e-06   2.270305e+01   3.864536e+01   5.538090e-02  -1.204010e+05   7.666738e+04   3.690050e+04   7.679125e+10   1.172551e+10   2.261985e+11   1.474311e+05   4.430047e-26   0.000000e+00   0.000000e+00
     3760000   3.759999e-06   2.270209e+01   3.864598e+01   5.568333e-02  -1.197716e+05   7.676369e+04   3.870461e+04   8.056573e+10   1.235042e+10   2.248176e+11   1.474311e+05   4.428979e-26   0.000000e+00   0.000000e+00
     3768000   3.767999e-06   2.270113e+01   3.864659e+01   5.600014e-02  -1.191120e+05   7.686498e+04   4.049741e+04   8.431585e+10   1.297198e+10   2.233723e+11   1.474311e+05   4.427915e-26   0.000000e+00   0.000000e+00
     3776000   3.775999e-06   2.270018e+01   3.864721e+01   5.633125e-02  -1.184226e+05   7.697123e+04   4.227839e+04   8.804053e+10   1.359002e+10   2.218628e+11   1.474311e+05   4.426856e-26   0.000000e+00   0.000000e+00
     3784000   3.783999e-06   2.269924e+01   3.864782e+01   5.667656e-02  -1.177033e+05   7.708251e+04   4.404722e+04   9.175932e+10   1.422005e+10   2.203162e+11   1.474311e+05   4.427033e-26   0.000000e+00   0.000000e+00
     3792000   3.791999e-06   2.269830e+01   3.864844e+01   5.703598e-02  -1.169545e+05   7.719872e+04   4.580324e+04   9.543051e+10   1.483020e+10   2.186792e+11   1.474311e+05   4.425972e-26   0.000000e+00   0.000000e+00
     3800000   3.799999e-06   2.269737e+01   3.864906e+01   5.740938e-02  -1.161765e+05   7.731979e+04   4.754591e+04   9.907307e+10   1.543626e+10   2.169795e+11   1.474311e+05   4.424916e-26   0.000000e+00   0.000000e+00
     3808000   3.807999e-06   2.269644e+01   3.864968e+01   5.779667e-02  -1.153694e+05   7.744569e+04   4.927474e+04   1.026860e+11   1.603807e+10   2.152178e+11   1.474311e+05   4.423865e-26   0.000000e+00   0.000000e+00
     3816000   3.815999e-06   2.269552e+01   3.865030e+01   5.819774e-02  -1.145336e+05   7.757639e+04   5.098923e+04   1.062681e+11   1.663543e+10   2.133944e+11   1.474311e+05   4.422819e-26   0.000000e+00   0.000000e+00
     3824000   3.823999e-06   2.269461e+01   3.865092e+01   5.861246e-02  -1.136692e+05   7.771184e+04   5.268889e+04   1.098186e+11   1.722818e+10   2.115099e+11   1.474312e+05   4.421779e-26   0.000000e+00   0.000000e+00
     3832000   3.831999e-06   2.269370e+01   3.865154e+01   5.904072e-02  -1.127766e+05   7.785202e+04   5.437323e+04   1.133364e+11   1.781613e+10   2.095650e+11   1.474312e+05   4.420745e-26   0.000000e+00   0.000000e+00
     3840000   3.839999e-06   2.269280e+01   3.865216e+01   5.948239e-02  -1.118559e+05   7.799689e+04   5.604177e+04   1.168204e+11   1.839911e+10   2.075601e+11   1.474312e+05   4.419717e-26   0.000000e+00   0.000000e+00
     3848000   3.847999e-06   2.269191e+01   3.865279e+01   5.993734e-02  -1.109076e+05   7.814640e+04   5.769403e+04   1.202697e+11   1.897695e+10   2.054960e+11   1.474312e+05   4.418695e-26   0.000000e+00   0.000000e+00
     3856000   3.855999e-06   2.269103e+01   3.865342e+01   6.040545e-02  -1.099317e+05   7.830051e+04   5.932954e+04   1.236833e+11   1.954947e+10   2.033732e+11   1.474312e+05   4.417678e-26   0.000000e+00   0.000000e+00
     3864000   3.863999e-06   2.269015e+01   3.865404e+01   6.088657e-02  -1.089287e+05   7.845917e+04   6.094784e+04   1.270603e+11   2.011651e+10   2.011924e+11   1.474312e+05   4.416668e-26   0.000000e+00   0.000000e+00
     3872000   3.871999e-06   2.268929e+01   3.865467e+01   6.138057e-02  -1.078988e+05   7.862236e+04   6.254847e+04   1.303996e+11   2.067790e+10   1.989542e+11   1.474312e+05   4.415664e-26   0.000000e+00   0.000000e+00
     3880000   3.879999e-06   2.268843e+01   3.865530e+01   6.188730e-02  -1.068424e+05   7.879001e+04   6.413096e+04   1.337004e+11   2.123346e+10   1.966593e+11   1.474312e+05   4.414666e-26   0.000000e+00   0.000000e+00
     3888000   3.887999e-06   2.268758e+01   3.865593e+01   6.240661e-02  -1.057597e+05   7.896208e+04   6.569486e+04   1.369617e+11   2.178303e+10   1.943083e+11   1.474312e+05   4.413674e-26   0.000000e+00   0.000000e+00
     3896000   3.895999e-06   2.268674e+01   3.865656e+01   6.293837e-02  -1.046511e+05   7.913852e+04   6.723974e+04   1.401826e+11   2.232645e+10   1.919020e+11   1.474312e+05   4.412689e-26   0.000000e+00   0.000000e+00
     3904000   3.903999e-06   2.268590e+01   3.865720e+01   6.348240e-02  -1.035169e+05   7.931928e+04   6.876515e+04   1.433621e+11   2.286355e+10   1.894411e+11   1.474312e+05   4.411710e-26   0.000000e+00   0.000000e+00
     3912000   3.911999e-06   2.268508e+01   3.865783e+01   6.403856e-02  -1.023575e+05   7.950432e+04   7.027065e+04   1.464994e+11   2.339418e+10   1.869262e+11   1.474312e+05   4.410738e-26   0.000000e+00   0.000000e+00
     3920000   3.919999e-06   2.268427e+01   3.865847e+01   6.460667e-02  -1.011730e+05   7.969357e+04   7.175582e+04   1.495937e+11   2.391817e+10   1.843583e+11   1.474312e+05   4.409772e-26   0.000000e+00   0.000000e+00
     3928000   3.927999e-06   2.268346e+01   3.865911e+01   6.518659e-02  -9.996407e+04   7.988699e+04   7.322024e+04   1.526439e+11   2.443537e+10   1.817380e+11   1.474312e+05   4.408813e-26   0.000000e+00   0.000000e+00
     3936000   3.935999e-06   2.268267e+01   3.865975e+01   6.577814e-02  -9.873086e+04   8.008452e+04   7.466349e+04   1.556493e+11   2.494562e+10   1.790660e+11   1.474312e+05   4.407860e-26   0.000000e+00   0.000000e+00
     3944000   3.943999e-06   2.268188e+01   3.866039e+01   6.638115e-02  -9.747380e+04   8.028610e+04   7.608516e+04   1.586091e+11   2.544877e+10   1.763433e+11   1.474312e+05   4.406915e-26   0.000000e+00   0.000000e+00
     3952000   3.951999e-06   2.268111e+01   3.866103e+01   6.699545e-02  -9.619324e+04   8.049168e+04   7.748485e+04   1.615223e+11   2.594467e+10   1.735705e+11   1.474312e+05   4.405975e-26   0.000000e+00   0.000000e+00
     3960000   3.959999e-06   2.268034e+01   3.866168e+01   6.762085e-02  -9.488956e+04   8.070120e+04   7.886215e+04   1.643882e+11   2.643316e+10   1.707485e+11   1.474312e+05   4.405043e-26   0.000000e+00   0.000000e+00
     3968000   3.967999e-06   2.267959e+01   3.866232e+01   6.825718e-02  -9.356315e+04   8.091459e+04   8.021669e+04   1.672060e+11   2.691411e+10   1.678782e+11   1.474312e+05   4.404117e-26   0.000000e+00   0.000000e+00
     3976000   3.975999e-06   2.267884e+01   3.866297e+01   6.890425e-02  -9.221440e+04   8.113180e+04   8.154807e+04   1.699748e+11   2.738737e+10   1.649603e+11   1.474312e+05   4.403197e-26   0.000000e+00   0.000000e+00
     3984000   3.983999e-06   2.267811e+01   3.866362e+01   6.956189e-02  -9.084369e+04   8.135277e+04   8.285593e+04   1.726940e+11   2.785279e+10   1.619958e+11   1.474312e+05   4.402284e-26   0.000000e+00   0.000000e+00
     3992000   3.991999e-06   2.267739e+01   3.866427e+01   7.022989e-02  -8.945142e+04   8.157743e+04   8.413988e+04   1.753627e+11   2.831024e+10   1.589855e+11   1.474312e+05   4.401378e-26   0.000000e+00   0.000000e+00
     4000000   3.999999e-06   2.267668e+01   3.866493e+01   7.090806e-02  -8.803802e+04   8.180571e+04   8.539957e+04   1.779802e+11   2.875958e+10   1.559303e+11   1.474312e+05   4.400479e-26   0.000000e+00   0.000000e+00
     4008000   4.007999e-06   2.267598e+01   3.866558e+01   7.159621e-02  -8.660388e+04   8.203756e+04   8.663465e+04   1.805458e+11   2.920067e+10   1.528311e+11   1.474312e+05   4.399586e-26   0.000000e+00   0.000000e+00
     4016000   4.015999e-06   2.267530e+01   3.866624e+01   7.229415e-02  -8.514942e+04   8.227290e+04   8.784475e+04   1.830587e+11   2.963338e+10   1.496888e+11   1.474312e+05   4.398699e-26   0.000000e+00   0.000000e+00
     4024000   4.023999e-06   2.267462e+01   3.866690e+01   7.300166e-02  -8.367508e+04   8.251167e+04   8.902955e+04   1.855182e+11   3.005758e+10   1.465043e+11   1.474312e+05   4.397819e-26   0.000000e+00   0.000000e+00
     4032000   4.031999e-06   2.267396e+01   3.866756e+01   7.371855e-02  -8.218127e+04   8.275380e+04   9.018871e+04   1.879238e+11   3.047314e+10   1.432785e+11   1.474312e+05   4.396946e-26   0.000000e+00   0.000000e+00
     4040000   4.039999e-06   2.267331e+01   3.866822e+01   7.444461e-02  -8.066844e+04   8.299922e+04   9.132190e+04   1.902746e+11   3.087994e+10   1.400125e+11   1.474312e+05   4.396078e-26   0.000000e+00   0.000000e+00
     4048000   4.047999e-06   2.267267e+01   3.866889e+01   7.517963e-02  -7.913702e+04   8.324786e+04   9.242880e+04   1.925701e+11   3.127785e+10   1.367071e+11   1.474312e+05   4.395217e-26   0.000000e+00   0.000000e+00
     4056000   4.055999e-06   2.267204e+01   3.866955e+01   7.592340e-02  -7.758747e+04   8.349964e+04   9.350910e+04   1.948096e+11   3.166676e+10   1.333633e+11   1.474312e+05   4.394363e-26   0.000000e+00   0.000000e+00
     4064000   4.063999e-06   2.267143e+01   3.867022e+01   7.667571e-02  -7.602022e+04   8.375450e+04   9.456251e+04   1.969926e+11   3.204655e+10   1.299821e+11   1.474312e+05   4.393514e-26   0.000000e+00   0.000000e+00
     4072000   4.071999e-06   2.267082e+01   3.867089e+01   7.743633e-02  -7.443573e+04   8.401236e+04   9.558872e+04   1.991183e+11   3.241711e+10   1.265644e+11   1.474312e+05   4.392672e-26   0.000000e+00   0.000000e+00
     4080000   4.079999e-06   2.267023e+01   3.867157e+01   7.820505e-02  -7.283448e+04   8.427315e+04   9.658744e+04   2.011862e+11   3.277831e+10   1.231114e+11   1.474312e+05   4.391835e-26   0.000000e+00   0.000000e+00
     4088000   4.087999e-06   2.266966e+01   3.867224e+01   7.898165e-02  -7.121691e+04   8.453679e+04   9.755840e+04   2.031957e+11   3.313007e+10   1.196239e+11   1.474312e+05   4.391004e-26   0.000000e+00   0.000000e+00
     4096000   4.095999e-06   2.266909e+01   3.867292e+01   7.976591e-02  -6.958350e+04   8.480321e+04   9.850133e+04   2.051463e+11   3.347226e+10   1.161030e+11   1.474312e+05   4.390179e-26   0.000000e+00   0.000000e+00
     4104000   4.103999e-06   2.266854e+01   3.867360e+01   8.055760e-02  -6.793473e+04   8.507232e+04   9.941596e+04   2.070375e+11   3.380478e+10   1.125497e+11   1.474312e+05   4.389360e-26   0.000000e+00   0.000000e+00
     4112000   4.111999e-06   2.266801e+01   3.867428e+01   8.135649e-02  -6.627106e+04   8.534406e+04   1.003020e+05   2.088687e+11   3.412755e+10   1.089651e+11   1.474312e+05   4.388546e-26   0.000000e+00   0.000000e+00
     4120000   4.119999e-06   2.266748e+01   3.867497e+01   8.216236e-02  -6.459299e+04   8.561834e+04   1.011593e+05   2.106395e+11   3.444045e+10   1.053502e+11   1.474312e+05   4.387737e-26   0.000000e+00   0.000000e+00
     4128000   4.127999e-06   2.266697e+01   3.867565e+01   8.297496e-02  -6.290099e+04   8.589508e+04   1.019876e+05   2.123492e+11   3.474340e+10   1.017060e+11   1.474312e+05   4.386934e-26   0.000000e+00   0.000000e+00
     4136000   4.135999e-06   2.266648e+01   3.867634e+01   8.379408e-02  -6.119556e+04   8.617420e+04   1.027865e+05   2.139976e+11   3.503631e+10   9.803360e+10   1.474312e+05   4.386136e-26   0.000000e+00   0.000000e+00
     4144000   4.143999e-06   2.266600e+01   3.867703e+01   8.461947e-02  -5.947719e+04   8.645563e+04   1.035560e+05   2.155841e+11   3.531909e+10   9.433407e+10   1.474312e+05   4.385343e-26   0.000000e+00   0.000000e+00
     4152000   4.151999e-06   2.266553e+01   3.867772e+01   8.545090e-02  -5.774638e+04   8.673928e+04   1.042958e+05   2.171083e+11   3.559165e+10   9.060846e+10   1.474312e+05   4.384555e-26   0.000000e+00   0.000000e+00
     4160000   4.159999e-06   2.266507e+01   3.867842e+01   8.628812e-02  -5.600362e+04   8.702507e+04   1.050057e+05   2.185699e+11   3.585392e+10   8.685787e+10   1.474312e+05   4.383771e-26   0.000000e+00   0.000000e+00
     4168000   4.167999e-06   2.266463e+01   3.867912e+01   8.713091e-02  -5.424943e+04   8.731292e+04   1.056855e+05   2.199683e+11   3.610581e+10   8.308338e+10   1.474312e+05   4.382993e-26   0.000000e+00   0.000000e+00
     4176000   4.175999e-06   2.266420e+01   3.867982e+01   8.797901e-02  -5.248430e+04   8.760274e+04   1.063350e+05   2.213032e+11   3.634725e+10   7.928607e+10   1.474312e+05   4.382218e-26   0.000000e+00   0.000000e+00
     4184000   4.183999e-06   2.266379e+01   3.868052e+01   8.883219e-02  -5.070874e+04   8.789445e+04   1.069540e+05   2.225743e+11   3.657818e+10   7.546706e+10   1.474312e+05   4.381448e-26   0.000000e+00   0.000000e+00
     4192000   4.191999e-06   2.266339e+01   3.868122e+01   8.969019e-02  -4.892328e+04   8.818796e+04   1.075424e+05   2.237813e+11   3.679851e+10   7.162743e+10   1.474312e+05   4.380681e-26   0.000000e+00   0.000000e+00
     4200000   4.199999e-06   2.266301e+01   3.868193e+01   9.055278e-02  -4.712842e+04   8.848319e+04   1.081000e+05   2.249237e+11   3.700819e+10   6.776831e+10   1.474312e+05   4.379919e-26   0.000000e+00   0.000000e+00
     4208000   4.207999e-06   2.266264e+01   3.868264e+01   9.141971e-02  -4.532467e+04   8.878006e+04   1.086266e+05   2.260014e+11   3.720716e+10   6.389080e+10   1.474312e+05   4.379160e-26   0.000000e+00   0.000000e+00
     4216000   4.215999e-06   2.266228e+01   3.868335e+01   9.229072e-02  -4.351257e+04   8.907848e+04   1.091222e+05   2.270140e+11   3.739536e+10   5.999602e+10   1.474312e+05   4.378405e-26   0.000000e+00   0.000000e+00
     4224000   4.223999e-06   2.266194e+01   3.868406e+01   9.316558e-02  -4.169262e+04   8.937836e+04   1.095865e+05   2.279612e+11   3.757273e+10   5.608509e+10   1.474312e+05   4.377653e-26   0.000000e+00   0.000000e+00
     4232000   4.231999e-06   2.266162e+01   3.868478e+01   9.404402e-02  -3.986536e+04   8.967961e+04   1.100195e+05   2.288429e+11   3.773922e+10   5.215915e+10   1.474312e+05   4.376905e-26   0.000000e+00   0.000000e+00
     4240000   4.239999e-06   2.266130e+01   3.868550e+01   9.492581e-02  -3.803131e+04   8.998216e+04   1.104210e+05   2.296588e+11   3.789478e+10   4.821932e+10   1.474312e+05   4.376159e-26   0.000000e+00   0.000000e+00
     4248000   4.247999e-06   2.266101e+01   3.868622e+01   9.581068e-02  -3.619099e+04   9.028590e+04   1.107910e+05   2.304086e+11   3.803938e+10   4.426674e+10   1.474312e+05   4.375416e-26   0.000000e+00   0.000000e+00
     4256000   4.255999e-06   2.266073e+01   3.868694e+01   9.669838e-02  -3.434495e+04   9.059076e+04   1.111292e+05   2.310923e+11   3.817296e+10   4.030255e+10   1.474312e+05   4.374676e-26   0.000000e+00   0.000000e+00
     4264000   4.263999e-06   2.266046e+01   3.868767e+01   9.758866e-02  -3.249369e+04   9.089664e+04   1.114358e+05   2.317096e+11   3.829550e+10   3.632788e+10   1.474312e+05   4.373938e-26   0.000000e+00   0.000000e+00
     4272000   4.271999e-06   2.266021e+01   3.868840e+01   9.848127e-02  -3.063777e+04   9.120346e+04   1.117105e+05   2.322604e+11   3.840695e+10   3.234388e+10   1.474312e+05   4.373202e-26   0.000000e+00   0.000000e+00
     4280000   4.279999e-06   2.265997e+01   3.868913e+01   9.937594e-02  -2.877771e+04   9.151112e+04   1.119532e+05   2.327445e+11   3.850728e+10   2.835169e+10   1.474312e+05   4.372469e-26   0.000000e+00   0.000000e+00
     4288000   4.287999e-06   2.265974e+01   3.868986e+01   1.002724e-01  -2.691400e+04   9.181953e+04   1.121641e+05   2.331780e+11   3.859266e+10   2.435938e+10   1.474312e+05   4.372323e-26   0.000000e+00   0.000000e+00
