     timestep     time              x             y              z              vx             vy             vz             ax             ay             az         v_magnitude      ELoss        Electronic      Nuclear
           0   0.000000e+00   1.000000e-01   9.954992e+00   1.907466e+01   2.913646e+06  -5.244338e+05   4.052242e+06   0.000000e+00   0.000000e+00   0.000000e+00   5.018469e+06   0.000000e+00   0.000000e+00   0.000000e+00
        8000   7.999000e-08   3.317943e-01   9.924107e+00   1.940092e+01   2.863132e+06  -2.226561e+05   4.115572e+06  -1.354060e+12   4.610503e+12   1.191488e+12   5.018470e+06   5.501112e-17   0.000000e+00   0.000000e+00
       16000   1.599900e-07   5.549729e-01   9.921863e+00   1.973449e+01   2.703639e+06   1.626794e+05   4.224800e+06  -2.300987e+12   4.404285e+12   1.302976e+12   5.018472e+06   5.924204e-17   0.000000e+00   0.000000e+00
       24000   2.399900e-07   7.681490e-01   9.940820e+00   2.007416e+01   2.697611e+06   1.899000e+05   4.227517e+06   1.670828e+12  -2.429007e+12  -9.570344e+11   5.018473e+06   2.157002e-17   0.000000e+00   0.000000e+00
       32000   3.199900e-07   9.886452e-01   9.949711e+00   2.040952e+01   2.807284e+06   4.854874e+04   4.159552e+06   1.116945e+12  -1.236102e+12  -7.393911e+11   5.018473e+06   7.458433e-18   0.000000e+00   0.000000e+00
       40000   3.999900e-07   1.216398e+00   9.950398e+00   2.074013e+01   2.882150e+06  -2.348633e+04   4.108252e+06   7.878054e+11  -6.406657e+11  -5.563454e+11   5.018474e+06   3.009598e-18   0.000000e+00   0.000000e+00
       48000   4.799900e-07   1.449249e+00   9.946860e+00   2.106716e+01   2.936478e+06  -6.084128e+04   4.069211e+06   5.866563e+11  -3.257156e+11  -4.282191e+11   5.018474e+06   1.422439e-18   0.000000e+00   0.000000e+00
       56000   5.599900e-07   1.685892e+00   9.941170e+00   2.139143e+01   2.977849e+06  -7.896213e+04   4.038720e+06   4.541433e+11  -1.404142e+11  -3.375957e+11   5.018474e+06   7.631096e-19   0.000000e+00   0.000000e+00
       64000   6.399900e-07   1.925470e+00   9.934542e+00   2.171352e+01   3.010380e+06  -8.510499e+04   4.014405e+06   3.625783e+11  -1.944536e+10  -2.723072e+11   5.018474e+06   4.624189e-19   0.000000e+00   0.000000e+00
       72000   7.199900e-07   2.167380e+00   9.927771e+00   2.203386e+01   3.036424e+06  -8.303465e+04   3.994786e+06   2.917556e+11   6.699872e+10  -2.203695e+11   5.018474e+06   3.101711e-19   0.000000e+00   0.000000e+00
       80000   7.999900e-07   2.411165e+00   9.921418e+00   2.235279e+01   3.057446e+06  -7.489391e+04   3.978881e+06   2.358692e+11   1.339337e+11  -1.787250e+11   5.018474e+06   2.368563e-19   0.000000e+00   0.000000e+00
       88000   8.799900e-07   2.656463e+00   9.915918e+00   2.267057e+01   3.074406e+06  -6.184840e+04   3.966016e+06   1.894494e+11   1.904119e+11  -1.438892e+11   5.018474e+06   2.084271e-19   0.000000e+00   0.000000e+00
       96000   9.599900e-07   2.902978e+00   9.911628e+00   2.298742e+01   3.087941e+06  -4.479453e+04   3.955716e+06   1.498082e+11   2.347513e+11  -1.142859e+11   5.018474e+06   2.033966e-19   0.000000e+00   0.000000e+00
      104000   1.039990e-06   3.150454e+00   9.908839e+00   2.330354e+01   3.098495e+06  -2.442526e+04   3.947634e+06   1.149044e+11   2.744343e+11  -8.849013e+10   5.018474e+06   2.162701e-19   0.000000e+00   0.000000e+00
      112000   1.119990e-06   3.398667e+00   9.907801e+00   2.361909e+01   3.106409e+06  -1.080568e+03   3.941485e+06   8.380085e+10   3.069045e+11  -6.596169e+10   5.018474e+06   2.369572e-19   0.000000e+00   0.000000e+00
      120000   1.199990e-06   3.647417e+00   9.908729e+00   2.393422e+01   3.111968e+06   2.465248e+04   3.937020e+06   5.571511e+10   3.350161e+11  -4.613677e+10   5.018474e+06   2.636794e-19   0.000000e+00   0.000000e+00
      128000   1.279990e-06   3.896525e+00   9.911798e+00   2.424906e+01   3.115389e+06   5.241595e+04   3.934042e+06   3.012365e+10   3.585003e+11  -2.863129e+10   5.018474e+06   2.923699e-19   0.000000e+00   0.000000e+00
      136000   1.359990e-06   4.145827e+00   9.917168e+00   2.456370e+01   3.116864e+06   8.209570e+04   3.932366e+06   7.126717e+09   3.791048e+11  -1.356294e+10   5.018474e+06   3.231337e-19   0.000000e+00   0.000000e+00
      144000   1.439990e-06   4.395176e+00   9.924971e+00   2.487826e+01   3.116589e+06   1.131160e+05   3.931814e+06  -1.327191e+10   3.913493e+11  -7.384046e+08   5.018474e+06   3.441824e-19   0.000000e+00   0.000000e+00
      152000   1.519990e-06   4.644441e+00   9.935290e+00   2.519282e+01   3.114803e+06   1.450535e+05   3.932181e+06  -3.116743e+10   4.068652e+11   9.680335e+09   5.018474e+06   3.739721e-19   0.000000e+00   0.000000e+00
      160000   1.599990e-06   4.893510e+00   9.948194e+00   2.550743e+01   3.111713e+06   1.775776e+05   3.933292e+06  -4.601630e+10   4.080512e+11   1.798252e+10   5.018474e+06   3.792363e-19   0.000000e+00   0.000000e+00
      168000   1.679990e-06   5.142288e+00   9.963702e+00   2.582216e+01   3.107586e+06   2.100831e+05   3.934953e+06  -5.668674e+10   4.022322e+11   2.329339e+10   5.018474e+06   3.716058e-19   0.000000e+00   0.000000e+00
      176000   1.759990e-06   5.390704e+00   9.981788e+00   2.613703e+01   3.102705e+06   2.419692e+05   3.936972e+06  -6.477169e+10   3.947086e+11   2.678753e+10   5.018474e+06   3.607437e-19   0.000000e+00   0.000000e+00
      184000   1.839990e-06   5.638707e+00   1.000240e+01   2.645208e+01   3.097329e+06   2.730921e+05   3.939169e+06  -6.882952e+10   3.789028e+11   2.785202e+10   5.018474e+06   3.346475e-19   0.000000e+00   0.000000e+00
      192000   1.919990e-06   5.886272e+00   1.002544e+01   2.676730e+01   3.091791e+06   3.025647e+05   3.941366e+06  -6.900510e+10   3.566601e+11   2.675162e+10   5.018474e+06   2.978421e-19   0.000000e+00   0.000000e+00
      200000   1.999990e-06   6.133398e+00   1.005076e+01   2.708269e+01   3.086395e+06   3.300902e+05   3.943385e+06  -6.532824e+10   3.302359e+11   2.348801e+10   5.018474e+06   2.556216e-19   0.000000e+00   0.000000e+00
      208000   2.079990e-06   6.380107e+00   1.007819e+01   2.739823e+01   3.081431e+06   3.552515e+05   3.945081e+06  -5.766491e+10   2.960601e+11   1.838126e+10   5.018474e+06   2.049815e-19   0.000000e+00   0.000000e+00
      216000   2.159990e-06   6.626447e+00   1.010752e+01   2.771389e+01   3.077225e+06   3.775706e+05   3.946291e+06  -4.656539e+10   2.587690e+11   1.155245e+10   5.018474e+06   1.554809e-19   0.000000e+00   0.000000e+00
      224000   2.239990e-06   6.872490e+00   1.013852e+01   2.802963e+01   3.074040e+06   3.966751e+05   3.946898e+06  -3.263476e+10   2.181783e+11   3.490122e+09   5.018474e+06   1.092750e-19   0.000000e+00   0.000000e+00
      232000   2.319990e-06   7.118327e+00   1.017090e+01   2.834538e+01   3.072107e+06   4.123556e+05   3.946796e+06  -1.522757e+10   1.731082e+11  -6.233184e+09   5.018474e+06   6.787813e-20   0.000000e+00   0.000000e+00
      240000   2.399990e-06   7.364067e+00   1.020439e+01   2.866109e+01   3.071676e+06   4.241956e+05   3.945877e+06   5.109343e+09   1.220624e+11  -1.709948e+10   5.018474e+06   3.416273e-20   0.000000e+00   0.000000e+00
      248000   2.479990e-06   7.609840e+00   1.023866e+01   2.897669e+01   3.072947e+06   4.318479e+05   3.944057e+06   2.710566e+10   6.891239e+10  -2.866436e+10   5.018474e+06   1.415493e-20   0.000000e+00   0.000000e+00
      256000   2.559990e-06   7.855787e+00   1.027337e+01   2.929211e+01   3.076046e+06   4.351876e+05   3.941273e+06   5.064599e+10   1.419566e+10  -4.109512e+10   5.018474e+06   1.000042e-20   0.000000e+00   0.000000e+00
      264000   2.639990e-06   8.102060e+00   1.030817e+01   2.960727e+01   3.081113e+06   4.339944e+05   3.937445e+06   7.607121e+10  -4.400328e+10  -5.467676e+10   5.018474e+06   2.404387e-20   0.000000e+00   0.000000e+00
      272000   2.719990e-06   8.348817e+00   1.034269e+01   2.992208e+01   3.087941e+06   4.281945e+05   3.932728e+06   7.708765e+10  -8.874094e+10  -5.086636e+10   5.018474e+06   3.682921e-20   0.000000e+00   0.000000e+00
      280000   2.799990e-06   8.596039e+00   1.037673e+01   3.023657e+01   3.092133e+06   4.237334e+05   3.929917e+06   3.955624e+10  -2.825050e+10  -2.807756e+10   5.018474e+06   7.074681e-21   0.000000e+00   0.000000e+00
      288000   2.879990e-06   8.843513e+00   1.041060e+01   3.055089e+01   3.094447e+06   4.237204e+05   3.928096e+06   1.890147e+10   2.642772e+10  -1.774079e+10   5.018474e+06   3.075683e-21   0.000000e+00   0.000000e+00
      296000   2.959990e-06   9.091108e+00   1.044464e+01   3.086509e+01   3.095152e+06   4.279830e+05   3.927079e+06  -1.210286e+09   8.093175e+10  -7.866237e+09   5.018474e+06   1.484233e-20   0.000000e+00   0.000000e+00
      304000   3.039990e-06   9.338695e+00   1.047919e+01   3.117924e+01   3.094267e+06   4.365153e+05   3.926836e+06  -2.099360e+10   1.345279e+11   1.588172e+09   5.018474e+06   4.161460e-20   0.000000e+00   0.000000e+00
      312000   3.119990e-06   9.586150e+00   1.051460e+01   3.149340e+01   3.091840e+06   4.493341e+05   3.927302e+06  -4.004309e+10   1.863098e+11   1.020851e+10   5.018474e+06   8.174409e-20   0.000000e+00   0.000000e+00
      320000   3.199990e-06   9.833349e+00   1.055120e+01   3.180763e+01   3.087908e+06   4.663428e+05   3.928413e+06  -5.824304e+10   2.383036e+11   1.749270e+10   5.018474e+06   1.357679e-19   0.000000e+00   0.000000e+00
      328000   3.279990e-06   1.008018e+01   1.058932e+01   3.212196e+01   3.082538e+06   4.873888e+05   3.930076e+06  -7.535495e+10   2.882650e+11   2.335534e+10   5.018474e+06   2.004895e-19   0.000000e+00   0.000000e+00
      336000   3.359990e-06   1.032652e+01   1.062928e+01   3.243645e+01   3.075809e+06   5.124022e+05   3.932165e+06  -9.243694e+10   3.372412e+11   2.836008e+10   5.018474e+06   2.762710e-19   0.000000e+00   0.000000e+00
      344000   3.439990e-06   1.057227e+01   1.067140e+01   3.275112e+01   3.067808e+06   5.411582e+05   3.934563e+06  -1.072094e+11   3.819511e+11   3.105896e+10   5.018474e+06   3.554284e-19   0.000000e+00   0.000000e+00
      352000   3.519990e-06   1.081734e+01   1.071597e+01   3.306598e+01   3.058630e+06   5.736319e+05   3.937107e+06  -1.212020e+11   4.258047e+11   3.211972e+10   5.018474e+06   4.422652e-19   0.000000e+00   0.000000e+00
      360000   3.599990e-06   1.106163e+01   1.076327e+01   3.338105e+01   3.048425e+06   6.094860e+05   3.939633e+06  -1.333628e+11   4.682144e+11   3.075893e+10   5.018474e+06   5.341299e-19   0.000000e+00   0.000000e+00
      368000   3.679990e-06   1.130506e+01   1.081357e+01   3.369632e+01   3.037383e+06   6.483242e+05   3.941961e+06  -1.428023e+11   5.038007e+11   2.717474e+10   5.018474e+06   6.171635e-19   0.000000e+00   0.000000e+00
      376000   3.759990e-06   1.154759e+01   1.086708e+01   3.401176e+01   3.025638e+06   6.899144e+05   3.943934e+06  -1.499159e+11   5.351218e+11   2.140151e+10   5.018474e+06   6.942506e-19   0.000000e+00   0.000000e+00
      384000   3.839990e-06   1.178915e+01   1.092402e+01   3.432733e+01   3.013416e+06   7.339549e+05   3.945341e+06  -1.546285e+11   5.628025e+11   1.340612e+10   5.018474e+06   7.650713e-19   0.000000e+00   0.000000e+00
      392000   3.919990e-06   1.202973e+01   1.098457e+01   3.464299e+01   3.000923e+06   7.800864e+05   3.946011e+06  -1.567804e+11   5.867221e+11   3.242693e+09   5.018474e+06   8.279174e-19   0.000000e+00   0.000000e+00
      400000   3.999990e-06   1.226930e+01   1.104887e+01   3.495867e+01   2.988482e+06   8.277038e+05   3.945753e+06  -1.541434e+11   6.031887e+11  -9.783386e+09   5.018474e+06   8.702503e-19   0.000000e+00   0.000000e+00
      408000   4.079990e-06   1.250789e+01   1.111703e+01   3.527428e+01   2.976360e+06   8.764221e+05   3.944395e+06  -1.482051e+11   6.136936e+11  -2.452566e+10   5.018474e+06   8.960505e-19   0.000000e+00   0.000000e+00
      416000   4.159990e-06   1.274554e+01   1.118912e+01   3.558974e+01   2.964851e+06   9.259023e+05   3.941757e+06  -1.388856e+11   6.226420e+11  -4.179013e+10   5.018474e+06   9.174502e-19   0.000000e+00   0.000000e+00
      424000   4.239990e-06   1.298230e+01   1.126518e+01   3.590493e+01   2.954385e+06   9.754912e+05   3.937653e+06  -1.235335e+11   6.208549e+11  -6.111989e+10   5.018474e+06   9.078857e-19   0.000000e+00   0.000000e+00
      432000   4.319990e-06   1.321827e+01   1.134519e+01   3.621972e+01   2.945289e+06   1.024770e+06   3.931946e+06  -1.036143e+11   6.130402e+11  -8.215971e+10   5.018474e+06   8.828602e-19   0.000000e+00   0.000000e+00
      440000   4.399990e-06   1.345359e+01   1.142912e+01   3.653399e+01   2.937992e+06   1.073250e+06   3.924465e+06  -7.769465e+10   5.976964e+11  -1.052902e+11   5.018474e+06   8.403449e-19   0.000000e+00   0.000000e+00
      448000   4.479990e-06   1.368841e+01   1.151687e+01   3.684759e+01   2.932980e+06   1.120221e+06   3.915076e+06  -4.694108e+10   5.775756e+11  -1.300949e+11   5.018474e+06   7.917617e-19   0.000000e+00   0.000000e+00
      456000   4.559990e-06   1.392294e+01   1.160831e+01   3.716035e+01   2.930623e+06   1.165576e+06   3.903584e+06  -1.083673e+10   5.543341e+11  -1.573828e+11   5.018474e+06   7.456324e-19   0.000000e+00   0.000000e+00
      464000   4.639990e-06   1.415740e+01   1.170330e+01   3.747210e+01   2.931405e+06   1.208753e+06   3.889841e+06   3.145682e+10   5.224865e+11  -1.860659e+11   5.018474e+06   6.927290e-19   0.000000e+00   0.000000e+00
      472000   4.719990e-06   1.439206e+01   1.180164e+01   3.778266e+01   2.935808e+06   1.249185e+06   3.873713e+06   7.870113e+10   4.884329e+11  -2.171539e+11   5.018474e+06   6.552703e-19   0.000000e+00   0.000000e+00
      480000   4.799990e-06   1.462723e+01   1.190309e+01   3.809182e+01   2.944223e+06   1.286640e+06   3.855022e+06   1.318815e+11   4.485626e+11  -2.504329e+11   5.018474e+06   6.314770e-19   0.000000e+00   0.000000e+00
      488000   4.879990e-06   1.486325e+01   1.200742e+01   3.839939e+01   2.957059e+06   1.320766e+06   3.833597e+06   1.910872e+11   4.018044e+11  -2.858264e+11   5.018474e+06   6.277478e-19   0.000000e+00   0.000000e+00
      496000   4.959990e-06   1.510049e+01   1.211432e+01   3.870512e+01   2.974825e+06   1.351134e+06   3.809191e+06   2.543187e+11   3.555564e+11  -3.247291e+11   5.018475e+06   6.656551e-19   0.000000e+00   0.000000e+00
      504000   5.039990e-06   1.533937e+01   1.222349e+01   3.900877e+01   2.997882e+06   1.377534e+06   3.781559e+06   3.220250e+11   3.049754e+11  -3.663842e+11   5.018475e+06   7.428675e-19   0.000000e+00   0.000000e+00
      512000   5.119990e-06   1.558030e+01   1.233461e+01   3.931008e+01   3.026436e+06   1.399873e+06   3.750483e+06   3.927811e+11   2.525240e+11  -4.112069e+11   5.018475e+06   8.689890e-19   0.000000e+00   0.000000e+00
      520000   5.199990e-06   1.582375e+01   1.244735e+01   3.960875e+01   3.060787e+06   1.417954e+06   3.715653e+06   4.669533e+11   1.978646e+11  -4.601621e+11   5.018475e+06   1.052617e-18   0.000000e+00   0.000000e+00
      528000   5.279990e-06   1.607019e+01   1.256136e+01   3.990447e+01   3.101159e+06   1.431542e+06   3.676763e+06   5.427632e+11   1.419275e+11  -5.130504e+11   5.018475e+06   1.297307e-18   0.000000e+00   0.000000e+00
      536000   5.359990e-06   1.632010e+01   1.267628e+01   4.019691e+01   3.147606e+06   1.440751e+06   3.633442e+06   6.181562e+11   8.884112e+10  -5.707269e+11   5.018475e+06   1.606582e-18   0.000000e+00   0.000000e+00
      544000   5.439990e-06   1.657397e+01   1.279177e+01   4.048570e+01   3.200092e+06   1.445679e+06   3.585319e+06   6.931410e+11   3.549259e+10  -6.329749e+11   5.018475e+06   1.980592e-18   0.000000e+00   0.000000e+00
      552000   5.519990e-06   1.683227e+01   1.290748e+01   4.077043e+01   3.258551e+06   1.446353e+06   3.531996e+06   7.674617e+11  -1.790714e+10  -7.007093e+11   5.018475e+06   2.424921e-18   0.000000e+00   0.000000e+00
      560000   5.599990e-06   1.709549e+01   1.302308e+01   4.105067e+01   3.322701e+06   1.443019e+06   3.473103e+06   8.370370e+11  -6.821859e+10  -7.724419e+11   5.018475e+06   2.922431e-18   0.000000e+00   0.000000e+00
      568000   5.679990e-06   1.736406e+01   1.313825e+01   4.132596e+01   3.392419e+06   1.435510e+06   3.408210e+06   9.047722e+11  -1.181753e+11  -8.508009e+11   5.018475e+06   3.493677e-18   0.000000e+00   0.000000e+00
      576000   5.759990e-06   1.763841e+01   1.325266e+01   4.159581e+01   3.467318e+06   1.424102e+06   3.336874e+06   9.677423e+11  -1.675348e+11  -9.340674e+11   5.018475e+06   4.123610e-18   0.000000e+00   0.000000e+00
      584000   5.839990e-06   1.791895e+01   1.336600e+01   4.185968e+01   3.546963e+06   1.408904e+06   3.258702e+06   1.021556e+12  -2.099567e+11  -1.021140e+12   5.018475e+06   4.782015e-18   0.000000e+00   0.000000e+00
      592000   5.919990e-06   1.820603e+01   1.347800e+01   4.211701e+01   3.630553e+06   1.390532e+06   3.173421e+06   1.067721e+12  -2.502853e+11  -1.111848e+12   5.018476e+06   5.474472e-18   0.000000e+00   0.000000e+00
      600000   5.999990e-06   1.849994e+01   1.358840e+01   4.236723e+01   3.717601e+06   1.368932e+06   3.080677e+06   1.106250e+12  -2.873849e+11  -1.207253e+12   5.018476e+06   6.203915e-18   0.000000e+00   0.000000e+00
      608000   6.079990e-06   1.880092e+01   1.369695e+01   4.260971e+01   3.807469e+06   1.344249e+06   2.980148e+06   1.138155e+12  -3.268337e+11  -1.306685e+12   5.018476e+06   6.980140e-18   0.000000e+00   0.000000e+00
      616000   6.159990e-06   1.910919e+01   1.380341e+01   4.284383e+01   3.899392e+06   1.316939e+06   2.871501e+06   1.158138e+12  -3.561121e+11  -1.409375e+12   5.018476e+06   7.754099e-18   0.000000e+00   0.000000e+00
      624000   6.239990e-06   1.942486e+01   1.390759e+01   4.306893e+01   3.992588e+06   1.287121e+06   2.754571e+06   1.169317e+12  -3.868240e+11  -1.514091e+12   5.018477e+06   8.550908e-18   0.000000e+00   0.000000e+00
      632000   6.319990e-06   1.974801e+01   1.400930e+01   4.328434e+01   4.086120e+06   1.255296e+06   2.629252e+06   1.168714e+12  -4.130550e+11  -1.619075e+12   5.018477e+06   9.333188e-18   0.000000e+00   0.000000e+00
      640000   6.399990e-06   2.007863e+01   1.410838e+01   4.348939e+01   4.179207e+06   1.221412e+06   2.495495e+06   1.155645e+12  -4.304436e+11  -1.724662e+12   5.018477e+06   1.009045e-17   0.000000e+00   0.000000e+00
      648000   6.479990e-06   2.041664e+01   1.420469e+01   4.368340e+01   4.270862e+06   1.186022e+06   2.353339e+06   1.134182e+12  -4.542521e+11  -1.829373e+12   5.018478e+06   1.086276e-17   0.000000e+00   0.000000e+00
      656000   6.559990e-06   2.076191e+01   1.429810e+01   4.386570e+01   4.360309e+06   1.149065e+06   2.202833e+06   1.100943e+12  -4.716745e+11  -1.933154e+12   5.018478e+06   1.160872e-17   0.000000e+00   0.000000e+00
      664000   6.639990e-06   2.111421e+01   1.438851e+01   4.403563e+01   4.446599e+06   1.111059e+06   2.044121e+06   1.056035e+12  -4.825820e+11  -2.034876e+12   5.018478e+06   1.232070e-17   0.000000e+00   0.000000e+00
      672000   6.719990e-06   2.147326e+01   1.447584e+01   4.419254e+01   4.528954e+06   1.071985e+06   1.877380e+06   1.002441e+12  -4.983336e+11  -2.133688e+12   5.018479e+06   1.303235e-17   0.000000e+00   0.000000e+00
      680000   6.799990e-06   2.183871e+01   1.456001e+01   4.433581e+01   4.606504e+06   1.032122e+06   1.702932e+06   9.363203e+11  -5.034620e+11  -2.227610e+12   5.018479e+06   1.367562e-17   0.000000e+00   0.000000e+00
      688000   6.879990e-06   2.221015e+01   1.464095e+01   4.446482e+01   4.678510e+06   9.914458e+05   1.521090e+06   8.617197e+11  -5.106682e+11  -2.317549e+12   5.018480e+06   1.430856e-17   0.000000e+00   0.000000e+00
      696000   6.959990e-06   2.258710e+01   1.471863e+01   4.457900e+01   4.744187e+06   9.502068e+05   1.332268e+06   7.795755e+11  -5.239266e+11  -2.402329e+12   5.018480e+06   1.493492e-17   0.000000e+00   0.000000e+00
      704000   7.039990e-06   2.296903e+01   1.479297e+01   4.467781e+01   4.802844e+06   9.083356e+05   1.136998e+06   6.874299e+11  -5.310692e+11  -2.479476e+12   5.018481e+06   1.549382e-17   0.000000e+00   0.000000e+00
      712000   7.119990e-06   2.335535e+01   1.486394e+01   4.476076e+01   4.853856e+06   8.657392e+05   9.358038e+05   5.874267e+11  -5.368107e+11  -2.550188e+12   5.018481e+06   1.601975e-17   0.000000e+00   0.000000e+00
      720000   7.199990e-06   2.374543e+01   1.493147e+01   4.482739e+01   4.896622e+06   8.224358e+05   7.292850e+05   4.806150e+11  -5.455977e+11  -2.611595e+12   5.018482e+06   1.649656e-17   0.000000e+00   0.000000e+00
      728000   7.279990e-06   2.413858e+01   1.499550e+01   4.487732e+01   4.930657e+06   7.780437e+05   5.181057e+05   3.688690e+11  -5.624434e+11  -2.665644e+12   5.018483e+06   1.696564e-17   0.000000e+00   0.000000e+00
      736000   7.359990e-06   2.453409e+01   1.505594e+01   4.491019e+01   4.955454e+06   7.326899e+05   3.030133e+05   2.508342e+11  -5.757040e+11  -2.709806e+12   5.018483e+06   1.736821e-17   0.000000e+00   0.000000e+00
      744000   7.439990e-06   2.493120e+01   1.511269e+01   4.492572e+01   4.970650e+06   6.860299e+05   8.473984e+04   1.283856e+11  -5.910221e+11  -2.745134e+12   5.018484e+06   1.773667e-17   0.000000e+00   0.000000e+00
      752000   7.519990e-06   2.532913e+01   1.516566e+01   4.492368e+01   4.975916e+06   6.379420e+05  -1.359446e+05   2.269926e+09  -6.079566e+11  -2.770441e+12   5.018484e+06   1.805861e-17   0.000000e+00   0.000000e+00
      760000   7.599990e-06   2.572707e+01   1.521473e+01   4.490392e+01   4.970992e+06   5.883129e+05  -3.582178e+05  -1.255356e+11  -6.346907e+11  -2.784660e+12   5.018485e+06   1.834586e-17   0.000000e+00   0.000000e+00
      768000   7.679990e-06   2.612421e+01   1.525973e+01   4.486635e+01   4.955755e+06   5.365426e+05  -5.812212e+05  -2.558211e+11  -6.585446e+11  -2.789311e+12   5.018486e+06   1.858484e-17   0.000000e+00   0.000000e+00
      776000   7.759990e-06   2.651971e+01   1.530052e+01   4.481093e+01   4.930063e+06   4.827645e+05  -8.041288e+05  -3.863827e+11  -6.876090e+11  -2.781803e+12   5.018486e+06   1.876699e-17   0.000000e+00   0.000000e+00
      784000   7.839990e-06   2.691274e+01   1.533691e+01   4.473771e+01   4.893917e+06   4.266508e+05  -1.026040e+06  -5.170734e+11  -7.160442e+11  -2.764122e+12   5.018487e+06   1.890153e-17   0.000000e+00   0.000000e+00
      792000   7.919990e-06   2.730246e+01   1.536871e+01   4.464681e+01   4.847391e+06   3.678573e+05  -1.246073e+06  -6.462780e+11  -7.481580e+11  -2.735043e+12   5.018488e+06   1.898554e-17   0.000000e+00   0.000000e+00
      800000   7.999990e-06   2.768805e+01   1.539570e+01   4.453842e+01   4.790615e+06   3.064409e+05  -1.463326e+06  -7.725867e+11  -7.853341e+11  -2.693801e+12   5.018488e+06   1.901322e-17   0.000000e+00   0.000000e+00
      808000   8.079990e-06   2.806870e+01   1.541767e+01   4.441278e+01   4.723822e+06   2.422955e+05  -1.676912e+06  -8.964854e+11  -8.177078e+11  -2.643579e+12   5.018489e+06   1.899223e-17   0.000000e+00   0.000000e+00
      816000   8.159990e-06   2.844360e+01   1.543440e+01   4.427023e+01   4.647304e+06   1.754960e+05  -1.886002e+06  -1.015357e+12  -8.537204e+11  -2.581430e+12   5.018490e+06   1.890856e-17   0.000000e+00   0.000000e+00
      824000   8.239990e-06   2.881202e+01   1.544567e+01   4.411116e+01   4.561477e+06   1.059236e+05  -2.089726e+06  -1.129175e+12  -8.833101e+11  -2.509589e+12   5.018490e+06   1.875087e-17   0.000000e+00   0.000000e+00
      832000   8.319990e-06   2.917320e+01   1.545129e+01   4.393604e+01   4.466805e+06   3.414555e+04  -2.287300e+06  -1.236483e+12  -9.126670e+11  -2.428354e+12   5.018491e+06   1.853864e-17   0.000000e+00   0.000000e+00
      840000   8.399990e-06   2.952648e+01   1.545107e+01   4.374538e+01   4.363883e+06  -4.001024e+04  -2.477940e+06  -1.335686e+12  -9.395893e+11  -2.337129e+12   5.018492e+06   1.824751e-17   0.000000e+00   0.000000e+00
      848000   8.479990e-06   2.987122e+01   1.544484e+01   4.353977e+01   4.253351e+06  -1.159897e+05  -2.660980e+06  -1.425501e+12  -9.585723e+11  -2.236789e+12   5.018492e+06   1.785488e-17   0.000000e+00   0.000000e+00
      856000   8.559990e-06   3.020684e+01   1.543247e+01   4.331985e+01   4.136038e+06  -1.934564e+05  -2.835672e+06  -1.505463e+12  -9.750060e+11  -2.129339e+12   5.018493e+06   1.739923e-17   0.000000e+00   0.000000e+00
      864000   8.639990e-06   3.053283e+01   1.541387e+01   4.308630e+01   4.012831e+06  -2.718775e+05  -3.001425e+06  -1.572548e+12  -9.844235e+11  -2.013311e+12   5.018494e+06   1.682522e-17   0.000000e+00   0.000000e+00
      872000   8.719990e-06   3.084876e+01   1.538896e+01   4.283987e+01   3.884778e+06  -3.506904e+05  -3.157658e+06  -1.626287e+12  -9.847167e+11  -1.891436e+12   5.018494e+06   1.614416e-17   0.000000e+00   0.000000e+00
      880000   8.799990e-06   3.115430e+01   1.535775e+01   4.258134e+01   3.752997e+06  -4.296010e+05  -3.303899e+06  -1.665688e+12  -9.842681e+11  -1.764142e+12   5.018495e+06   1.538880e-17   0.000000e+00   0.000000e+00
      888000   8.879990e-06   3.144918e+01   1.532024e+01   4.231152e+01   3.618692e+06  -5.080095e+05  -3.439810e+06  -1.689713e+12  -9.727167e+11  -1.633947e+12   5.018495e+06   1.452593e-17   0.000000e+00   0.000000e+00
      896000   8.959990e-06   3.173325e+01   1.527651e+01   4.203125e+01   3.483037e+06  -5.850920e+05  -3.565308e+06  -1.698522e+12  -9.530880e+11  -1.502937e+12   5.018496e+06   1.358559e-17   0.000000e+00   0.000000e+00
      904000   9.039990e-06   3.200646e+01   1.522668e+01   4.174136e+01   3.347377e+06  -6.603255e+05  -3.680264e+06  -1.689534e+12  -9.255857e+11  -1.370656e+12   5.018496e+06   1.254801e-17   0.000000e+00   0.000000e+00
      912000   9.119990e-06   3.226887e+01   1.517092e+01   4.144269e+01   3.213195e+06  -7.330446e+05  -3.784618e+06  -1.661862e+12  -8.895842e+11  -1.238654e+12   5.018497e+06   1.141999e-17   0.000000e+00   0.000000e+00
      920000   9.199990e-06   3.252065e+01   1.510948e+01   4.113610e+01   3.081958e+06  -8.024889e+05  -3.878512e+06  -1.616576e+12  -8.446193e+11  -1.109825e+12   5.018497e+06   1.023253e-17   0.000000e+00   0.000000e+00
      928000   9.279990e-06   3.276210e+01   1.504263e+01   4.082240e+01   2.954970e+06  -8.679743e+05  -3.962334e+06  -1.555385e+12  -7.911513e+11  -9.866551e+11   5.018497e+06   9.020877e-18   0.000000e+00   0.000000e+00
      936000   9.359990e-06   3.299360e+01   1.497073e+01   4.050238e+01   2.833608e+06  -9.287260e+05  -4.036515e+06  -1.475828e+12  -7.259903e+11  -8.689941e+11   5.018498e+06   7.767546e-18   0.000000e+00   0.000000e+00
      944000   9.439990e-06   3.321566e+01   1.489418e+01   4.017680e+01   2.719340e+06  -9.839118e+05  -4.101515e+06  -1.379531e+12  -6.529275e+11  -7.580174e+11   5.018498e+06   6.518859e-18   0.000000e+00   0.000000e+00
      952000   9.519990e-06   3.342891e+01   1.481346e+01   3.984636e+01   2.613188e+06  -1.033106e+06  -4.158036e+06  -1.271268e+12  -5.738371e+11  -6.563800e+11   5.018498e+06   5.334173e-18   0.000000e+00   0.000000e+00
      960000   9.599990e-06   3.363402e+01   1.472907e+01   3.951172e+01   2.516275e+06  -1.075464e+06  -4.206788e+06  -1.149470e+12  -4.841400e+11  -5.637856e+11   5.018498e+06   4.205693e-18   0.000000e+00   0.000000e+00
      968000   9.679990e-06   3.383178e+01   1.464159e+01   3.917346e+01   2.429564e+06  -1.110274e+06  -4.248510e+06  -1.017068e+12  -3.847712e+11  -4.810731e+11   5.018498e+06   3.173955e-18   0.000000e+00   0.000000e+00
      976000   9.759990e-06   3.402304e+01   1.455164e+01   3.883212e+01   2.353688e+06  -1.136862e+06  -4.284043e+06  -8.779527e+11  -2.774680e+11  -4.087245e+11   5.018499e+06   2.278151e-18   0.000000e+00   0.000000e+00
      984000   9.839990e-06   3.420868e+01   1.445992e+01   3.848816e+01   2.289185e+06  -1.154593e+06  -4.314148e+06  -7.336083e+11  -1.650057e+11  -3.451105e+11   5.018499e+06   1.536619e-18   0.000000e+00   0.000000e+00
      992000   9.919990e-06   3.438962e+01   1.436716e+01   3.814199e+01   2.236339e+06  -1.163017e+06  -4.339529e+06  -5.879728e+11  -4.555293e+10  -2.907993e+11   5.018499e+06   9.705698e-19   0.000000e+00   0.000000e+00
     1000000   9.999990e-06   3.456680e+01   1.427410e+01   3.779395e+01   2.195168e+06  -1.161674e+06  -4.360858e+06  -4.416261e+11   8.031649e+10  -2.437015e+11   5.018499e+06   5.856288e-19   0.000000e+00   0.000000e+00
     1008000   1.007999e-05   3.474116e+01   1.418156e+01   3.744434e+01   2.165504e+06  -1.150310e+06  -4.378665e+06  -3.003750e+11   2.055547e+11  -2.025541e+11   5.018499e+06   3.894866e-19   0.000000e+00   0.000000e+00
     1016000   1.015999e-05   3.491358e+01   1.409033e+01   3.709344e+01   2.146936e+06  -1.128733e+06  -4.393399e+06  -1.634820e+11   3.355995e+11  -1.661104e+11   5.018499e+06   3.747409e-19   0.000000e+00   0.000000e+00
     1024000   1.023999e-05   3.508495e+01   1.400123e+01   3.674147e+01   2.138868e+06  -1.097040e+06  -4.405346e+06  -3.915186e+10   4.577557e+11  -1.330019e+11   5.018499e+06   5.134838e-19   0.000000e+00   0.000000e+00
     1032000   1.031999e-05   3.525606e+01   1.391507e+01   3.638865e+01   2.140536e+06  -1.055368e+06  -4.414707e+06   7.792525e+10   5.812266e+11  -1.011641e+11   5.018499e+06   7.948846e-19   0.000000e+00   0.000000e+00
     1040000   1.039999e-05   3.542767e+01   1.383262e+01   3.603519e+01   2.151039e+06  -1.004139e+06  -4.421546e+06   1.821675e+11   6.969641e+11  -6.965989e+10   5.018499e+06   1.175728e-18   0.000000e+00   0.000000e+00
     1048000   1.047999e-05   3.560044e+01   1.375464e+01   3.568128e+01   2.169410e+06  -9.439934e+05  -4.425818e+06   2.747024e+11   8.036196e+11  -3.675631e+10   5.018499e+06   1.622021e-18   0.000000e+00   0.000000e+00
     1056000   1.055999e-05   3.577496e+01   1.368180e+01   3.532713e+01   2.194610e+06  -8.757317e+05  -4.427427e+06   3.529015e+11   9.001714e+11  -3.125220e+09   5.018499e+06   2.098448e-18   0.000000e+00   0.000000e+00
     1064000   1.063999e-05   3.595173e+01   1.361471e+01   3.497296e+01   2.225550e+06  -8.003082e+05  -4.426259e+06   4.186595e+11   9.831003e+11   3.274844e+10   5.018499e+06   2.565297e-18   0.000000e+00   0.000000e+00
     1072000   1.071999e-05   3.613117e+01   1.355391e+01   3.461901e+01   2.261239e+06  -7.188928e+05  -4.422140e+06   4.714176e+11   1.049917e+12   7.037253e+10   5.018499e+06   2.984342e-18   0.000000e+00   0.000000e+00
     1080000   1.079999e-05   3.631362e+01   1.349982e+01   3.426550e+01   2.300654e+06  -6.327322e+05  -4.414972e+06   5.127841e+11   1.100833e+12   1.094438e+11   5.018499e+06   3.337333e-18   0.000000e+00   0.000000e+00
     1088000   1.087999e-05   3.649935e+01   1.345276e+01   3.391269e+01   2.342914e+06  -5.431748e+05  -4.404663e+06   5.425537e+11   1.135959e+12   1.485054e+11   5.018499e+06   3.606852e-18   0.000000e+00   0.000000e+00
     1096000   1.095999e-05   3.668854e+01   1.341297e+01   3.356084e+01   2.387147e+06  -4.515965e+05  -4.391233e+06   5.620046e+11   1.152154e+12   1.870231e+11   5.018499e+06   3.767280e-18   0.000000e+00   0.000000e+00
     1104000   1.103999e-05   3.688133e+01   1.338053e+01   3.321018e+01   2.432612e+06  -3.593355e+05  -4.374770e+06   5.732559e+11   1.151748e+12   2.241554e+11   5.018500e+06   3.828139e-18   0.000000e+00   0.000000e+00
     1112000   1.111999e-05   3.707778e+01   1.335545e+01   3.286095e+01   2.478654e+06  -2.678903e+05  -4.355439e+06   5.762293e+11   1.131881e+12   2.583060e+11   5.018500e+06   3.770974e-18   0.000000e+00   0.000000e+00
     1120000   1.119999e-05   3.727791e+01   1.333761e+01   3.251338e+01   2.524646e+06  -1.785295e+05  -4.333547e+06   5.727831e+11   1.098831e+12   2.884207e+11   5.018500e+06   3.633558e-18   0.000000e+00   0.000000e+00
     1128000   1.127999e-05   3.748170e+01   1.332680e+01   3.216764e+01   2.570102e+06  -9.246587e+04  -4.309451e+06   5.627441e+11   1.050339e+12   3.130733e+11   5.018500e+06   3.407324e-18   0.000000e+00   0.000000e+00
     1136000   1.135999e-05   3.768910e+01   1.332270e+01   3.182391e+01   2.614589e+06  -1.078586e+04  -4.283591e+06   5.487058e+11   9.896602e+11   3.324202e+11   5.018500e+06   3.122475e-18   0.000000e+00   0.000000e+00
     1144000   1.143999e-05   3.790000e+01   1.332493e+01   3.148230e+01   2.657783e+06   6.551734e+04  -4.256435e+06   5.300009e+11   9.156829e+11   3.450324e+11   5.018500e+06   2.779968e-18   0.000000e+00   0.000000e+00
     1152000   1.151999e-05   3.811430e+01   1.333302e+01   3.114290e+01   2.699388e+06   1.356721e+05  -4.228504e+06   5.092712e+11   8.357607e+11   3.519209e+11   5.018500e+06   2.428173e-18   0.000000e+00   0.000000e+00
     1160000   1.159999e-05   3.833186e+01   1.334645e+01   3.080575e+01   2.739165e+06   1.989904e+05  -4.200324e+06   4.845791e+11   7.469061e+11   3.513919e+11   5.018500e+06   2.056580e-18   0.000000e+00   0.000000e+00
     1168000   1.167999e-05   3.855251e+01   1.336466e+01   3.047084e+01   2.776904e+06   2.550340e+05  -4.172423e+06   4.584877e+11   6.530395e+11   3.450551e+11   5.018500e+06   1.696464e-18   0.000000e+00   0.000000e+00
     1176000   1.175999e-05   3.877610e+01   1.338705e+01   3.013814e+01   2.812460e+06   3.034040e+05  -4.145282e+06   4.305711e+11   5.561148e+11   3.328327e+11   5.018501e+06   1.359073e-18   0.000000e+00   0.000000e+00
     1184000   1.183999e-05   3.900204e+01   1.341252e+01   2.980725e+01   2.819891e+06   3.133901e+05  -4.139486e+06  -7.023225e+11  -8.229054e+11  -5.407381e+11   5.018501e+06   3.281512e-18   0.000000e+00   0.000000e+00
     1192000   1.191999e-05   3.922530e+01   1.343493e+01   2.947433e+01   2.762082e+06   2.487561e+05  -4.182627e+06  -7.003654e+11  -7.439759e+11  -5.067505e+11   5.018501e+06   2.920053e-18   0.000000e+00   0.000000e+00
     1200000   1.199999e-05   3.944408e+01   1.345259e+01   2.913817e+01   2.708095e+06   1.943550e+05  -4.220639e+06  -6.480641e+11  -6.156364e+11  -4.441699e+11   5.018501e+06   2.236463e-18   0.000000e+00   0.000000e+00
     1208000   1.207999e-05   3.965872e+01   1.346630e+01   2.879916e+01   2.658566e+06   1.500408e+05  -4.253806e+06  -5.896590e+11  -4.916869e+11  -3.858726e+11   5.018501e+06   1.657466e-18   0.000000e+00   0.000000e+00
     1216000   1.215999e-05   3.986958e+01   1.347686e+01   2.845768e+01   2.613866e+06   1.155736e+05  -4.282487e+06  -5.275175e+11  -3.704686e+11  -3.319758e+11   5.018501e+06   1.180174e-18   0.000000e+00   0.000000e+00
     1224000   1.223999e-05   4.007707e+01   1.348504e+01   2.811407e+01   2.574197e+06   9.053388e+04  -4.307048e+06  -4.642267e+11  -2.564340e+11  -2.828458e+11   5.018501e+06   8.109862e-19   0.000000e+00   0.000000e+00
     1232000   1.231999e-05   4.028159e+01   1.349158e+01   2.776865e+01   2.539584e+06   7.441033e+04  -4.327855e+06  -4.010878e+11  -1.485424e+11  -2.379127e+11   5.018501e+06   5.377277e-19   0.000000e+00   0.000000e+00
     1240000   1.239999e-05   4.048353e+01   1.349718e+01   2.742171e+01   2.509933e+06   6.681924e+04  -4.345242e+06  -3.407481e+11  -4.388339e+10  -1.975008e+11   5.018501e+06   3.525338e-19   0.000000e+00   0.000000e+00
     1248000   1.247999e-05   4.068330e+01   1.350248e+01   2.707349e+01   2.485042e+06   6.702357e+04  -4.359521e+06  -2.823599e+11   4.928946e+10  -1.601951e+11   5.018501e+06   2.420343e-19   0.000000e+00   0.000000e+00
     1256000   1.255999e-05   4.088126e+01   1.350809e+01   2.672426e+01   2.464613e+06   7.441465e+04  -4.370984e+06  -2.289857e+11   1.335733e+11  -1.268415e+11   5.018501e+06   1.938693e-19   0.000000e+00   0.000000e+00
     1264000   1.263999e-05   4.107775e+01   1.351456e+01   2.637421e+01   2.448273e+06   8.819548e+04  -4.379901e+06  -1.804422e+11   2.103892e+11  -9.662715e+10   5.018501e+06   1.934034e-19   0.000000e+00   0.000000e+00
     1272000   1.271999e-05   4.127308e+01   1.352236e+01   2.602353e+01   2.435604e+06   1.077455e+05  -4.386522e+06  -1.369943e+11   2.761378e+11  -6.928319e+10   5.018501e+06   2.240635e-19   0.000000e+00   0.000000e+00
     1280000   1.279999e-05   4.146753e+01   1.353193e+01   2.567242e+01   2.426214e+06   1.321593e+05  -4.391056e+06  -9.882786e+10   3.304267e+11  -4.466118e+10   5.018501e+06   2.714777e-19   0.000000e+00   0.000000e+00
     1288000   1.287999e-05   4.166135e+01   1.354361e+01   2.532101e+01   2.419648e+06   1.606582e+05  -4.393728e+06  -6.633598e+10   3.784889e+11  -2.269232e+10   5.018501e+06   3.325927e-19   0.000000e+00   0.000000e+00
     1296000   1.295999e-05   4.185474e+01   1.355772e+01   2.496946e+01   2.415453e+06   1.923452e+05  -4.394763e+06  -3.921012e+10   4.122591e+11  -3.507775e+09   5.018501e+06   3.849806e-19   0.000000e+00   0.000000e+00
     1304000   1.303999e-05   4.204788e+01   1.357445e+01   2.461789e+01   2.413236e+06   2.263000e+05  -4.394364e+06  -1.727951e+10   4.350332e+11   1.291350e+10   5.018501e+06   4.258631e-19   0.000000e+00   0.000000e+00
     1312000   1.311999e-05   4.224090e+01   1.359397e+01   2.426640e+01   2.412564e+06   2.618025e+05  -4.392761e+06  -2.914299e+08   4.494779e+11   2.662775e+10   5.018501e+06   4.550936e-19   0.000000e+00   0.000000e+00
     1320000   1.319999e-05   4.243392e+01   1.361635e+01   2.391508e+01   2.413083e+06   2.979106e+05  -4.390175e+06   1.251394e+10   4.524812e+11   3.758258e+10   5.018501e+06   4.631071e-19   0.000000e+00   0.000000e+00
     1328000   1.327999e-05   4.262702e+01   1.364163e+01   2.356399e+01   2.414457e+06   3.337875e+05  -4.386837e+06   2.113898e+10   4.434335e+11   4.537432e+10   5.018501e+06   4.470155e-19   0.000000e+00   0.000000e+00
     1336000   1.335999e-05   4.282025e+01   1.366973e+01   2.321319e+01   2.416345e+06   3.686571e+05  -4.383004e+06   2.584779e+10   4.260937e+11   5.008844e+10   5.018501e+06   4.146805e-19   0.000000e+00   0.000000e+00
     1344000   1.343999e-05   4.301364e+01   1.370056e+01   2.286272e+01   2.418507e+06   4.016870e+05  -4.378907e+06   2.706763e+10   3.990431e+11   5.155443e+10   5.018501e+06   3.650588e-19   0.000000e+00   0.000000e+00
     1352000   1.351999e-05   4.320721e+01   1.373394e+01   2.251257e+01   2.420651e+06   4.321995e+05  -4.374815e+06   2.619612e+10   3.617674e+11   5.023436e+10   5.018501e+06   3.009938e-19   0.000000e+00   0.000000e+00
     1360000   1.359999e-05   4.340094e+01   1.376962e+01   2.216274e+01   2.422622e+06   4.593674e+05  -4.370954e+06   2.288027e+10   3.156403e+11   4.585363e+10   5.018501e+06   2.295437e-19   0.000000e+00   0.000000e+00
     1368000   1.367999e-05   4.359482e+01   1.380733e+01   2.181320e+01   2.424225e+06   4.824913e+05  -4.367572e+06   1.690660e+10   2.620330e+11   3.833099e+10   5.018501e+06   1.580742e-19   0.000000e+00   0.000000e+00
     1376000   1.375999e-05   4.378880e+01   1.384670e+01   2.146391e+01   2.425298e+06   5.010492e+05  -4.364886e+06   9.670137e+09   2.006589e+11   2.840682e+10   5.018501e+06   9.241053e-20   0.000000e+00   0.000000e+00
     1384000   1.383999e-05   4.398285e+01   1.388736e+01   2.111480e+01   2.425755e+06   5.144141e+05  -4.363077e+06   1.099685e+09   1.325550e+11   1.623981e+10   5.018501e+06   4.004175e-20   0.000000e+00   0.000000e+00
     1392000   1.391999e-05   4.417690e+01   1.392886e+01   2.076579e+01   2.425469e+06   5.220601e+05  -4.362328e+06  -8.526966e+09   5.823496e+10   2.228219e+09   5.018501e+06   7.789401e-21   0.000000e+00   0.000000e+00
     1400000   1.399999e-05   4.437090e+01   1.397072e+01   2.041680e+01   2.424403e+06   5.235648e+05  -4.362740e+06  -1.828303e+10  -2.073450e+10  -1.264831e+10   5.018501e+06   2.073379e-21   0.000000e+00   0.000000e+00
     1408000   1.407999e-05   4.456478e+01   1.401245e+01   2.006772e+01   2.422547e+06   5.185768e+05  -4.364367e+06  -2.807816e+10  -1.037521e+11  -2.791338e+10   5.018501e+06   2.767702e-20   0.000000e+00   0.000000e+00
     1416000   1.415999e-05   4.475866e+01   1.405401e+01   1.971862e+01   2.427419e+06   5.288842e+05  -4.360421e+06   1.456074e+11   3.788378e+11   1.270083e+11   5.018501e+06   4.059441e-19   0.000000e+00   0.000000e+00
     1424000   1.423999e-05   4.495332e+01   1.409761e+01   1.937021e+01   2.439200e+06   5.621037e+05  -4.349678e+06   1.482063e+11   4.514707e+11   1.414532e+11   5.018501e+06   5.517352e-19   0.000000e+00   0.000000e+00
     1432000   1.431999e-05   4.514893e+01   1.414410e+01   1.902270e+01   2.451042e+06   6.010509e+05  -4.337798e+06   1.467955e+11   5.215107e+11   1.552062e+11   5.018501e+06   7.129310e-19   0.000000e+00   0.000000e+00
     1440000   1.439999e-05   4.534548e+01   1.419392e+01   1.867619e+01   2.462556e+06   6.454167e+05  -4.324883e+06   1.400340e+11   5.863862e+11   1.672418e+11   5.018501e+06   8.786302e-19   0.000000e+00   0.000000e+00
     1448000   1.447999e-05   4.554292e+01   1.424749e+01   1.833074e+01   2.473299e+06   6.946961e+05  -4.311095e+06   1.275469e+11   6.440352e+11   1.769540e+11   5.018501e+06   1.037859e-18   0.000000e+00   0.000000e+00
     1456000   1.455999e-05   4.574117e+01   1.430518e+01   1.798643e+01   2.482784e+06   7.481983e+05  -4.296666e+06   1.085829e+11   6.917343e+11   1.831972e+11   5.018501e+06   1.175882e-18   0.000000e+00   0.000000e+00
     1464000   1.463999e-05   4.594012e+01   1.436729e+01   1.764328e+01   2.490530e+06   8.050725e+05  -4.281877e+06   8.414291e+10   7.282102e+11   1.858570e+11   5.018501e+06   1.283779e-18   0.000000e+00   0.000000e+00
     1472000   1.471999e-05   4.613960e+01   1.443406e+01   1.730133e+01   2.496108e+06   8.643805e+05  -4.267042e+06   5.466656e+10   7.525040e+11   1.844129e+11   5.018501e+06   1.354146e-18   0.000000e+00   0.000000e+00
     1480000   1.479999e-05   4.633943e+01   1.450563e+01   1.696055e+01   2.499188e+06   9.251323e+05  -4.252475e+06   2.181734e+10   7.644254e+11   1.791225e+11   5.018501e+06   1.384788e-18   0.000000e+00   0.000000e+00
     1488000   1.487999e-05   4.653940e+01   1.458209e+01   1.662092e+01   2.499557e+06   9.863962e+05  -4.238466e+06  -1.284859e+10   7.655776e+11   1.705902e+11   5.018501e+06   1.381354e-18   0.000000e+00   0.000000e+00
     1496000   1.495999e-05   4.673929e+01   1.466345e+01   1.628237e+01   2.497130e+06   1.047353e+06  -4.225251e+06  -4.776253e+10   7.569788e+11   1.594104e+11   5.018502e+06   1.348437e-18   0.000000e+00   0.000000e+00
     1504000   1.503999e-05   4.693887e+01   1.474964e+01   1.594485e+01   2.491949e+06   1.107341e+06  -4.212997e+06  -8.147023e+10   7.414624e+11   1.466951e+11   5.018502e+06   1.297290e-18   0.000000e+00   0.000000e+00
     1512000   1.511999e-05   4.713793e+01   1.484058e+01   1.560827e+01   2.484145e+06   1.165854e+06  -4.201805e+06  -1.132640e+11   7.207659e+11   1.330233e+11   5.018502e+06   1.234672e-18   0.000000e+00   0.000000e+00
     1520000   1.519999e-05   4.733626e+01   1.493613e+01   1.527253e+01   2.473910e+06   1.222573e+06  -4.191711e+06  -1.421055e+11   6.967648e+11   1.193509e+11   5.018502e+06   1.167088e-18   0.000000e+00   0.000000e+00
     1528000   1.527999e-05   4.753369e+01   1.503614e+01   1.493756e+01   2.461484e+06   1.277284e+06  -4.182703e+06  -1.680978e+11   6.709198e+11   1.059554e+11   5.018502e+06   1.099066e-18   0.000000e+00   0.000000e+00
     1536000   1.535999e-05   4.773005e+01   1.514044e+01   1.460327e+01   2.447104e+06   1.329903e+06  -4.174733e+06  -1.910037e+11   6.445799e+11   9.337553e+10   5.018502e+06   1.034121e-18   0.000000e+00   0.000000e+00
     1544000   1.543999e-05   4.792519e+01   1.524887e+01   1.426958e+01   2.431008e+06   1.380419e+06  -4.167734e+06  -2.108953e+11   6.185418e+11   8.185604e+10   5.018502e+06   9.737069e-19   0.000000e+00   0.000000e+00
     1552000   1.551999e-05   4.811897e+01   1.536125e+01   1.393641e+01   2.413419e+06   1.428872e+06  -4.161621e+06  -2.282916e+11   5.931602e+11   7.126617e+10   5.018502e+06   9.181798e-19   0.000000e+00   0.000000e+00
     1560000   1.559999e-05   4.831130e+01   1.547744e+01   1.360370e+01   2.394526e+06   1.475337e+06  -4.156319e+06  -2.435317e+11   5.686722e+11   6.155366e+10   5.018502e+06   8.675600e-19   0.000000e+00   0.000000e+00
     1568000   1.567999e-05   4.850207e+01   1.559726e+01   1.327138e+01   2.374508e+06   1.519895e+06  -4.151746e+06  -2.568409e+11   5.453888e+11   5.276324e+10   5.018502e+06   8.220261e-19   0.000000e+00   0.000000e+00
     1576000   1.575999e-05   4.869119e+01   1.572057e+01   1.293940e+01   2.353488e+06   1.562618e+06  -4.147853e+06  -2.684683e+11   5.229431e+11   4.467847e+10   5.018502e+06   7.801406e-19   0.000000e+00   0.000000e+00
     1584000   1.583999e-05   4.887860e+01   1.584723e+01   1.260771e+01   2.331583e+06   1.603579e+06  -4.144589e+06  -2.789057e+11   5.012274e+11   3.702719e+10   5.018502e+06   7.416374e-19   0.000000e+00   0.000000e+00
     1592000   1.591999e-05   4.906422e+01   1.597710e+01   1.227625e+01   2.308890e+06   1.642851e+06  -4.141911e+06  -2.881375e+11   4.806168e+11   3.001051e+10   5.018502e+06   7.069068e-19   0.000000e+00   0.000000e+00
     1600000   1.599999e-05   4.924800e+01   1.611004e+01   1.194499e+01   2.285499e+06   1.680502e+06  -4.139779e+06  -2.963446e+11   4.610062e+11   2.353359e+10   5.018502e+06   6.754448e-19   0.000000e+00   0.000000e+00
     1608000   1.607999e-05   4.942989e+01   1.624594e+01   1.161387e+01   2.261489e+06   1.716605e+06  -4.138151e+06  -3.037765e+11   4.417974e+11   1.725450e+10   5.018502e+06   6.459536e-19   0.000000e+00   0.000000e+00
     1616000   1.615999e-05   4.960983e+01   1.638466e+01   1.128287e+01   2.236916e+06   1.751161e+06  -4.137029e+06  -3.105333e+11   4.223089e+11   1.085118e+10   5.018502e+06   6.170655e-19   0.000000e+00   0.000000e+00
     1624000   1.623999e-05   4.978778e+01   1.652608e+01   1.095194e+01   2.211821e+06   1.784146e+06  -4.136428e+06  -3.167384e+11   4.024308e+11   4.212290e+09   5.018502e+06   5.887772e-19   0.000000e+00   0.000000e+00
     1632000   1.631999e-05   4.996416e+01   1.666953e+01   1.062103e+01   2.202829e+06   1.795484e+06  -4.136320e+06   0.000000e+00   0.000000e+00   0.000000e+00   5.018502e+06   0.000000e+00   0.000000e+00   0.000000e+00
