     timestep     time              x             y              z              vx             vy             vz             ax             ay             az         v_magnitude      ELoss        Electronic      Nuclear
           0   0.000000e+00   1.000000e-01   1.261303e+01   1.845063e+01   1.148507e+06   2.862460e+05   1.322180e+06   0.000000e+00   0.000000e+00   0.000000e+00   1.774589e+06   0.000000e+00   0.000000e+00   0.000000e+00
        8000   7.999000e-08   1.912337e-01   1.263809e+01   1.855646e+01   1.131528e+06   3.412105e+05   1.323778e+06  -2.433332e+11   7.224108e+11   2.179356e+10   1.774589e+06   1.631485e-19   0.000000e+00   0.000000e+00
       16000   1.599900e-07   2.809032e-01   1.266778e+01   1.866244e+01   1.109267e+06   4.019633e+05   1.325563e+06  -3.142004e+11   7.965639e+11   2.138717e+10   1.774589e+06   2.058264e-19   0.000000e+00   0.000000e+00
       24000   2.399900e-07   3.685577e-01   1.270256e+01   1.876854e+01   1.081056e+06   4.686121e+05   1.326985e+06  -3.921643e+11   8.700606e+11   1.223798e+10   1.774589e+06   2.555530e-19   0.000000e+00   0.000000e+00
       32000   3.199900e-07   4.537018e-01   1.274291e+01   1.887472e+01   1.046473e+06   5.409113e+05   1.327207e+06  -4.729428e+11   9.370009e+11  -8.967516e+09   1.774590e+06   3.090740e-19   0.000000e+00   0.000000e+00
       40000   3.999900e-07   5.358236e-01   1.278924e+01   1.898084e+01   1.005565e+06   6.180798e+05   1.325136e+06  -5.491483e+11   9.907158e+11  -4.537231e+10   1.774590e+06   3.605301e-19   0.000000e+00   0.000000e+00
       48000   4.799900e-07   6.144394e-01   1.284190e+01   1.908665e+01   9.589707e+05   6.989260e+05   1.319488e+06  -6.114311e+11   1.024206e+12  -9.813286e+10   1.774590e+06   4.018654e-19   0.000000e+00   0.000000e+00
       56000   5.599900e-07   6.891469e-01   1.290111e+01   1.919183e+01   9.080406e+05   7.817563e+05   1.309004e+06  -6.615234e+11   1.048579e+12  -1.673239e+11   1.774590e+06   4.390807e-19   0.000000e+00   0.000000e+00
       64000   6.399900e-07   7.596727e-01   1.296696e+01   1.929594e+01   8.548834e+05   8.644495e+05   1.292700e+06  -6.734500e+11   1.031089e+12  -2.441306e+11   1.774591e+06   4.422123e-19   0.000000e+00   0.000000e+00
       72000   7.199900e-07   8.259317e-01   1.303937e+01   1.939849e+01   8.018216e+05   9.450754e+05   1.270074e+06  -6.541383e+11   9.885950e+11  -3.226422e+11   1.774591e+06   4.234288e-19   0.000000e+00   0.000000e+00
       80000   7.999900e-07   8.880279e-01   1.311808e+01   1.949898e+01   7.511127e+05   1.022056e+06   1.241131e+06  -6.129619e+11   9.398804e+11  -4.030138e+11   1.774592e+06   3.987996e-19   0.000000e+00   0.000000e+00
       88000   8.799900e-07   9.462341e-01   1.320274e+01   1.959693e+01   7.048900e+05   1.093714e+06   1.206688e+06  -5.453018e+11   8.637432e+11  -4.643264e+11   1.774592e+06   3.532097e-19   0.000000e+00   0.000000e+00
       96000   9.599900e-07   1.000966e+00   1.329291e+01   1.969193e+01   6.645327e+05   1.159526e+06   1.167507e+06  -4.665875e+11   7.823417e+11  -5.114074e+11   1.774592e+06   3.061616e-19   0.000000e+00   0.000000e+00
      104000   1.039990e-06   1.052725e+00   1.338809e+01   1.978365e+01   6.306198e+05   1.218968e+06   1.124995e+06  -3.797678e+11   7.037953e+11  -5.496959e+11   1.774592e+06   2.641975e-19   0.000000e+00   0.000000e+00
      112000   1.119990e-06   1.102208e+00   1.348743e+01   1.987218e+01   6.108578e+05   1.256245e+06   1.094476e+06  -9.777694e+10   1.866833e+11  -1.597034e+11   1.774592e+06   1.963003e-20   0.000000e+00   0.000000e+00
      120000   1.199990e-06   1.151047e+00   1.358793e+01   1.995974e+01   6.129343e+05   1.249421e+06   1.101108e+06   1.253386e+11  -3.443541e+11   3.209688e+11   1.774592e+06   6.655092e-20   0.000000e+00   0.000000e+00
      128000   1.279990e-06   1.200638e+00   1.368634e+01   2.004924e+01   6.273180e+05   1.208618e+06   1.137934e+06   1.771429e+11  -5.374149e+11   4.731465e+11   1.774593e+06   1.526367e-19   0.000000e+00   0.000000e+00
      136000   1.359990e-06   1.251339e+00   1.378135e+01   2.014174e+01   6.396067e+05   1.167106e+06   1.173859e+06   1.312767e+11  -4.992286e+11   4.248310e+11   1.774593e+06   1.253907e-19   0.000000e+00   0.000000e+00
      144000   1.439990e-06   1.302880e+00   1.387317e+01   2.023696e+01   6.484543e+05   1.128830e+06   1.205997e+06   9.448812e+10  -4.604838e+11   3.802171e+11   1.774593e+06   1.025522e-19   0.000000e+00   0.000000e+00
      152000   1.519990e-06   1.355021e+00   1.396204e+01   2.033461e+01   6.546159e+05   1.093627e+06   1.234763e+06   6.093231e+10  -4.198246e+11   3.395366e+11   1.774593e+06   8.283308e-20   0.000000e+00   0.000000e+00
      160000   1.599990e-06   1.407551e+00   1.404824e+01   2.043443e+01   6.582924e+05   1.061695e+06   1.260411e+06   3.412190e+10  -3.815612e+11   3.035849e+11   1.774593e+06   6.702853e-20   0.000000e+00   0.000000e+00
      168000   1.679990e-06   1.460296e+00   1.413199e+01   2.053620e+01   6.600073e+05   1.032721e+06   1.283377e+06   9.904393e+09  -3.433287e+11   2.711811e+11   1.774593e+06   5.372905e-20   0.000000e+00   0.000000e+00
      176000   1.759990e-06   1.513105e+00   1.421355e+01   2.063971e+01   6.599583e+05   1.006717e+06   1.303900e+06  -9.262815e+09  -3.091389e+11   2.433698e+11   1.774593e+06   4.345225e-20   0.000000e+00   0.000000e+00
      184000   1.839990e-06   1.565852e+00   1.429314e+01   2.074477e+01   6.584841e+05   9.833485e+05   1.322348e+06  -2.696572e+10  -2.756273e+11   2.183959e+11   1.774593e+06   3.489906e-20   0.000000e+00   0.000000e+00
      192000   1.919990e-06   1.618428e+00   1.437096e+01   2.085123e+01   6.557504e+05   9.625198e+05   1.338928e+06  -4.067253e+10  -2.464436e+11   1.970823e+11   1.774593e+06   2.840024e-20   0.000000e+00   0.000000e+00
      200000   1.999990e-06   1.670744e+00   1.444720e+01   2.095896e+01   6.519728e+05   9.439477e+05   1.353911e+06  -5.331483e+10  -2.182519e+11   1.778397e+11   1.774593e+06   2.303420e-20   0.000000e+00   0.000000e+00
      208000   2.079990e-06   1.722719e+00   1.452205e+01   2.106782e+01   6.472769e+05   9.274835e+05   1.367475e+06  -6.375439e+10  -1.937647e+11   1.615978e+11   1.774593e+06   1.899981e-20   0.000000e+00   0.000000e+00
      216000   2.159990e-06   1.774286e+00   1.459565e+01   2.117772e+01   6.417820e+05   9.129324e+05   1.379801e+06  -7.345543e+10  -1.700564e+11   1.466827e+11   1.774593e+06   1.566334e-20   0.000000e+00   0.000000e+00
      224000   2.239990e-06   1.825385e+00   1.466816e+01   2.128856e+01   6.355684e+05   9.001378e+05   1.391038e+06  -8.193856e+10  -1.495952e+11   1.342411e+11   1.774593e+06   1.321764e-20   0.000000e+00   0.000000e+00
      232000   2.319990e-06   1.875959e+00   1.473972e+01   2.140026e+01   6.286970e+05   8.889638e+05   1.401308e+06  -8.992658e+10  -1.302841e+11   1.229957e+11   1.774593e+06   1.127490e-20   0.000000e+00   0.000000e+00
      240000   2.399990e-06   1.925960e+00   1.481044e+01   2.151275e+01   6.212283e+05   8.792508e+05   1.410735e+06  -9.680084e+10  -1.128128e+11   1.129386e+11   1.774593e+06   9.777753e-21   0.000000e+00   0.000000e+00
      248000   2.479990e-06   1.975342e+00   1.488043e+01   2.162596e+01   6.132335e+05   8.708787e+05   1.419400e+06  -1.033603e+11  -9.664514e+10   1.039527e+11   1.774593e+06   8.649234e-21   0.000000e+00   0.000000e+00
      256000   2.559990e-06   2.024064e+00   1.494981e+01   2.173983e+01   6.047353e+05   8.637438e+05   1.427383e+06  -1.090222e+11  -8.210058e+10   9.587033e+10   1.774593e+06   7.804106e-21   0.000000e+00   0.000000e+00
      264000   2.639990e-06   2.072088e+00   1.501866e+01   2.185432e+01   5.957886e+05   8.577327e+05   1.434751e+06  -1.145790e+11  -6.842993e+10   8.848898e+10   1.774593e+06   7.193572e-21   0.000000e+00   0.000000e+00
      272000   2.719990e-06   2.119378e+00   1.508707e+01   2.196938e+01   5.864108e+05   8.527524e+05   1.441567e+06  -1.200900e+11  -5.611417e+10   8.204529e+10   1.774593e+06   6.817767e-21   0.000000e+00   0.000000e+00
      280000   2.799990e-06   2.165902e+00   1.515513e+01   2.208496e+01   5.766173e+05   8.487191e+05   1.447884e+06  -1.249186e+11  -4.464759e+10   7.592023e+10   1.774593e+06   6.554071e-21   0.000000e+00   0.000000e+00
      288000   2.879990e-06   2.211627e+00   1.522289e+01   2.220103e+01   5.664440e+05   8.455521e+05   1.453741e+06  -1.296850e+11  -3.436431e+10   7.051898e+10   1.774593e+06   6.444672e-21   0.000000e+00   0.000000e+00
      296000   2.959990e-06   2.256523e+00   1.529044e+01   2.231755e+01   5.558840e+05   8.431910e+05   1.459179e+06  -1.343841e+11  -2.471772e+10   6.547791e+10   1.774593e+06   6.440556e-21   0.000000e+00   0.000000e+00
      304000   3.039990e-06   2.300559e+00   1.535782e+01   2.243449e+01   5.449500e+05   8.415798e+05   1.464225e+06  -1.387402e+11  -1.605535e+10   6.086401e+10   1.774593e+06   6.511706e-21   0.000000e+00   0.000000e+00
      312000   3.119990e-06   2.343706e+00   1.542511e+01   2.255181e+01   5.336769e+05   8.406255e+05   1.468918e+06  -1.430741e+11  -7.856036e+09   5.647667e+10   1.774593e+06   6.654910e-21   0.000000e+00   0.000000e+00
      320000   3.199990e-06   2.385938e+00   1.549234e+01   2.266950e+01   5.220564e+05   8.403059e+05   1.473270e+06  -1.475181e+11  -1.303665e+08   5.234788e+10   1.774593e+06   6.873825e-21   0.000000e+00   0.000000e+00
      328000   3.279990e-06   2.427226e+00   1.555957e+01   2.278753e+01   5.101001e+05   8.405597e+05   1.477308e+06  -1.514819e+11   6.585600e+09   4.855832e+10   1.774593e+06   7.111202e-21   0.000000e+00   0.000000e+00
      336000   3.359990e-06   2.467545e+00   1.562684e+01   2.290586e+01   4.978343e+05   8.413336e+05   1.481047e+06  -1.550746e+11   1.266096e+10   4.493417e+10   1.774593e+06   7.357927e-21   0.000000e+00   0.000000e+00
      344000   3.439990e-06   2.506872e+00   1.569420e+01   2.302449e+01   4.852716e+05   8.425761e+05   1.484506e+06  -1.589694e+11   1.829243e+10   4.158344e+10   1.774593e+06   7.668644e-21   0.000000e+00   0.000000e+00
      352000   3.519990e-06   2.545180e+00   1.576167e+01   2.314338e+01   4.723942e+05   8.442623e+05   1.487698e+06  -1.627704e+11   2.354194e+10   3.832532e+10   1.774593e+06   8.000297e-21   0.000000e+00   0.000000e+00
      360000   3.599990e-06   2.582447e+00   1.582929e+01   2.326251e+01   4.592103e+05   8.463451e+05   1.490640e+06  -1.663594e+11   2.819233e+10   3.524247e+10   1.774593e+06   8.335573e-21   0.000000e+00   0.000000e+00
      368000   3.679990e-06   2.618647e+00   1.589709e+01   2.338187e+01   4.457366e+05   8.487860e+05   1.493339e+06  -1.704981e+11   3.271763e+10   3.229493e+10   1.774593e+06   8.748152e-21   0.000000e+00   0.000000e+00
      376000   3.759990e-06   2.653757e+00   1.596510e+01   2.350144e+01   4.319817e+05   8.515587e+05   1.495801e+06  -1.734438e+11   3.654464e+10   2.928529e+10   1.774593e+06   9.054759e-21   0.000000e+00   0.000000e+00
      384000   3.839990e-06   2.687757e+00   1.603335e+01   2.362120e+01   4.179682e+05   8.546294e+05   1.498029e+06  -1.766528e+11   3.994406e+10   2.650028e+10   1.774593e+06   9.399303e-21   0.000000e+00   0.000000e+00
      392000   3.919990e-06   2.720626e+00   1.610185e+01   2.374112e+01   4.036921e+05   8.579559e+05   1.500042e+06  -1.802903e+11   4.318246e+10   2.382164e+10   1.774593e+06   9.801259e-21   0.000000e+00   0.000000e+00
      400000   3.999990e-06   2.752340e+00   1.617063e+01   2.386120e+01   3.891227e+05   8.615311e+05   1.501842e+06  -1.843154e+11   4.634058e+10   2.117255e+10   1.774593e+06   1.025883e-20   0.000000e+00   0.000000e+00
      408000   4.079990e-06   2.782877e+00   1.623970e+01   2.398141e+01   3.742566e+05   8.653328e+05   1.503433e+06  -1.876017e+11   4.879484e+10   1.861590e+10   1.774593e+06   1.063869e-20   0.000000e+00   0.000000e+00
      416000   4.159990e-06   2.812216e+00   1.630909e+01   2.410174e+01   3.591676e+05   8.693074e+05   1.504820e+06  -1.902516e+11   5.075804e+10   1.608714e+10   1.774593e+06   1.094982e-20   0.000000e+00   0.000000e+00
      424000   4.239990e-06   2.840337e+00   1.637880e+01   2.422218e+01   3.438419e+05   8.734398e+05   1.506007e+06  -1.931366e+11   5.251907e+10   1.363647e+10   1.774593e+06   1.129071e-20   0.000000e+00   0.000000e+00
      432000   4.319990e-06   2.867223e+00   1.644884e+01   2.434270e+01   3.282510e+05   8.777173e+05   1.506999e+06  -1.965274e+11   5.431784e+10   1.117124e+10   1.774593e+06   1.169814e-20   0.000000e+00   0.000000e+00
      440000   4.399990e-06   2.892851e+00   1.651923e+01   2.446329e+01   3.123926e+05   8.821293e+05   1.507793e+06  -1.999725e+11   5.591986e+10   8.715929e+09   1.774593e+06   1.211720e-20   0.000000e+00   0.000000e+00
      448000   4.479990e-06   2.917199e+00   1.658998e+01   2.458394e+01   2.962858e+05   8.866485e+05   1.508393e+06  -2.028462e+11   5.713297e+10   6.260983e+09   1.774593e+06   1.247011e-20   0.000000e+00   0.000000e+00
      456000   4.559990e-06   2.940250e+00   1.666110e+01   2.470463e+01   2.799577e+05   8.912525e+05   1.508799e+06  -2.053881e+11   5.795066e+10   3.878423e+09   1.774593e+06   1.278086e-20   0.000000e+00   0.000000e+00
      464000   4.639990e-06   2.961987e+00   1.673259e+01   2.482534e+01   2.634257e+05   8.959190e+05   1.509012e+06  -2.076438e+11   5.852509e+10   1.501276e+09   1.774593e+06   1.305744e-20   0.000000e+00   0.000000e+00
      472000   4.719990e-06   2.982394e+00   1.680445e+01   2.494606e+01   2.467123e+05   9.006252e+05   1.509036e+06  -2.107739e+11   5.933224e+10  -9.510047e+08   1.774593e+06   1.345116e-20   0.000000e+00   0.000000e+00
      480000   4.799990e-06   3.001455e+00   1.687669e+01   2.506678e+01   2.297590e+05   9.053840e+05   1.508865e+06  -2.137566e+11   5.987484e+10  -3.377856e+09   1.774593e+06   1.382746e-20   0.000000e+00   0.000000e+00
      488000   4.879990e-06   3.019149e+00   1.694931e+01   2.518748e+01   2.125859e+05   9.101813e+05   1.508496e+06  -2.155576e+11   6.010941e+10  -5.890277e+09   1.774593e+06   1.405883e-20   0.000000e+00   0.000000e+00
      496000   4.959990e-06   3.035463e+00   1.702232e+01   2.530814e+01   1.952409e+05   9.150010e+05   1.507924e+06  -2.178355e+11   6.031803e+10  -8.395741e+09   1.774593e+06   1.435287e-20   0.000000e+00   0.000000e+00
      504000   5.039990e-06   3.050383e+00   1.709571e+01   2.542874e+01   1.777100e+05   9.198388e+05   1.507149e+06  -2.200251e+11   6.046257e+10  -1.095753e+10   1.774593e+06   1.464066e-20   0.000000e+00   0.000000e+00
      512000   5.119990e-06   3.063893e+00   1.716949e+01   2.554927e+01   1.600356e+05   9.246834e+05   1.506164e+06  -2.217853e+11   6.057129e+10  -1.362081e+10   1.774593e+06   1.488089e-20   0.000000e+00   0.000000e+00
      520000   5.199990e-06   3.075985e+00   1.724366e+01   2.566972e+01   1.422332e+05   9.295280e+05   1.504968e+06  -2.230993e+11   6.057364e+10  -1.632741e+10   1.774593e+06   1.506772e-20   0.000000e+00   0.000000e+00
      528000   5.279990e-06   3.086647e+00   1.731822e+01   2.579006e+01   1.242935e+05   9.343810e+05   1.503551e+06  -2.247401e+11   6.064625e+10  -1.910971e+10   1.774593e+06   1.530399e-20   0.000000e+00   0.000000e+00
      536000   5.359990e-06   3.095870e+00   1.739316e+01   2.591028e+01   1.062702e+05   9.392279e+05   1.501912e+06  -2.259729e+11   6.070311e+10  -2.197154e+10   1.774593e+06   1.549480e-20   0.000000e+00   0.000000e+00
      544000   5.439990e-06   3.103647e+00   1.746849e+01   2.603036e+01   8.812153e+04   9.440874e+05   1.500038e+06  -2.276312e+11   6.088328e+10  -2.494561e+10   1.774593e+06   1.575112e-20   0.000000e+00   0.000000e+00
      552000   5.519990e-06   3.109966e+00   1.754422e+01   2.615028e+01   6.984852e+04   9.489738e+05   1.497916e+06  -2.292171e+11   6.127854e+10  -2.813288e+10   1.774593e+06   1.601538e-20   0.000000e+00   0.000000e+00
      560000   5.599990e-06   3.114819e+00   1.762033e+01   2.627002e+01   5.145467e+04   9.538929e+05   1.495534e+06  -2.305772e+11   6.171292e+10  -3.142868e+10   1.774593e+06   1.626087e-20   0.000000e+00   0.000000e+00
      568000   5.679990e-06   3.118196e+00   1.769684e+01   2.638956e+01   3.295675e+04   9.588543e+05   1.492881e+06  -2.319437e+11   6.236305e+10  -3.493404e+10   1.774593e+06   1.652608e-20   0.000000e+00   0.000000e+00
      576000   5.759990e-06   3.120091e+00   1.777375e+01   2.650888e+01   1.439463e+04   9.638642e+05   1.489946e+06  -2.324013e+11   6.299432e+10  -3.850611e+10   1.774593e+06   1.668150e-20   0.000000e+00   0.000000e+00
      584000   5.839990e-06   3.120498e+00   1.785106e+01   2.662794e+01  -4.209193e+03   9.689421e+05   1.486713e+06  -2.326271e+11   6.396075e+10  -4.234364e+10   1.774593e+06   1.683242e-20   0.000000e+00   0.000000e+00
      592000   5.919990e-06   3.119417e+00   1.792878e+01   2.674674e+01  -2.282794e+04   9.741086e+05   1.483163e+06  -2.328962e+11   6.521544e+10  -4.641624e+10   1.774594e+06   1.701444e-20   0.000000e+00   0.000000e+00
      600000   5.999990e-06   3.116845e+00   1.800692e+01   2.686524e+01  -4.147508e+04   9.793862e+05   1.479278e+06  -2.331746e+11   6.674758e+10  -5.072877e+10   1.774594e+06   1.722509e-20   0.000000e+00   0.000000e+00
      608000   6.079990e-06   3.112780e+00   1.808549e+01   2.698342e+01  -6.013715e+04   9.847990e+05   1.475038e+06  -2.333520e+11   6.866486e+10  -5.535695e+10   1.774594e+06   1.745889e-20   0.000000e+00   0.000000e+00
      616000   6.159990e-06   3.107223e+00   1.816449e+01   2.710124e+01  -7.879713e+04   9.903672e+05   1.470424e+06  -2.329800e+11   7.066120e+10  -6.007660e+10   1.774594e+06   1.764111e-20   0.000000e+00   0.000000e+00
      624000   6.239990e-06   3.100174e+00   1.824395e+01   2.721867e+01  -9.742034e+04   9.961139e+05   1.465418e+06  -2.325127e+11   7.309063e+10  -6.514009e+10   1.774594e+06   1.785592e-20   0.000000e+00   0.000000e+00
      632000   6.319990e-06   3.091637e+00   1.832388e+01   2.733569e+01  -1.159948e+05   1.002086e+06   1.459984e+06  -2.320008e+11   7.611807e+10  -7.067687e+10   1.774594e+06   1.812691e-20   0.000000e+00   0.000000e+00
      640000   6.399990e-06   3.081616e+00   1.840429e+01   2.745226e+01  -1.345204e+05   1.008310e+06   1.454097e+06  -2.310941e+11   7.963117e+10  -7.659674e+10   1.774594e+06   1.840719e-20   0.000000e+00   0.000000e+00
      648000   6.479990e-06   3.070116e+00   1.848521e+01   2.756834e+01  -1.529794e+05   1.014825e+06   1.447726e+06  -2.303775e+11   8.334686e+10  -8.276763e+10   1.774594e+06   1.876019e-20   0.000000e+00   0.000000e+00
      656000   6.559990e-06   3.057142e+00   1.856667e+01   2.768388e+01  -1.713371e+05   1.021655e+06   1.440849e+06  -2.287806e+11   8.762632e+10  -8.933747e+10   1.774594e+06   1.907697e-20   0.000000e+00   0.000000e+00
      664000   6.639990e-06   3.042706e+00   1.864869e+01   2.779886e+01  -1.895433e+05   1.028846e+06   1.433434e+06  -2.267861e+11   9.240047e+10  -9.630786e+10   1.774594e+06   1.942620e-20   0.000000e+00   0.000000e+00
      672000   6.719990e-06   3.026821e+00   1.873130e+01   2.791322e+01  -2.075677e+05   1.036436e+06   1.425446e+06  -2.241715e+11   9.752147e+10  -1.035499e+11   1.774594e+06   1.977433e-20   0.000000e+00   0.000000e+00
      680000   6.799990e-06   3.009500e+00   1.881453e+01   2.802691e+01  -2.254020e+05   1.044466e+06   1.416851e+06  -2.216245e+11   1.032380e+11  -1.113614e+11   1.774594e+06   2.024872e-20   0.000000e+00   0.000000e+00
      688000   6.879990e-06   2.990762e+00   1.889842e+01   2.813990e+01  -2.430220e+05   1.052979e+06   1.407607e+06  -2.189855e+11   1.096684e+11  -1.198461e+11   1.774594e+06   2.085692e-20   0.000000e+00   0.000000e+00
      696000   6.959990e-06   2.970624e+00   1.898302e+01   2.825211e+01  -2.603764e+05   1.062021e+06   1.397676e+06  -2.150558e+11   1.163589e+11  -1.284778e+11   1.774594e+06   2.140399e-20   0.000000e+00   0.000000e+00
      704000   7.039990e-06   2.949110e+00   1.906836e+01   2.836350e+01  -2.774280e+05   1.071617e+06   1.387031e+06  -2.111110e+11   1.236056e+11  -1.377223e+11   1.774594e+06   2.211060e-20   0.000000e+00   0.000000e+00
      712000   7.119990e-06   2.926245e+00   1.915450e+01   2.847402e+01  -2.941445e+05   1.081806e+06   1.375630e+06  -2.067303e+11   1.312550e+11  -1.474236e+11   1.774594e+06   2.292004e-20   0.000000e+00   0.000000e+00
      720000   7.199990e-06   2.902057e+00   1.924147e+01   2.858358e+01  -3.104817e+05   1.092623e+06   1.363436e+06  -2.015928e+11   1.392743e+11  -1.575170e+11   1.774594e+06   2.380365e-20   0.000000e+00   0.000000e+00
      728000   7.279990e-06   2.876579e+00   1.932933e+01   2.869214e+01  -3.263807e+05   1.104133e+06   1.350389e+06  -1.956885e+11   1.484357e+11  -1.686631e+11   1.774594e+06   2.490496e-20   0.000000e+00   0.000000e+00
      736000   7.359990e-06   2.849849e+00   1.941815e+01   2.879962e+01  -3.417869e+05   1.116344e+06   1.336466e+06  -1.891206e+11   1.572509e+11  -1.797159e+11   1.774594e+06   2.603214e-20   0.000000e+00   0.000000e+00
      744000   7.439990e-06   2.821908e+00   1.950797e+01   2.890595e+01  -3.566252e+05   1.129273e+06   1.321645e+06  -1.816456e+11   1.662142e+11  -1.910344e+11   1.774594e+06   2.724528e-20   0.000000e+00   0.000000e+00
      752000   7.519990e-06   2.792806e+00   1.959885e+01   2.901106e+01  -3.708226e+05   1.142956e+06   1.305881e+06  -1.730939e+11   1.758595e+11  -2.030703e+11   1.774594e+06   2.865054e-20   0.000000e+00   0.000000e+00
      760000   7.599990e-06   2.762595e+00   1.969086e+01   2.911487e+01  -3.843162e+05   1.157422e+06   1.289131e+06  -1.638686e+11   1.856439e+11  -2.155285e+11   1.774594e+06   3.023376e-20   0.000000e+00   0.000000e+00
      768000   7.679990e-06   2.731336e+00   1.978406e+01   2.921730e+01  -3.970243e+05   1.172668e+06   1.271379e+06  -1.537570e+11   1.954138e+11  -2.282559e+11   1.774594e+06   3.196174e-20   0.000000e+00   0.000000e+00
      776000   7.759990e-06   2.699095e+00   1.987851e+01   2.931826e+01  -4.088583e+05   1.188699e+06   1.252602e+06  -1.419156e+11   2.054785e+11  -2.413170e+11   1.774594e+06   3.383204e-20   0.000000e+00   0.000000e+00
      784000   7.839990e-06   2.665946e+00   1.997427e+01   2.941768e+01  -4.196990e+05   1.205542e+06   1.232764e+06  -1.292968e+11   2.151927e+11  -2.544594e+11   1.774594e+06   3.584630e-20   0.000000e+00   0.000000e+00
      792000   7.919990e-06   2.631971e+00   2.007142e+01   2.951548e+01  -4.294855e+05   1.223153e+06   1.211868e+06  -1.155246e+11   2.247608e+11  -2.677946e+11   1.774594e+06   3.803513e-20   0.000000e+00   0.000000e+00
      800000   7.999990e-06   2.597259e+00   2.017000e+01   2.961155e+01  -4.381131e+05   1.241509e+06   1.189915e+06  -9.992636e+10   2.340856e+11  -2.810260e+11   1.774594e+06   4.032985e-20   0.000000e+00   0.000000e+00
      808000   8.079990e-06   2.561908e+00   2.027008e+01   2.970583e+01  -4.454278e+05   1.260619e+06   1.166884e+06  -8.348085e+10   2.430500e+11  -2.944393e+11   1.774594e+06   4.284912e-20   0.000000e+00   0.000000e+00
      816000   8.159990e-06   2.526026e+00   2.037171e+01   2.979823e+01  -4.513677e+05   1.280408e+06   1.142807e+06  -6.497519e+10   2.515908e+11  -3.075452e+11   1.774594e+06   4.547690e-20   0.000000e+00   0.000000e+00
      824000   8.239990e-06   2.489773e+00   2.047470e+01   2.988897e+01  -4.540687e+05   1.290827e+06   1.129943e+06   4.025107e+08  -1.591558e+09   1.979918e+09   1.774594e+06   1.782344e-24   0.000000e+00   0.000000e+00
      832000   8.319990e-06   2.453480e+00   2.057771e+01   2.997967e+01  -4.529407e+05   1.280842e+06   1.141697e+06   2.744049e+10  -2.627783e+11   3.056923e+11   1.774594e+06   4.578755e-20   0.000000e+00   0.000000e+00
      840000   8.399990e-06   2.417335e+00   2.067918e+01   3.007214e+01  -4.508673e+05   1.255308e+06   1.170515e+06   1.752824e+10  -3.337784e+11   3.647113e+11   1.774594e+06   6.865708e-20   0.000000e+00   0.000000e+00
      848000   8.479990e-06   2.381302e+00   2.077852e+01   3.016695e+01  -4.502193e+05   1.227827e+06   1.199553e+06  -1.719011e+09  -3.532222e+11   3.609048e+11   1.774594e+06   7.154431e-20   0.000000e+00   0.000000e+00
      856000   8.559990e-06   2.345260e+00   2.087559e+01   3.026406e+01  -4.510766e+05   1.198822e+06   1.228227e+06  -1.999476e+10  -3.717693e+11   3.555278e+11   1.774594e+06   7.434728e-20   0.000000e+00   0.000000e+00
      864000   8.639990e-06   2.309090e+00   2.097029e+01   3.036345e+01  -4.534121e+05   1.168370e+06   1.256390e+06  -3.840070e+10  -3.892656e+11   3.481384e+11   1.774594e+06   7.692564e-20   0.000000e+00   0.000000e+00
      872000   8.719990e-06   2.272673e+00   2.106250e+01   3.046507e+01  -4.572550e+05   1.136569e+06   1.283867e+06  -5.755211e+10  -4.054937e+11   3.384762e+11   1.774594e+06   7.919834e-20   0.000000e+00   0.000000e+00
      880000   8.799990e-06   2.235890e+00   2.115211e+01   3.056885e+01  -4.625680e+05   1.103520e+06   1.310519e+06  -7.527732e+10  -4.202475e+11   3.273008e+11   1.774594e+06   8.118939e-20   0.000000e+00   0.000000e+00
      888000   8.879990e-06   2.198625e+00   2.123903e+01   3.067472e+01  -4.692695e+05   1.069376e+06   1.336191e+06  -9.276787e+10  -4.322617e+11   3.133683e+11   1.774595e+06   8.238328e-20   0.000000e+00   0.000000e+00
      896000   8.959990e-06   2.160770e+00   2.132318e+01   3.078261e+01  -4.773094e+05   1.034318e+06   1.360716e+06  -1.084025e+11  -4.433857e+11   2.990068e+11   1.774595e+06   8.353113e-20   0.000000e+00   0.000000e+00
      904000   9.039990e-06   2.122224e+00   2.140450e+01   3.089240e+01  -4.865393e+05   9.984637e+05   1.384029e+06  -1.223142e+11  -4.521885e+11   2.832211e+11   1.774595e+06   8.406487e-20   0.000000e+00   0.000000e+00
      912000   9.119990e-06   2.082895e+00   2.148292e+01   3.100402e+01  -4.968397e+05   9.620491e+05   1.405987e+06  -1.348338e+11  -4.584947e+11   2.660812e+11   1.774595e+06   8.393808e-20   0.000000e+00   0.000000e+00
      920000   9.199990e-06   2.042704e+00   2.155842e+01   3.111733e+01  -5.080834e+05   9.252305e+05   1.426529e+06  -1.457290e+11  -4.621445e+11   2.478397e+11   1.774595e+06   8.310835e-20   0.000000e+00   0.000000e+00
      928000   9.279990e-06   2.001582e+00   2.163095e+01   3.123222e+01  -5.201077e+05   8.881933e+05   1.445610e+06  -1.544990e+11  -4.636607e+11   2.292923e+11   1.774595e+06   8.175814e-20   0.000000e+00   0.000000e+00
      936000   9.359990e-06   1.959470e+00   2.170053e+01   3.134858e+01  -5.327692e+05   8.511586e+05   1.463172e+06  -1.613901e+11  -4.625950e+11   2.103381e+11   1.774595e+06   7.975429e-20   0.000000e+00   0.000000e+00
      944000   9.439990e-06   1.916326e+00   2.176714e+01   3.146629e+01  -5.458932e+05   8.142325e+05   1.479261e+06  -1.663145e+11  -4.602676e+11   1.919726e+11   1.774595e+06   7.753163e-20   0.000000e+00   0.000000e+00
      952000   9.519990e-06   1.872119e+00   2.183081e+01   3.158522e+01  -5.593237e+05   7.776092e+05   1.493877e+06  -1.692438e+11  -4.547419e+11   1.733423e+11   1.774595e+06   7.447965e-20   0.000000e+00   0.000000e+00
      960000   9.599990e-06   1.826830e+00   2.189157e+01   3.170527e+01  -5.729166e+05   7.414297e+05   1.507062e+06  -1.704317e+11  -4.494768e+11   1.563405e+11   1.774595e+06   7.168475e-20   0.000000e+00   0.000000e+00
      968000   9.679990e-06   1.780452e+00   2.194945e+01   3.182632e+01  -5.865292e+05   7.057784e+05   1.518897e+06  -1.698743e+11  -4.419574e+11   1.397660e+11   1.774595e+06   6.837423e-20   0.000000e+00   0.000000e+00
      976000   9.759990e-06   1.732988e+00   2.200451e+01   3.194826e+01  -6.000463e+05   6.707680e+05   1.529445e+06  -1.677754e+11  -4.333826e+11   1.242467e+11   1.774595e+06   6.492018e-20   0.000000e+00   0.000000e+00
      984000   9.839990e-06   1.684450e+00   2.205680e+01   3.207100e+01  -6.133482e+05   6.364682e+05   1.538798e+06  -1.645148e+11  -4.237530e+11   1.096977e+11   1.774595e+06   6.134580e-20   0.000000e+00   0.000000e+00
      992000   9.919990e-06   1.634860e+00   2.210637e+01   3.219444e+01  -6.263394e+05   6.029650e+05   1.547036e+06  -1.601913e+11  -4.137447e+11   9.640468e+10   1.774595e+06   5.783181e-20   0.000000e+00   0.000000e+00
     1000000   9.999990e-06   1.584246e+00   2.215329e+01   3.231850e+01  -6.389514e+05   5.702490e+05   1.554267e+06  -1.549582e+11  -4.038413e+11   8.446508e+10   1.774595e+06   5.449176e-20   0.000000e+00   0.000000e+00
     1008000   1.007999e-05   1.532640e+00   2.219763e+01   3.244310e+01  -6.511152e+05   5.383615e+05   1.560578e+06  -1.490754e+11  -3.936267e+11   7.359454e+10   1.774595e+06   5.122268e-20   0.000000e+00   0.000000e+00
     1016000   1.015999e-05   1.480081e+00   2.223945e+01   3.256817e+01  -6.627819e+05   5.073004e+05   1.566064e+06  -1.424704e+11  -3.828312e+11   6.371728e+10   1.774595e+06   4.795035e-20   0.000000e+00   0.000000e+00
     1024000   1.023999e-05   1.426610e+00   2.227882e+01   3.269365e+01  -6.739021e+05   4.771071e+05   1.570800e+06  -1.354235e+11  -3.719708e+11   5.488242e+10   1.774595e+06   4.480724e-20   0.000000e+00   0.000000e+00
     1032000   1.031999e-05   1.372271e+00   2.231581e+01   3.281948e+01  -6.844537e+05   4.477459e+05   1.574876e+06  -1.282509e+11  -3.619172e+11   4.715713e+10   1.774596e+06   4.198554e-20   0.000000e+00   0.000000e+00
     1040000   1.039999e-05   1.317112e+00   2.235048e+01   3.294561e+01  -6.944245e+05   4.191788e+05   1.578370e+06  -1.210087e+11  -3.524987e+11   4.037708e+10   1.774596e+06   3.942487e-20   0.000000e+00   0.000000e+00
     1048000   1.047999e-05   1.261179e+00   2.238290e+01   3.307200e+01  -7.038023e+05   3.913622e+05   1.581356e+06  -1.134001e+11  -3.429503e+11   3.440584e+10   1.774596e+06   3.693632e-20   0.000000e+00   0.000000e+00
     1056000   1.055999e-05   1.204520e+00   2.241312e+01   3.319862e+01  -7.125731e+05   3.642980e+05   1.583893e+06  -1.058395e+11  -3.336554e+11   2.912626e+10   1.774596e+06   3.461283e-20   0.000000e+00   0.000000e+00
     1064000   1.063999e-05   1.147184e+00   2.244121e+01   3.332542e+01  -7.207333e+05   3.379513e+05   1.586040e+06  -9.819286e+10  -3.250212e+11   2.463472e+10   1.774596e+06   3.251185e-20   0.000000e+00   0.000000e+00
     1072000   1.071999e-05   1.089219e+00   2.246721e+01   3.345237e+01  -7.282902e+05   3.122696e+05   1.587851e+06  -9.079434e+10  -3.172138e+11   2.074043e+10   1.774596e+06   3.066329e-20   0.000000e+00   0.000000e+00
     1080000   1.079999e-05   1.030673e+00   2.249119e+01   3.357946e+01  -7.352536e+05   2.872057e+05   1.589372e+06  -8.329718e+10  -3.093999e+11   1.737659e+10   1.774596e+06   2.888752e-20   0.000000e+00   0.000000e+00
     1088000   1.087999e-05   9.715939e-01   2.251318e+01   3.370667e+01  -7.416328e+05   2.627367e+05   1.590641e+06  -7.612069e+10  -3.019515e+11   1.438483e+10   1.774596e+06   2.726239e-20   0.000000e+00   0.000000e+00
     1096000   1.095999e-05   9.120273e-01   2.253324e+01   3.383396e+01  -7.474383e+05   2.388721e+05   1.591687e+06  -6.905213e+10  -2.947652e+11   1.181130e+10   1.774596e+06   2.575255e-20   0.000000e+00   0.000000e+00
     1104000   1.103999e-05   8.520188e-01   2.255141e+01   3.396133e+01  -7.526814e+05   2.155626e+05   1.592543e+06  -6.202028e+10  -2.880034e+11   9.671394e+09   1.774596e+06   2.437556e-20   0.000000e+00   0.000000e+00
     1112000   1.111999e-05   7.916129e-01   2.256774e+01   3.408876e+01  -7.573768e+05   1.927398e+05   1.593243e+06  -5.528461e+10  -2.826700e+11   7.915492e+09   1.774596e+06   2.329134e-20   0.000000e+00   0.000000e+00
     1120000   1.119999e-05   7.308528e-01   2.258226e+01   3.421625e+01  -7.615371e+05   1.703600e+05   1.593810e+06  -4.871941e+10  -2.769352e+11   6.323108e+09   1.774596e+06   2.219308e-20   0.000000e+00   0.000000e+00
     1128000   1.127999e-05   6.697810e-01   2.259501e+01   3.434377e+01  -7.651697e+05   1.484345e+05   1.594262e+06  -4.209299e+10  -2.712830e+11   5.055774e+09   1.774596e+06   2.115090e-20   0.000000e+00   0.000000e+00
     1136000   1.135999e-05   6.084395e-01   2.260603e+01   3.447133e+01  -7.682813e+05   1.269569e+05   1.594621e+06  -3.568548e+10  -2.657159e+11   3.962505e+09   1.774596e+06   2.016962e-20   0.000000e+00   0.000000e+00
     1144000   1.143999e-05   5.468696e-01   2.261534e+01   3.459891e+01  -7.708820e+05   1.059079e+05   1.594903e+06  -2.935678e+10  -2.604781e+11   3.107871e+09   1.774596e+06   1.927923e-20   0.000000e+00   0.000000e+00
     1152000   1.151999e-05   4.851114e-01   2.262298e+01   3.472651e+01  -7.729926e+05   8.521957e+04   1.595121e+06  -2.336317e+10  -2.564946e+11   2.381933e+09   1.774596e+06   1.861171e-20   0.000000e+00   0.000000e+00
     1160000   1.159999e-05   4.232034e-01   2.262898e+01   3.485413e+01  -7.746292e+05   6.488621e+04   1.595284e+06  -1.758154e+10  -2.520079e+11   1.713365e+09   1.774596e+06   1.790444e-20   0.000000e+00   0.000000e+00
     1168000   1.167999e-05   3.611831e-01   2.263337e+01   3.498175e+01  -7.758011e+05   4.488764e+04   1.595402e+06  -1.173714e+10  -2.478700e+11   1.266907e+09   1.774596e+06   1.727571e-20   0.000000e+00   0.000000e+00
     1176000   1.175999e-05   2.990874e-01   2.263617e+01   3.510939e+01  -7.765182e+05   2.525097e+04   1.595485e+06  -6.204282e+09  -2.434888e+11   8.343437e+08   1.774596e+06   1.664365e-20   0.000000e+00   0.000000e+00
     1184000   1.183999e-05   2.369519e-01   2.263742e+01   3.523703e+01  -7.767932e+05   5.939497e+03   1.595540e+06  -6.530118e+08  -2.391614e+11   5.727310e+08   1.774596e+06   1.604692e-20   0.000000e+00   0.000000e+00
     1192000   1.191999e-05   1.748121e-01   2.263713e+01   3.536468e+01  -7.766312e+05  -1.303536e+04   1.595577e+06   4.657946e+09  -2.352758e+11   3.454265e+08   1.774596e+06   1.553564e-20   0.000000e+00   0.000000e+00
     1200000   1.199999e-05   1.127021e-01   2.263534e+01   3.549232e+01  -7.760513e+05  -3.170892e+04   1.595597e+06   9.837083e+09  -2.316022e+11   1.822297e+08   1.774596e+06   1.507551e-20   0.000000e+00   0.000000e+00
     1208000   1.207999e-05   5.065484e-02   2.263207e+01   3.561997e+01  -7.750622e+05  -5.008375e+04   1.595607e+06   1.485474e+10  -2.278159e+11   6.517840e+07   1.774596e+06   1.462224e-20   0.000000e+00   0.000000e+00
