     timestep     time              x             y              z              vx             vy             vz             ax             ay             az         v_magnitude      ELoss        Electronic      Nuclear
           0   0.000000e+00   1.000000e-01   9.690905e+00   2.062801e+01   7.178311e+05  -3.975336e+05   2.923742e+06   0.000000e+00   0.000000e+00   0.000000e+00   3.036706e+06   0.000000e+00   0.000000e+00   0.000000e+00
        8000   7.999000e-08   1.594978e-01   9.658982e+00   2.086137e+01   7.672250e+05  -3.996155e+05   2.910886e+06   5.392425e+11  -1.761808e+09  -1.423695e+11   3.036706e+06   2.555796e-19   0.000000e+00   0.000000e+00
       16000   1.599900e-07   2.224737e-01   9.627052e+00   2.109382e+01   8.057033e+05  -3.980723e+05   2.900684e+06   4.288120e+11   3.859251e+10  -1.138113e+11   3.036706e+06   1.629525e-19   0.000000e+00   0.000000e+00
       24000   2.399900e-07   2.882204e-01   9.595351e+00   2.132553e+01   8.370482e+05  -3.942777e+05   2.892314e+06   3.588409e+11   5.590151e+10  -9.622917e+10   3.036706e+06   1.159758e-19   0.000000e+00   0.000000e+00
       32000   3.199900e-07   3.562730e-01   9.564001e+00   2.155662e+01   8.635663e+05  -3.892856e+05   2.885185e+06   3.074290e+11   6.714720e+10  -8.295649e+10   3.036706e+06   8.701409e-20   0.000000e+00   0.000000e+00
       40000   3.999900e-07   4.262986e-01   9.533082e+00   2.178718e+01   8.865473e+05  -3.835522e+05   2.878977e+06   2.682275e+11   7.658050e+10  -7.239478e+10   3.036706e+06   6.823821e-20   0.000000e+00   0.000000e+00
       48000   4.799900e-07   4.980464e-01   9.502651e+00   2.201728e+01   9.067508e+05  -3.771587e+05   2.873524e+06   2.378349e+11   8.388124e+10  -6.403974e+10   3.036706e+06   5.562650e-20   0.000000e+00   0.000000e+00
       56000   5.599900e-07   5.713192e-01   9.472754e+00   2.224696e+01   9.247368e+05  -3.701573e+05   2.868698e+06   2.127718e+11   9.059026e+10  -5.689851e+10   3.036706e+06   4.659944e-20   0.000000e+00   0.000000e+00
       64000   6.399900e-07   6.459555e-01   9.443439e+00   2.247628e+01   9.408836e+05  -3.626349e+05   2.864406e+06   1.915085e+11   9.706813e+10  -5.061659e+10   3.036706e+06   3.998024e-20   0.000000e+00   0.000000e+00
       72000   7.199900e-07   7.218189e-01   9.414746e+00   2.270528e+01   9.554535e+05  -3.545977e+05   2.860586e+06   1.728855e+11   1.041621e+11  -4.483277e+10   3.036706e+06   3.512373e-20   0.000000e+00   0.000000e+00
       80000   7.999900e-07   7.987910e-01   9.386718e+00   2.293399e+01   9.686370e+05  -3.459943e+05   2.857204e+06   1.570118e+11   1.114639e+11  -3.973158e+10   3.036706e+06   3.176024e-20   0.000000e+00   0.000000e+00
       88000   8.799900e-07   8.767679e-01   9.359402e+00   2.316244e+01   9.805912e+05  -3.368188e+05   2.854221e+06   1.423506e+11   1.176839e+11  -3.501805e+10   3.036706e+06   2.903567e-20   0.000000e+00   0.000000e+00
       96000   9.599900e-07   9.556559e-01   9.332843e+00   2.339067e+01   9.914257e+05  -3.270500e+05   2.851613e+06   1.287716e+11   1.258276e+11  -3.033903e+10   3.036706e+06   2.738878e-20   0.000000e+00   0.000000e+00
      104000   1.039990e-06   1.035368e+00   9.307092e+00   2.361871e+01   1.001216e+06  -3.166066e+05   2.849371e+06   1.160206e+11   1.349417e+11  -2.577337e+10   3.036706e+06   2.656642e-20   0.000000e+00   0.000000e+00
      112000   1.119990e-06   1.115823e+00   9.282204e+00   2.384658e+01   1.009996e+06  -3.054820e+05   2.847485e+06   1.036886e+11   1.442459e+11  -2.130309e+10   3.036706e+06   2.630149e-20   0.000000e+00   0.000000e+00
      120000   1.199990e-06   1.196942e+00   9.258237e+00   2.407432e+01   1.017820e+06  -2.935507e+05   2.845954e+06   9.193480e+10   1.539155e+11  -1.700335e+10   3.036706e+06   2.664576e-20   0.000000e+00   0.000000e+00
      128000   1.279990e-06   1.278649e+00   9.235258e+00   2.430194e+01   1.024671e+06  -2.807810e+05   2.844784e+06   7.959672e+10   1.653883e+11  -1.234617e+10   3.036706e+06   2.780435e-20   0.000000e+00   0.000000e+00
      136000   1.359990e-06   1.360864e+00   9.213337e+00   2.452949e+01   1.030549e+06  -2.670802e+05   2.843980e+06   6.728640e+10   1.771657e+11  -7.744120e+09   3.036706e+06   2.955741e-20   0.000000e+00   0.000000e+00
      144000   1.439990e-06   1.443510e+00   9.192552e+00   2.475699e+01   1.035437e+06  -2.523800e+05   2.843547e+06   5.479350e+10   1.905202e+11  -3.042442e+09   3.036706e+06   3.229679e-20   0.000000e+00   0.000000e+00
      152000   1.519990e-06   1.526506e+00   9.172985e+00   2.498447e+01   1.039288e+06  -2.366221e+05   2.843497e+06   4.150554e+10   2.042262e+11   1.824745e+09   3.036706e+06   3.568565e-20   0.000000e+00   0.000000e+00
      160000   1.599990e-06   1.609767e+00   9.154721e+00   2.521196e+01   1.042042e+06  -2.197614e+05   2.843842e+06   2.731327e+10   2.185486e+11   6.880637e+09   3.036706e+06   3.989427e-20   0.000000e+00   0.000000e+00
      168000   1.679990e-06   1.693202e+00   9.137857e+00   2.543949e+01   1.043649e+06  -2.016039e+05   2.844598e+06   1.247201e+10   2.352035e+11   1.209383e+10   3.036706e+06   4.569938e-20   0.000000e+00   0.000000e+00
      176000   1.759990e-06   1.776718e+00   9.122500e+00   2.566711e+01   1.044021e+06  -1.820778e+05   2.845778e+06  -3.397780e+09   2.532997e+11   1.745331e+10   3.036706e+06   5.297407e-20   0.000000e+00   0.000000e+00
      184000   1.839990e-06   1.860210e+00   9.108763e+00   2.589483e+01   1.043053e+06  -1.611230e+05   2.847396e+06  -2.093398e+10   2.706954e+11   2.298635e+10   3.036706e+06   6.099763e-20   0.000000e+00   0.000000e+00
      192000   1.919990e-06   1.943567e+00   9.096761e+00   2.612270e+01   1.040631e+06  -1.386562e+05   2.849464e+06  -3.980372e+10   2.909831e+11   2.869609e+10   3.036706e+06   7.154375e-20   0.000000e+00   0.000000e+00
      200000   1.999990e-06   2.026669e+00   9.086623e+00   2.635076e+01   1.036646e+06  -1.145074e+05   2.851989e+06  -6.011460e+10   3.126340e+11   3.440319e+10   3.036706e+06   8.424437e-20   0.000000e+00   0.000000e+00
      208000   2.079990e-06   2.109386e+00   9.078486e+00   2.657903e+01   1.030986e+06  -8.861080e+04   2.854961e+06  -8.167473e+10   3.358170e+11   3.991780e+10   3.036706e+06   9.944378e-20   0.000000e+00   0.000000e+00
      216000   2.159990e-06   2.191579e+00   9.072494e+00   2.680756e+01   1.023531e+06  -6.086970e+04   2.858367e+06  -1.048458e+11   3.580690e+11   4.516910e+10   3.036706e+06   1.160474e-19   0.000000e+00   0.000000e+00
      224000   2.239990e-06   2.273100e+00   9.068796e+00   2.703638e+01   1.014175e+06  -3.127196e+04   2.862177e+06  -1.292856e+11   3.817913e+11   4.998269e+10   3.036706e+06   1.355451e-19   0.000000e+00   0.000000e+00
      232000   2.319990e-06   2.353794e+00   9.067541e+00   2.726552e+01   1.002835e+06   2.239179e+02   2.866340e+06  -1.544557e+11   4.060454e+11   5.400777e+10   3.036706e+06   1.574561e-19   0.000000e+00   0.000000e+00
      240000   2.399990e-06   2.433499e+00   9.068881e+00   2.749500e+01   9.894518e+05   3.356440e+04   2.870792e+06  -1.799790e+11   4.278367e+11   5.703049e+10   3.036706e+06   1.796750e-19   0.000000e+00   0.000000e+00
      248000   2.479990e-06   2.512052e+00   9.072959e+00   2.772485e+01   9.740254e+05   6.865227e+04   2.875439e+06  -2.053984e+11   4.488449e+11   5.886111e+10   3.036707e+06   2.030298e-19   0.000000e+00   0.000000e+00
      256000   2.559990e-06   2.589290e+00   9.079909e+00   2.795508e+01   9.566020e+05   1.053481e+05   2.880174e+06  -2.300206e+11   4.682799e+11   5.927020e+10   3.036707e+06   2.265226e-19   0.000000e+00   0.000000e+00
      264000   2.639990e-06   2.665058e+00   9.089851e+00   2.818568e+01   9.372973e+05   1.434245e+05   2.884873e+06  -2.524279e+11   4.840780e+11   5.794863e+10   3.036707e+06   2.476391e-19   0.000000e+00   0.000000e+00
      272000   2.719990e-06   2.739213e+00   9.102886e+00   2.841665e+01   9.163258e+05   1.825927e+05   2.889393e+06  -2.712713e+11   4.947366e+11   5.476610e+10   3.036707e+06   2.640249e-19   0.000000e+00   0.000000e+00
      280000   2.799990e-06   2.811633e+00   9.119085e+00   2.864797e+01   8.939809e+05   2.224776e+05   2.893595e+06  -2.863372e+11   5.009917e+11   4.994614e+10   3.036707e+06   2.756306e-19   0.000000e+00   0.000000e+00
      288000   2.879990e-06   2.882223e+00   9.138489e+00   2.887961e+01   8.706182e+05   2.626375e+05   2.897349e+06  -2.969058e+11   5.023130e+11   4.368432e+10   3.036707e+06   2.813032e-19   0.000000e+00   0.000000e+00
      296000   2.959990e-06   2.950916e+00   9.161102e+00   2.911153e+01   8.466519e+05   3.026154e+05   2.900550e+06  -3.015420e+11   4.966129e+11   3.620753e+10   3.036707e+06   2.784151e-19   0.000000e+00   0.000000e+00
      304000   3.039990e-06   3.017682e+00   9.186891e+00   2.934369e+01   8.225141e+05   3.419498e+05   2.903124e+06  -3.005168e+11   4.852527e+11   2.798724e+10   3.036707e+06   2.683108e-19   0.000000e+00   0.000000e+00
      312000   3.119990e-06   3.082527e+00   9.215784e+00   2.957602e+01   7.986706e+05   3.801598e+05   2.905029e+06  -2.945855e+11   4.691429e+11   1.959725e+10   3.036707e+06   2.524509e-19   0.000000e+00   0.000000e+00
      320000   3.199990e-06   3.145489e+00   9.247676e+00   2.980847e+01   7.755684e+05   4.168255e+05   2.906259e+06  -2.566501e+11   4.069991e+11   1.011762e+10   3.036707e+06   1.904385e-19   0.000000e+00   0.000000e+00
      328000   3.279990e-06   3.207490e+00   9.281120e+00   3.004097e+01   7.831187e+05   4.058361e+05   2.905789e+06   3.263224e+11  -4.974225e+11  -1.847127e+10   3.036707e+06   2.910657e-19   0.000000e+00   0.000000e+00
      336000   3.359990e-06   3.271167e+00   9.312024e+00   3.027337e+01   8.086159e+05   3.671439e+05   2.903952e+06   3.108638e+11  -4.689538e+11  -2.727068e+10   3.036707e+06   2.607000e-19   0.000000e+00   0.000000e+00
      344000   3.439990e-06   3.336834e+00   9.339927e+00   3.050559e+01   8.328406e+05   3.308582e+05   2.901465e+06   2.946836e+11  -4.377352e+11  -3.466984e+10   3.036707e+06   2.297703e-19   0.000000e+00   0.000000e+00
      352000   3.519990e-06   3.404386e+00   9.365032e+00   3.073759e+01   8.557362e+05   2.971960e+05   2.898444e+06   2.779665e+11  -4.040173e+11  -4.063947e+10   3.036707e+06   1.989549e-19   0.000000e+00   0.000000e+00
      360000   3.599990e-06   3.473717e+00   9.387550e+00   3.096933e+01   8.773244e+05   2.662228e+05   2.894999e+06   2.617126e+11  -3.704818e+11  -4.524148e+10   3.036707e+06   1.707323e-19   0.000000e+00   0.000000e+00
      368000   3.679990e-06   3.544724e+00   9.407700e+00   3.120078e+01   8.976255e+05   2.379648e+05   2.891234e+06   2.458700e+11  -3.362368e+11  -4.865911e+10   3.036707e+06   1.445043e-19   0.000000e+00   0.000000e+00
      376000   3.759990e-06   3.617304e+00   9.425696e+00   3.143192e+01   9.166783e+05   2.123891e+05   2.887245e+06   2.308500e+11  -3.038423e+11  -5.094161e+10   3.036707e+06   1.217715e-19   0.000000e+00   0.000000e+00
      384000   3.839990e-06   3.691362e+00   9.441749e+00   3.166273e+01   9.345777e+05   1.893362e+05   2.883107e+06   2.166856e+11  -2.726550e+11  -5.233411e+10   3.036707e+06   1.019090e-19   0.000000e+00   0.000000e+00
      392000   3.919990e-06   3.766807e+00   9.456054e+00   3.189321e+01   9.513835e+05   1.686973e+05   2.878889e+06   2.032723e+11  -2.429518e+11  -5.293831e+10   3.036707e+06   8.474959e-20   0.000000e+00   0.000000e+00
      400000   3.999990e-06   3.843556e+00   9.468800e+00   3.212335e+01   9.671622e+05   1.503194e+05   2.874646e+06   1.913294e+11  -2.164202e+11  -5.305472e+10   3.036707e+06   7.087356e-20   0.000000e+00   0.000000e+00
      408000   4.079990e-06   3.921528e+00   9.480162e+00   3.235316e+01   9.820017e+05   1.340597e+05   2.870417e+06   1.799189e+11  -1.907648e+11  -5.264257e+10   3.036707e+06   5.877408e-20   0.000000e+00   0.000000e+00
      416000   4.159990e-06   4.000653e+00   9.490301e+00   3.258262e+01   9.959731e+05   1.197428e+05   2.866233e+06   1.697641e+11  -1.684454e+11  -5.195313e+10   3.036707e+06   4.920987e-20   0.000000e+00   0.000000e+00
      424000   4.239990e-06   4.080863e+00   9.499364e+00   3.281175e+01   1.009164e+06   1.071146e+05   2.862115e+06   1.603407e+11  -1.484758e+11  -5.097826e+10   3.036707e+06   4.137156e-20   0.000000e+00   0.000000e+00
      432000   4.319990e-06   4.162100e+00   9.507481e+00   3.304056e+01   1.021644e+06   9.608208e+04   2.858077e+06   1.516439e+11  -1.277101e+11  -4.991296e+10   3.036707e+06   3.434186e-20   0.000000e+00   0.000000e+00
      440000   4.399990e-06   4.244308e+00   9.514779e+00   3.326905e+01   1.033461e+06   8.657616e+04   2.854129e+06   1.440053e+11  -1.104752e+11  -4.879212e+10   3.036707e+06   2.902240e-20   0.000000e+00   0.000000e+00
      448000   4.479990e-06   4.327439e+00   9.521368e+00   3.349722e+01   1.044702e+06   7.838205e+04   2.850271e+06   1.370090e+11  -9.483335e+10  -4.760955e+10   3.036707e+06   2.467480e-20   0.000000e+00   0.000000e+00
      456000   4.559990e-06   4.411446e+00   9.527353e+00   3.372510e+01   1.055405e+06   7.140248e+04   2.846509e+06   1.307421e+11  -8.010691e+10  -4.646599e+10   3.036707e+06   2.109097e-20   0.000000e+00   0.000000e+00
      464000   4.639990e-06   4.496291e+00   9.532823e+00   3.395267e+01   1.065632e+06   6.552058e+04   2.842838e+06   1.248788e+11  -6.712680e+10  -4.526340e+10   3.036707e+06   1.819867e-20   0.000000e+00   0.000000e+00
      472000   4.719990e-06   4.581936e+00   9.537863e+00   3.417995e+01   1.075413e+06   6.066012e+04   2.839260e+06   1.195478e+11  -5.468091e+10  -4.411224e+10   3.036707e+06   1.579792e-20   0.000000e+00   0.000000e+00
      480000   4.799990e-06   4.668346e+00   9.542554e+00   3.440695e+01   1.084796e+06   5.674968e+04   2.835769e+06   1.150891e+11  -4.382559e+10  -4.314913e+10   3.036707e+06   1.399064e-20   0.000000e+00   0.000000e+00
      488000   4.879990e-06   4.755494e+00   9.546963e+00   3.463368e+01   1.093845e+06   5.358664e+04   2.832353e+06   1.112033e+11  -3.502701e+10  -4.228359e+10   3.036707e+06   1.263736e-20   0.000000e+00   0.000000e+00
      496000   4.959990e-06   4.843354e+00   9.551146e+00   3.486013e+01   1.102600e+06   5.110706e+04   2.829002e+06   1.076095e+11  -2.676833e+10  -4.145707e+10   3.036707e+06   1.151510e-20   0.000000e+00   0.000000e+00
      504000   5.039990e-06   4.931902e+00   9.555158e+00   3.508632e+01   1.111074e+06   4.929951e+04   2.825717e+06   1.044455e+11  -1.872295e+10  -4.074133e+10   3.036707e+06   1.061474e-20   0.000000e+00   0.000000e+00
      512000   5.119990e-06   5.021120e+00   9.559050e+00   3.531225e+01   1.119332e+06   4.809098e+04   2.822477e+06   1.020197e+11  -1.177253e+10  -4.025812e+10   3.036707e+06   9.996909e-21   0.000000e+00   0.000000e+00
      520000   5.199990e-06   5.110990e+00   9.562867e+00   3.553792e+01   1.127394e+06   4.739479e+04   2.819278e+06   9.957519e+10  -5.924179e+09  -3.971924e+10   3.036707e+06   9.471558e-21   0.000000e+00   0.000000e+00
      528000   5.279990e-06   5.201498e+00   9.566645e+00   3.576333e+01   1.135273e+06   4.714591e+04   2.816119e+06   9.735722e+10  -1.101641e+09  -3.922950e+10   3.036707e+06   9.053081e-21   0.000000e+00   0.000000e+00
      536000   5.359990e-06   5.292630e+00   9.570419e+00   3.598850e+01   1.143012e+06   4.724699e+04   2.812984e+06   9.633020e+10   2.806899e+09  -3.918938e+10   3.036707e+06   8.892500e-21   0.000000e+00   0.000000e+00
      544000   5.439990e-06   5.384377e+00   9.574216e+00   3.621341e+01   1.150653e+06   4.774635e+04   2.809859e+06   9.473258e+10   8.766334e+09  -3.894246e+10   3.036707e+06   8.682523e-21   0.000000e+00   0.000000e+00
      552000   5.519990e-06   5.476732e+00   9.578066e+00   3.643807e+01   1.158192e+06   4.853162e+04   2.806746e+06   9.379452e+10   1.074838e+10  -3.888973e+10   3.036707e+06   8.565628e-21   0.000000e+00   0.000000e+00
      560000   5.599990e-06   5.569687e+00   9.581986e+00   3.666249e+01   1.165685e+06   4.948528e+04   2.803626e+06   9.336539e+10   1.257887e+10  -3.904122e+10   3.036707e+06   8.544414e-21   0.000000e+00   0.000000e+00
      568000   5.679990e-06   5.663241e+00   9.585989e+00   3.688665e+01   1.173167e+06   5.064608e+04   2.800483e+06   9.369044e+10   1.654716e+10  -3.954762e+10   3.036707e+06   8.722000e-21   0.000000e+00   0.000000e+00
      576000   5.759990e-06   5.757394e+00   9.590092e+00   3.711057e+01   1.180665e+06   5.197320e+04   2.797306e+06   9.382822e+10   1.802675e+10  -3.993717e+10   3.036707e+06   8.810714e-21   0.000000e+00   0.000000e+00
      584000   5.839990e-06   5.852148e+00   9.594308e+00   3.733422e+01   1.188182e+06   5.343432e+04   2.794094e+06   9.421651e+10   1.810617e+10  -4.041157e+10   3.036707e+06   8.904371e-21   0.000000e+00   0.000000e+00
      592000   5.919990e-06   5.947505e+00   9.598642e+00   3.755762e+01   1.195747e+06   5.490909e+04   2.790836e+06   9.478510e+10   1.944721e+10  -4.099371e+10   3.036707e+06   9.072975e-21   0.000000e+00   0.000000e+00
      600000   5.999990e-06   6.043469e+00   9.603095e+00   3.778075e+01   1.203368e+06   5.642754e+04   2.787528e+06   9.579636e+10   1.915167e+10  -4.174266e+10   3.036707e+06   9.272846e-21   0.000000e+00   0.000000e+00
      608000   6.079990e-06   6.140045e+00   9.607672e+00   3.800362e+01   1.211053e+06   5.798040e+04   2.784166e+06   9.668708e+10   1.905947e+10  -4.245368e+10   3.036707e+06   9.459998e-21   0.000000e+00   0.000000e+00
      616000   6.159990e-06   6.237240e+00   9.612369e+00   3.822622e+01   1.218857e+06   5.943744e+04   2.780727e+06   9.839439e+10   1.755943e+10  -4.350383e+10   3.036707e+06   9.762697e-21   0.000000e+00   0.000000e+00
      624000   6.239990e-06   6.335066e+00   9.617178e+00   3.844854e+01   1.226807e+06   6.076989e+04   2.777200e+06   1.004433e+11   1.577711e+10  -4.471523e+10   3.036707e+06   1.013638e-20   0.000000e+00   0.000000e+00
      632000   6.319990e-06   6.433534e+00   9.622090e+00   3.867057e+01   1.234919e+06   6.200526e+04   2.773575e+06   1.022635e+11   1.482440e+10  -4.586362e+10   3.036707e+06   1.050104e-20   0.000000e+00   0.000000e+00
      640000   6.399990e-06   6.532656e+00   9.627098e+00   3.889231e+01   1.243164e+06   6.317678e+04   2.769863e+06   1.038815e+11   1.425198e+10  -4.694889e+10   3.036707e+06   1.084417e-20   0.000000e+00   0.000000e+00
      648000   6.479990e-06   6.632445e+00   9.632194e+00   3.911374e+01   1.251575e+06   6.421207e+04   2.766049e+06   1.062579e+11   1.209894e+10  -4.836015e+10   3.036707e+06   1.131836e-20   0.000000e+00   0.000000e+00
      656000   6.559990e-06   6.732913e+00   9.637367e+00   3.933487e+01   1.260183e+06   6.508531e+04   2.762117e+06   1.090651e+11   9.526689e+09  -4.998410e+10   3.036707e+06   1.190047e-20   0.000000e+00   0.000000e+00
      664000   6.639990e-06   6.834080e+00   9.642601e+00   3.955568e+01   1.269027e+06   6.572548e+04   2.758050e+06   1.118867e+11   6.587902e+09  -5.163792e+10   3.036707e+06   1.251188e-20   0.000000e+00   0.000000e+00
      672000   6.719990e-06   6.935964e+00   9.647878e+00   3.977616e+01   1.278100e+06   6.616361e+04   2.753847e+06   1.146845e+11   4.430070e+09  -5.333309e+10   3.036707e+06   1.315936e-20   0.000000e+00   0.000000e+00
      680000   6.799990e-06   7.038582e+00   9.653181e+00   3.999629e+01   1.287386e+06   6.637699e+04   2.749513e+06   1.175341e+11   9.042423e+08  -5.505399e+10   3.036707e+06   1.384084e-20   0.000000e+00   0.000000e+00
      688000   6.879990e-06   7.141953e+00   9.658492e+00   4.021607e+01   1.296931e+06   6.636864e+04   2.745024e+06   1.208547e+11  -1.915598e+09  -5.705340e+10   3.036707e+06   1.467772e-20   0.000000e+00   0.000000e+00
      696000   6.959990e-06   7.246097e+00   9.663793e+00   4.043549e+01   1.306728e+06   6.611943e+04   2.740380e+06   1.243313e+11  -4.914737e+09  -5.916774e+10   3.036707e+06   1.559677e-20   0.000000e+00   0.000000e+00
      704000   7.039990e-06   7.351037e+00   9.669064e+00   4.065453e+01   1.316812e+06   6.561067e+04   2.735561e+06   1.278273e+11  -8.037529e+09  -6.133911e+10   3.036707e+06   1.656926e-20   0.000000e+00   0.000000e+00
      712000   7.119990e-06   7.456795e+00   9.674283e+00   4.087318e+01   1.327172e+06   6.482812e+04   2.730568e+06   1.311622e+11  -1.169734e+10  -6.347258e+10   3.036707e+06   1.755702e-20   0.000000e+00   0.000000e+00
      720000   7.199990e-06   7.563392e+00   9.679428e+00   4.109142e+01   1.337819e+06   6.373025e+04   2.725394e+06   1.350148e+11  -1.591526e+10  -6.590272e+10   3.036707e+06   1.875355e-20   0.000000e+00   0.000000e+00
      728000   7.279990e-06   7.670854e+00   9.684473e+00   4.130923e+01   1.348785e+06   6.231594e+04   2.720016e+06   1.393523e+11  -1.994160e+10  -6.864425e+10   3.036707e+06   2.015300e-20   0.000000e+00   0.000000e+00
      736000   7.359990e-06   7.779207e+00   9.689388e+00   4.152661e+01   1.360090e+06   6.047993e+04   2.714422e+06   1.433630e+11  -2.524149e+10  -7.127102e+10   3.036707e+06   2.158330e-20   0.000000e+00   0.000000e+00
      744000   7.439990e-06   7.888478e+00   9.694140e+00   4.174353e+01   1.371734e+06   5.824360e+04   2.708605e+06   1.477067e+11  -3.216225e+10  -7.411226e+10   3.036707e+06   2.328787e-20   0.000000e+00   0.000000e+00
      752000   7.519990e-06   7.998693e+00   9.698697e+00   4.195998e+01   1.383704e+06   5.565808e+04   2.702565e+06   1.517952e+11  -3.333220e+10  -7.703204e+10   3.036707e+06   2.471948e-20   0.000000e+00   0.000000e+00
      760000   7.599990e-06   8.109879e+00   9.703034e+00   4.217594e+01   1.395988e+06   5.270540e+04   2.696299e+06   1.553810e+11  -3.928904e+10  -7.967919e+10   3.036707e+06   2.632073e-20   0.000000e+00   0.000000e+00
      768000   7.679990e-06   8.222060e+00   9.707121e+00   4.239138e+01   1.408592e+06   4.942665e+04   2.689798e+06   1.597983e+11  -4.262622e+10  -8.289966e+10   3.036707e+06   2.811935e-20   0.000000e+00   0.000000e+00
      776000   7.759990e-06   8.335262e+00   9.710934e+00   4.260630e+01   1.421536e+06   4.581964e+04   2.683044e+06   1.638520e+11  -4.738629e+10  -8.600304e+10   3.036707e+06   2.997997e-20   0.000000e+00   0.000000e+00
      784000   7.839990e-06   8.449514e+00   9.714442e+00   4.282066e+01   1.434822e+06   4.183016e+04   2.676028e+06   1.683770e+11  -5.202048e+10  -8.946643e+10   3.036707e+06   3.209294e-20   0.000000e+00   0.000000e+00
      792000   7.919990e-06   8.564844e+00   9.717617e+00   4.303446e+01   1.448472e+06   3.748568e+04   2.668729e+06   1.727794e+11  -5.658204e+10  -9.298234e+10   3.036707e+06   3.426098e-20   0.000000e+00   0.000000e+00
      800000   7.999990e-06   8.681279e+00   9.720429e+00   4.324765e+01   1.462477e+06   3.274738e+04   2.661142e+06   1.773831e+11  -6.206543e+10  -9.672009e+10   3.036707e+06   3.670253e-20   0.000000e+00   0.000000e+00
      808000   8.079990e-06   8.798850e+00   9.722845e+00   4.346023e+01   1.476846e+06   2.757552e+04   2.653254e+06   1.818942e+11  -6.675167e+10  -1.005514e+11   3.036707e+06   3.915112e-20   0.000000e+00   0.000000e+00
      816000   8.159990e-06   8.917584e+00   9.724830e+00   4.367217e+01   1.491572e+06   2.197933e+04   2.645056e+06   1.861802e+11  -7.257850e+10  -1.043855e+11   3.036707e+06   4.175988e-20   0.000000e+00   0.000000e+00
      824000   8.239990e-06   9.037511e+00   9.726349e+00   4.388343e+01   1.506647e+06   1.590503e+04   2.636542e+06   1.905510e+11  -7.887566e+10  -1.084140e+11   3.036707e+06   4.460063e-20   0.000000e+00   0.000000e+00
      832000   8.319990e-06   9.158657e+00   9.727369e+00   4.409400e+01   1.522072e+06   9.534957e+03   2.627698e+06   1.950095e+11  -8.227797e+10  -1.126588e+11   3.036707e+06   4.723451e-20   0.000000e+00   0.000000e+00
      840000   8.399990e-06   9.281051e+00   9.727861e+00   4.430386e+01   1.537834e+06   2.710106e+03   2.618521e+06   1.990150e+11  -8.830360e+10  -1.167881e+11   3.036707e+06   5.015420e-20   0.000000e+00   0.000000e+00
      848000   8.479990e-06   9.404719e+00   9.727791e+00   4.451296e+01   1.553936e+06  -4.554748e+03   2.608995e+06   2.034177e+11  -9.318925e+10  -1.213195e+11   3.036707e+06   5.322490e-20   0.000000e+00   0.000000e+00
      856000   8.559990e-06   9.529690e+00   9.727124e+00   4.472128e+01   1.570390e+06  -1.219100e+04   2.599100e+06   2.077523e+11  -9.761587e+10  -1.259827e+11   3.036707e+06   5.633066e-20   0.000000e+00   0.000000e+00
      864000   8.639990e-06   9.655991e+00   9.725830e+00   4.492880e+01   1.587178e+06  -2.020054e+04   2.588832e+06   2.119878e+11  -1.031697e+11  -1.307716e+11   3.036707e+06   5.971774e-20   0.000000e+00   0.000000e+00
      872000   8.719990e-06   9.783648e+00   9.723879e+00   4.513549e+01   1.604296e+06  -2.864912e+04   2.578178e+06   2.159221e+11  -1.069512e+11  -1.355478e+11   3.036707e+06   6.279900e-20   0.000000e+00   0.000000e+00
      880000   8.799990e-06   9.912687e+00   9.721237e+00   4.534130e+01   1.621737e+06  -3.745779e+04   2.567130e+06   2.201000e+11  -1.123794e+11  -1.406835e+11   3.036707e+06   6.643932e-20   0.000000e+00   0.000000e+00
      888000   8.879990e-06   1.004313e+01   9.717877e+00   4.554622e+01   1.639496e+06  -4.661627e+04   2.555674e+06   2.239519e+11  -1.176880e+11  -1.458142e+11   3.036707e+06   7.005570e-20   0.000000e+00   0.000000e+00
      896000   8.959990e-06   1.017501e+01   9.713766e+00   4.575020e+01   1.657570e+06  -5.617915e+04   2.543796e+06   2.278584e+11  -1.213712e+11  -1.511556e+11   3.036707e+06   7.353267e-20   0.000000e+00   0.000000e+00
      904000   9.039990e-06   1.030835e+01   9.708879e+00   4.595321e+01   1.675946e+06  -6.607380e+04   2.531488e+06   2.315811e+11  -1.263024e+11  -1.566121e+11   3.036707e+06   7.732113e-20   0.000000e+00   0.000000e+00
      912000   9.119990e-06   1.044317e+01   9.703183e+00   4.615522e+01   1.694614e+06  -7.640412e+04   2.518737e+06   2.350368e+11  -1.313620e+11  -1.621178e+11   3.036707e+06   8.115893e-20   0.000000e+00   0.000000e+00
      920000   9.199990e-06   1.057950e+01   9.696646e+00   4.635620e+01   1.713563e+06  -8.705447e+04   2.505537e+06   2.387546e+11  -1.346430e+11  -1.679645e+11   3.036707e+06   8.490880e-20   0.000000e+00   0.000000e+00
      928000   9.279990e-06   1.071735e+01   9.689246e+00   4.655610e+01   1.732801e+06  -9.801146e+04   2.491864e+06   2.421972e+11  -1.418633e+11  -1.739993e+11   3.036707e+06   8.960495e-20   0.000000e+00   0.000000e+00
      936000   9.359990e-06   1.085675e+01   9.680948e+00   4.675488e+01   1.752306e+06  -1.095087e+05   2.477705e+06   2.454674e+11  -1.457168e+11  -1.800416e+11   3.036707e+06   9.358343e-20   0.000000e+00   0.000000e+00
      944000   9.439990e-06   1.099773e+01   9.671716e+00   4.695252e+01   1.772066e+06  -1.213317e+05   2.463058e+06   2.486023e+11  -1.499292e+11  -1.862439e+11   3.036707e+06   9.774570e-20   0.000000e+00   0.000000e+00
      952000   9.519990e-06   1.114029e+01   9.661526e+00   4.714896e+01   1.792089e+06  -1.334724e+05   2.447896e+06   2.516080e+11  -1.545180e+11  -1.926253e+11   3.036708e+06   1.021153e-19   0.000000e+00   0.000000e+00
      960000   9.599990e-06   1.128447e+01   9.650349e+00   4.734417e+01   1.812344e+06  -1.460089e+05   2.432218e+06   2.547209e+11  -1.585902e+11  -1.993226e+11   3.036708e+06   1.066146e-19   0.000000e+00   0.000000e+00
      968000   9.679990e-06   1.143027e+01   9.638156e+00   4.753810e+01   1.832834e+06  -1.588779e+05   2.416003e+06   2.574311e+11  -1.628472e+11  -2.060014e+11   3.036708e+06   1.111034e-19   0.000000e+00   0.000000e+00
      976000   9.759990e-06   1.157773e+01   9.624919e+00   4.773071e+01   1.853529e+06  -1.721038e+05   2.399251e+06   2.598275e+11  -1.680187e+11  -2.127801e+11   3.036708e+06   1.158601e-19   0.000000e+00   0.000000e+00
      984000   9.839990e-06   1.172684e+01   9.610611e+00   4.792197e+01   1.874423e+06  -1.856359e+05   2.381947e+06   2.624933e+11  -1.708739e+11  -2.198800e+11   3.036708e+06   1.203229e-19   0.000000e+00   0.000000e+00
      992000   9.919990e-06   1.187764e+01   9.595208e+00   4.811181e+01   1.895510e+06  -1.994806e+05   2.364073e+06   2.645359e+11  -1.755852e+11  -2.269197e+11   3.036708e+06   1.251327e-19   0.000000e+00   0.000000e+00
     1000000   9.999990e-06   1.203013e+01   9.578685e+00   4.830020e+01   1.916774e+06  -2.136522e+05   2.345618e+06   2.669163e+11  -1.794432e+11  -2.344606e+11   3.036708e+06   1.301561e-19   0.000000e+00   0.000000e+00
     1008000   1.007999e-05   1.218433e+01   9.561015e+00   4.848709e+01   1.938207e+06  -2.281586e+05   2.326562e+06   2.686927e+11  -1.833068e+11  -2.418175e+11   3.036708e+06   1.349682e-19   0.000000e+00   0.000000e+00
     1016000   1.015999e-05   1.234025e+01   9.542171e+00   4.867244e+01   1.959791e+06  -2.429713e+05   2.306897e+06   2.707599e+11  -1.870445e+11  -2.497196e+11   3.036708e+06   1.402130e-19   0.000000e+00   0.000000e+00
     1024000   1.023999e-05   1.249790e+01   9.522132e+00   4.885618e+01   1.981508e+06  -2.580579e+05   2.286619e+06   2.721791e+11  -1.901162e+11  -2.573162e+11   3.036708e+06   1.449626e-19   0.000000e+00   0.000000e+00
     1032000   1.031999e-05   1.265729e+01   9.500874e+00   4.903828e+01   2.003339e+06  -2.734407e+05   2.265713e+06   2.736013e+11  -1.941919e+11  -2.653532e+11   3.036708e+06   1.503387e-19   0.000000e+00   0.000000e+00
     1040000   1.039999e-05   1.281843e+01   9.478373e+00   4.921868e+01   2.025275e+06  -2.891340e+05   2.244161e+06   2.748117e+11  -1.971876e+11  -2.734122e+11   3.036708e+06   1.554147e-19   0.000000e+00   0.000000e+00
     1048000   1.047999e-05   1.298134e+01   9.454607e+00   4.939733e+01   2.047305e+06  -3.050535e+05   2.221954e+06   2.759883e+11  -2.004339e+11  -2.818121e+11   3.036708e+06   1.608396e-19   0.000000e+00   0.000000e+00
     1056000   1.055999e-05   1.314601e+01   9.429556e+00   4.957417e+01   2.069407e+06  -3.212578e+05   2.199078e+06   2.766569e+11  -2.042032e+11  -2.901742e+11   3.036708e+06   1.663261e-19   0.000000e+00   0.000000e+00
     1064000   1.063999e-05   1.331244e+01   9.403199e+00   4.974916e+01   2.091556e+06  -3.377149e+05   2.175531e+06   2.770722e+11  -2.073695e+11  -2.985669e+11   3.036708e+06   1.716454e-19   0.000000e+00   0.000000e+00
     1072000   1.071999e-05   1.348048e+01   9.375650e+00   4.992243e+01   2.104534e+06  -3.474494e+05   2.161437e+06   0.000000e+00   0.000000e+00   0.000000e+00   3.036708e+06   0.000000e+00   0.000000e+00   0.000000e+00
