     timestep     time              x             y              z              vx             vy             vz             ax             ay             az         v_magnitude      ELoss        Electronic      Nuclear
           0   0.000000e+00   1.000000e-01   9.530504e+00   1.015022e+01   4.518044e+06  -6.737020e+05  -3.895903e+05   0.000000e+00   0.000000e+00   0.000000e+00   4.584580e+06   0.000000e+00   0.000000e+00   0.000000e+00
        8000   7.999000e-08   4.616385e-01   9.477916e+00   1.011909e+01   4.522897e+06  -6.409815e+05  -3.884778e+05   5.980862e+10   4.096510e+11   2.040726e+10   4.584580e+06   3.218226e-19   0.000000e+00   0.000000e+00
       16000   1.599900e-07   8.236599e-01   9.427950e+00   1.008809e+01   4.527612e+06  -6.081530e+05  -3.863349e+05   5.803701e+10   4.109650e+11   3.322946e+10   4.584580e+06   3.247394e-19   0.000000e+00   0.000000e+00
       24000   2.399900e-07   1.186053e+00   9.380614e+00   1.005730e+01   4.532180e+06  -5.752300e+05  -3.831822e+05   5.617732e+10   4.122021e+11   4.565185e+10   4.584580e+06   3.280845e-19   0.000000e+00   0.000000e+00
       32000   3.199900e-07   1.548805e+00   9.335916e+00   1.002680e+01   4.536596e+06  -5.422089e+05  -3.790526e+05   5.420911e+10   4.133108e+11   5.757061e+10   4.584580e+06   3.316964e-19   0.000000e+00   0.000000e+00
       40000   3.999900e-07   1.911904e+00   9.293863e+00   9.996677e+00   4.540852e+06  -5.090915e+05  -3.739783e+05   5.218682e+10   4.145518e+11   6.932501e+10   4.584580e+06   3.360118e-19   0.000000e+00   0.000000e+00
       48000   4.799900e-07   2.275337e+00   9.254464e+00   9.966992e+00   4.544944e+06  -4.758666e+05  -3.679820e+05   5.008469e+10   4.160116e+11   8.061328e+10   4.584580e+06   3.410504e-19   0.000000e+00   0.000000e+00
       56000   5.599900e-07   2.639090e+00   9.217728e+00   9.937823e+00   4.548863e+06  -4.425204e+05  -3.610987e+05   4.789428e+10   4.176780e+11   9.147541e+10   4.584580e+06   3.467521e-19   0.000000e+00   0.000000e+00
       64000   6.399900e-07   3.003150e+00   9.183664e+00   9.909239e+00   4.552604e+06  -4.090289e+05  -3.533620e+05   4.561698e+10   4.196750e+11   1.019208e+11   4.584580e+06   3.532694e-19   0.000000e+00   0.000000e+00
       72000   7.199900e-07   3.367502e+00   9.152288e+00   9.881307e+00   4.556159e+06  -3.753629e+05  -3.448029e+05   4.323837e+10   4.220824e+11   1.118461e+11   4.584580e+06   3.606434e-19   0.000000e+00   0.000000e+00
       80000   7.999900e-07   3.732130e+00   9.123612e+00   9.854092e+00   4.559521e+06  -3.414895e+05  -3.354448e+05   4.078572e+10   4.249691e+11   1.217455e+11   4.584580e+06   3.691691e-19   0.000000e+00   0.000000e+00
       88000   8.799900e-07   4.097020e+00   9.097656e+00   9.827656e+00   4.562682e+06  -3.073645e+05  -3.253171e+05   3.819718e+10   4.281683e+11   1.311823e+11   4.584580e+06   3.783695e-19   0.000000e+00   0.000000e+00
       96000   9.599900e-07   4.462154e+00   9.074441e+00   9.802061e+00   4.565633e+06  -2.729531e+05  -3.144347e+05   3.551238e+10   4.321776e+11   1.404750e+11   4.584580e+06   3.891885e-19   0.000000e+00   0.000000e+00
      104000   1.039990e-06   4.827515e+00   9.053992e+00   9.777366e+00   4.568362e+06  -2.382144e+05  -3.028224e+05   3.269006e+10   4.364748e+11   1.498017e+11   4.584580e+06   4.008910e-19   0.000000e+00   0.000000e+00
      112000   1.119990e-06   5.193085e+00   9.036337e+00   9.753629e+00   4.570858e+06  -2.031003e+05  -2.904855e+05   2.969308e+10   4.414562e+11   1.585647e+11   4.584580e+06   4.137945e-19   0.000000e+00   0.000000e+00
      120000   1.199990e-06   5.558846e+00   9.021508e+00   9.730908e+00   4.573110e+06  -1.675571e+05  -2.774307e+05   2.655352e+10   4.472001e+11   1.676032e+11   4.584580e+06   4.285470e-19   0.000000e+00   0.000000e+00
      128000   1.279990e-06   5.924776e+00   9.009541e+00   9.709259e+00   4.575102e+06  -1.315283e+05  -2.636652e+05   2.321407e+10   4.536133e+11   1.765170e+11   4.584580e+06   4.448025e-19   0.000000e+00   0.000000e+00
      136000   1.359990e-06   6.290855e+00   9.000478e+00   9.688740e+00   4.576818e+06  -9.495938e+04  -2.491864e+05   1.965864e+10   4.606354e+11   1.855233e+11   4.584580e+06   4.626501e-19   0.000000e+00   0.000000e+00
      144000   1.439990e-06   6.657059e+00   8.994363e+00   9.669409e+00   4.578240e+06  -5.779475e+04  -2.339915e+05   1.584290e+10   4.685799e+11   1.942316e+11   4.584580e+06   4.824187e-19   0.000000e+00   0.000000e+00
      152000   1.519990e-06   7.023365e+00   8.991248e+00   9.651321e+00   4.579347e+06  -1.996611e+04  -2.180784e+05   1.175852e+10   4.772473e+11   2.032063e+11   4.584580e+06   5.042445e-19   0.000000e+00   0.000000e+00
      160000   1.599990e-06   7.389746e+00   8.991188e+00   9.634535e+00   4.580115e+06   1.858915e+04  -2.014429e+05   7.382753e+09   4.867730e+11   2.127637e+11   4.584580e+06   5.287352e-19   0.000000e+00   0.000000e+00
      168000   1.679990e-06   7.756173e+00   8.994243e+00   9.619109e+00   4.580517e+06   5.793918e+04  -1.840772e+05   2.631771e+09   4.971391e+11   2.219489e+11   4.584580e+06   5.552302e-19   0.000000e+00   0.000000e+00
      176000   1.759990e-06   8.122618e+00   9.000481e+00   9.605103e+00   4.580524e+06   9.815180e+04  -1.659619e+05  -2.511111e+09   5.083040e+11   2.312918e+11   4.584580e+06   5.841883e-19   0.000000e+00   0.000000e+00
      184000   1.839990e-06   8.489046e+00   9.009972e+00   9.592576e+00   4.580103e+06   1.392870e+05  -1.470720e+05  -8.080831e+09   5.201263e+11   2.409195e+11   4.584580e+06   6.155892e-19   0.000000e+00   0.000000e+00
      192000   1.919990e-06   8.855422e+00   9.022793e+00   9.581592e+00   4.579218e+06   1.814115e+05  -1.274006e+05  -1.413795e+10   5.329908e+11   2.507557e+11   4.584580e+06   6.502772e-19   0.000000e+00   0.000000e+00
      200000   1.999990e-06   9.221707e+00   9.039027e+00   9.572213e+00   4.577827e+06   2.245986e+05  -1.069309e+05  -2.072536e+10   5.466962e+11   2.609760e+11   4.584580e+06   6.882218e-19   0.000000e+00   0.000000e+00
      208000   2.079990e-06   9.587860e+00   9.058759e+00   9.564505e+00   4.575886e+06   2.689096e+05  -8.563334e+04  -2.790079e+10   5.612520e+11   2.715214e+11   4.584580e+06   7.296022e-19   0.000000e+00   0.000000e+00
      216000   2.159990e-06   9.953833e+00   9.082084e+00   9.558535e+00   4.573346e+06   3.144109e+05  -6.346773e+04  -3.571509e+10   5.765430e+11   2.825024e+11   4.584580e+06   7.745180e-19   0.000000e+00   0.000000e+00
      224000   2.239990e-06   1.031958e+01   9.109098e+00   9.554374e+00   4.570153e+06   3.611737e+05  -4.039690e+04  -4.424010e+10   5.927213e+11   2.942532e+11   4.584580e+06   8.239233e-19   0.000000e+00   0.000000e+00
      232000   2.319990e-06   1.068504e+01   9.139907e+00   9.552097e+00   4.566247e+06   4.092700e+05  -1.637309e+04  -5.355764e+10   6.098135e+11   3.063752e+11   4.584581e+06   8.777687e-19   0.000000e+00   0.000000e+00
      240000   2.399990e-06   1.105016e+01   9.174619e+00   9.551782e+00   4.561561e+06   4.587698e+05   8.653310e+03  -6.374193e+10   6.277745e+11   3.193739e+11   4.584581e+06   9.368791e-19   0.000000e+00   0.000000e+00
      248000   2.479990e-06   1.141487e+01   9.213350e+00   9.553510e+00   4.556022e+06   5.097415e+05   3.474092e+04  -7.488566e+10   6.466442e+11   3.328826e+11   4.584581e+06   1.001322e-18   0.000000e+00   0.000000e+00
      256000   2.559990e-06   1.177909e+01   9.256219e+00   9.557370e+00   4.549550e+06   5.622579e+05   6.193697e+04  -8.708554e+10   6.664228e+11   3.471963e+11   4.584581e+06   1.071904e-18   0.000000e+00   0.000000e+00
      264000   2.639990e-06   1.214277e+01   9.303354e+00   9.563451e+00   4.542058e+06   6.163927e+05   9.029443e+04  -1.004479e+11   6.871560e+11   3.620164e+11   4.584581e+06   1.148854e-18   0.000000e+00   0.000000e+00
      272000   2.719990e-06   1.250579e+01   9.354887e+00   9.571850e+00   4.533446e+06   6.722162e+05   1.198887e+05  -1.150565e+11   7.085795e+11   3.777715e+11   4.584581e+06   1.232593e-18   0.000000e+00   0.000000e+00
      280000   2.799990e-06   1.286809e+01   9.410955e+00   9.582667e+00   4.523611e+06   7.297876e+05   1.507724e+05  -1.310732e+11   7.310000e+11   3.943457e+11   4.584581e+06   1.324406e-18   0.000000e+00   0.000000e+00
      288000   2.879990e-06   1.322954e+01   9.471702e+00   9.596010e+00   4.512433e+06   7.891954e+05   1.830245e+05  -1.486232e+11   7.542928e+11   4.118339e+11   4.584581e+06   1.424814e-18   0.000000e+00   0.000000e+00
      296000   2.959990e-06   1.359004e+01   9.537277e+00   9.611989e+00   4.499783e+06   8.505130e+05   2.167074e+05  -1.678997e+11   7.786293e+11   4.304709e+11   4.584581e+06   1.535527e-18   0.000000e+00   0.000000e+00
      304000   3.039990e-06   1.394946e+01   9.607837e+00   9.630723e+00   4.485519e+06   9.138056e+05   2.519092e+05  -1.890312e+11   8.038719e+11   4.498822e+11   4.584581e+06   1.656489e-18   0.000000e+00   0.000000e+00
      312000   3.119990e-06   1.430767e+01   9.683541e+00   9.652337e+00   4.469485e+06   9.791512e+05   2.887103e+05  -2.122155e+11   8.300000e+11   4.703957e+11   4.584581e+06   1.789240e-18   0.000000e+00   0.000000e+00
      320000   3.199990e-06   1.466452e+01   9.764558e+00   9.676962e+00   4.451504e+06   1.046632e+06   3.271955e+05  -2.376831e+11   8.571252e+11   4.919468e+11   4.584581e+06   1.935272e-18   0.000000e+00   0.000000e+00
      328000   3.279990e-06   1.501985e+01   9.851061e+00   9.704736e+00   4.431387e+06   1.116318e+06   3.674594e+05  -2.657100e+11   8.853126e+11   5.148460e+11   4.584581e+06   2.096883e-18   0.000000e+00   0.000000e+00
      336000   3.359990e-06   1.537348e+01   9.943230e+00   9.735806e+00   4.408918e+06   1.188298e+06   4.096044e+05  -2.964845e+11   9.142876e+11   5.389156e+11   4.584581e+06   2.274472e-18   0.000000e+00   0.000000e+00
      344000   3.439990e-06   1.572521e+01   1.004125e+01   9.770326e+00   4.383862e+06   1.262642e+06   4.537357e+05  -3.304808e+11   9.444818e+11   5.647619e+11   4.584581e+06   2.472958e-18   0.000000e+00   0.000000e+00
      352000   3.519990e-06   1.607483e+01   1.014532e+01   9.808460e+00   4.355954e+06   1.339434e+06   4.999748e+05  -3.679113e+11   9.756879e+11   5.915290e+11   4.584582e+06   2.692140e-18   0.000000e+00   0.000000e+00
      360000   3.599990e-06   1.642208e+01   1.025563e+01   9.850381e+00   4.324892e+06   1.418775e+06   5.484277e+05  -4.092532e+11   1.007903e+12   6.199623e+11   4.584582e+06   2.936541e-18   0.000000e+00   0.000000e+00
      368000   3.679990e-06   1.676672e+01   1.037239e+01   9.896270e+00   4.290360e+06   1.500721e+06   5.991994e+05  -4.547884e+11   1.040803e+12   6.496479e+11   4.584582e+06   3.207089e-18   0.000000e+00   0.000000e+00
      376000   3.759990e-06   1.710844e+01   1.049582e+01   9.946318e+00   4.251982e+06   1.585369e+06   6.524152e+05  -5.054201e+11   1.075294e+12   6.810356e+11   4.584582e+06   3.513104e-18   0.000000e+00   0.000000e+00
      384000   3.839990e-06   1.744692e+01   1.062612e+01   1.000073e+01   4.209349e+06   1.672786e+06   7.082120e+05  -5.615165e+11   1.110642e+12   7.141538e+11   4.584582e+06   3.856499e-18   0.000000e+00   0.000000e+00
      392000   3.919990e-06   1.778181e+01   1.076354e+01   1.005970e+01   4.161984e+06   1.763075e+06   7.667119e+05  -6.236248e+11   1.146656e+12   7.485197e+11   4.584582e+06   4.240806e-18   0.000000e+00   0.000000e+00
      400000   3.999990e-06   1.811270e+01   1.090829e+01   1.012347e+01   4.109362e+06   1.856308e+06   8.280444e+05  -6.931372e+11   1.184316e+12   7.848864e+11   4.584583e+06   4.681143e-18   0.000000e+00   0.000000e+00
      408000   4.079990e-06   1.843915e+01   1.106063e+01   1.019227e+01   4.050882e+06   1.952567e+06   8.923191e+05  -7.703570e+11   1.222273e+12   8.226701e+11   4.584583e+06   5.177705e-18   0.000000e+00   0.000000e+00
      416000   4.159990e-06   1.876066e+01   1.122079e+01   1.026633e+01   3.985847e+06   2.051944e+06   9.596618e+05  -8.570400e+11   1.261878e+12   8.615102e+11   4.584583e+06   5.748763e-18   0.000000e+00   0.000000e+00
      424000   4.239990e-06   1.907669e+01   1.138902e+01   1.034590e+01   3.913484e+06   2.154490e+06   1.030156e+06  -9.538342e+11   1.301867e+12   9.008239e+11   4.584583e+06   6.398905e-18   0.000000e+00   0.000000e+00
      432000   4.319990e-06   1.938660e+01   1.156559e+01   1.043124e+01   3.832887e+06   2.260271e+06   1.103886e+06  -1.063067e+12   1.342736e+12   9.418604e+11   4.584584e+06   7.155669e-18   0.000000e+00   0.000000e+00
      440000   4.399990e-06   1.968970e+01   1.175075e+01   1.052261e+01   3.743014e+06   2.369323e+06   1.180919e+06  -1.186183e+12   1.383916e+12   9.831305e+11   4.584584e+06   8.033503e-18   0.000000e+00   0.000000e+00
      448000   4.479990e-06   1.998520e+01   1.194477e+01   1.062027e+01   3.642677e+06   2.481659e+06   1.261224e+06  -1.325160e+12   1.424781e+12   1.023891e+12   4.584584e+06   9.055495e-18   0.000000e+00   0.000000e+00
      456000   4.559990e-06   2.027222e+01   1.214791e+01   1.072449e+01   3.530491e+06   2.597268e+06   1.344711e+06  -1.483086e+12   1.465641e+12   1.062989e+12   4.584585e+06   1.026027e-17   0.000000e+00   0.000000e+00
      464000   4.639990e-06   2.054972e+01   1.236042e+01   1.083551e+01   3.404846e+06   2.716094e+06   1.431182e+06  -1.662167e+12   1.504955e+12   1.098313e+12   4.584585e+06   1.167708e-17   0.000000e+00   0.000000e+00
      472000   4.719990e-06   2.081658e+01   1.258256e+01   1.095355e+01   3.263894e+06   2.837987e+06   1.520282e+06  -1.866176e+12   1.541842e+12   1.128307e+12   4.584586e+06   1.336100e-17   0.000000e+00   0.000000e+00
      480000   4.799990e-06   2.107148e+01   1.281457e+01   1.107881e+01   3.105474e+06   2.962716e+06   1.611453e+06  -2.099842e+12   1.575525e+12   1.150053e+12   4.584587e+06   1.538636e-17   0.000000e+00   0.000000e+00
      488000   4.879990e-06   2.131293e+01   1.305667e+01   1.121142e+01   2.927058e+06   3.089928e+06   1.703854e+06  -2.367102e+12   1.603883e+12   1.157879e+12   4.584587e+06   1.782527e-17   0.000000e+00   0.000000e+00
      496000   4.959990e-06   2.153920e+01   1.330901e+01   1.135142e+01   2.725760e+06   3.219079e+06   1.796165e+06  -2.673173e+12   1.623765e+12   1.146616e+12   4.584588e+06   2.078649e-17   0.000000e+00   0.000000e+00
      504000   5.039990e-06   2.174835e+01   1.357175e+01   1.149875e+01   2.498229e+06   3.349392e+06   1.886501e+06  -3.022319e+12   1.631314e+12   1.106105e+12   4.584589e+06   2.438641e-17   0.000000e+00   0.000000e+00
      512000   5.119990e-06   2.193812e+01   1.384492e+01   1.165314e+01   2.240649e+06   3.479766e+06   1.972104e+06  -3.424442e+12   1.623943e+12   1.025395e+12   4.584591e+06   2.887510e-17   0.000000e+00   0.000000e+00
      520000   5.199990e-06   2.210594e+01   1.412847e+01   1.181405e+01   1.948890e+06   3.608616e+06   2.048951e+06  -3.879958e+12   1.593180e+12   8.846566e+11   4.584592e+06   3.441858e-17   0.000000e+00   0.000000e+00
      528000   5.279990e-06   2.224891e+01   1.442220e+01   1.198058e+01   1.618572e+06   3.733787e+06   2.111294e+06  -4.388087e+12   1.530255e+12   6.578937e+11   4.584594e+06   4.126470e-17   0.000000e+00   0.000000e+00
      536000   5.359990e-06   2.236377e+01   1.472570e+01   1.215126e+01   1.245490e+06   3.852342e+06   2.150985e+06  -4.945977e+12   1.425284e+12   3.113691e+11   4.584596e+06   4.980854e-17   0.000000e+00   0.000000e+00
      544000   5.439990e-06   2.244696e+01   1.503829e+01   1.232384e+01   8.264322e+05   3.960335e+06   2.156687e+06  -5.534813e+12   1.264380e+12  -2.007239e+11   4.584599e+06   6.045173e-17   0.000000e+00   0.000000e+00
      552000   5.519990e-06   2.249474e+01   1.535894e+01   1.249501e+01   3.603251e+05   4.052716e+06   2.112873e+06  -6.108684e+12   1.031537e+12  -9.366496e+11   4.584602e+06   7.353436e-17   0.000000e+00   0.000000e+00
      560000   5.599990e-06   2.250344e+01   1.568614e+01   1.266004e+01  -1.493959e+05   4.123071e+06   1.999143e+06  -6.604561e+12   7.108667e+11  -1.959423e+12   4.584605e+06   8.984476e-17   0.000000e+00   0.000000e+00
      568000   5.679990e-06   2.246998e+01   1.601784e+01   1.281233e+01  -6.910108e+05   4.163797e+06   1.789957e+06  -6.887663e+12   2.886889e+11  -3.330194e+12   4.584610e+06   1.097911e-16   0.000000e+00   0.000000e+00
      576000   5.759990e-06   2.239266e+01   1.635133e+01   1.294312e+01  -1.240354e+06   4.166336e+06   1.456664e+06  -6.760959e+12  -2.434033e+11  -5.060306e+12   4.584616e+06   1.336985e-16   0.000000e+00   0.000000e+00
      584000   5.839990e-06   2.227242e+01   1.668320e+01   1.304138e+01  -1.755510e+06   4.121940e+06   9.729130e+05  -5.990714e+12  -8.837859e+11  -7.064333e+12   4.584623e+06   1.621672e-16   0.000000e+00   0.000000e+00
      592000   5.919990e-06   2.211430e+01   1.700937e+01   1.309439e+01  -2.175388e+06   4.022537e+06   3.251512e+05  -4.349898e+12  -1.615893e+12  -9.108638e+12   4.584631e+06   1.957452e-16   0.000000e+00   0.000000e+00
      600000   5.999990e-06   2.192888e+01   1.732517e+01   1.308935e+01  -2.425588e+06   3.861523e+06  -4.733894e+05  -1.755101e+12  -2.420790e+12  -1.075653e+13   4.584641e+06   2.334788e-16   0.000000e+00   0.000000e+00
      608000   6.079990e-06   2.173263e+01   1.762544e+01   1.301596e+01  -2.435904e+06   3.633782e+06  -1.371509e+06   1.593621e+12  -3.277786e+12  -1.151587e+13   4.584653e+06   2.732956e-16   0.000000e+00   0.000000e+00
      616000   6.159990e-06   2.154670e+01   1.790472e+01   1.286959e+01  -2.164431e+06   3.336472e+06  -2.280868e+06   5.186633e+12  -4.155755e+12  -1.100165e+13   4.584666e+06   3.094683e-16   0.000000e+00   0.000000e+00
      624000   6.239990e-06   2.139372e+01   1.815741e+01   1.265354e+01  -1.617388e+06   2.969441e+06  -3.096091e+06   8.363944e+12  -5.012300e+12  -9.177139e+12   4.584681e+06   3.358672e-16   0.000000e+00   0.000000e+00
      632000   6.319990e-06   2.129381e+01   1.837807e+01   1.237927e+01  -8.504640e+05   2.536904e+06  -3.722939e+06   1.060209e+13  -5.780470e+12  -6.361386e+12   4.584697e+06   3.489591e-16   0.000000e+00   0.000000e+00
      640000   6.399990e-06   2.126119e+01   1.856182e+01   1.206453e+01   4.922069e+04   2.048506e+06  -4.101317e+06   1.167668e+13  -6.396310e+12  -3.055120e+12   4.584714e+06   3.495366e-16   0.000000e+00   0.000000e+00
      648000   6.479990e-06   2.130270e+01   1.870473e+01   1.173024e+01   9.876989e+05   1.518962e+06  -4.211526e+06   1.162125e+13  -6.807565e+12   2.697476e+11   4.584730e+06   3.399447e-16   0.000000e+00   0.000000e+00
      656000   6.559990e-06   2.141806e+01   1.880422e+01   1.139750e+01   1.883168e+06   9.659817e+05  -4.066995e+06   1.064789e+13  -6.983201e+12   3.271310e+12   4.584745e+06   3.237904e-16   0.000000e+00   0.000000e+00
      664000   6.639990e-06   2.160121e+01   1.885916e+01   1.108542e+01   2.673945e+06   4.081238e+05  -3.701821e+06   9.038541e+12  -6.924694e+12   5.764948e+12   4.584760e+06   3.051289e-16   0.000000e+00   0.000000e+00
      672000   6.719990e-06   2.184199e+01   1.886988e+01   1.080992e+01   3.319069e+06  -1.365316e+05  -3.159951e+06   7.045352e+12  -6.661873e+12   7.687472e+12   4.584774e+06   2.868349e-16   0.000000e+00   0.000000e+00
      680000   6.799990e-06   2.212776e+01   1.883808e+01   1.058331e+01   3.795770e+06  -6.526759e+05  -2.487249e+06   4.855778e+12  -6.218189e+12   9.041490e+12   4.584787e+06   2.697482e-16   0.000000e+00   0.000000e+00
      688000   6.879990e-06   2.244457e+01   1.876655e+01   1.041429e+01   4.094559e+06  -1.127707e+06  -1.727206e+06   2.612754e+12  -5.637957e+12   9.874139e+12   4.584799e+06   2.549850e-16   0.000000e+00   0.000000e+00
      696000   6.959990e-06   2.277812e+01   1.865900e+01   1.030820e+01   4.214959e+06  -1.551746e+06  -9.201594e+05   4.106590e+11  -4.950799e+12   1.022866e+13   4.584810e+06   2.422339e-16   0.000000e+00   0.000000e+00
      704000   7.039990e-06   2.311437e+01   1.851982e+01   1.026734e+01   4.163267e+06  -1.917631e+06  -1.024115e+05  -1.680650e+12  -4.191611e+12   1.015250e+13   4.584821e+06   2.312997e-16   0.000000e+00   0.000000e+00
      712000   7.119990e-06   2.343995e+01   1.835385e+01   1.029124e+01   3.950606e+06  -2.220895e+06   6.935564e+05  -3.605394e+12  -3.388748e+12   9.687201e+12   4.584832e+06   2.216659e-16   0.000000e+00   0.000000e+00
      720000   7.199990e-06   2.374256e+01   1.816620e+01   1.037695e+01   3.591862e+06  -2.459674e+06   1.438508e+06  -5.320456e+12  -2.578586e+12   8.876558e+12   4.584842e+06   2.130967e-16   0.000000e+00   0.000000e+00
      728000   7.279990e-06   2.401125e+01   1.796202e+01   1.051933e+01   3.105831e+06  -2.634332e+06   2.105937e+06  -6.783202e+12  -1.795729e+12   7.758079e+12   4.584852e+06   2.049946e-16   0.000000e+00   0.000000e+00
      736000   7.359990e-06   2.423670e+01   1.774633e+01   1.071121e+01   2.515033e+06  -2.748330e+06   2.672498e+06  -7.936263e+12  -1.071431e+12   6.367212e+12   4.584861e+06   1.960957e-16   0.000000e+00   0.000000e+00
      744000   7.439990e-06   2.441156e+01   1.752373e+01   1.094372e+01   1.845779e+06  -2.808282e+06   3.118923e+06  -8.735983e+12  -4.523430e+11   4.762984e+12   4.584870e+06   1.858574e-16   0.000000e+00   0.000000e+00
      752000   7.519990e-06   2.453073e+01   1.729817e+01   1.120664e+01   1.128359e+06  -2.824551e+06   3.430718e+06  -9.131433e+12   1.446995e+10   3.015501e+12   4.584878e+06   1.732477e-16   0.000000e+00   0.000000e+00
      760000   7.599990e-06   2.459172e+01   1.707260e+01   1.148883e+01   3.968536e+05  -2.811160e+06   3.600148e+06  -9.078406e+12   2.850301e+11   1.223534e+12   4.584886e+06   1.573606e-16   0.000000e+00   0.000000e+00
      768000   7.679990e-06   2.459481e+01   1.684871e+01   1.177888e+01  -3.128508e+05  -2.785485e+06   3.628283e+06  -8.581753e+12   3.194642e+11  -4.945053e+11   4.584893e+06   1.386223e-16   0.000000e+00   0.000000e+00
      776000   7.759990e-06   2.454320e+01   1.662674e+01   1.206588e+01  -9.649214e+05  -2.766650e+06   3.526453e+06  -7.651322e+12   1.126249e+11  -2.005047e+12   4.584899e+06   1.172333e-16   0.000000e+00   0.000000e+00
      784000   7.839990e-06   2.444283e+01   1.640537e+01   1.234023e+01  -1.526892e+06  -2.773036e+06   3.316657e+06  -6.344497e+12  -3.043944e+11  -3.175171e+12   4.584904e+06   9.447406e-17   0.000000e+00   0.000000e+00
      792000   7.919990e-06   2.430200e+01   1.618199e+01   1.259450e+01  -1.972854e+06  -2.818951e+06   3.030303e+06  -4.771264e+12  -8.603396e+11  -3.906499e+12   4.584908e+06   7.262755e-17   0.000000e+00   0.000000e+00
      800000   7.999990e-06   2.413069e+01   1.595308e+01   1.282401e+01  -2.287355e+06  -2.911745e+06   2.703915e+06  -3.082137e+12  -1.457408e+12  -4.176629e+12   4.584911e+06   5.445855e-17   0.000000e+00   0.000000e+00
      808000   8.079990e-06   2.393964e+01   1.571488e+01   1.302703e+01  -2.466496e+06  -3.050187e+06   2.373644e+06  -1.412608e+12  -1.985589e+12  -4.019301e+12   4.584913e+06   4.139065e-17   0.000000e+00   0.000000e+00
      816000   8.159990e-06   2.373948e+01   1.546408e+01   1.320450e+01  -2.517418e+06  -3.224970e+06   2.069690e+06   1.055386e+11  -2.354392e+12  -3.540134e+12   4.584915e+06   3.388512e-17   0.000000e+00   0.000000e+00
      824000   8.239990e-06   2.353986e+01   1.519831e+01   1.335943e+01  -2.455866e+06  -3.421340e+06   1.812350e+06   1.387971e+12  -2.518404e+12  -2.873329e+12   4.584916e+06   3.095834e-17   0.000000e+00   0.000000e+00
      832000   8.319990e-06   2.334898e+01   1.491653e+01   1.349598e+01  -2.302706e+06  -3.622647e+06   1.611038e+06   2.393642e+12  -2.482191e+12  -2.160149e+12   4.584918e+06   3.101840e-17   0.000000e+00   0.000000e+00
      840000   8.399990e-06   2.317327e+01   1.461896e+01   1.361869e+01  -2.080257e+06  -3.813954e+06   1.465527e+06   3.123911e+12  -2.277730e+12  -1.493282e+12   4.584919e+06   3.217943e-17   0.000000e+00   0.000000e+00
      848000   8.479990e-06   2.301742e+01   1.430687e+01   1.373178e+01  -1.809736e+06  -3.983918e+06   1.369216e+06   3.603666e+12  -1.958768e+12  -9.360907e+11   4.584921e+06   3.315872e-17   0.000000e+00   0.000000e+00
      856000   8.559990e-06   2.288450e+01   1.398229e+01   1.383881e+01  -1.509513e+06  -4.125633e+06   1.312263e+06   3.872284e+12  -1.578909e+12  -5.094699e+11   4.584922e+06   3.324816e-17   0.000000e+00   0.000000e+00
      864000   8.639990e-06   2.277629e+01   1.364760e+01   1.394251e+01  -1.194471e+06  -4.236234e+06   1.284166e+06   3.979942e+12  -1.186538e+12  -2.120856e+11   4.584924e+06   3.239717e-17   0.000000e+00   0.000000e+00
      872000   8.719990e-06   2.269348e+01   1.330532e+01   1.404479e+01  -8.759764e+05  -4.315964e+06   1.275406e+06   3.966419e+12  -8.119252e+11  -2.319812e+10   4.584925e+06   3.071015e-17   0.000000e+00   0.000000e+00
      880000   8.799990e-06   2.263600e+01   1.295781e+01   1.414688e+01  -5.623502e+05  -4.367080e+06   1.278250e+06   3.863980e+12  -4.736643e+11   8.177708e+10   4.584927e+06   2.840430e-17   0.000000e+00   0.000000e+00
      888000   8.879990e-06   2.260322e+01   1.260726e+01   1.424947e+01  -2.592726e+05  -4.392989e+06   1.286853e+06   3.706017e+12  -1.822137e+11   1.247568e+11   4.584928e+06   2.582262e-17   0.000000e+00   0.000000e+00
      896000   8.959990e-06   2.259413e+01   1.225551e+01   1.435282e+01   2.946330e+04  -4.397517e+06   1.297130e+06   3.509382e+12   6.081217e+10   1.265470e+11   4.584929e+06   2.311016e-17   0.000000e+00   0.000000e+00
      904000   9.039990e-06   2.260749e+01   1.190412e+01   1.445698e+01   3.017163e+05  -4.384495e+06   1.306428e+06   3.295406e+12   2.573032e+11   1.025516e+11   4.584930e+06   2.048912e-17   0.000000e+00   0.000000e+00
      912000   9.119990e-06   2.264193e+01   1.155436e+01   1.456178e+01   5.564052e+05  -4.357464e+06   1.313206e+06   3.071796e+12   4.118461e+11   6.513628e+10   4.584931e+06   1.800372e-17   0.000000e+00   0.000000e+00
      920000   9.199990e-06   2.269604e+01   1.120722e+01   1.466700e+01   7.932429e+05  -4.319570e+06   1.316692e+06   2.850024e+12   5.298688e+11   2.136317e+10   4.584932e+06   1.574444e-17   0.000000e+00   0.000000e+00
      928000   9.279990e-06   2.276838e+01   1.086345e+01   1.477236e+01   1.012535e+06  -4.273491e+06   1.316683e+06   2.633252e+12   6.172192e+11  -2.164885e+10   4.584932e+06   1.370534e-17   0.000000e+00   0.000000e+00
      936000   9.359990e-06   2.285759e+01   1.052362e+01   1.487758e+01   1.214911e+06  -4.221470e+06   1.313314e+06   2.427581e+12   6.794014e+11  -6.179664e+10   4.584933e+06   1.191263e-17   0.000000e+00   0.000000e+00
      944000   9.439990e-06   2.296234e+01   1.018812e+01   1.498241e+01   1.401248e+06  -4.165330e+06   1.306960e+06   2.232208e+12   7.208858e+11  -9.571534e+10   4.584933e+06   1.032586e-17   0.000000e+00   0.000000e+00
      952000   9.519990e-06   2.308139e+01   9.857233e+00   1.508663e+01   1.572542e+06  -4.106538e+06   1.298104e+06   2.051306e+12   7.463187e+11  -1.239736e+11   4.584934e+06   8.955649e-18   0.000000e+00   0.000000e+00
      960000   9.599990e-06   2.321358e+01   9.531115e+00   1.519006e+01   1.729875e+06  -4.046249e+06   1.287255e+06   1.883937e+12   7.590468e+11  -1.457698e+11   4.584934e+06   7.768623e-18   0.000000e+00   0.000000e+00
      968000   9.679990e-06   2.335783e+01   9.209849e+00   1.529255e+01   1.874320e+06  -3.985353e+06   1.274956e+06   1.729475e+12   7.619446e+11  -1.607389e+11   4.584935e+06   6.739818e-18   0.000000e+00   0.000000e+00
      976000   9.759990e-06   2.351315e+01   8.893456e+00   1.539402e+01   2.006938e+06  -3.924524e+06   1.261720e+06   1.587751e+12   7.577172e+11  -1.686651e+11   4.584935e+06   5.851892e-18   0.000000e+00   0.000000e+00
      984000   9.839990e-06   2.367865e+01   8.581910e+00   1.549441e+01   2.128758e+06  -3.864250e+06   1.248036e+06   1.459041e+12   7.482707e+11  -1.717996e+11   4.584935e+06   5.092544e-18   0.000000e+00   0.000000e+00
      992000   9.919990e-06   2.385349e+01   8.275152e+00   1.559371e+01   2.240738e+06  -3.804890e+06   1.234317e+06   1.342038e+12   7.351912e+11  -1.699804e+11   4.584935e+06   4.441022e-18   0.000000e+00   0.000000e+00
     1000000   9.999990e-06   2.403693e+01   7.973097e+00   1.569191e+01   2.343789e+06  -3.746678e+06   1.220937e+06   1.235755e+12   7.197964e+11  -1.633857e+11   4.584936e+06   3.881653e-18   0.000000e+00   0.000000e+00
     1008000   1.007999e-05   2.422828e+01   7.675649e+00   1.578908e+01   2.438745e+06  -3.689758e+06   1.208241e+06   1.139630e+12   7.031898e+11  -1.528235e+11   4.584936e+06   3.403340e-18   0.000000e+00   0.000000e+00
     1016000   1.015999e-05   2.442693e+01   7.382700e+00   1.588526e+01   2.526387e+06  -3.634192e+06   1.196519e+06   1.052810e+12   6.860547e+11  -1.391821e+11   4.584936e+06   2.994666e-18   0.000000e+00   0.000000e+00
     1024000   1.023999e-05   2.463233e+01   7.094142e+00   1.598055e+01   2.607433e+06  -3.579989e+06   1.186006e+06   9.745950e+11   6.691997e+11  -1.226386e+11   4.584936e+06   2.646671e-18   0.000000e+00   0.000000e+00
     1032000   1.031999e-05   2.484396e+01   6.809867e+00   1.607506e+01   2.682536e+06  -3.527109e+06   1.176922e+06   9.041300e+11   6.529428e+11  -1.039563e+11   4.584936e+06   2.350452e-18   0.000000e+00   0.000000e+00
     1040000   1.039999e-05   2.506139e+01   6.529771e+00   1.616890e+01   2.752293e+06  -3.475476e+06   1.169439e+06   8.408631e+11   6.379960e+11  -8.290386e+10   4.584936e+06   2.100098e-18   0.000000e+00   0.000000e+00
     1048000   1.047999e-05   2.528420e+01   6.253760e+00   1.626222e+01   2.817250e+06  -3.424985e+06   1.163709e+06   7.840747e+11   6.245226e+11  -6.010402e+10   4.584936e+06   1.889239e-18   0.000000e+00   0.000000e+00
     1056000   1.055999e-05   2.551204e+01   5.981746e+00   1.635514e+01   2.877895e+06  -3.375514e+06   1.159855e+06   7.329374e+11   6.125721e+11  -3.583406e+10   4.584936e+06   1.711841e-18   0.000000e+00   0.000000e+00
     1064000   1.063999e-05   2.574456e+01   5.713654e+00   1.644785e+01   2.934672e+06  -3.326921e+06   1.157991e+06   6.871990e+11   6.025286e+11  -1.047516e+10   4.584936e+06   1.565085e-18   0.000000e+00   0.000000e+00
     1072000   1.071999e-05   2.598149e+01   5.449420e+00   1.654048e+01   2.987989e+06  -3.279043e+06   1.158206e+06   6.463819e+11   5.946566e+11   1.599941e+10   4.584937e+06   1.445722e-18   0.000000e+00   0.000000e+00
     1080000   1.079999e-05   2.622256e+01   5.188993e+00   1.663322e+01   3.038202e+06  -3.231717e+06   1.160594e+06   6.096582e+11   5.888999e+11   4.385665e+10   4.584937e+06   1.349663e-18   0.000000e+00   0.000000e+00
     1088000   1.087999e-05   2.646753e+01   4.932336e+00   1.672623e+01   3.085645e+06  -3.184758e+06   1.165225e+06   5.770094e+11   5.854057e+11   7.203418e+10   4.584937e+06   1.275508e-18   0.000000e+00   0.000000e+00
     1096000   1.095999e-05   2.671620e+01   4.679426e+00   1.681971e+01   3.130616e+06  -3.137982e+06   1.172159e+06   5.477397e+11   5.843138e+11   1.013596e+11   4.584937e+06   1.220962e-18   0.000000e+00   0.000000e+00
     1104000   1.103999e-05   2.696837e+01   4.430259e+00   1.691384e+01   3.173375e+06  -3.091190e+06   1.181472e+06   5.217217e+11   5.858226e+11   1.314265e+11   4.584937e+06   1.185252e-18   0.000000e+00   0.000000e+00
     1112000   1.111999e-05   2.722388e+01   4.184842e+00   1.700881e+01   3.214158e+06  -3.044180e+06   1.193231e+06   4.984205e+11   5.899139e+11   1.624233e+11   4.584937e+06   1.166792e-18   0.000000e+00   0.000000e+00
     1120000   1.119999e-05   2.748259e+01   3.943202e+00   1.710483e+01   3.253180e+06  -2.996730e+06   1.207506e+06   4.777134e+11   5.968857e+11   1.943046e+11   4.584937e+06   1.165730e-18   0.000000e+00   0.000000e+00
     1128000   1.127999e-05   2.774435e+01   3.705383e+00   1.720208e+01   3.290636e+06  -2.948602e+06   1.224380e+06   4.591407e+11   6.068271e+11   2.274075e+11   4.584937e+06   1.181702e-18   0.000000e+00   0.000000e+00
     1136000   1.135999e-05   2.800905e+01   3.471450e+00   1.730080e+01   3.326694e+06  -2.899543e+06   1.243948e+06   4.426617e+11   6.201448e+11   2.617015e+11   4.584937e+06   1.215896e-18   0.000000e+00   0.000000e+00
     1144000   1.143999e-05   2.827659e+01   3.241488e+00   1.740119e+01   3.361501e+06  -2.849282e+06   1.266313e+06   4.279638e+11   6.370112e+11   2.972647e+11   4.584937e+06   1.268886e-18   0.000000e+00   0.000000e+00
     1152000   1.151999e-05   2.854686e+01   3.015604e+00   1.750349e+01   3.395185e+06  -2.797527e+06   1.291591e+06   4.145031e+11   6.575207e+11   3.345678e+11   4.584937e+06   1.341535e-18   0.000000e+00   0.000000e+00
     1160000   1.159999e-05   2.881979e+01   2.793932e+00   1.760793e+01   3.427852e+06  -2.743948e+06   1.319936e+06   4.024102e+11   6.826145e+11   3.740057e+11   4.584937e+06   1.438379e-18   0.000000e+00   0.000000e+00
     1168000   1.167999e-05   2.909529e+01   2.576631e+00   1.771476e+01   3.459594e+06  -2.688168e+06   1.351521e+06   3.913329e+11   7.126613e+11   4.157604e+11   4.584937e+06   1.562224e-18   0.000000e+00   0.000000e+00
     1176000   1.175999e-05   2.937330e+01   2.363895e+00   1.782426e+01   3.490475e+06  -2.629766e+06   1.386565e+06   3.808870e+11   7.483860e+11   4.605715e+11   4.584937e+06   1.718463e-18   0.000000e+00   0.000000e+00
     1184000   1.183999e-05   2.965375e+01   2.155952e+00   1.793671e+01   3.520543e+06  -2.568236e+06   1.425338e+06   3.708721e+11   7.909553e+11   5.091418e+11   4.584937e+06   1.915356e-18   0.000000e+00   0.000000e+00
     1192000   1.191999e-05   2.993657e+01   1.953076e+00   1.805242e+01   3.549815e+06  -2.502986e+06   1.468172e+06   3.608633e+11   8.417408e+11   5.625225e+11   4.584938e+06   2.164143e-18   0.000000e+00   0.000000e+00
     1200000   1.199999e-05   3.022170e+01   1.755592e+00   1.817174e+01   3.578263e+06  -2.433295e+06   1.515506e+06   3.502912e+11   9.026430e+11   6.222188e+11   4.584938e+06   2.481577e-18   0.000000e+00   0.000000e+00
     1208000   1.207999e-05   3.050907e+01   1.563890e+00   1.829504e+01   3.605807e+06  -2.358291e+06   1.567889e+06   3.387512e+11   9.765960e+11   6.898713e+11   4.584938e+06   2.893330e-18   0.000000e+00   0.000000e+00
     1216000   1.215999e-05   3.079860e+01   1.378436e+00   1.842276e+01   3.632274e+06  -2.276880e+06   1.626055e+06   3.227774e+11   1.062866e+12   7.672684e+11   4.584938e+06   3.414420e-18   0.000000e+00   0.000000e+00
     1224000   1.223999e-05   3.109019e+01   1.199797e+00   1.855539e+01   3.657340e+06  -2.187664e+06   1.691049e+06   3.023124e+11   1.172548e+12   8.630766e+11   4.584938e+06   4.142403e-18   0.000000e+00   0.000000e+00
     1232000   1.231999e-05   3.138372e+01   1.028671e+00   1.869355e+01   3.680468e+06  -2.088730e+06   1.764375e+06   2.736455e+11   1.306288e+12   9.756234e+11   4.584938e+06   5.120216e-18   0.000000e+00   0.000000e+00
     1240000   1.239999e-05   3.167899e+01   8.659178e-01   1.883797e+01   3.700577e+06  -1.977841e+06   1.848117e+06   2.261017e+11   1.474846e+12   1.125653e+12   4.584939e+06   6.544475e-18   0.000000e+00   0.000000e+00
     1248000   1.247999e-05   3.197568e+01   7.126239e-01   1.898962e+01   3.715765e+06  -1.851625e+06   1.945828e+06   1.457654e+11   1.688795e+12   1.328705e+12   4.584939e+06   8.690141e-18   0.000000e+00   0.000000e+00
     1256000   1.255999e-05   3.227328e+01   5.701829e-01   1.914983e+01   3.722120e+06  -1.705620e+06   2.063578e+06  -3.336422e+09   1.977847e+12   1.640811e+12   4.584939e+06   1.237195e-17   0.000000e+00   0.000000e+00
     1264000   1.263999e-05   3.257077e+01   4.404197e-01   1.932062e+01   3.711061e+06  -1.533582e+06   2.213104e+06  -3.172527e+11   2.318941e+12   2.138956e+12   4.584940e+06   1.883312e-17   0.000000e+00   0.000000e+00
     1272000   1.271999e-05   3.286599e+01   3.255930e-01   1.950543e+01   3.659212e+06  -1.331872e+06   2.420324e+06  -1.087845e+12   2.665490e+12   3.111536e+12   4.584941e+06   3.366261e-17   0.000000e+00   0.000000e+00
     1280000   1.279999e-05   3.315322e+01   2.276638e-01   1.971122e+01   3.488636e+06  -1.121340e+06   2.755671e+06  -3.564642e+12   2.173641e+12   5.397449e+12   4.584944e+06   8.722075e-17   0.000000e+00   0.000000e+00
     1288000   1.287999e-05   3.341967e+01   1.411650e-01   1.994778e+01   3.292327e+06  -1.050072e+06   3.013250e+06   5.150095e+12   4.195629e+12  -4.164762e+12   4.584947e+06   1.150200e-16   0.000000e+00   0.000000e+00
     1296000   1.295999e-05   3.370669e+01   8.059335e-02   2.016681e+01   3.818488e+06  -4.494173e+05   2.497806e+06   3.932851e+12   7.402808e+12  -4.679977e+12   4.584961e+06   1.727233e-16   0.000000e+00   0.000000e+00
     1304000   1.303999e-05   3.402097e+01   6.772306e-02   2.035489e+01   4.002401e+06   1.112020e+05   2.233906e+06   1.143640e+12   6.199632e+12  -2.357424e+12   4.584966e+06   8.487912e-17   0.000000e+00   0.000000e+00
     1312000   1.311999e-05   3.434348e+01   9.462248e-02   2.052720e+01   4.047453e+06   5.426587e+05   2.084608e+06   1.368189e+11   4.767045e+12  -1.506469e+12   4.584969e+06   4.686407e-17   0.000000e+00   0.000000e+00
     1320000   1.319999e-05   3.466719e+01   1.521434e-01   2.068960e+01   4.040550e+06   8.818010e+05   1.979481e+06  -2.250627e+11   3.742207e+12  -1.207564e+12   4.584971e+06   2.906502e-17   0.000000e+00   0.000000e+00
     1328000   1.327999e-05   3.498950e+01   2.339608e-01   2.084427e+01   4.015003e+06   1.154948e+06   1.888867e+06  -3.879917e+11   3.102665e+12  -1.072347e+12   4.584972e+06   2.047243e-17   0.000000e+00   0.000000e+00
     1336000   1.335999e-05   3.530939e+01   3.357021e-01   2.099201e+01   3.981328e+06   1.382189e+06   1.805702e+06  -4.478322e+11   2.602912e+12  -1.004966e+12   4.584973e+06   1.496162e-17   0.000000e+00   0.000000e+00
     1344000   1.343999e-05   3.562642e+01   4.541972e-01   2.113331e+01   3.944246e+06   1.575257e+06   1.727272e+06  -4.737647e+11   2.234110e+12  -9.556062e+11   4.584974e+06   1.148274e-17   0.000000e+00   0.000000e+00
     1352000   1.351999e-05   3.594045e+01   5.870211e-01   2.126847e+01   3.906231e+06   1.741394e+06   1.652543e+06  -4.738951e+11   1.929830e+12  -9.133820e+11   4.584974e+06   8.961312e-18   0.000000e+00   0.000000e+00
     1360000   1.359999e-05   3.625142e+01   7.322538e-01   2.139781e+01   3.868217e+06   1.886254e+06   1.581435e+06  -4.727686e+11   1.694708e+12  -8.649358e+11   4.584974e+06   7.201246e-18   0.000000e+00   0.000000e+00
     1368000   1.367999e-05   3.655937e+01   8.883638e-01   2.152160e+01   3.830729e+06   2.013840e+06   1.513921e+06  -4.626518e+11   1.498073e+12  -8.220735e+11   4.584975e+06   5.871789e-18   0.000000e+00   0.000000e+00
     1376000   1.375999e-05   3.686437e+01   1.054078e+00   2.164013e+01   3.794250e+06   2.126793e+06   1.449970e+06  -4.495711e+11   1.331785e+12  -7.769954e+11   4.584975e+06   4.832745e-18   0.000000e+00   0.000000e+00
     1384000   1.383999e-05   3.716648e+01   1.228328e+00   2.175369e+01   3.758791e+06   2.227654e+06   1.389620e+06  -4.370680e+11   1.194009e+12  -7.318343e+11   4.584975e+06   4.032334e-18   0.000000e+00   0.000000e+00
     1392000   1.391999e-05   3.746580e+01   1.410223e+00   2.186257e+01   3.724472e+06   2.318121e+06   1.332899e+06  -4.225444e+11   1.074174e+12  -6.874436e+11   4.584975e+06   3.381660e-18   0.000000e+00   0.000000e+00
     1400000   1.399999e-05   3.776243e+01   1.598994e+00   2.196705e+01   3.691227e+06   2.399818e+06   1.279735e+06  -4.088409e+11   9.712793e+11  -6.421277e+11   4.584976e+06   2.853119e-18   0.000000e+00   0.000000e+00
     1408000   1.407999e-05   3.805643e+01   1.793993e+00   2.206742e+01   3.659007e+06   2.473989e+06   1.230060e+06  -3.959950e+11   8.833936e+11  -5.987874e+11   4.584976e+06   2.427605e-18   0.000000e+00   0.000000e+00
     1416000   1.415999e-05   3.834790e+01   1.994653e+00   2.216395e+01   3.627891e+06   2.541479e+06   1.183762e+06  -3.816689e+11   8.044962e+11  -5.574988e+11   4.584976e+06   2.067789e-18   0.000000e+00   0.000000e+00
     1424000   1.423999e-05   3.863692e+01   2.200473e+00   2.225691e+01   3.597847e+06   2.603111e+06   1.140753e+06  -3.696656e+11   7.380827e+11  -5.183428e+11   4.584976e+06   1.780027e-18   0.000000e+00   0.000000e+00
     1432000   1.431999e-05   3.892358e+01   2.411016e+00   2.234655e+01   3.568803e+06   2.659644e+06   1.100885e+06  -3.575085e+11   6.782562e+11  -4.796456e+11   4.584976e+06   1.532357e-18   0.000000e+00   0.000000e+00
     1440000   1.439999e-05   3.920795e+01   2.625898e+00   2.243313e+01   3.540683e+06   2.711718e+06   1.064028e+06  -3.457840e+11   6.252149e+11  -4.427406e+11   4.584976e+06   1.323601e-18   0.000000e+00   0.000000e+00
     1448000   1.447999e-05   3.949011e+01   2.844785e+00   2.251687e+01   3.513456e+06   2.759834e+06   1.030026e+06  -3.351350e+11   5.789262e+11  -4.080013e+11   4.584976e+06   1.150220e-18   0.000000e+00   0.000000e+00
     1456000   1.455999e-05   3.977013e+01   3.067379e+00   2.259801e+01   3.487088e+06   2.804431e+06   9.986941e+05  -3.237381e+11   5.361676e+11  -3.752268e+11   4.584976e+06   9.987296e-19   0.000000e+00   0.000000e+00
     1464000   1.463999e-05   4.004807e+01   3.293407e+00   2.267673e+01   3.461625e+06   2.845777e+06   9.699056e+05  -3.129173e+11   4.979806e+11  -3.442958e+11   4.584976e+06   8.701395e-19   0.000000e+00   0.000000e+00
     1472000   1.471999e-05   4.032401e+01   3.522628e+00   2.275325e+01   3.436934e+06   2.884334e+06   9.434565e+05  -3.041681e+11   4.660594e+11  -3.167728e+11   4.584976e+06   7.682829e-19   0.000000e+00   0.000000e+00
     1480000   1.479999e-05   4.059800e+01   3.754835e+00   2.282774e+01   3.412925e+06   2.920458e+06   9.191687e+05  -2.948292e+11   4.361174e+11  -2.909464e+11   4.584976e+06   6.777876e-19   0.000000e+00   0.000000e+00
     1488000   1.487999e-05   4.087009e+01   3.989842e+00   2.290037e+01   3.389546e+06   2.954422e+06   8.968675e+05  -2.879177e+11   4.113735e+11  -2.669932e+11   4.584976e+06   6.059143e-19   0.000000e+00   0.000000e+00
     1496000   1.495999e-05   4.114035e+01   4.227485e+00   2.297129e+01   3.366835e+06   2.986360e+06   8.764043e+05  -2.805723e+11   3.882954e+11  -2.452593e+11   4.584976e+06   5.426552e-19   0.000000e+00   0.000000e+00
     1504000   1.503999e-05   4.140880e+01   4.467616e+00   2.304064e+01   3.344616e+06   3.016636e+06   8.575890e+05  -2.746468e+11   3.686423e+11  -2.255967e+11   4.584976e+06   4.912744e-19   0.000000e+00   0.000000e+00
     1512000   1.511999e-05   4.167549e+01   4.710110e+00   2.310855e+01   3.322795e+06   3.045484e+06   8.402806e+05  -2.699014e+11   3.518432e+11  -2.079108e+11   4.584976e+06   4.493902e-19   0.000000e+00   0.000000e+00
     1520000   1.519999e-05   4.194045e+01   4.954863e+00   2.317512e+01   3.301253e+06   3.073156e+06   8.242856e+05  -2.670485e+11   3.384243e+11  -1.922073e+11   4.584976e+06   4.173960e-19   0.000000e+00   0.000000e+00
     1528000   1.527999e-05   4.220370e+01   5.201786e+00   2.324046e+01   3.279948e+06   3.099796e+06   8.094539e+05  -2.651819e+11   3.273005e+11  -1.788612e+11   4.584976e+06   3.923816e-19   0.000000e+00   0.000000e+00
     1536000   1.535999e-05   4.246525e+01   5.450807e+00   2.330466e+01   3.258786e+06   3.125583e+06   7.956439e+05  -2.639072e+11   3.176819e+11  -1.670621e+11   4.584976e+06   3.718482e-19   0.000000e+00   0.000000e+00
     1544000   1.543999e-05   4.272511e+01   5.701860e+00   2.336779e+01   3.237721e+06   3.150645e+06   7.826925e+05  -2.628791e+11   3.091740e+11  -1.571064e+11   4.584976e+06   3.547947e-19   0.000000e+00   0.000000e+00
     1552000   1.551999e-05   4.298328e+01   5.954896e+00   2.342991e+01   3.216602e+06   3.175192e+06   7.704793e+05  -2.632505e+11   3.026625e+11  -1.482688e+11   4.584976e+06   3.426446e-19   0.000000e+00   0.000000e+00
     1560000   1.559999e-05   4.323977e+01   6.209878e+00   2.349108e+01   3.195310e+06   3.199384e+06   7.589104e+05  -2.680419e+11   3.011596e+11  -1.410527e+11   4.584976e+06   3.418020e-19   0.000000e+00   0.000000e+00
     1568000   1.567999e-05   4.349453e+01   6.466791e+00   2.355135e+01   3.173647e+06   3.223451e+06   7.478896e+05  -2.748719e+11   3.018729e+11  -1.346777e+11   4.584976e+06   3.462563e-19   0.000000e+00   0.000000e+00
     1576000   1.575999e-05   4.374753e+01   6.725632e+00   2.361076e+01   3.151399e+06   3.247629e+06   7.372918e+05  -2.799019e+11   3.011164e+11  -1.299762e+11   4.584976e+06   3.483009e-19   0.000000e+00   0.000000e+00
     1584000   1.583999e-05   4.399874e+01   6.986410e+00   2.366933e+01   3.128616e+06   3.271874e+06   7.270579e+05  -2.869501e+11   3.024920e+11  -1.264783e+11   4.584976e+06   3.556621e-19   0.000000e+00   0.000000e+00
     1592000   1.591999e-05   4.424809e+01   7.249141e+00   2.372709e+01   3.104957e+06   3.296513e+06   7.171149e+05  -3.022291e+11   3.113001e+11  -1.224275e+11   4.584977e+06   3.807623e-19   0.000000e+00   0.000000e+00
     1600000   1.599999e-05   4.449551e+01   7.513866e+00   2.378407e+01   3.080255e+06   3.321682e+06   7.074393e+05  -3.159626e+11   3.185467e+11  -1.199581e+11   4.584977e+06   4.040981e-19   0.000000e+00   0.000000e+00
     1608000   1.607999e-05   4.474090e+01   7.780628e+00   2.384029e+01   3.054331e+06   3.347524e+06   6.979624e+05  -3.341166e+11   3.293132e+11  -1.173112e+11   4.584977e+06   4.380959e-19   0.000000e+00   0.000000e+00
     1616000   1.615999e-05   4.498417e+01   8.049487e+00   2.389575e+01   3.027082e+06   3.374096e+06   6.886678e+05  -3.491054e+11   3.367185e+11  -1.152188e+11   4.584977e+06   4.656114e-19   0.000000e+00   0.000000e+00
     1624000   1.623999e-05   4.522519e+01   8.320507e+00   2.395048e+01   2.998240e+06   3.401585e+06   6.795489e+05  -3.717927e+11   3.502192e+11  -1.126830e+11   4.584977e+06   5.125418e-19   0.000000e+00   0.000000e+00
     1632000   1.631999e-05   4.546384e+01   8.593766e+00   2.400449e+01   2.967669e+06   3.430048e+06   6.706118e+05  -3.909655e+11   3.598315e+11  -1.103178e+11   4.584977e+06   5.517437e-19   0.000000e+00   0.000000e+00
     1640000   1.639999e-05   4.569997e+01   8.869342e+00   2.405778e+01   2.935224e+06   3.459538e+06   6.618675e+05  -4.228018e+11   3.794006e+11  -1.080717e+11   4.584977e+06   6.264504e-19   0.000000e+00   0.000000e+00
     1648000   1.647999e-05   4.593342e+01   9.147323e+00   2.411039e+01   2.900586e+06   3.490238e+06   6.533403e+05  -4.476979e+11   3.917154e+11  -1.049838e+11   4.584977e+06   6.836158e-19   0.000000e+00   0.000000e+00
     1656000   1.655999e-05   4.616400e+01   9.427811e+00   2.416233e+01   2.863588e+06   3.522177e+06   6.450928e+05  -4.750587e+11   4.047766e+11  -1.012537e+11   4.584977e+06   7.489726e-19   0.000000e+00   0.000000e+00
     1664000   1.663999e-05   4.639153e+01   9.710899e+00   2.421361e+01   2.824216e+06   3.555258e+06   6.371502e+05  -5.092022e+11   4.218734e+11  -9.694301e+10   4.584977e+06   8.368023e-19   0.000000e+00   0.000000e+00
     1672000   1.671999e-05   4.661580e+01   9.996690e+00   2.426428e+01   2.781940e+06   3.589768e+06   6.295917e+05  -5.485846e+11   4.412564e+11  -9.192219e+10   4.584977e+06   9.444113e-19   0.000000e+00   0.000000e+00
     1680000   1.679999e-05   4.683657e+01   1.028530e+01   2.431436e+01   2.736686e+06   3.625616e+06   6.224700e+05  -5.867772e+11   4.577228e+11  -8.626349e+10   4.584977e+06   1.051494e-18   0.000000e+00   0.000000e+00
     1688000   1.687999e-05   4.705358e+01   1.057683e+01   2.436389e+01   2.688214e+06   3.662823e+06   6.158336e+05  -6.241572e+11   4.714771e+11  -7.966871e+10   4.584977e+06   1.158195e-18   0.000000e+00   0.000000e+00
     1696000   1.695999e-05   4.726660e+01   1.087138e+01   2.441291e+01   2.636598e+06   3.701158e+06   6.097460e+05  -6.653352e+11   4.858811e+11  -7.231643e+10   4.584977e+06   1.281415e-18   0.000000e+00   0.000000e+00
     1704000   1.703999e-05   4.747535e+01   1.116904e+01   2.446146e+01   2.581673e+06   3.740566e+06   6.042749e+05  -7.075627e+11   4.987505e+11  -6.438452e+10   4.584977e+06   1.411731e-18   0.000000e+00   0.000000e+00
     1712000   1.711999e-05   4.767957e+01   1.146990e+01   2.450961e+01   2.523233e+06   3.781005e+06   5.994259e+05  -7.511243e+11   5.102118e+11  -5.645954e+10   4.584977e+06   1.550649e-18   0.000000e+00   0.000000e+00
     1720000   1.719999e-05   4.787897e+01   1.177402e+01   2.455739e+01   2.461284e+06   3.822274e+06   5.952492e+05  -7.965491e+11   5.203840e+11  -4.789246e+10   4.584977e+06   1.700326e-18   0.000000e+00   0.000000e+00
     1728000   1.727999e-05   4.807328e+01   1.208148e+01   2.460487e+01   2.395729e+06   3.864237e+06   5.917524e+05  -8.409956e+11   5.274318e+11  -3.939817e+10   4.584977e+06   1.849134e-18   0.000000e+00   0.000000e+00
     1736000   1.735999e-05   4.826219e+01   1.239231e+01   2.465209e+01   2.326578e+06   3.906689e+06   5.889249e+05  -8.867925e+11   5.328085e+11  -3.109891e+10   4.584977e+06   2.006958e-18   0.000000e+00   0.000000e+00
     1744000   1.743999e-05   4.844544e+01   1.270655e+01   2.469911e+01   2.253911e+06   3.949384e+06   5.867416e+05  -9.334212e+11   5.361883e+11  -2.344091e+10   4.584977e+06   2.171952e-18   0.000000e+00   0.000000e+00
     1752000   1.751999e-05   4.862273e+01   1.302422e+01   2.474598e+01   2.177645e+06   3.992180e+06   5.851340e+05  -9.766730e+11   5.351834e+11  -1.655896e+10   4.584978e+06   2.324198e-18   0.000000e+00   0.000000e+00
     1760000   1.759999e-05   4.879377e+01   1.334530e+01   2.479275e+01   2.097757e+06   4.034885e+06   5.840703e+05  -1.021998e+12   5.327944e+11  -1.001111e+10   4.584978e+06   2.488813e-18   0.000000e+00   0.000000e+00
     1768000   1.767999e-05   4.895827e+01   1.366979e+01   2.483945e+01   2.014307e+06   4.077274e+06   5.834593e+05  -1.062742e+12   5.257479e+11  -4.998585e+09   4.584978e+06   2.633834e-18   0.000000e+00   0.000000e+00
     1776000   1.775999e-05   4.911597e+01   1.399765e+01   2.488611e+01   1.927512e+06   4.119047e+06   5.832409e+05  -1.106415e+12   5.178870e+11  -9.573704e+08   4.584978e+06   2.795896e-18   0.000000e+00   0.000000e+00
     1784000   1.783999e-05   4.926658e+01   1.432882e+01   2.493277e+01   1.837290e+06   4.160066e+06   5.832973e+05  -1.149015e+12   5.071706e+11   2.103992e+09   4.584978e+06   2.955339e-18   0.000000e+00   0.000000e+00
     1792000   1.791999e-05   4.940985e+01   1.466323e+01   2.497944e+01   1.743719e+06   4.200111e+06   5.835571e+05  -1.191040e+12   4.939474e+11   3.807653e+09   4.584978e+06   3.114794e-18   0.000000e+00   0.000000e+00
     1800000   1.799999e-05   4.954549e+01   1.500080e+01   2.502614e+01   1.646847e+06   4.238984e+06   5.838980e+05  -1.228166e+12   4.765477e+11   4.350422e+09   4.584978e+06   3.251432e-18   0.000000e+00   0.000000e+00
     1808000   1.807999e-05   4.967327e+01   1.534143e+01   2.507287e+01   1.546937e+06   4.276409e+06   5.842412e+05  -1.272601e+12   4.597825e+11   4.165930e+09   4.584978e+06   3.430195e-18   0.000000e+00   0.000000e+00
     1816000   1.815999e-05   4.979291e+01   1.568499e+01   2.511962e+01   1.443685e+06   4.312326e+06   5.845087e+05  -1.306340e+12   4.369599e+11   2.821223e+09   4.584979e+06   3.554869e-18   0.000000e+00   0.000000e+00
     1824000   1.823999e-05   4.990550e+01   1.603093e+01   2.516639e+01   1.390374e+06   4.329792e+06   5.846255e+05   0.000000e+00   0.000000e+00   0.000000e+00   4.584979e+06   0.000000e+00   0.000000e+00   0.000000e+00
