     timestep     time              x             y              z              vx             vy             vz             ax             ay             az         v_magnitude      ELoss        Electronic      Nuclear
           0   0.000000e+00   1.000000e-01   8.805760e+00   1.793608e+01   1.217581e+06  -3.893874e+05   1.230869e+06   0.000000e+00   0.000000e+00   0.000000e+00   1.774589e+06   0.000000e+00   0.000000e+00   0.000000e+00
        8000   7.999000e-08   1.977044e-01   8.776017e+00   1.803469e+01   1.224721e+06  -3.536911e+05   1.234555e+06   7.743765e+10   4.657755e+11   5.662234e+10   1.774589e+06   6.344329e-20   0.000000e+00   0.000000e+00
       16000   1.599900e-07   2.959003e-01   8.749254e+00   1.813366e+01   1.229803e+06  -3.148310e+05   1.240013e+06   4.910764e+10   5.062796e+11   7.983984e+10   1.774589e+06   7.437170e-20   0.000000e+00   0.000000e+00
       24000   2.399900e-07   3.944066e-01   8.725731e+00   1.823314e+01   1.232410e+06  -2.727124e+05   1.247381e+06   1.544557e+10   5.473141e+11   1.044005e+11   1.774589e+06   8.716016e-20   0.000000e+00   0.000000e+00
       32000   3.199900e-07   4.930082e-01   8.705708e+00   1.833329e+01   1.232114e+06  -2.273298e+05   1.256735e+06  -2.351085e+10   5.876822e+11   1.293585e+11   1.774589e+06   1.017386e-19   0.000000e+00   0.000000e+00
       40000   3.999900e-07   5.914561e-01   8.689442e+00   1.843427e+01   1.228507e+06  -1.788142e+05   1.268055e+06  -6.733217e+10   6.256782e+11   1.534652e+11   1.774589e+06   1.177017e-19   0.000000e+00   0.000000e+00
       48000   4.799900e-07   6.894715e-01   8.677175e+00   1.853623e+01   1.221253e+06  -1.274354e+05   1.281198e+06  -1.145790e+11   6.591667e+11   1.747864e+11   1.774589e+06   1.341473e-19   0.000000e+00   0.000000e+00
       56000   5.599900e-07   7.867532e-01   8.669118e+00   1.863931e+01   1.210140e+06  -7.363727e+04   1.295880e+06  -1.636008e+11   6.862112e+11   1.917740e+11   1.774589e+06   1.499277e-19   0.000000e+00   0.000000e+00
       64000   6.399900e-07   8.829897e-01   8.665442e+00   1.874360e+01   1.195135e+06  -1.801777e+04   1.311677e+06  -2.117738e+11   7.047873e+11   2.026434e+11   1.774590e+06   1.634528e-19   0.000000e+00   0.000000e+00
       72000   7.199900e-07   9.778749e-01   8.666265e+00   1.884919e+01   1.176410e+06   3.870170e+04   1.328055e+06  -2.563571e+11   7.136504e+11   2.062924e+11   1.774590e+06   1.732540e-19   0.000000e+00   0.000000e+00
       80000   7.999900e-07   1.071125e+00   8.671644e+00   1.895609e+01   1.154349e+06   9.572596e+04   1.344427e+06  -2.948468e+11   7.122283e+11   2.024534e+11   1.774590e+06   1.781975e-19   0.000000e+00   0.000000e+00
       88000   8.799900e-07   1.162496e+00   8.681571e+00   1.906428e+01   1.129522e+06   1.522509e+05   1.360209e+06  -3.250387e+11   7.005693e+11   1.915017e+11   1.774590e+06   1.776173e-19   0.000000e+00   0.000000e+00
       96000   9.599900e-07   1.251793e+00   8.695973e+00   1.917370e+01   1.102653e+06   2.074872e+05   1.374873e+06  -3.456557e+11   6.799839e+11   1.746028e+11   1.774590e+06   1.717888e-19   0.000000e+00   0.000000e+00
      104000   1.039990e-06   1.338886e+00   8.714718e+00   1.928422e+01   1.074536e+06   2.607576e+05   1.388001e+06  -3.563996e+11   6.519307e+11   1.534394e+11   1.774590e+06   1.614754e-19   0.000000e+00   0.000000e+00
      112000   1.119990e-06   1.423704e+00   8.737630e+00   1.939573e+01   1.045915e+06   3.115813e+05   1.399339e+06  -3.580603e+11   6.186847e+11   1.298724e+11   1.774590e+06   1.480846e-19   0.000000e+00   0.000000e+00
      120000   1.199990e-06   1.506237e+00   8.764497e+00   1.950807e+01   1.017466e+06   3.596162e+05   1.408762e+06  -3.515792e+11   5.816257e+11   1.054561e+11   1.774591e+06   1.327036e-19   0.000000e+00   0.000000e+00
      128000   1.279990e-06   1.586520e+00   8.795088e+00   1.962108e+01   9.897758e+05   4.046471e+05   1.416254e+06  -3.392904e+11   5.434931e+11   8.183747e+10   1.774591e+06   1.170447e-19   0.000000e+00   0.000000e+00
      136000   1.359990e-06   1.664634e+00   8.829157e+00   1.973462e+01   9.632833e+05   4.465852e+05   1.421907e+06  -3.222677e+11   5.048918e+11   5.975182e+10   1.774591e+06   1.016546e-19   0.000000e+00   0.000000e+00
      144000   1.439990e-06   1.740714e+00   8.866415e+00   1.984853e+01   9.407473e+05   4.816694e+05   1.425539e+06  -1.580449e+11   2.450159e+11   2.151079e+10   1.774591e+06   2.399276e-20   0.000000e+00   0.000000e+00
      152000   1.519990e-06   1.815833e+00   8.905166e+00   1.996260e+01   9.413882e+05   4.806227e+05   1.425469e+06   1.598011e+11  -2.480579e+11  -2.189575e+10   1.774591e+06   2.454940e-20   0.000000e+00   0.000000e+00
      160000   1.599990e-06   1.891868e+00   8.942497e+00   2.007652e+01   9.601768e+05   4.516486e+05   1.422409e+06   2.390720e+11  -3.660583e+11  -4.514858e+10   1.774591e+06   5.420024e-20   0.000000e+00   0.000000e+00
      168000   1.679990e-06   1.969426e+00   8.977495e+00   2.019016e+01   9.785127e+05   4.238164e+05   1.418473e+06   2.187528e+11  -3.283267e+11  -5.280368e+10   1.774591e+06   4.445031e-20   0.000000e+00   0.000000e+00
      176000   1.759990e-06   2.048387e+00   9.010388e+00   2.030346e+01   9.952701e+05   3.989699e+05   1.414013e+06   2.004000e+11  -2.929773e+11  -5.838820e+10   1.774591e+06   3.630469e-20   0.000000e+00   0.000000e+00
      184000   1.839990e-06   2.128631e+00   9.041406e+00   2.041639e+01   1.010582e+06   3.769417e+05   1.409189e+06   1.831344e+11  -2.590353e+11  -6.204276e+10   1.774591e+06   2.931385e-20   0.000000e+00   0.000000e+00
      192000   1.919990e-06   2.210045e+00   9.070768e+00   2.052893e+01   1.024574e+06   3.575231e+05   1.404136e+06   1.673676e+11  -2.277906e+11  -6.412438e+10   1.774591e+06   2.356976e-20   0.000000e+00   0.000000e+00
      200000   1.999990e-06   2.292531e+00   9.098673e+00   2.064105e+01   1.037373e+06   3.404923e+05   1.398962e+06   1.528643e+11  -1.984388e+11  -6.505519e+10   1.774591e+06   1.879067e-20   0.000000e+00   0.000000e+00
      208000   2.079990e-06   2.375996e+00   9.125305e+00   2.075276e+01   1.049082e+06   3.256496e+05   1.393755e+06   1.397799e+11  -1.724815e+11  -6.491205e+10   1.774591e+06   1.501003e-20   0.000000e+00   0.000000e+00
      216000   2.159990e-06   2.460357e+00   9.150831e+00   2.086406e+01   1.059792e+06   3.128089e+05   1.388583e+06   1.279551e+11  -1.486146e+11  -6.417864e+10   1.774591e+06   1.194524e-20   0.000000e+00   0.000000e+00
      224000   2.239990e-06   2.545538e+00   9.175404e+00   2.097494e+01   1.069588e+06   3.017988e+05   1.383500e+06   1.169644e+11  -1.268008e+11  -6.276484e+10   1.774591e+06   9.454189e-21   0.000000e+00   0.000000e+00
      232000   2.319990e-06   2.631469e+00   9.199163e+00   2.108542e+01   1.078548e+06   2.924520e+05   1.378543e+06   1.068952e+11  -1.068519e+11  -6.096459e+10   1.774591e+06   7.451625e-21   0.000000e+00   0.000000e+00
      240000   2.399990e-06   2.718085e+00   9.222236e+00   2.119551e+01   1.086735e+06   2.846193e+05   1.373744e+06   9.791801e+10  -8.914666e+10  -5.899051e+10   1.774591e+06   5.895782e-21   0.000000e+00   0.000000e+00
      248000   2.479990e-06   2.805328e+00   9.244738e+00   2.130522e+01   1.094216e+06   2.781533e+05   1.369122e+06   8.945300e+10  -7.284645e+10  -5.669199e+10   1.774591e+06   4.635396e-21   0.000000e+00   0.000000e+00
      256000   2.559990e-06   2.893142e+00   9.266774e+00   2.141457e+01   1.101041e+06   2.729497e+05   1.364691e+06   8.144292e+10  -5.776777e+10  -5.415452e+10   1.774591e+06   3.619900e-21   0.000000e+00   0.000000e+00
      264000   2.639990e-06   2.981478e+00   9.288440e+00   2.152358e+01   1.107252e+06   2.688844e+05   1.360466e+06   7.389842e+10  -4.368985e+10  -5.150920e+10   1.774591e+06   2.811970e-21   0.000000e+00   0.000000e+00
      272000   2.719990e-06   3.070287e+00   9.309824e+00   2.163225e+01   1.112886e+06   2.658835e+05   1.356452e+06   6.699598e+10  -3.122490e+10  -4.884553e+10   1.774591e+06   2.202150e-21   0.000000e+00   0.000000e+00
      280000   2.799990e-06   3.159526e+00   9.331008e+00   2.174062e+01   1.117983e+06   2.638702e+05   1.352649e+06   6.048138e+10  -1.927137e+10  -4.622926e+10   1.774591e+06   1.730030e-21   0.000000e+00   0.000000e+00
      288000   2.879990e-06   3.249151e+00   9.352068e+00   2.184868e+01   1.122570e+06   2.627830e+05   1.349057e+06   5.424283e+10  -8.195435e+09  -4.353980e+10   1.774591e+06   1.376149e-21   0.000000e+00   0.000000e+00
      296000   2.959990e-06   3.339124e+00   9.373076e+00   2.195647e+01   1.126668e+06   2.625412e+05   1.345683e+06   4.830886e+10   1.998078e+09  -4.083621e+10   1.774591e+06   1.123696e-21   0.000000e+00   0.000000e+00
      304000   3.039990e-06   3.429406e+00   9.394096e+00   2.206400e+01   1.130312e+06   2.630719e+05   1.342520e+06   4.276759e+10   1.152766e+10  -3.826631e+10   1.774591e+06   9.612306e-22   0.000000e+00   0.000000e+00
      312000   3.119990e-06   3.519962e+00   9.415188e+00   2.217128e+01   1.133519e+06   2.643502e+05   1.339562e+06   3.740040e+10   2.061211e+10  -3.571530e+10   1.774591e+06   8.694753e-22   0.000000e+00   0.000000e+00
      320000   3.199990e-06   3.610758e+00   9.436410e+00   2.227833e+01   1.136309e+06   2.662987e+05   1.336810e+06   3.236969e+10   2.810753e+10  -3.311386e+10   1.774591e+06   8.232164e-22   0.000000e+00   0.000000e+00
      328000   3.279990e-06   3.701760e+00   9.457813e+00   2.238517e+01   1.138697e+06   2.688802e+05   1.334258e+06   2.759703e+10   3.525260e+10  -3.065626e+10   1.774591e+06   8.259580e-22   0.000000e+00   0.000000e+00
      336000   3.359990e-06   3.792939e+00   9.479445e+00   2.249182e+01   1.140706e+06   2.720388e+05   1.331900e+06   2.263256e+10   4.345217e+10  -2.825869e+10   1.774591e+06   8.974121e-22   0.000000e+00   0.000000e+00
      344000   3.439990e-06   3.884264e+00   9.501353e+00   2.259828e+01   1.142351e+06   2.757323e+05   1.329729e+06   1.799576e+10   5.072164e+10  -2.597749e+10   1.774591e+06   1.001903e-21   0.000000e+00   0.000000e+00
      352000   3.519990e-06   3.975706e+00   9.523578e+00   2.270458e+01   1.143636e+06   2.799886e+05   1.327734e+06   1.390011e+10   5.638915e+10  -2.386392e+10   1.774591e+06   1.106009e-21   0.000000e+00   0.000000e+00
      360000   3.599990e-06   4.067237e+00   9.546162e+00   2.281073e+01   1.144595e+06   2.846662e+05   1.325911e+06   9.948641e+09   6.122646e+10  -2.173314e+10   1.774591e+06   1.211922e-21   0.000000e+00   0.000000e+00
      368000   3.679990e-06   4.158832e+00   9.569138e+00   2.291673e+01   1.145220e+06   2.898214e+05   1.324254e+06   5.865417e+09   6.691499e+10  -1.971717e+10   1.774591e+06   1.374860e-21   0.000000e+00   0.000000e+00
      376000   3.759990e-06   4.250464e+00   9.592545e+00   2.302261e+01   1.145518e+06   2.954404e+05   1.322753e+06   1.634308e+09   7.339614e+10  -1.780850e+10   1.774591e+06   1.600982e-21   0.000000e+00   0.000000e+00
      384000   3.839990e-06   4.342106e+00   9.616420e+00   2.312838e+01   1.145504e+06   3.014760e+05   1.321403e+06  -1.908442e+09   7.729654e+10  -1.598064e+10   1.774591e+06   1.748833e-21   0.000000e+00   0.000000e+00
      392000   3.919990e-06   4.433737e+00   9.640788e+00   2.323404e+01   1.145211e+06   3.078130e+05   1.320196e+06  -5.750931e+09   8.249542e+10  -1.424566e+10   1.774591e+06   1.975409e-21   0.000000e+00   0.000000e+00
      400000   3.999990e-06   4.525331e+00   9.665683e+00   2.333961e+01   1.144597e+06   3.146142e+05   1.319125e+06  -9.488970e+09   8.718853e+10  -1.256108e+10   1.774591e+06   2.202128e-21   0.000000e+00   0.000000e+00
      408000   4.079990e-06   4.616864e+00   9.691137e+00   2.344510e+01   1.143692e+06   3.217660e+05   1.318184e+06  -1.262651e+10   8.996134e+10  -1.100421e+10   1.774591e+06   2.349125e-21   0.000000e+00   0.000000e+00
      416000   4.159990e-06   4.708316e+00   9.717171e+00   2.355052e+01   1.142549e+06   3.291223e+05   1.317359e+06  -1.587453e+10   9.368856e+10  -9.638588e+09   1.774591e+06   2.559216e-21   0.000000e+00   0.000000e+00
      424000   4.239990e-06   4.799665e+00   9.743805e+00   2.365588e+01   1.141136e+06   3.367935e+05   1.316644e+06  -1.951115e+10   9.838136e+10  -8.255247e+09   1.774591e+06   2.841227e-21   0.000000e+00   0.000000e+00
      432000   4.319990e-06   4.890891e+00   9.771065e+00   2.376119e+01   1.139463e+06   3.447646e+05   1.316030e+06  -2.266532e+10   1.017927e+11  -7.042476e+09   1.774591e+06   3.064914e-21   0.000000e+00   0.000000e+00
      440000   4.399990e-06   4.981972e+00   9.798974e+00   2.386645e+01   1.137546e+06   3.529695e+05   1.315513e+06  -2.508536e+10   1.027471e+11  -5.876594e+09   1.774591e+06   3.147902e-21   0.000000e+00   0.000000e+00
      448000   4.479990e-06   5.072891e+00   9.827549e+00   2.397167e+01   1.135380e+06   3.614512e+05   1.315081e+06  -2.864376e+10   1.077137e+11  -4.875433e+09   1.774591e+06   3.491741e-21   0.000000e+00   0.000000e+00
      456000   4.559990e-06   5.163627e+00   9.856813e+00   2.407687e+01   1.132977e+06   3.701613e+05   1.314730e+06  -3.131434e+10   1.097201e+11  -3.906183e+09   1.774591e+06   3.656680e-21   0.000000e+00   0.000000e+00
      464000   4.639990e-06   5.254162e+00   9.886780e+00   2.418203e+01   1.130365e+06   3.790414e+05   1.314449e+06  -3.390976e+10   1.117813e+11  -3.072900e+09   1.774591e+06   3.830618e-21   0.000000e+00   0.000000e+00
      472000   4.719990e-06   5.344480e+00   9.917463e+00   2.428718e+01   1.127559e+06   3.880669e+05   1.314225e+06  -3.623128e+10   1.135924e+11  -2.456491e+09   1.774591e+06   3.989864e-21   0.000000e+00   0.000000e+00
      480000   4.799990e-06   5.434566e+00   9.948875e+00   2.439231e+01   1.124552e+06   3.972522e+05   1.314057e+06  -3.897035e+10   1.161137e+11  -1.751879e+09   1.774591e+06   4.209279e-21   0.000000e+00   0.000000e+00
      488000   4.879990e-06   5.524403e+00   9.981029e+00   2.449743e+01   1.121337e+06   4.066291e+05   1.313937e+06  -4.118447e+10   1.174931e+11  -1.213369e+09   1.774591e+06   4.349040e-21   0.000000e+00   0.000000e+00
      496000   4.959990e-06   5.613974e+00   1.001394e+01   2.460254e+01   1.117937e+06   4.161460e+05   1.313854e+06  -4.351441e+10   1.194655e+11  -8.133208e+08   1.774591e+06   4.535303e-21   0.000000e+00   0.000000e+00
      504000   5.039990e-06   5.703268e+00   1.004761e+01   2.470765e+01   1.114381e+06   4.257135e+05   1.313810e+06  -4.550525e+10   1.204643e+11  -4.361003e+08   1.774591e+06   4.652098e-21   0.000000e+00   0.000000e+00
      512000   5.119990e-06   5.792270e+00   1.008206e+01   2.481275e+01   1.110650e+06   4.354320e+05   1.313785e+06  -4.720328e+10   1.208985e+11  -1.648587e+08   1.774591e+06   4.725632e-21   0.000000e+00   0.000000e+00
      520000   5.199990e-06   5.880969e+00   1.011728e+01   2.491785e+01   1.106799e+06   4.451405e+05   1.313781e+06  -4.867004e+10   1.209185e+11   3.226419e+07   1.774591e+06   4.766443e-21   0.000000e+00   0.000000e+00
      528000   5.279990e-06   5.969356e+00   1.015328e+01   2.502296e+01   1.102843e+06   4.548342e+05   1.313787e+06  -5.028808e+10   1.214108e+11   1.813659e+08   1.774591e+06   4.844832e-21   0.000000e+00   0.000000e+00
      536000   5.359990e-06   6.057421e+00   1.019006e+01   2.512806e+01   1.098760e+06   4.645664e+05   1.313803e+06  -5.226934e+10   1.228824e+11   2.622911e+08   1.774591e+06   5.002683e-21   0.000000e+00   0.000000e+00
      544000   5.439990e-06   6.145154e+00   1.022761e+01   2.523316e+01   1.094552e+06   4.743455e+05   1.313821e+06  -5.311166e+10   1.220983e+11   1.650660e+08   1.774591e+06   4.973706e-21   0.000000e+00   0.000000e+00
      552000   5.519990e-06   6.232546e+00   1.026595e+01   2.533827e+01   1.090263e+06   4.840959e+05   1.313831e+06  -5.391952e+10   1.212207e+11   7.928590e+07   1.774591e+06   4.938052e-21   0.000000e+00   0.000000e+00
      560000   5.599990e-06   6.319594e+00   1.030507e+01   2.544338e+01   1.085903e+06   4.937925e+05   1.313833e+06  -5.499858e+10   1.210649e+11  -4.387628e+07   1.774591e+06   4.960447e-21   0.000000e+00   0.000000e+00
      568000   5.679990e-06   6.406289e+00   1.034496e+01   2.554848e+01   1.081476e+06   5.034328e+05   1.313826e+06  -5.551521e+10   1.198754e+11  -2.364680e+08   1.774591e+06   4.896091e-21   0.000000e+00   0.000000e+00
      576000   5.759990e-06   6.492630e+00   1.038561e+01   2.565359e+01   1.077037e+06   5.129257e+05   1.313800e+06  -5.545279e+10   1.174603e+11  -3.984485e+08   1.774591e+06   4.733365e-21   0.000000e+00   0.000000e+00
      584000   5.839990e-06   6.578614e+00   1.042702e+01   2.575869e+01   1.072569e+06   5.223222e+05   1.313754e+06  -5.599173e+10   1.168135e+11  -7.300573e+08   1.774591e+06   4.707801e-21   0.000000e+00   0.000000e+00
      592000   5.919990e-06   6.664240e+00   1.046918e+01   2.586379e+01   1.068071e+06   5.316363e+05   1.313682e+06  -5.600597e+10   1.152332e+11  -1.098926e+09   1.774591e+06   4.605580e-21   0.000000e+00   0.000000e+00
      600000   5.999990e-06   6.749506e+00   1.051208e+01   2.596888e+01   1.063568e+06   5.408320e+05   1.313582e+06  -5.647727e+10   1.145268e+11  -1.425239e+09   1.774591e+06   4.575142e-21   0.000000e+00   0.000000e+00
      608000   6.079990e-06   6.834411e+00   1.055571e+01   2.607396e+01   1.059070e+06   5.498941e+05   1.313454e+06  -5.612098e+10   1.123309e+11  -1.776930e+09   1.774591e+06   4.424448e-21   0.000000e+00   0.000000e+00
      616000   6.159990e-06   6.918957e+00   1.060006e+01   2.617903e+01   1.054593e+06   5.588031e+05   1.313296e+06  -5.557133e+10   1.099838e+11  -2.173187e+09   1.774591e+06   4.261281e-21   0.000000e+00   0.000000e+00
      624000   6.239990e-06   7.003148e+00   1.064511e+01   2.628409e+01   1.050184e+06   5.674853e+05   1.313106e+06  -5.480885e+10   1.072224e+11  -2.503672e+09   1.774591e+06   4.069841e-21   0.000000e+00   0.000000e+00
      632000   6.319990e-06   7.086988e+00   1.069085e+01   2.638913e+01   1.045847e+06   5.759448e+05   1.312884e+06  -5.362066e+10   1.042346e+11  -3.011868e+09   1.774591e+06   3.857242e-21   0.000000e+00   0.000000e+00
      640000   6.399990e-06   7.170485e+00   1.073726e+01   2.649415e+01   1.041585e+06   5.841867e+05   1.312631e+06  -5.299508e+10   1.020900e+11  -3.382959e+09   1.774591e+06   3.715048e-21   0.000000e+00   0.000000e+00
      648000   6.479990e-06   7.253646e+00   1.078431e+01   2.659915e+01   1.037433e+06   5.921541e+05   1.312349e+06  -5.160210e+10   9.843360e+10  -3.622532e+09   1.774591e+06   3.468956e-21   0.000000e+00   0.000000e+00
      656000   6.559990e-06   7.336479e+00   1.083200e+01   2.670412e+01   1.033421e+06   5.998254e+05   1.312030e+06  -4.926867e+10   9.408025e+10  -4.204416e+09   1.774591e+06   3.169096e-21   0.000000e+00   0.000000e+00
      664000   6.639990e-06   7.418997e+00   1.088028e+01   2.680907e+01   1.029551e+06   6.072101e+05   1.311676e+06  -4.753722e+10   9.058530e+10  -4.621720e+09   1.774591e+06   2.942046e-21   0.000000e+00   0.000000e+00
      672000   6.719990e-06   7.501211e+00   1.092914e+01   2.691399e+01   1.025825e+06   6.143098e+05   1.311290e+06  -4.525081e+10   8.629741e+10  -5.028523e+09   1.774591e+06   2.670856e-21   0.000000e+00   0.000000e+00
      680000   6.799990e-06   7.583135e+00   1.097856e+01   2.701888e+01   1.022320e+06   6.210077e+05   1.310872e+06  -4.216702e+10   8.096126e+10  -5.469105e+09   1.774591e+06   2.346137e-21   0.000000e+00   0.000000e+00
      688000   6.879990e-06   7.664788e+00   1.102849e+01   2.712373e+01   1.019033e+06   6.273324e+05   1.310420e+06  -3.973391e+10   7.676201e+10  -5.849316e+09   1.774591e+06   2.105626e-21   0.000000e+00   0.000000e+00
      696000   6.959990e-06   7.746187e+00   1.107892e+01   2.722854e+01   1.015985e+06   6.332575e+05   1.309936e+06  -3.640627e+10   7.132991e+10  -6.246028e+09   1.774591e+06   1.810206e-21   0.000000e+00   0.000000e+00
      704000   7.039990e-06   7.827352e+00   1.112980e+01   2.733332e+01   1.013202e+06   6.387624e+05   1.309419e+06  -3.300656e+10   6.605130e+10  -6.681373e+09   1.774591e+06   1.542132e-21   0.000000e+00   0.000000e+00
      712000   7.119990e-06   7.908307e+00   1.118111e+01   2.743805e+01   1.010706e+06   6.438309e+05   1.308865e+06  -2.978572e+10   6.111994e+10  -7.064326e+09   1.774591e+06   1.310932e-21   0.000000e+00   0.000000e+00
      720000   7.199990e-06   7.989072e+00   1.123281e+01   2.754274e+01   1.008489e+06   6.484713e+05   1.308284e+06  -2.576069e+10   5.514462e+10  -7.475659e+09   1.774591e+06   1.054988e-21   0.000000e+00   0.000000e+00
      728000   7.279990e-06   8.069674e+00   1.128485e+01   2.764737e+01   1.006607e+06   6.526214e+05   1.307670e+06  -2.151399e+10   4.884491e+10  -7.816249e+09   1.774591e+06   8.163423e-22   0.000000e+00   0.000000e+00
      736000   7.359990e-06   8.150138e+00   1.133721e+01   2.775196e+01   1.005057e+06   6.563002e+05   1.307021e+06  -1.713798e+10   4.290301e+10  -8.364508e+09   1.774591e+06   6.184388e-22   0.000000e+00   0.000000e+00
      744000   7.439990e-06   8.230493e+00   1.138985e+01   2.785650e+01   1.003863e+06   6.594855e+05   1.306335e+06  -1.252464e+10   3.647342e+10  -8.788444e+09   1.774591e+06   4.389073e-22   0.000000e+00   0.000000e+00
      752000   7.519990e-06   8.310767e+00   1.144272e+01   2.796097e+01   1.003056e+06   6.621316e+05   1.305616e+06  -7.681622e+09   2.987030e+10  -9.246945e+09   1.774591e+06   2.908682e-22   0.000000e+00   0.000000e+00
      760000   7.599990e-06   8.390992e+00   1.149577e+01   2.806539e+01   1.002643e+06   6.642451e+05   1.304860e+06  -2.632927e+09   2.291615e+10  -9.642452e+09   1.774591e+06   1.753677e-22   0.000000e+00   0.000000e+00
      768000   7.679990e-06   8.471202e+00   1.154898e+01   2.816975e+01   1.002676e+06   6.657575e+05   1.304063e+06   3.456566e+09   1.484678e+10  -1.023736e+10   1.774591e+06   9.459960e-23   0.000000e+00   0.000000e+00
      776000   7.759990e-06   8.551433e+00   1.160228e+01   2.827404e+01   1.003171e+06   6.666607e+05   1.303221e+06   9.056932e+09   7.680765e+09  -1.090077e+10   1.774591e+06   7.289854e-23   0.000000e+00   0.000000e+00
      784000   7.839990e-06   8.631722e+00   1.165563e+01   2.837826e+01   1.004136e+06   6.669503e+05   1.302329e+06   1.509021e+10  -4.058068e+08  -1.142720e+10   1.774591e+06   1.005564e-22   0.000000e+00   0.000000e+00
      792000   7.919990e-06   8.712108e+00   1.170897e+01   2.848241e+01   1.005624e+06   6.665606e+05   1.301380e+06   2.184284e+10  -9.054460e+09  -1.224110e+10   1.774591e+06   1.988716e-22   0.000000e+00   0.000000e+00
      800000   7.999990e-06   8.792635e+00   1.176226e+01   2.858648e+01   1.007637e+06   6.655012e+05   1.300365e+06   2.844415e+10  -1.737428e+10  -1.314919e+10   1.774591e+06   3.601475e-22   0.000000e+00   0.000000e+00
      808000   8.079990e-06   8.873345e+00   1.181543e+01   2.869047e+01   1.010193e+06   6.637421e+05   1.299281e+06   3.540499e+10  -2.638384e+10  -1.404914e+10   1.774591e+06   6.022916e-22   0.000000e+00   0.000000e+00
      816000   8.159990e-06   8.954281e+00   1.186844e+01   2.879437e+01   1.013312e+06   6.612628e+05   1.298115e+06   4.252727e+10  -3.545029e+10  -1.513843e+10   1.774591e+06   9.241949e-22   0.000000e+00   0.000000e+00
      824000   8.239990e-06   9.035490e+00   1.192122e+01   2.889817e+01   1.017016e+06   6.580398e+05   1.296856e+06   5.003228e+10  -4.504634e+10  -1.637908e+10   1.774591e+06   1.346739e-21   0.000000e+00   0.000000e+00
      832000   8.319990e-06   9.117020e+00   1.197371e+01   2.900186e+01   1.021331e+06   6.540449e+05   1.295485e+06   5.782666e+10  -5.486124e+10  -1.789168e+10   1.774591e+06   1.872218e-21   0.000000e+00   0.000000e+00
      840000   8.399990e-06   9.198920e+00   1.202584e+01   2.910544e+01   1.026269e+06   6.492622e+05   1.293988e+06   6.592467e+10  -6.513583e+10  -1.960306e+10   1.774591e+06   2.517232e-21   0.000000e+00   0.000000e+00
      848000   8.479990e-06   9.281241e+00   1.207756e+01   2.920889e+01   1.031859e+06   6.436442e+05   1.292348e+06   7.396254e+10  -7.545452e+10  -2.147480e+10   1.774591e+06   3.261216e-21   0.000000e+00   0.000000e+00
      856000   8.559990e-06   9.364035e+00   1.212880e+01   2.931221e+01   1.038116e+06   6.371652e+05   1.290546e+06   8.252601e+10  -8.663706e+10  -2.360966e+10   1.774591e+06   4.172665e-21   0.000000e+00   0.000000e+00
      864000   8.639990e-06   9.447357e+00   1.217949e+01   2.941538e+01   1.045055e+06   6.297978e+05   1.288560e+06   9.107592e+10  -9.780649e+10  -2.606076e+10   1.774591e+06   5.201159e-21   0.000000e+00   0.000000e+00
      872000   8.719990e-06   9.531263e+00   1.222955e+01   2.951838e+01   1.052696e+06   6.215097e+05   1.286363e+06   9.999434e+10  -1.095946e+11  -2.887932e+10   1.774591e+06   6.408526e-21   0.000000e+00   0.000000e+00
      880000   8.799990e-06   9.615808e+00   1.227890e+01   2.962119e+01   1.061051e+06   6.122607e+05   1.283932e+06   1.088710e+11  -1.215730e+11  -3.199783e+10   1.774591e+06   7.758738e-21   0.000000e+00   0.000000e+00
      888000   8.879990e-06   9.701050e+00   1.232748e+01   2.972380e+01   1.070116e+06   6.020533e+05   1.281233e+06   1.178901e+11  -1.338649e+11  -3.556103e+10   1.774591e+06   9.280862e-21   0.000000e+00   0.000000e+00
      896000   8.959990e-06   9.787044e+00   1.237521e+01   2.982618e+01   1.079673e+06   5.911056e+05   1.278309e+06   1.041145e+11  -1.204448e+11  -3.224079e+10   1.774591e+06   7.403882e-21   0.000000e+00   0.000000e+00
      904000   9.039990e-06   9.873657e+00   1.242222e+01   2.992837e+01   1.084387e+06   5.855415e+05   1.276879e+06   1.042365e+10  -1.368984e+10  -2.574481e+09   1.774591e+06   8.510537e-23   0.000000e+00   0.000000e+00
      912000   9.119990e-06   9.960334e+00   1.246914e+01   3.003055e+01   1.081366e+06   5.889794e+05   1.277859e+06  -6.722845e+10   7.818564e+10   2.085439e+10   1.774591e+06   3.104840e-21   0.000000e+00   0.000000e+00
      920000   9.199990e-06   1.004662e+01   1.251652e+01   3.013284e+01   1.075692e+06   5.956627e+05   1.279550e+06  -7.460436e+10   8.882870e+10   2.136649e+10   1.774591e+06   3.903062e-21   0.000000e+00   0.000000e+00
      928000   9.279990e-06   1.013243e+01   1.256447e+01   3.023527e+01   1.069429e+06   6.031872e+05   1.281273e+06  -8.212582e+10   9.949387e+10   2.170844e+10   1.774591e+06   4.801362e-21   0.000000e+00   0.000000e+00
      936000   9.359990e-06   1.021771e+01   1.261305e+01   3.033785e+01   1.062552e+06   6.115749e+05   1.283017e+06  -8.997563e+10   1.104060e+11   2.188784e+10   1.774591e+06   5.825113e-21   0.000000e+00   0.000000e+00
      944000   9.439990e-06   1.030242e+01   1.266234e+01   3.044056e+01   1.055039e+06   6.208363e+05   1.284768e+06  -9.794827e+10   1.213134e+11   2.181231e+10   1.774591e+06   6.953556e-21   0.000000e+00   0.000000e+00
      952000   9.519990e-06   1.038650e+01   1.271241e+01   3.054341e+01   1.046880e+06   6.309737e+05   1.286502e+06  -1.062084e+11   1.322964e+11   2.154075e+10   1.774591e+06   8.204758e-21   0.000000e+00   0.000000e+00
      960000   9.599990e-06   1.046990e+01   1.276332e+01   3.064640e+01   1.038047e+06   6.419985e+05   1.288205e+06  -1.146219e+11   1.432141e+11   2.099048e+10   1.774591e+06   9.563276e-21   0.000000e+00   0.000000e+00
      968000   9.679990e-06   1.055257e+01   1.281515e+01   3.074952e+01   1.028514e+06   6.539182e+05   1.289854e+06  -1.235744e+11   1.546551e+11   2.013148e+10   1.774591e+06   1.110767e-20   0.000000e+00   0.000000e+00
      976000   9.759990e-06   1.063445e+01   1.286797e+01   3.085277e+01   1.018268e+06   6.667332e+05   1.291422e+06  -1.326562e+11   1.656273e+11   1.908807e+10   1.774591e+06   1.273490e-20   0.000000e+00   0.000000e+00
      984000   9.839990e-06   1.071547e+01   1.292186e+01   3.095615e+01   1.007278e+06   6.804278e+05   1.292897e+06  -1.422303e+11   1.768558e+11   1.773415e+10   1.774591e+06   1.453806e-20   0.000000e+00   0.000000e+00
      992000   9.919990e-06   1.079559e+01   1.297687e+01   3.105963e+01   9.955094e+05   6.950135e+05   1.294253e+06  -1.520152e+11   1.877676e+11   1.609583e+10   1.774591e+06   1.644642e-20   0.000000e+00   0.000000e+00
     1000000   9.999990e-06   1.087473e+01   1.303308e+01   3.116322e+01   9.829279e+05   7.104988e+05   1.295461e+06  -1.624468e+11   1.992126e+11   1.399804e+10   1.774591e+06   1.859148e-20   0.000000e+00   0.000000e+00
     1008000   1.007999e-05   1.095284e+01   1.309057e+01   3.126690e+01   9.695039e+05   7.268772e+05   1.296490e+06  -1.730968e+11   2.100644e+11   1.166828e+10   1.774591e+06   2.082324e-20   0.000000e+00   0.000000e+00
     1016000   1.015999e-05   1.102983e+01   1.314941e+01   3.137065e+01   9.552053e+05   7.441293e+05   1.297316e+06  -1.842208e+11   2.209845e+11   8.886374e+09   1.774591e+06   2.324282e-20   0.000000e+00   0.000000e+00
     1024000   1.023999e-05   1.110565e+01   1.320965e+01   3.147447e+01   9.400182e+05   7.622226e+05   1.297905e+06  -1.957324e+11   2.314976e+11   5.809592e+09   1.774591e+06   2.579172e-20   0.000000e+00   0.000000e+00
     1032000   1.031999e-05   1.118021e+01   1.327138e+01   3.157831e+01   9.238744e+05   7.811655e+05   1.298234e+06  -2.079783e+11   2.420621e+11   2.354151e+09   1.774591e+06   2.857425e-20   0.000000e+00   0.000000e+00
     1040000   1.039999e-05   1.125344e+01   1.333466e+01   3.168217e+01   9.067587e+05   8.009154e+05   1.298267e+06  -2.201325e+11   2.517573e+11  -1.562159e+09   1.774591e+06   3.137629e-20   0.000000e+00   0.000000e+00
     1048000   1.047999e-05   1.132526e+01   1.339955e+01   3.178603e+01   8.886435e+05   8.214372e+05   1.297971e+06  -2.328948e+11   2.613138e+11  -5.925593e+09   1.774591e+06   3.438299e-20   0.000000e+00   0.000000e+00
     1056000   1.055999e-05   1.139559e+01   1.346611e+01   3.188984e+01   8.694774e+05   8.427085e+05   1.297315e+06  -2.462743e+11   2.703649e+11  -1.056606e+10   1.774591e+06   3.755307e-20   0.000000e+00   0.000000e+00
     1064000   1.063999e-05   1.146435e+01   1.353440e+01   3.199359e+01   8.492253e+05   8.646842e+05   1.296269e+06  -2.599028e+11   2.787332e+11  -1.565932e+10   1.774591e+06   4.081495e-20   0.000000e+00   0.000000e+00
     1072000   1.071999e-05   1.153144e+01   1.360448e+01   3.209723e+01   8.278588e+05   8.873063e+05   1.294802e+06  -2.740952e+11   2.864875e+11  -2.107540e+10   1.774591e+06   4.422651e-20   0.000000e+00   0.000000e+00
     1080000   1.079999e-05   1.159678e+01   1.367639e+01   3.220074e+01   8.053040e+05   9.105456e+05   1.292891e+06  -2.889278e+11   2.935398e+11  -2.676557e+10   1.774592e+06   4.779328e-20   0.000000e+00   0.000000e+00
     1088000   1.087999e-05   1.166026e+01   1.375018e+01   3.230408e+01   7.815486e+05   9.343153e+05   1.290508e+06  -3.041482e+11   2.997884e+11  -3.284638e+10   1.774592e+06   5.146752e-20   0.000000e+00   0.000000e+00
     1096000   1.095999e-05   1.172179e+01   1.382589e+01   3.240721e+01   7.565948e+05   9.585177e+05   1.287627e+06  -3.204662e+11   3.055714e+11  -3.916553e+10   1.774592e+06   5.543671e-20   0.000000e+00   0.000000e+00
     1104000   1.103999e-05   1.178128e+01   1.390355e+01   3.251009e+01   7.303315e+05   9.831280e+05   1.284232e+06  -3.363322e+11   3.097496e+11  -4.585416e+10   1.774592e+06   5.924096e-20   0.000000e+00   0.000000e+00
     1112000   1.111999e-05   1.183861e+01   1.398320e+01   3.261267e+01   7.027847e+05   1.008026e+06   1.280294e+06  -3.525118e+11   3.125946e+11  -5.261387e+10   1.774592e+06   6.305114e-20   0.000000e+00   0.000000e+00
     1120000   1.119999e-05   1.189369e+01   1.406484e+01   3.271492e+01   6.739131e+05   1.033111e+06   1.275813e+06  -3.693633e+11   3.144783e+11  -5.954621e+10   1.774592e+06   6.701332e-20   0.000000e+00   0.000000e+00
     1128000   1.127999e-05   1.194640e+01   1.414850e+01   3.281679e+01   6.436389e+05   1.058324e+06   1.270770e+06  -3.866688e+11   3.150099e+11  -6.649903e+10   1.774592e+06   7.102361e-20   0.000000e+00   0.000000e+00
     1136000   1.135999e-05   1.199664e+01   1.423417e+01   3.291823e+01   6.120106e+05   1.083498e+06   1.265168e+06  -4.037152e+11   3.138929e+11  -7.352521e+10   1.774592e+06   7.488242e-20   0.000000e+00   0.000000e+00
     1144000   1.143999e-05   1.204428e+01   1.432186e+01   3.301920e+01   5.789581e+05   1.108556e+06   1.259003e+06  -4.225036e+11   3.120566e+11  -8.047428e+10   1.774592e+06   7.921515e-20   0.000000e+00   0.000000e+00
     1152000   1.151999e-05   1.208923e+01   1.441153e+01   3.311966e+01   5.444917e+05   1.133339e+06   1.252297e+06  -4.399869e+11   3.075844e+11  -8.706013e+10   1.774592e+06   8.297757e-20   0.000000e+00   0.000000e+00
     1160000   1.159999e-05   1.213136e+01   1.450318e+01   3.321955e+01   5.085575e+05   1.157734e+06   1.245070e+06  -4.582034e+11   3.017445e+11  -9.341966e+10   1.774592e+06   8.689149e-20   0.000000e+00   0.000000e+00
     1168000   1.167999e-05   1.217056e+01   1.459676e+01   3.331885e+01   4.711732e+05   1.181585e+06   1.237348e+06  -4.765019e+11   2.940942e+11  -9.938920e+10   1.774592e+06   9.073391e-20   0.000000e+00   0.000000e+00
     1176000   1.175999e-05   1.220671e+01   1.469221e+01   3.341752e+01   4.323218e+05   1.204752e+06   1.229165e+06  -4.954853e+11   2.849032e+11  -1.049699e+11   1.774592e+06   9.473741e-20   0.000000e+00   0.000000e+00
     1184000   1.183999e-05   1.223969e+01   1.478949e+01   3.351551e+01   3.919806e+05   1.227096e+06   1.220559e+06  -5.129868e+11   2.733039e+11  -1.100200e+11   1.774592e+06   9.817712e-20   0.000000e+00   0.000000e+00
     1192000   1.191999e-05   1.226939e+01   1.488852e+01   3.361280e+01   3.502484e+05   1.248437e+06   1.211573e+06  -5.294771e+11   2.594826e+11  -1.143104e+11   1.774592e+06   1.012041e-19   0.000000e+00   0.000000e+00
     1200000   1.199999e-05   1.229570e+01   1.498921e+01   3.370935e+01   3.071243e+05   1.268616e+06   1.202276e+06  -5.469883e+11   2.440430e+11  -1.177764e+11   1.774592e+06   1.045371e-19   0.000000e+00   0.000000e+00
     1208000   1.207999e-05   1.231850e+01   1.509147e+01   3.380515e+01   2.626373e+05   1.287466e+06   1.192742e+06  -5.641103e+11   2.264575e+11  -1.202239e+11   1.774593e+06   1.077164e-19   0.000000e+00   0.000000e+00
     1216000   1.215999e-05   1.233768e+01   1.519517e+01   3.390019e+01   2.168269e+05   1.304817e+06   1.183054e+06  -5.801608e+11   2.065894e+11  -1.215184e+11   1.774593e+06   1.105429e-19   0.000000e+00   0.000000e+00
     1224000   1.223999e-05   1.235316e+01   1.530019e+01   3.399444e+01   1.698495e+05   1.320489e+06   1.173302e+06  -5.943767e+11   1.847762e+11  -1.219092e+11   1.774593e+06   1.128590e-19   0.000000e+00   0.000000e+00
     1232000   1.231999e-05   1.236483e+01   1.540640e+01   3.408792e+01   1.218529e+05   1.334327e+06   1.163573e+06  -6.079042e+11   1.611474e+11  -1.211307e+11   1.774593e+06   1.150754e-19   0.000000e+00   0.000000e+00
     1240000   1.239999e-05   1.237262e+01   1.551363e+01   3.418062e+01   7.272592e+04   1.346201e+06   1.153964e+06  -6.205746e+11   1.356918e+11  -1.191825e+11   1.774593e+06   1.171912e-19   0.000000e+00   0.000000e+00
     1248000   1.247999e-05   1.237644e+01   1.562173e+01   3.427256e+01   2.262302e+04   1.355963e+06   1.144566e+06  -6.316674e+11   1.083301e+11  -1.158492e+11   1.774593e+06   1.189953e-19   0.000000e+00   0.000000e+00
     1256000   1.255999e-05   1.237622e+01   1.573053e+01   3.436376e+01  -2.824895e+04   1.363473e+06   1.135485e+06  -6.403696e+11   7.919173e+10  -1.110198e+11   1.774593e+06   1.202605e-19   0.000000e+00   0.000000e+00
     1264000   1.263999e-05   1.237190e+01   1.583982e+01   3.445425e+01  -7.980104e+04   1.368588e+06   1.126845e+06  -6.479004e+11   4.844574e+10  -1.047181e+11   1.774593e+06   1.215000e-19   0.000000e+00   0.000000e+00
     1272000   1.271999e-05   1.236344e+01   1.594943e+01   3.454407e+01  -1.318305e+05   1.371197e+06   1.118759e+06  -6.530742e+11   1.647456e+10  -9.714389e+10   1.774593e+06   1.223770e-19   0.000000e+00   0.000000e+00
     1280000   1.279999e-05   1.235080e+01   1.605915e+01   3.463326e+01  -1.842046e+05   1.371204e+06   1.111328e+06  -6.559320e+11  -1.653111e+10  -8.832120e+10   1.774593e+06   1.229680e-19   0.000000e+00   0.000000e+00
     1288000   1.287999e-05   1.233396e+01   1.616875e+01   3.472190e+01  -2.367699e+05   1.368528e+06   1.104651e+06  -6.576035e+11  -5.056719e+10  -7.829955e+10   1.774593e+06   1.237563e-19   0.000000e+00   0.000000e+00
     1296000   1.295999e-05   1.231292e+01   1.627804e+01   3.481003e+01  -2.893268e+05   1.363114e+06   1.098815e+06  -6.562202e+11  -8.502658e+10  -6.730595e+10   1.774594e+06   1.241082e-19   0.000000e+00   0.000000e+00
     1304000   1.303999e-05   1.228767e+01   1.638678e+01   3.489773e+01  -3.416854e+05   1.354937e+06   1.093883e+06  -6.523068e+11  -1.192070e+11  -5.609503e+10   1.774594e+06   1.242420e-19   0.000000e+00   0.000000e+00
     1312000   1.311999e-05   1.225826e+01   1.649475e+01   3.498508e+01  -3.936969e+05   1.343942e+06   1.089956e+06  -6.468951e+11  -1.547649e+11  -4.282836e+10   1.774594e+06   1.246344e-19   0.000000e+00   0.000000e+00
     1320000   1.319999e-05   1.222470e+01   1.660173e+01   3.507216e+01  -4.451531e+05   1.330124e+06   1.087103e+06  -6.380334e+11  -1.899646e+11  -2.883051e+10   1.774594e+06   1.245628e-19   0.000000e+00   0.000000e+00
     1328000   1.327999e-05   1.218705e+01   1.670750e+01   3.515905e+01  -4.957496e+05   1.313554e+06   1.085354e+06  -6.269705e+11  -2.244450e+11  -1.473748e+10   1.774594e+06   1.244731e-19   0.000000e+00   0.000000e+00
     1336000   1.335999e-05   1.214540e+01   1.681183e+01   3.524584e+01  -5.454705e+05   1.294205e+06   1.084748e+06  -6.148790e+11  -2.590209e+11  -1.546305e+08   1.774594e+06   1.248893e-19   0.000000e+00   0.000000e+00
     1344000   1.343999e-05   1.209981e+01   1.691450e+01   3.533264e+01  -5.940960e+05   1.272130e+06   1.085320e+06  -6.012260e+11  -2.930141e+11   1.434649e+10   1.774594e+06   1.255534e-19   0.000000e+00   0.000000e+00
     1352000   1.351999e-05   1.205037e+01   1.701530e+01   3.541952e+01  -6.415312e+05   1.247383e+06   1.087041e+06  -5.829908e+11  -3.251392e+11   2.904283e+10   1.774594e+06   1.252454e-19   0.000000e+00   0.000000e+00
     1360000   1.359999e-05   1.199721e+01   1.711401e+01   3.550660e+01  -6.874163e+05   1.220121e+06   1.089931e+06  -5.639479e+11  -3.562874e+11   4.316883e+10   1.774594e+06   1.253588e-19   0.000000e+00   0.000000e+00
     1368000   1.367999e-05   1.194043e+01   1.721045e+01   3.559394e+01  -7.316729e+05   1.190449e+06   1.093925e+06  -5.408154e+11  -3.847011e+11   5.692486e+10   1.774594e+06   1.244822e-19   0.000000e+00   0.000000e+00
     1376000   1.375999e-05   1.188019e+01   1.730442e+01   3.568165e+01  -7.740724e+05   1.158529e+06   1.099004e+06  -5.181134e+11  -4.126097e+11   7.003377e+10   1.774595e+06   1.244475e-19   0.000000e+00   0.000000e+00
     1384000   1.383999e-05   1.181663e+01   1.739576e+01   3.576981e+01  -8.145891e+05   1.124435e+06   1.105114e+06  -4.942878e+11  -4.391016e+11   8.243876e+10   1.774595e+06   1.245411e-19   0.000000e+00   0.000000e+00
     1392000   1.391999e-05   1.174991e+01   1.748428e+01   3.585850e+01  -8.530567e+05   1.088344e+06   1.112199e+06  -4.675097e+11  -4.627828e+11   9.428100e+10   1.774595e+06   1.238947e-19   0.000000e+00   0.000000e+00
     1400000   1.399999e-05   1.168020e+01   1.756984e+01   3.594779e+01  -8.894724e+05   1.050357e+06   1.120167e+06  -4.420495e+11  -4.858437e+11   1.045586e+11   1.774595e+06   1.241085e-19   0.000000e+00   0.000000e+00
     1408000   1.407999e-05   1.160765e+01   1.765229e+01   3.603774e+01  -9.237346e+05   1.010650e+06   1.128932e+06  -4.138821e+11  -5.059393e+11   1.142805e+11   1.774595e+06   1.235330e-19   0.000000e+00   0.000000e+00
     1416000   1.415999e-05   1.153246e+01   1.773151e+01   3.612843e+01  -9.557469e+05   9.694259e+05   1.138398e+06  -3.858706e+11  -5.243218e+11   1.225415e+11   1.774595e+06   1.231102e-19   0.000000e+00   0.000000e+00
     1424000   1.423999e-05   1.145479e+01   1.780736e+01   3.621991e+01  -9.854367e+05   9.268673e+05   1.148486e+06  -3.572247e+11  -5.405342e+11   1.297234e+11   1.774595e+06   1.224900e-19   0.000000e+00   0.000000e+00
     1432000   1.431999e-05   1.137485e+01   1.787977e+01   3.631221e+01  -1.012857e+06   8.830646e+05   1.159097e+06  -3.283036e+11  -5.544443e+11   1.355279e+11   1.774595e+06   1.216328e-19   0.000000e+00   0.000000e+00
     1440000   1.439999e-05   1.129280e+01   1.794863e+01   3.640537e+01  -1.037992e+06   8.381775e+05   1.170137e+06  -2.998069e+11  -5.671673e+11   1.403205e+11   1.774595e+06   1.209857e-19   0.000000e+00   0.000000e+00
     1448000   1.447999e-05   1.120883e+01   1.801385e+01   3.649944e+01  -1.060853e+06   7.923569e+05   1.181503e+06  -2.719288e+11  -5.784373e+11   1.437631e+11   1.774595e+06   1.204106e-19   0.000000e+00   0.000000e+00
     1456000   1.455999e-05   1.112312e+01   1.807538e+01   3.659442e+01  -1.081492e+06   7.457077e+05   1.193099e+06  -2.439992e+11  -5.874302e+11   1.459831e+11   1.774596e+06   1.194899e-19   0.000000e+00   0.000000e+00
     1464000   1.463999e-05   1.103585e+01   1.813315e+01   3.669034e+01  -1.099838e+06   6.985136e+05   1.204834e+06  -2.152314e+11  -5.927269e+11   1.471674e+11   1.774596e+06   1.176348e-19   0.000000e+00   0.000000e+00
     1472000   1.471999e-05   1.094720e+01   1.818713e+01   3.678719e+01  -1.115995e+06   6.508332e+05   1.216618e+06  -1.888043e+11  -5.989278e+11   1.472126e+11   1.774596e+06   1.167159e-19   0.000000e+00   0.000000e+00
     1480000   1.479999e-05   1.085735e+01   1.823727e+01   3.688499e+01  -1.130051e+06   6.027296e+05   1.228370e+06  -1.627310e+11  -6.031349e+11   1.462402e+11   1.774596e+06   1.154834e-19   0.000000e+00   0.000000e+00
     1488000   1.487999e-05   1.076645e+01   1.828356e+01   3.698373e+01  -1.142043e+06   5.543878e+05   1.239993e+06  -1.373435e+11  -6.054840e+11   1.442144e+11   1.774596e+06   1.139776e-19   0.000000e+00   0.000000e+00
     1496000   1.495999e-05   1.067468e+01   1.832597e+01   3.708339e+01  -1.152024e+06   5.059299e+05   1.251426e+06  -1.123181e+11  -6.054553e+11   1.413818e+11   1.774596e+06   1.119882e-19   0.000000e+00   0.000000e+00
     1504000   1.503999e-05   1.058218e+01   1.836451e+01   3.718395e+01  -1.160068e+06   4.574436e+05   1.262608e+06  -8.869094e+10  -6.054195e+11   1.378588e+11   1.774596e+06   1.103676e-19   0.000000e+00   0.000000e+00
     1512000   1.511999e-05   1.048911e+01   1.839917e+01   3.728540e+01  -1.166258e+06   4.090192e+05   1.273475e+06  -6.609039e+10  -6.045889e+11   1.336610e+11   1.774596e+06   1.087845e-19   0.000000e+00   0.000000e+00
     1520000   1.519999e-05   1.039563e+01   1.842996e+01   3.738770e+01  -1.170659e+06   3.607866e+05   1.283971e+06  -4.435032e+10  -6.013386e+11   1.285384e+11   1.774596e+06   1.066345e-19   0.000000e+00   0.000000e+00
     1528000   1.527999e-05   1.030185e+01   1.845690e+01   3.749082e+01  -1.173363e+06   3.128297e+05   1.294044e+06  -2.347617e+10  -5.974043e+11   1.231360e+11   1.774596e+06   1.045328e-19   0.000000e+00   0.000000e+00
     1536000   1.535999e-05   1.020793e+01   1.848002e+01   3.759473e+01  -1.174451e+06   2.652082e+05   1.303657e+06  -3.873060e+09  -5.929426e+11   1.171383e+11   1.774596e+06   1.024881e-19   0.000000e+00   0.000000e+00
     1544000   1.543999e-05   1.011398e+01   1.849934e+01   3.769939e+01  -1.174012e+06   2.179760e+05   1.312774e+06   1.465733e+10  -5.879190e+11   1.107302e+11   1.774597e+06   1.004703e-19   0.000000e+00   0.000000e+00
     1552000   1.551999e-05   1.002013e+01   1.851490e+01   3.780476e+01  -1.172138e+06   1.711128e+05   1.321365e+06   3.218058e+10  -5.828574e+11   1.040272e+11   1.774597e+06   9.863420e-20   0.000000e+00   0.000000e+00
     1560000   1.559999e-05   9.926477e+00   1.852673e+01   3.791080e+01  -1.168892e+06   1.247656e+05   1.329405e+06   4.887363e+10  -5.760924e+11   9.704184e+10   1.774597e+06   9.642025e-20   0.000000e+00   0.000000e+00
     1568000   1.567999e-05   9.833139e+00   1.853488e+01   3.801745e+01  -1.164348e+06   7.900320e+04   1.336879e+06   6.452503e+10  -5.689796e+11   8.982422e+10   1.774597e+06   9.425483e-20   0.000000e+00   0.000000e+00
     1576000   1.575999e-05   9.740214e+00   1.853939e+01   3.812468e+01  -1.158593e+06   3.377391e+04   1.343769e+06   7.916707e+10  -5.618812e+11   8.238217e+10   1.774597e+06   9.223356e-20   0.000000e+00   0.000000e+00
     1584000   1.583999e-05   9.647794e+00   1.854030e+01   3.823244e+01  -1.151708e+06  -1.087065e+04   1.350054e+06   9.283037e+10  -5.538148e+11   7.473506e+10   1.774597e+06   9.003099e-20   0.000000e+00   0.000000e+00
     1592000   1.591999e-05   9.555969e+00   1.853767e+01   3.834067e+01  -1.143763e+06  -5.484492e+04   1.355726e+06   1.056911e+11  -5.457359e+11   6.709157e+10   1.774597e+06   8.795101e-20   0.000000e+00   0.000000e+00
     1600000   1.599999e-05   9.464819e+00   1.853154e+01   3.844934e+01  -1.134823e+06  -9.814782e+04   1.360786e+06   1.176726e+11  -5.367181e+11   5.942365e+10   1.774597e+06   8.569114e-20   0.000000e+00   0.000000e+00
     1608000   1.607999e-05   9.374422e+00   1.852198e+01   3.855838e+01  -1.124955e+06  -1.407211e+05   1.365236e+06   1.289085e+11  -5.278128e+11   5.181876e+10   1.774597e+06   8.357150e-20   0.000000e+00   0.000000e+00
     1616000   1.615999e-05   9.284849e+00   1.850905e+01   3.866776e+01  -1.114221e+06  -1.825819e+05   1.369076e+06   1.393461e+11  -5.188913e+11   4.420874e+10   1.774597e+06   8.153225e-20   0.000000e+00   0.000000e+00
     1624000   1.623999e-05   9.196168e+00   1.849279e+01   3.877742e+01  -1.102685e+06  -2.237098e+05   1.372310e+06   1.487975e+11  -5.090912e+11   3.657396e+10   1.774597e+06   7.929692e-20   0.000000e+00   0.000000e+00
     1632000   1.631999e-05   9.108439e+00   1.847327e+01   3.888731e+01  -1.090409e+06  -2.640755e+05   1.374943e+06   1.578650e+11  -4.997620e+11   2.921230e+10   1.774597e+06   7.730074e-20   0.000000e+00   0.000000e+00
     1640000   1.639999e-05   9.021720e+00   1.845056e+01   3.899739e+01  -1.077445e+06  -3.036555e+05   1.376990e+06   1.662043e+11  -4.901100e+11   2.197113e+10   1.774597e+06   7.527453e-20   0.000000e+00   0.000000e+00
     1648000   1.647999e-05   8.936065e+00   1.842471e+01   3.910762e+01  -1.063840e+06  -3.424762e+05   1.378459e+06   1.737879e+11  -4.802826e+11   1.479904e+10   1.774597e+06   7.324851e-20   0.000000e+00   0.000000e+00
     1656000   1.655999e-05   8.851521e+00   1.839578e+01   3.921793e+01  -1.049653e+06  -3.804992e+05   1.379364e+06   1.808271e+11  -4.703282e+11   7.865069e+09   1.774598e+06   7.124998e-20   0.000000e+00   0.000000e+00
     1664000   1.663999e-05   8.768135e+00   1.836385e+01   3.932830e+01  -1.034931e+06  -4.177249e+05   1.379718e+06   1.870564e+11  -4.601104e+11   1.009862e+09   1.774598e+06   6.920868e-20   0.000000e+00   0.000000e+00
     1672000   1.671999e-05   8.685945e+00   1.832897e+01   3.943867e+01  -1.019726e+06  -4.541431e+05   1.379533e+06   1.929534e+11  -4.502410e+11  -5.590276e+09   1.774598e+06   6.732525e-20   0.000000e+00   0.000000e+00
     1680000   1.679999e-05   8.604991e+00   1.829121e+01   3.954901e+01  -1.004071e+06  -4.897629e+05   1.378829e+06   1.982710e+11  -4.401609e+11  -1.196230e+10   1.774598e+06   6.542229e-20   0.000000e+00   0.000000e+00
     1688000   1.687999e-05   8.525305e+00   1.825063e+01   3.965927e+01  -9.880104e+05  -5.245768e+05   1.377625e+06   2.032417e+11  -4.305093e+11  -1.816752e+10   1.774598e+06   6.367710e-20   0.000000e+00   0.000000e+00
     1696000   1.695999e-05   8.446920e+00   1.820730e+01   3.976942e+01  -9.715615e+05  -5.586379e+05   1.375932e+06   2.077340e+11  -4.207652e+11  -2.414856e+10   1.774598e+06   6.193899e-20   0.000000e+00   0.000000e+00
     1704000   1.703999e-05   8.369864e+00   1.816127e+01   3.987941e+01  -9.547820e+05  -5.919058e+05   1.373767e+06   2.117094e+11  -4.110451e+11  -2.996252e+10   1.774598e+06   6.022671e-20   0.000000e+00   0.000000e+00
     1712000   1.711999e-05   8.294163e+00   1.811261e+01   3.998921e+01  -9.376843e+05  -6.244252e+05   1.371145e+06   2.154677e+11  -4.016300e+11  -3.555070e+10   1.774598e+06   5.863328e-20   0.000000e+00   0.000000e+00
     1720000   1.719999e-05   8.219841e+00   1.806138e+01   4.009878e+01  -9.203161e+05  -6.561713e+05   1.368085e+06   2.187476e+11  -3.921475e+11  -4.093093e+10   1.774598e+06   5.703658e-20   0.000000e+00   0.000000e+00
     1728000   1.727999e-05   8.146920e+00   1.800764e+01   4.020809e+01  -9.026812e+05  -6.871838e+05   1.364604e+06   2.219912e+11  -3.830580e+11  -4.605144e+10   1.774598e+06   5.558583e-20   0.000000e+00   0.000000e+00
     1736000   1.735999e-05   8.075419e+00   1.795145e+01   4.031711e+01  -8.848053e+05  -7.174611e+05   1.360723e+06   2.246562e+11  -3.736915e+11  -5.095100e+10   1.774598e+06   5.406455e-20   0.000000e+00   0.000000e+00
     1744000   1.743999e-05   8.005356e+00   1.789287e+01   4.042580e+01  -8.667335e+05  -7.469929e+05   1.356456e+06   2.270212e+11  -3.645337e+11  -5.568583e+10   1.774598e+06   5.260928e-20   0.000000e+00   0.000000e+00
     1752000   1.751999e-05   7.936747e+00   1.783195e+01   4.053413e+01  -8.484802e+05  -7.757895e+05   1.351825e+06   2.289337e+11  -3.551769e+11  -6.013722e+10   1.774598e+06   5.110931e-20   0.000000e+00   0.000000e+00
     1760000   1.759999e-05   7.869603e+00   1.776876e+01   4.064208e+01  -8.300917e+05  -8.038429e+05   1.346842e+06   2.306322e+11  -3.460796e+11  -6.440697e+10   1.774598e+06   4.968773e-20   0.000000e+00   0.000000e+00
     1768000   1.767999e-05   7.803935e+00   1.770336e+01   4.074962e+01  -8.115954e+05  -8.311588e+05   1.341524e+06   2.317355e+11  -3.368473e+11  -6.850149e+10   1.774598e+06   4.821468e-20   0.000000e+00   0.000000e+00
     1776000   1.775999e-05   7.739752e+00   1.763579e+01   4.085671e+01  -7.929596e+05  -8.578023e+05   1.335885e+06   2.330043e+11  -3.281996e+11  -7.243563e+10   1.774598e+06   4.692221e-20   0.000000e+00   0.000000e+00
     1784000   1.783999e-05   7.677062e+00   1.756613e+01   4.096335e+01  -7.742793e+05  -8.837057e+05   1.329945e+06   2.342724e+11  -3.196336e+11  -7.599423e+10   1.774598e+06   4.567978e-20   0.000000e+00   0.000000e+00
     1792000   1.791999e-05   7.615870e+00   1.749442e+01   4.106950e+01  -7.555272e+05  -9.089234e+05   1.323721e+06   2.346506e+11  -3.108855e+11  -7.953686e+10   1.774598e+06   4.433666e-20   0.000000e+00   0.000000e+00
     1800000   1.799999e-05   7.556179e+00   1.742072e+01   4.117514e+01  -7.367466e+05  -9.334515e+05   1.317221e+06   2.350484e+11  -3.024893e+11  -8.289149e+10   1.774598e+06   4.309712e-20   0.000000e+00   0.000000e+00
     1808000   1.807999e-05   7.497991e+00   1.734508e+01   4.128025e+01  -7.179348e+05  -9.573155e+05   1.310464e+06   2.347764e+11  -2.936727e+11  -8.590986e+10   1.774598e+06   4.172963e-20   0.000000e+00   0.000000e+00
     1816000   1.815999e-05   7.441308e+00   1.726757e+01   4.138481e+01  -6.991512e+05  -9.804851e+05   1.303471e+06   2.347702e+11  -2.855499e+11  -8.886741e+10   1.774598e+06   4.055389e-20   0.000000e+00   0.000000e+00
     1824000   1.823999e-05   7.386126e+00   1.718822e+01   4.148880e+01  -6.803843e+05  -1.003006e+06   1.296247e+06   2.352962e+11  -2.780572e+11  -9.164892e+10   1.774598e+06   3.957938e-20   0.000000e+00   0.000000e+00
     1832000   1.831999e-05   7.332446e+00   1.710710e+01   4.159220e+01  -6.616494e+05  -1.024889e+06   1.288807e+06   2.336666e+11  -2.694731e+11  -9.433006e+10   1.774598e+06   3.818631e-20   0.000000e+00   0.000000e+00
     1840000   1.839999e-05   7.280261e+00   1.702426e+01   4.169500e+01  -6.429651e+05  -1.046147e+06   1.281161e+06   2.335074e+11  -2.620263e+11  -9.677120e+10   1.774598e+06   3.718592e-20   0.000000e+00   0.000000e+00
     1848000   1.847999e-05   7.229570e+00   1.693974e+01   4.179718e+01  -6.243083e+05  -1.066802e+06   1.273331e+06   2.332269e+11  -2.546619e+11  -9.900567e+10   1.774599e+06   3.620437e-20   0.000000e+00   0.000000e+00
     1856000   1.855999e-05   7.180371e+00   1.685358e+01   4.189873e+01  -6.056813e+05  -1.086898e+06   1.265308e+06   2.323775e+11  -2.476351e+11  -1.014821e+11   1.774599e+06   3.524253e-20   0.000000e+00   0.000000e+00
     1864000   1.863999e-05   7.132660e+00   1.676585e+01   4.199962e+01  -5.871042e+05  -1.106430e+06   1.257109e+06   2.317229e+11  -2.406529e+11  -1.035860e+11   1.774599e+06   3.432188e-20   0.000000e+00   0.000000e+00
     1872000   1.871999e-05   7.086431e+00   1.667657e+01   4.209986e+01  -5.686541e+05  -1.125366e+06   1.248753e+06   2.289377e+11  -2.324492e+11  -1.052274e+11   1.774599e+06   3.296921e-20   0.000000e+00   0.000000e+00
     1880000   1.879999e-05   7.041677e+00   1.658580e+01   4.219942e+01  -5.502352e+05  -1.143786e+06   1.240240e+06   2.290382e+11  -2.264698e+11  -1.072429e+11   1.774599e+06   3.233244e-20   0.000000e+00   0.000000e+00
     1888000   1.887999e-05   6.998392e+00   1.649358e+01   4.229829e+01  -5.318942e+05  -1.161675e+06   1.231585e+06   2.283201e+11  -2.200512e+11  -1.089528e+11   1.774599e+06   3.153997e-20   0.000000e+00   0.000000e+00
     1896000   1.895999e-05   6.956572e+00   1.639995e+01   4.239647e+01  -5.136247e+05  -1.179048e+06   1.222799e+06   2.274326e+11  -2.135595e+11  -1.103867e+11   1.774599e+06   3.072502e-20   0.000000e+00   0.000000e+00
     1904000   1.903999e-05   6.916208e+00   1.630495e+01   4.249394e+01  -4.954868e+05  -1.195887e+06   1.213898e+06   2.257347e+11  -2.071464e+11  -1.119321e+11   1.774599e+06   2.984864e-20   0.000000e+00   0.000000e+00
     1912000   1.911999e-05   6.877290e+00   1.620862e+01   4.259069e+01  -4.775020e+05  -1.212197e+06   1.204895e+06   2.238488e+11  -2.006578e+11  -1.131613e+11   1.774599e+06   2.894605e-20   0.000000e+00   0.000000e+00
     1920000   1.919999e-05   6.839804e+00   1.611101e+01   4.268672e+01  -4.596693e+05  -1.227996e+06   1.195797e+06   2.217801e+11  -1.943462e+11  -1.143254e+11   1.774599e+06   2.806230e-20   0.000000e+00   0.000000e+00
     1928000   1.927999e-05   6.803738e+00   1.601215e+01   4.278202e+01  -4.419966e+05  -1.243308e+06   1.186602e+06   2.201187e+11  -1.885174e+11  -1.155337e+11   1.774599e+06   2.730814e-20   0.000000e+00   0.000000e+00
     1936000   1.935999e-05   6.769082e+00   1.591209e+01   4.287657e+01  -4.244162e+05  -1.258168e+06   1.177321e+06   2.191852e+11  -1.829927e+11  -1.165433e+11   1.774599e+06   2.668300e-20   0.000000e+00   0.000000e+00
     1944000   1.943999e-05   6.735828e+00   1.581086e+01   4.297039e+01  -4.069773e+05  -1.272573e+06   1.167959e+06   2.171354e+11  -1.772728e+11  -1.174890e+11   1.774599e+06   2.591607e-20   0.000000e+00   0.000000e+00
     1952000   1.951999e-05   6.703964e+00   1.570849e+01   4.306345e+01  -3.896562e+05  -1.286542e+06   1.158524e+06   2.154387e+11  -1.718570e+11  -1.183863e+11   1.774599e+06   2.523908e-20   0.000000e+00   0.000000e+00
     1960000   1.959999e-05   6.673478e+00   1.560502e+01   4.315575e+01  -3.725207e+05  -1.300067e+06   1.149023e+06   2.127729e+11  -1.663405e+11  -1.192236e+11   1.774599e+06   2.445127e-20   0.000000e+00   0.000000e+00
     1968000   1.967999e-05   6.644354e+00   1.550049e+01   4.324729e+01  -3.556004e+05  -1.313160e+06   1.139456e+06   2.108221e+11  -1.612025e+11  -1.199831e+11   1.774599e+06   2.379823e-20   0.000000e+00   0.000000e+00
     1976000   1.975999e-05   6.616577e+00   1.539493e+01   4.333806e+01  -3.388534e+05  -1.325839e+06   1.129837e+06   2.081890e+11  -1.559465e+11  -1.205603e+11   1.774599e+06   2.306001e-20   0.000000e+00   0.000000e+00
     1984000   1.983999e-05   6.590134e+00   1.528837e+01   4.342806e+01  -3.222542e+05  -1.338127e+06   1.120165e+06   2.059702e+11  -1.511334e+11  -1.212859e+11   1.774599e+06   2.243679e-20   0.000000e+00   0.000000e+00
     1992000   1.991999e-05   6.565011e+00   1.518084e+01   4.351728e+01  -3.058436e+05  -1.350034e+06   1.110436e+06   2.040399e+11  -1.465248e+11  -1.219417e+11   1.774599e+06   2.187467e-20   0.000000e+00   0.000000e+00
     2000000   1.999999e-05   6.541193e+00   1.507237e+01   4.360573e+01  -2.896439e+05  -1.361559e+06   1.100666e+06   2.014592e+11  -1.417539e+11  -1.223387e+11   1.774599e+06   2.122243e-20   0.000000e+00   0.000000e+00
     2008000   2.007999e-05   6.518664e+00   1.496300e+01   4.369339e+01  -2.736260e+05  -1.372717e+06   1.090862e+06   1.987971e+11  -1.371626e+11  -1.227366e+11   1.774599e+06   2.059159e-20   0.000000e+00   0.000000e+00
     2016000   2.015999e-05   6.497408e+00   1.485275e+01   4.378027e+01  -2.577770e+05  -1.383521e+06   1.081028e+06   1.977413e+11  -1.330831e+11  -1.231692e+11   1.774599e+06   2.019468e-20   0.000000e+00   0.000000e+00
     2024000   2.023999e-05   6.477415e+00   1.474165e+01   4.386635e+01  -2.421059e+05  -1.393983e+06   1.071167e+06   1.942141e+11  -1.285509e+11  -1.233950e+11   1.774599e+06   1.948980e-20   0.000000e+00   0.000000e+00
     2032000   2.031999e-05   6.458665e+00   1.462972e+01   4.395165e+01  -2.266598e+05  -1.404098e+06   1.061289e+06   1.921796e+11  -1.244268e+11  -1.235737e+11   1.774599e+06   1.898893e-20   0.000000e+00   0.000000e+00
     2040000   2.039999e-05   6.441145e+00   1.451700e+01   4.403616e+01  -2.113842e+05  -1.413890e+06   1.051396e+06   1.893205e+11  -1.203450e+11  -1.237733e+11   1.774599e+06   1.841650e-20   0.000000e+00   0.000000e+00
     2048000   2.047999e-05   6.424839e+00   1.440351e+01   4.411988e+01  -1.963055e+05  -1.423364e+06   1.041489e+06   1.872999e+11  -1.165098e+11  -1.239256e+11   1.774599e+06   1.795871e-20   0.000000e+00   0.000000e+00
     2056000   2.055999e-05   6.409730e+00   1.428927e+01   4.420280e+01  -1.814617e+05  -1.432526e+06   1.031573e+06   1.839171e+11  -1.125767e+11  -1.239800e+11   1.774599e+06   1.735742e-20   0.000000e+00   0.000000e+00
     2064000   2.063999e-05   6.395800e+00   1.417431e+01   4.428493e+01  -1.668242e+05  -1.441386e+06   1.021655e+06   1.819885e+11  -1.089622e+11  -1.240105e+11   1.774599e+06   1.693693e-20   0.000000e+00   0.000000e+00
     2072000   2.071999e-05   6.383033e+00   1.405865e+01   4.436626e+01  -1.523925e+05  -1.449957e+06   1.011733e+06   1.787578e+11  -1.053004e+11  -1.239844e+11   1.774599e+06   1.638801e-20   0.000000e+00   0.000000e+00
     2080000   2.079999e-05   6.371413e+00   1.394232e+01   4.444680e+01  -1.380973e+05  -1.458252e+06   1.001815e+06   1.782939e+11  -1.020453e+11  -1.239603e+11   1.774599e+06   1.615054e-20   0.000000e+00   0.000000e+00
     2088000   2.087999e-05   6.360932e+00   1.382534e+01   4.452655e+01  -1.239866e+05  -1.466277e+06   9.918977e+05   1.741757e+11  -9.855443e+10  -1.239161e+11   1.774599e+06   1.554381e-20   0.000000e+00   0.000000e+00
     2096000   2.095999e-05   6.351568e+00   1.370773e+01   4.460551e+01  -1.101415e+05  -1.474027e+06   9.819955e+05   1.719312e+11  -9.528195e+10  -1.237387e+11   1.774599e+06   1.513556e-20   0.000000e+00   0.000000e+00
     2104000   2.103999e-05   6.343303e+00   1.358950e+01   4.468367e+01  -9.651986e+04  -1.481519e+06   9.721039e+05   1.689097e+11  -9.211536e+10  -1.236154e+11   1.774599e+06   1.467162e-20   0.000000e+00   0.000000e+00
     2112000   2.111999e-05   6.336119e+00   1.347069e+01   4.476105e+01  -8.313165e+04  -1.488763e+06   9.622252e+05   1.658925e+11  -8.899750e+10  -1.233648e+11   1.774599e+06   1.421240e-20   0.000000e+00   0.000000e+00
     2120000   2.119999e-05   6.329999e+00   1.335131e+01   4.483763e+01  -6.987992e+04  -1.495767e+06   9.523651e+05   1.647038e+11  -8.610254e+10  -1.231454e+11   1.774599e+06   1.394479e-20   0.000000e+00   0.000000e+00
     2128000   2.127999e-05   6.324933e+00   1.323137e+01   4.491342e+01  -5.679048e+04  -1.502542e+06   9.425197e+05   1.621368e+11  -8.326197e+10  -1.229644e+11   1.774599e+06   1.356194e-20   0.000000e+00   0.000000e+00
     2136000   2.135999e-05   6.320907e+00   1.311091e+01   4.498843e+01  -4.389054e+04  -1.509091e+06   9.326948e+05   1.602161e+11  -8.047850e+10  -1.226735e+11   1.774599e+06   1.324033e-20   0.000000e+00   0.000000e+00
     2144000   2.143999e-05   6.317905e+00   1.298993e+01   4.506266e+01  -3.122608e+04  -1.515421e+06   9.228898e+05   1.555094e+11  -7.778410e+10  -1.224624e+11   1.774599e+06   1.268930e-20   0.000000e+00   0.000000e+00
     2152000   2.151999e-05   6.315901e+00   1.286845e+01   4.513610e+01  -1.889817e+04  -1.521538e+06   9.131088e+05   1.527255e+11  -7.515798e+10  -1.220764e+11   1.774599e+06   1.230938e-20   0.000000e+00   0.000000e+00
     2160000   2.159999e-05   6.314877e+00   1.274648e+01   4.520875e+01  -6.736394e+03  -1.527450e+06   9.033563e+05   1.507046e+11  -7.266685e+10  -1.217453e+11   1.774599e+06   1.201140e-20   0.000000e+00   0.000000e+00
     2168000   2.167999e-05   6.314818e+00   1.262406e+01   4.528063e+01   5.242594e+03  -1.533168e+06   8.936278e+05   1.489724e+11  -7.028641e+10  -1.214616e+11   1.774599e+06   1.175093e-20   0.000000e+00   0.000000e+00
     2176000   2.175999e-05   6.315712e+00   1.250118e+01   4.535174e+01   1.708441e+04  -1.538697e+06   8.839250e+05   1.470751e+11  -6.792941e+10  -1.210906e+11   1.774599e+06   1.147671e-20   0.000000e+00   0.000000e+00
     2184000   2.183999e-05   6.317548e+00   1.237787e+01   4.542206e+01   2.877764e+04  -1.544040e+06   8.742505e+05   1.444976e+11  -6.564952e+10  -1.207016e+11   1.774599e+06   1.115407e-20   0.000000e+00   0.000000e+00
     2192000   2.191999e-05   6.320309e+00   1.225414e+01   4.549162e+01   4.019981e+04  -1.549203e+06   8.646130e+05   1.417097e+11  -6.341332e+10  -1.202115e+11   1.774599e+06   1.081610e-20   0.000000e+00   0.000000e+00
     2200000   2.199999e-05   6.323977e+00   1.213000e+01   4.556040e+01   5.146317e+04  -1.554191e+06   8.550110e+05   1.395217e+11  -6.128359e+10  -1.197953e+11   1.774599e+06   1.054096e-20   0.000000e+00   0.000000e+00
     2208000   2.207999e-05   6.328538e+00   1.200547e+01   4.562842e+01   6.253300e+04  -1.559010e+06   8.454468e+05   1.373376e+11  -5.916398e+10  -1.192565e+11   1.774599e+06   1.026355e-20   0.000000e+00   0.000000e+00
     2216000   2.215999e-05   6.333977e+00   1.188057e+01   4.569567e+01   7.342713e+04  -1.563659e+06   8.359310e+05   1.349597e+11  -5.713545e+10  -1.187296e+11   1.774599e+06   9.980537e-21   0.000000e+00   0.000000e+00
     2224000   2.223999e-05   6.340281e+00   1.175529e+01   4.576217e+01   8.412334e+04  -1.568151e+06   8.264546e+05   1.321862e+11  -5.518411e+10  -1.181633e+11   1.774599e+06   9.673546e-21   0.000000e+00   0.000000e+00
     2232000   2.231999e-05   6.347430e+00   1.162967e+01   4.582791e+01   9.457140e+04  -1.572496e+06   8.170170e+05   1.293893e+11  -5.337657e+10  -1.177094e+11   1.774599e+06   9.383212e-21   0.000000e+00   0.000000e+00
     2240000   2.239999e-05   6.355409e+00   1.150370e+01   4.589289e+01   1.048869e+05  -1.576687e+06   8.076268e+05   1.282187e+11  -5.143856e+10  -1.170722e+11   1.774599e+06   9.199642e-21   0.000000e+00   0.000000e+00
     2248000   2.247999e-05   6.364203e+00   1.137740e+01   4.595713e+01   1.149289e+05  -1.580739e+06   7.982845e+05   1.240682e+11  -4.981723e+10  -1.165083e+11   1.774599e+06   8.822870e-21   0.000000e+00   0.000000e+00
     2256000   2.255999e-05   6.373793e+00   1.125078e+01   4.602062e+01   1.248035e+05  -1.584651e+06   7.889908e+05   1.224154e+11  -4.803853e+10  -1.158466e+11   1.774599e+06   8.616617e-21   0.000000e+00   0.000000e+00
     2264000   2.263999e-05   6.384168e+00   1.112386e+01   4.608337e+01   1.345622e+05  -1.588424e+06   7.797466e+05   1.210314e+11  -4.631546e+10  -1.152356e+11   1.774599e+06   8.436874e-21   0.000000e+00   0.000000e+00
     2272000   2.271999e-05   6.395314e+00   1.099664e+01   4.614538e+01   1.440372e+05  -1.592074e+06   7.705550e+05   1.188196e+11  -4.470701e+10  -1.145811e+11   1.774599e+06   8.204776e-21   0.000000e+00   0.000000e+00
     2280000   2.279999e-05   6.407214e+00   1.086913e+01   4.620666e+01   1.534218e+05  -1.595591e+06   7.614157e+05   1.161505e+11  -4.318322e+10  -1.138964e+11   1.774599e+06   7.947350e-21   0.000000e+00   0.000000e+00
     2288000   2.287999e-05   6.419858e+00   1.074135e+01   4.626721e+01   1.626507e+05  -1.598982e+06   7.523329e+05   1.141000e+11  -4.164310e+10  -1.131743e+11   1.774599e+06   7.732264e-21   0.000000e+00   0.000000e+00
     2296000   2.295999e-05   6.433233e+00   1.061330e+01   4.632703e+01   1.717000e+05  -1.602254e+06   7.433065e+05   1.120743e+11  -4.016155e+10  -1.124595e+11   1.774599e+06   7.524473e-21   0.000000e+00   0.000000e+00
     2304000   2.303999e-05   6.447324e+00   1.048499e+01   4.638614e+01   1.805144e+05  -1.605418e+06   7.343364e+05   1.081237e+11  -3.895190e+10  -1.117358e+11   1.774599e+06   7.208050e-21   0.000000e+00   0.000000e+00
     2312000   2.311999e-05   6.462109e+00   1.035643e+01   4.644453e+01   1.890911e+05  -1.608479e+06   7.254256e+05   1.062147e+11  -3.758071e+10  -1.110132e+11   1.774599e+06   7.018654e-21   0.000000e+00   0.000000e+00
     2320000   2.319999e-05   6.477576e+00   1.022764e+01   4.650221e+01   1.975618e+05  -1.611425e+06   7.165772e+05   1.049704e+11  -3.615047e+10  -1.102347e+11   1.774599e+06   6.867035e-21   0.000000e+00   0.000000e+00
     2328000   2.327999e-05   6.493714e+00   1.009861e+01   4.655918e+01   2.058822e+05  -1.614262e+06   7.077952e+05   1.037126e+11  -3.475378e+10  -1.094300e+11   1.774599e+06   6.716028e-21   0.000000e+00   0.000000e+00
     2336000   2.335999e-05   6.510514e+00   9.969358e+00   4.661546e+01   2.140946e+05  -1.616992e+06   6.990724e+05   1.017393e+11  -3.350195e+10  -1.086497e+11   1.774599e+06   6.530573e-21   0.000000e+00   0.000000e+00
     2344000   2.343999e-05   6.527965e+00   9.839892e+00   4.667104e+01   2.221207e+05  -1.619629e+06   6.904112e+05   9.880792e+10  -3.242197e+10  -1.078468e+11   1.774599e+06   6.296908e-21   0.000000e+00   0.000000e+00
     2352000   2.351999e-05   6.546048e+00   9.710219e+00   4.672593e+01   2.299312e+05  -1.622178e+06   6.818160e+05   9.715829e+10  -3.118834e+10  -1.069681e+11   1.774599e+06   6.131236e-21   0.000000e+00   0.000000e+00
     2360000   2.359999e-05   6.564750e+00   9.580347e+00   4.678013e+01   2.375825e+05  -1.624632e+06   6.732959e+05   9.443035e+10  -3.015557e+10  -1.060848e+11   1.774599e+06   5.914051e-21   0.000000e+00   0.000000e+00
     2368000   2.367999e-05   6.584056e+00   9.450281e+00   4.683365e+01   2.450606e+05  -1.627000e+06   6.648459e+05   9.282872e+10  -2.898405e+10  -1.051454e+11   1.774599e+06   5.754800e-21   0.000000e+00   0.000000e+00
     2376000   2.375999e-05   6.603957e+00   9.320029e+00   4.688651e+01   2.524516e+05  -1.629269e+06   6.564700e+05   9.097286e+10  -2.789461e+10  -1.042148e+11   1.774599e+06   5.587058e-21   0.000000e+00   0.000000e+00
     2384000   2.383999e-05   6.624442e+00   9.189599e+00   4.693869e+01   2.596402e+05  -1.631462e+06   6.481674e+05   8.881588e+10  -2.694730e+10  -1.034046e+11   1.774599e+06   5.416497e-21   0.000000e+00   0.000000e+00
     2392000   2.391999e-05   6.645496e+00   9.058997e+00   4.699022e+01   2.666771e+05  -1.633575e+06   6.399374e+05   8.727078e+10  -2.583797e+10  -1.023244e+11   1.774599e+06   5.261391e-21   0.000000e+00   0.000000e+00
     2400000   2.399999e-05   6.667107e+00   8.928230e+00   4.704108e+01   2.735700e+05  -1.635607e+06   6.317859e+05   8.510104e+10  -2.493599e+10  -1.014052e+11   1.774599e+06   5.091089e-21   0.000000e+00   0.000000e+00
     2408000   2.407999e-05   6.689261e+00   8.797302e+00   4.709130e+01   2.802435e+05  -1.637575e+06   6.237103e+05   8.325608e+10  -2.405039e+10  -1.005533e+11   1.774599e+06   4.943506e-21   0.000000e+00   0.000000e+00
     2416000   2.415999e-05   6.711945e+00   8.666220e+00   4.714088e+01   2.868260e+05  -1.639463e+06   6.157078e+05   8.117104e+10  -2.317142e+10  -9.951227e+10   1.774599e+06   4.777248e-21   0.000000e+00   0.000000e+00
     2424000   2.423999e-05   6.735148e+00   8.534990e+00   4.718982e+01   2.932377e+05  -1.641283e+06   6.077856e+05   7.882552e+10  -2.240372e+10  -9.853032e+10   1.774599e+06   4.607600e-21   0.000000e+00   0.000000e+00
     2432000   2.431999e-05   6.758857e+00   8.403616e+00   4.723813e+01   2.994663e+05  -1.643043e+06   5.999437e+05   7.729097e+10  -2.151916e+10  -9.751380e+10   1.774599e+06   4.473571e-21   0.000000e+00   0.000000e+00
     2440000   2.439999e-05   6.783060e+00   8.272105e+00   4.728581e+01   3.055808e+05  -1.644730e+06   5.921892e+05   7.609909e+10  -2.060939e+10  -9.650826e+10   1.774599e+06   4.356799e-21   0.000000e+00   0.000000e+00
     2448000   2.447999e-05   6.807748e+00   8.140461e+00   4.733288e+01   3.116101e+05  -1.646344e+06   5.845128e+05   7.465853e+10  -1.974113e+10  -9.540406e+10   1.774599e+06   4.226589e-21   0.000000e+00   0.000000e+00
     2456000   2.455999e-05   6.832914e+00   8.008691e+00   4.737934e+01   3.175035e+05  -1.647895e+06   5.769192e+05   7.281652e+10  -1.901313e+10  -9.438237e+10   1.774599e+06   4.088066e-21   0.000000e+00   0.000000e+00
     2464000   2.463999e-05   6.858544e+00   7.876800e+00   4.742519e+01   3.232193e+05  -1.649394e+06   5.694125e+05   7.018594e+10  -1.844630e+10  -9.327252e+10   1.774599e+06   3.918144e-21   0.000000e+00   0.000000e+00
     2472000   2.471999e-05   6.884625e+00   7.744790e+00   4.747044e+01   3.287843e+05  -1.650836e+06   5.620003e+05   6.898845e+10  -1.758071e+10  -9.200183e+10   1.774599e+06   3.796591e-21   0.000000e+00   0.000000e+00
     2480000   2.479999e-05   6.911147e+00   7.612668e+00   4.751511e+01   3.342608e+05  -1.652212e+06   5.546773e+05   6.761935e+10  -1.684523e+10  -9.092541e+10   1.774599e+06   3.681770e-21   0.000000e+00   0.000000e+00
     2488000   2.487999e-05   6.938103e+00   7.480438e+00   4.755920e+01   3.396363e+05  -1.653526e+06   5.474492e+05   6.774365e+10  -1.582471e+10  -8.982504e+10   1.774599e+06   3.621350e-21   0.000000e+00   0.000000e+00
     2496000   2.495999e-05   6.965488e+00   7.348105e+00   4.760271e+01   3.449128e+05  -1.654782e+06   5.403114e+05   6.487198e+10  -1.541136e+10  -8.861092e+10   1.774599e+06   3.450108e-21   0.000000e+00   0.000000e+00
     2504000   2.503999e-05   6.993286e+00   7.215674e+00   4.764565e+01   3.500123e+05  -1.655996e+06   5.332647e+05   6.303727e+10  -1.485592e+10  -8.750821e+10   1.774599e+06   3.325065e-21   0.000000e+00   0.000000e+00
     2512000   2.511999e-05   7.021485e+00   7.083147e+00   4.768803e+01   3.549547e+05  -1.657169e+06   5.263077e+05   6.049418e+10  -1.446530e+10  -8.634499e+10   1.774599e+06   3.176982e-21   0.000000e+00   0.000000e+00
     2520000   2.519999e-05   7.050075e+00   6.950528e+00   4.772986e+01   3.597655e+05  -1.658297e+06   5.194437e+05   5.960153e+10  -1.375769e+10  -8.520040e+10   1.774599e+06   3.086220e-21   0.000000e+00   0.000000e+00
     2528000   2.527999e-05   7.079045e+00   6.817821e+00   4.777114e+01   3.644822e+05  -1.659372e+06   5.126801e+05   5.817737e+10  -1.314671e+10  -8.391158e+10   1.774599e+06   2.973406e-21   0.000000e+00   0.000000e+00
     2536000   2.535999e-05   7.108386e+00   6.685029e+00   4.781189e+01   3.690245e+05  -1.660413e+06   5.060160e+05   5.642766e+10  -1.267610e+10  -8.274572e+10   1.774599e+06   2.859227e-21   0.000000e+00   0.000000e+00
     2544000   2.543999e-05   7.138088e+00   6.552156e+00   4.785211e+01   3.735061e+05  -1.661400e+06   4.994458e+05   5.556523e+10  -1.201536e+10  -8.152270e+10   1.774599e+06   2.771191e-21   0.000000e+00   0.000000e+00
     2552000   2.551999e-05   7.168144e+00   6.419206e+00   4.789180e+01   3.778726e+05  -1.662345e+06   4.929769e+05   5.360752e+10  -1.160106e+10  -8.020999e+10   1.774599e+06   2.648925e-21   0.000000e+00   0.000000e+00
     2560000   2.559999e-05   7.198545e+00   6.286182e+00   4.793099e+01   3.821376e+05  -1.663246e+06   4.866089e+05   5.180816e+10  -1.117796e+10  -7.889178e+10   1.774599e+06   2.534163e-21   0.000000e+00   0.000000e+00
     2568000   2.567999e-05   7.229284e+00   6.153088e+00   4.796967e+01   3.863153e+05  -1.664101e+06   4.803439e+05   5.157756e+10  -1.042521e+10  -7.759799e+10   1.774599e+06   2.466115e-21   0.000000e+00   0.000000e+00
     2576000   2.575999e-05   7.260353e+00   6.019927e+00   4.800785e+01   3.903989e+05  -1.664915e+06   4.741841e+05   5.017777e+10  -9.974245e+09  -7.633224e+10   1.774599e+06   2.368916e-21   0.000000e+00   0.000000e+00
     2584000   2.583999e-05   7.291744e+00   5.886702e+00   4.804554e+01   3.943535e+05  -1.665696e+06   4.681291e+05   4.866887e+10  -9.588852e+09  -7.511768e+10   1.774599e+06   2.273348e-21   0.000000e+00   0.000000e+00
     2592000   2.591999e-05   7.323447e+00   5.753417e+00   4.808275e+01   3.982031e+05  -1.666443e+06   4.621745e+05   4.745451e+10  -9.125334e+09  -7.378880e+10   1.774599e+06   2.182655e-21   0.000000e+00   0.000000e+00
     2600000   2.599999e-05   7.355454e+00   5.620072e+00   4.811949e+01   4.019530e+05  -1.667153e+06   4.563308e+05   4.636921e+10  -8.616660e+09  -7.232354e+10   1.774599e+06   2.091493e-21   0.000000e+00   0.000000e+00
     2608000   2.607999e-05   7.387757e+00   5.486673e+00   4.815576e+01   4.056123e+05  -1.667825e+06   4.506020e+05   4.504213e+10  -8.176155e+09  -7.080742e+10   1.774599e+06   1.994505e-21   0.000000e+00   0.000000e+00
     2616000   2.615999e-05   7.420349e+00   5.353221e+00   4.819159e+01   4.091804e+05  -1.668460e+06   4.449916e+05   4.411684e+10  -7.691975e+09  -6.940677e+10   1.774599e+06   1.914109e-21   0.000000e+00   0.000000e+00
     2624000   2.623999e-05   7.453222e+00   5.219720e+00   4.822697e+01   4.126353e+05  -1.669066e+06   4.394915e+05   4.244784e+10  -7.429783e+09  -6.807007e+10   1.774599e+06   1.820909e-21   0.000000e+00   0.000000e+00
     2632000   2.631999e-05   7.486369e+00   5.086172e+00   4.826191e+01   4.160092e+05  -1.669639e+06   4.341012e+05   4.144306e+10  -6.984266e+09  -6.657858e+10   1.774599e+06   1.739117e-21   0.000000e+00   0.000000e+00
     2640000   2.639999e-05   7.519781e+00   4.952579e+00   4.829643e+01   4.192945e+05  -1.670179e+06   4.288314e+05   4.065343e+10  -6.521796e+09  -6.514977e+10   1.774599e+06   1.666376e-21   0.000000e+00   0.000000e+00
     2648000   2.647999e-05   7.553452e+00   4.818944e+00   4.833053e+01   4.224703e+05  -1.670695e+06   4.236756e+05   3.909381e+10  -6.277430e+09  -6.373647e+10   1.774599e+06   1.579502e-21   0.000000e+00   0.000000e+00
     2656000   2.655999e-05   7.587374e+00   4.685268e+00   4.836422e+01   4.255545e+05  -1.671182e+06   4.186376e+05   3.822431e+10  -5.832253e+09  -6.213784e+10   1.774599e+06   1.502675e-21   0.000000e+00   0.000000e+00
     2664000   2.663999e-05   7.621539e+00   4.551555e+00   4.839751e+01   4.285648e+05  -1.671636e+06   4.137249e+05   3.719921e+10  -5.471284e+09  -6.063986e+10   1.774599e+06   1.428242e-21   0.000000e+00   0.000000e+00
     2672000   2.671999e-05   7.655942e+00   4.417807e+00   4.843042e+01   4.314845e+05  -1.672066e+06   4.089264e+05   3.578481e+10  -5.263635e+09  -5.928129e+10   1.774599e+06   1.352950e-21   0.000000e+00   0.000000e+00
     2680000   2.679999e-05   7.690574e+00   4.284025e+00   4.846294e+01   4.342986e+05  -1.672477e+06   4.042401e+05   3.498471e+10  -4.921255e+09  -5.794687e+10   1.774599e+06   1.292200e-21   0.000000e+00   0.000000e+00
     2688000   2.687999e-05   7.725429e+00   4.150212e+00   4.849510e+01   4.370537e+05  -1.672857e+06   3.996696e+05   3.394149e+10  -4.600497e+09  -5.637202e+10   1.774599e+06   1.220662e-21   0.000000e+00   0.000000e+00
     2696000   2.695999e-05   7.760500e+00   4.016369e+00   4.852689e+01   4.397251e+05  -1.673213e+06   3.952237e+05   3.266529e+10  -4.359560e+09  -5.479980e+10   1.774599e+06   1.147174e-21   0.000000e+00   0.000000e+00
     2704000   2.703999e-05   7.795781e+00   3.882498e+00   4.855834e+01   4.422684e+05  -1.673558e+06   3.909039e+05   3.125363e+10  -4.177673e+09  -5.324590e+10   1.774599e+06   1.074320e-21   0.000000e+00   0.000000e+00
     2712000   2.711999e-05   7.831262e+00   3.748600e+00   4.858944e+01   4.447518e+05  -1.673875e+06   3.867065e+05   3.058090e+10  -3.825537e+09  -5.173004e+10   1.774599e+06   1.017217e-21   0.000000e+00   0.000000e+00
     2720000   2.719999e-05   7.866939e+00   3.614679e+00   4.862021e+01   4.471597e+05  -1.674169e+06   3.826337e+05   2.955726e+10  -3.554270e+09  -5.009290e+10   1.774599e+06   9.526188e-22   0.000000e+00   0.000000e+00
     2728000   2.727999e-05   7.902806e+00   3.480734e+00   4.865067e+01   4.495134e+05  -1.674436e+06   3.786898e+05   2.891188e+10  -3.200946e+09  -4.847246e+10   1.774599e+06   8.965549e-22   0.000000e+00   0.000000e+00
     2736000   2.735999e-05   7.938859e+00   3.346769e+00   4.868081e+01   4.517934e+05  -1.674679e+06   3.748798e+05   2.815973e+10  -2.879547e+09  -4.680078e+10   1.774599e+06   8.392819e-22   0.000000e+00   0.000000e+00
     2744000   2.743999e-05   7.975091e+00   3.212786e+00   4.871065e+01   4.539779e+05  -1.674908e+06   3.712025e+05   2.665319e+10  -2.779020e+09  -4.513583e+10   1.774599e+06   7.730115e-22   0.000000e+00   0.000000e+00
     2752000   2.751999e-05   8.011493e+00   3.078785e+00   4.874020e+01   4.560769e+05  -1.675120e+06   3.676537e+05   2.590690e+10  -2.502291e+09  -4.353867e+10   1.774599e+06   7.218635e-22   0.000000e+00   0.000000e+00
     2760000   2.759999e-05   8.048061e+00   2.944767e+00   4.876948e+01   4.581208e+05  -1.675309e+06   3.642358e+05   2.516357e+10  -2.228907e+09  -4.190155e+10   1.774599e+06   6.716090e-22   0.000000e+00   0.000000e+00
     2768000   2.767999e-05   8.084791e+00   2.810736e+00   4.879848e+01   4.600998e+05  -1.675477e+06   3.609543e+05   2.426682e+10  -1.993871e+09  -4.018742e+10   1.774599e+06   6.194185e-22   0.000000e+00   0.000000e+00
     2776000   2.775999e-05   8.121675e+00   2.676691e+00   4.882723e+01   4.620070e+05  -1.675628e+06   3.578044e+05   2.339827e+10  -1.777532e+09  -3.853676e+10   1.774599e+06   5.711194e-22   0.000000e+00   0.000000e+00
     2784000   2.783999e-05   8.158709e+00   2.542635e+00   4.885574e+01   4.638237e+05  -1.675766e+06   3.547927e+05   2.209345e+10  -1.666918e+09  -3.675615e+10   1.774599e+06   5.167464e-22   0.000000e+00   0.000000e+00
     2792000   2.791999e-05   8.195885e+00   2.408569e+00   4.888400e+01   4.655701e+05  -1.675887e+06   3.519233e+05   2.151213e+10  -1.358275e+09  -3.492722e+10   1.774599e+06   4.725929e-22   0.000000e+00   0.000000e+00
     2800000   2.799999e-05   8.233200e+00   2.274494e+00   4.891205e+01   4.672829e+05  -1.675980e+06   3.491985e+05   2.105875e+10  -1.049239e+09  -3.321573e+10   1.774599e+06   4.342504e-22   0.000000e+00   0.000000e+00
     2808000   2.807999e-05   8.270649e+00   2.140413e+00   4.893988e+01   4.689238e+05  -1.676059e+06   3.466120e+05   2.006465e+10  -8.890185e+08  -3.144388e+10   1.774599e+06   3.905521e-22   0.000000e+00   0.000000e+00
     2816000   2.815999e-05   8.308226e+00   2.006325e+00   4.896751e+01   4.705026e+05  -1.676121e+06   3.441663e+05   1.944873e+10  -6.404228e+08  -2.970684e+10   1.774599e+06   3.538176e-22   0.000000e+00   0.000000e+00
     2824000   2.823999e-05   8.345928e+00   1.872234e+00   4.899495e+01   4.720306e+05  -1.676162e+06   3.418662e+05   1.878310e+10  -3.959786e+08  -2.787615e+10   1.774599e+06   3.170330e-22   0.000000e+00   0.000000e+00
     2832000   2.831999e-05   8.383749e+00   1.738140e+00   4.902221e+01   4.734944e+05  -1.676187e+06   3.397094e+05   1.774944e+10  -2.656948e+08  -2.605051e+10   1.774599e+06   2.787951e-22   0.000000e+00   0.000000e+00
     2840000   2.839999e-05   8.421685e+00   1.604044e+00   4.904931e+01   4.748742e+05  -1.676203e+06   3.376989e+05   1.681616e+10  -1.154743e+08  -2.422012e+10   1.774599e+06   2.439135e-22   0.000000e+00   0.000000e+00
     2848000   2.847999e-05   8.459728e+00   1.469948e+00   4.907625e+01   4.762024e+05  -1.676202e+06   3.358320e+05   1.623119e+10   8.703126e+07  -2.258106e+10   1.774599e+06   2.169678e-22   0.000000e+00   0.000000e+00
     2856000   2.855999e-05   8.497875e+00   1.335852e+00   4.910304e+01   4.774652e+05  -1.676187e+06   3.341058e+05   1.519989e+10   2.101674e+08  -2.066749e+10   1.774599e+06   1.846659e-22   0.000000e+00   0.000000e+00
     2864000   2.863999e-05   8.536120e+00   1.201758e+00   4.912971e+01   4.786585e+05  -1.676161e+06   3.325286e+05   1.466303e+10   4.679614e+08  -1.874787e+10   1.774599e+06   1.589901e-22   0.000000e+00   0.000000e+00
     2872000   2.871999e-05   8.574459e+00   1.067667e+00   4.915625e+01   4.798082e+05  -1.676113e+06   3.311080e+05   1.409048e+10   7.119667e+08  -1.681441e+10   1.774599e+06   1.351629e-22   0.000000e+00   0.000000e+00
     2880000   2.879999e-05   8.612888e+00   9.335804e-01   4.918269e+01   4.808885e+05  -1.676054e+06   3.298393e+05   1.291807e+10   7.664733e+08  -1.493908e+10   1.774599e+06   1.095953e-22   0.000000e+00   0.000000e+00
     2888000   2.887999e-05   8.651400e+00   7.994989e-01   4.920903e+01   4.818995e+05  -1.675983e+06   3.287196e+05   1.239604e+10   1.008872e+09  -1.302869e+10   1.774599e+06   9.101901e-23   0.000000e+00   0.000000e+00
     2896000   2.895999e-05   8.689990e+00   6.654236e-01   4.923529e+01   4.828582e+05  -1.675897e+06   3.277503e+05   1.178088e+10   1.201087e+09  -1.121462e+10   1.774599e+06   7.462709e-23   0.000000e+00   0.000000e+00
     2904000   2.903999e-05   8.728656e+00   5.313558e-01   4.926148e+01   4.837567e+05  -1.675797e+06   3.269338e+05   1.066339e+10   1.278231e+09  -9.226425e+09   1.774599e+06   5.624287e-23   0.000000e+00   0.000000e+00
     2912000   2.911999e-05   8.767389e+00   3.972961e-01   4.928760e+01   4.845616e+05  -1.675694e+06   3.262712e+05   9.665625e+09   1.356408e+09  -7.388529e+09   1.774599e+06   4.204235e-23   0.000000e+00   0.000000e+00
     2920000   2.919999e-05   8.806184e+00   2.632451e-01   4.931368e+01   4.853071e+05  -1.675578e+06   3.257609e+05   8.929440e+09   1.545162e+09  -5.355097e+09   1.774599e+06   3.108531e-23   0.000000e+00   0.000000e+00
     2928000   2.927999e-05   8.845037e+00   1.292041e-01   4.933973e+01   4.860033e+05  -1.675444e+06   3.254101e+05   8.376237e+09   1.773736e+09  -3.377533e+09   1.774599e+06   2.376746e-23   0.000000e+00   0.000000e+00
