     timestep     time              x             y              z              vx             vy             vz             ax             ay             az         v_magnitude      ELoss        Electronic      Nuclear
           0   0.000000e+00   1.000000e-01   3.532477e+00   1.442895e+01   1.730614e+06  -2.267667e+06   1.041270e+06   0.000000e+00   0.000000e+00   0.000000e+00   3.036706e+06   0.000000e+00   0.000000e+00   0.000000e+00
        8000   7.999000e-08   2.400642e-01   3.352382e+00   1.451240e+01   1.770826e+06  -2.234472e+06   1.045417e+06   4.963639e+11   4.241786e+11   6.585441e+10   3.036706e+06   3.538198e-19   0.000000e+00   0.000000e+00
       16000   1.599900e-07   3.833057e-01   3.175001e+00   1.459627e+01   1.810049e+06  -2.199782e+06   1.051792e+06   4.841875e+11   4.431507e+11   9.358927e+10   3.036706e+06   3.611628e-19   0.000000e+00   0.000000e+00
       24000   2.399900e-07   5.296453e-01   3.000458e+00   1.468075e+01   1.848270e+06  -2.163539e+06   1.060464e+06   4.713496e+11   4.631053e+11   1.233134e+11   3.036706e+06   3.712388e-19   0.000000e+00   0.000000e+00
       32000   3.199900e-07   6.790017e-01   2.828879e+00   1.476601e+01   1.885473e+06  -2.125665e+06   1.071506e+06   4.587553e+11   4.839099e+11   1.527420e+11   3.036706e+06   3.844765e-19   0.000000e+00   0.000000e+00
       40000   3.999900e-07   8.312938e-01   2.660397e+00   1.485225e+01   1.921663e+06  -2.086077e+06   1.084933e+06   4.462202e+11   5.059675e+11   1.825061e+11   3.036706e+06   4.012934e-19   0.000000e+00   0.000000e+00
       48000   4.799900e-07   9.864417e-01   2.495154e+00   1.493966e+01   1.956866e+06  -2.044686e+06   1.100690e+06   4.341707e+11   5.290488e+11   2.108950e+11   3.036706e+06   4.213809e-19   0.000000e+00   0.000000e+00
       56000   5.599900e-07   1.144366e+00   2.333298e+00   1.502842e+01   1.991084e+06  -2.001407e+06   1.118723e+06   4.214844e+11   5.531127e+11   2.393785e+11   3.036707e+06   4.443951e-19   0.000000e+00   0.000000e+00
       64000   6.399900e-07   1.304989e+00   2.174982e+00   1.511872e+01   2.024328e+06  -1.956143e+06   1.138942e+06   4.093882e+11   5.786583e+11   2.662191e+11   3.036707e+06   4.710411e-19   0.000000e+00   0.000000e+00
       72000   7.199900e-07   1.468233e+00   2.020371e+00   1.521071e+01   2.056622e+06  -1.908785e+06   1.161220e+06   3.979245e+11   6.057322e+11   2.909340e+11   3.036707e+06   5.010963e-19   0.000000e+00   0.000000e+00
       80000   7.999900e-07   1.634025e+00   1.869636e+00   1.530456e+01   2.088037e+06  -1.859196e+06   1.185361e+06   3.873984e+11   6.344806e+11   3.127555e+11   3.036707e+06   5.344215e-19   0.000000e+00   0.000000e+00
       88000   8.799900e-07   1.802297e+00   1.722963e+00   1.540041e+01   2.118637e+06  -1.807231e+06   1.211150e+06   3.775057e+11   6.648169e+11   3.316576e+11   3.036707e+06   5.705966e-19   0.000000e+00   0.000000e+00
       96000   9.599900e-07   1.972987e+00   1.580546e+00   1.549838e+01   2.148501e+06  -1.752753e+06   1.238302e+06   3.693853e+11   6.972988e+11   3.460991e+11   3.036707e+06   6.100066e-19   0.000000e+00   0.000000e+00
      104000   1.039990e-06   2.146040e+00   1.442595e+00   1.559857e+01   2.177723e+06  -1.695583e+06   1.266534e+06   3.615012e+11   7.319454e+11   3.583265e+11   3.036707e+06   6.530335e-19   0.000000e+00   0.000000e+00
      112000   1.119990e-06   2.321408e+00   1.309330e+00   1.570105e+01   2.206401e+06  -1.635539e+06   1.295530e+06   3.551837e+11   7.691209e+11   3.660725e+11   3.036707e+06   6.997715e-19   0.000000e+00   0.000000e+00
      120000   1.199990e-06   2.499053e+00   1.180990e+00   1.580587e+01   2.234641e+06  -1.572428e+06   1.324932e+06   3.507497e+11   8.091109e+11   3.686816e+11   3.036707e+06   7.506293e-19   0.000000e+00   0.000000e+00
      128000   1.279990e-06   2.678942e+00   1.057830e+00   1.591304e+01   2.262545e+06  -1.506010e+06   1.354407e+06   3.469739e+11   8.518398e+11   3.675740e+11   3.036707e+06   8.061045e-19   0.000000e+00   0.000000e+00
      136000   1.359990e-06   2.861053e+00   9.401229e-01   1.602256e+01   2.290200e+06  -1.436046e+06   1.383600e+06   3.443486e+11   8.978948e+11   3.619557e+11   3.036708e+06   8.674539e-19   0.000000e+00   0.000000e+00
      144000   1.439990e-06   3.045369e+00   8.281647e-01   1.613440e+01   2.317687e+06  -1.362246e+06   1.412163e+06   3.425775e+11   9.477597e+11   3.520173e+11   3.036708e+06   9.362392e-19   0.000000e+00   0.000000e+00
      152000   1.519990e-06   3.231879e+00   7.222746e-01   1.624848e+01   2.345045e+06  -1.284285e+06   1.439781e+06   3.407930e+11   1.001921e+12   3.386553e+11   3.036708e+06   1.014413e-18   0.000000e+00   0.000000e+00
      160000   1.599990e-06   3.420572e+00   6.227995e-01   1.636473e+01   2.372237e+06  -1.201806e+06   1.466203e+06   3.384573e+11   1.060842e+12   3.219461e+11   3.036708e+06   1.103898e-18   0.000000e+00   0.000000e+00
      168000   1.679990e-06   3.611431e+00   5.301167e-01   1.648304e+01   2.399191e+06  -1.114418e+06   1.491158e+06   3.347345e+11   1.124525e+12   3.018549e+11   3.036708e+06   1.205886e-18   0.000000e+00   0.000000e+00
      176000   1.759990e-06   3.804431e+00   4.446353e-01   1.660327e+01   2.425734e+06  -1.021682e+06   1.514457e+06   3.275307e+11   1.194423e+12   2.811796e+11   3.036708e+06   1.325236e-18   0.000000e+00   0.000000e+00
      184000   1.839990e-06   3.999529e+00   3.668028e-01   1.672530e+01   2.451565e+06  -9.231229e+05   1.535993e+06   3.167955e+11   1.270386e+12   2.578762e+11   3.036709e+06   1.463063e-18   0.000000e+00   0.000000e+00
      192000   1.919990e-06   4.196651e+00   2.971038e-01   1.684898e+01   2.476263e+06  -8.182374e+05   1.555703e+06   3.004589e+11   1.354016e+12   2.339205e+11   3.036709e+06   1.625421e-18   0.000000e+00   0.000000e+00
      200000   1.999990e-06   4.395687e+00   2.360691e-01   1.697417e+01   2.499291e+06  -7.064307e+05   1.573563e+06   2.741603e+11   1.443224e+12   2.124815e+11   3.036709e+06   1.810162e-18   0.000000e+00   0.000000e+00
      208000   2.079990e-06   4.596473e+00   1.842760e-01   1.710071e+01   2.519884e+06  -5.870829e+05   1.589693e+06   2.376908e+11   1.542276e+12   1.928140e+11   3.036709e+06   2.031238e-18   0.000000e+00   0.000000e+00
      216000   2.159990e-06   4.798776e+00   1.423559e-01   1.722848e+01   2.537049e+06  -4.594906e+05   1.604325e+06   1.879297e+11   1.649816e+12   1.753486e+11   3.036710e+06   2.290591e-18   0.000000e+00   0.000000e+00
      224000   2.239990e-06   5.002275e+00   1.109977e-01   1.735737e+01   2.549511e+06  -3.228934e+05   1.617820e+06   1.200836e+11   1.767370e+12   1.635221e+11   3.036710e+06   2.600168e-18   0.000000e+00   0.000000e+00
      232000   2.319990e-06   5.206532e+00   9.095389e-02   1.748731e+01   2.555758e+06  -1.765175e+05   1.630507e+06   3.291236e+10   1.893194e+12   1.533890e+11   3.036711e+06   2.964994e-18   0.000000e+00   0.000000e+00
      240000   2.399990e-06   5.410976e+00   8.303793e-02   1.761825e+01   2.553764e+06  -1.953337e+04   1.643023e+06  -8.793749e+10   2.033015e+12   1.608772e+11   3.036711e+06   3.423416e-18   0.000000e+00   0.000000e+00
      248000   2.479990e-06   5.614845e+00   8.813694e-02   1.775021e+01   2.540903e+06   1.490114e+05   1.656269e+06  -2.411580e+11   2.182918e+12   1.735997e+11   3.036712e+06   3.987574e-18   0.000000e+00   0.000000e+00
      256000   2.559990e-06   5.817145e+00   1.072119e-01   1.788330e+01   2.513840e+06   3.300463e+05   1.671317e+06  -4.453135e+11   2.344676e+12   2.068143e+11   3.036712e+06   4.714816e-18   0.000000e+00   0.000000e+00
      264000   2.639990e-06   6.016567e+00   1.412962e-01   1.801771e+01   2.468250e+06   5.243020e+05   1.689519e+06  -7.063024e+11   2.513139e+12   2.519986e+11   3.036713e+06   5.651135e-18   0.000000e+00   0.000000e+00
      272000   2.719990e-06   6.211433e+00   1.914682e-01   1.815373e+01   2.398918e+06   7.323324e+05   1.711875e+06  -1.041857e+12   2.688448e+12   3.099382e+11   3.036714e+06   6.909029e-18   0.000000e+00   0.000000e+00
      280000   2.799990e-06   6.399574e+00   2.588365e-01   1.829176e+01   2.298875e+06   9.540712e+05   1.739702e+06  -1.470992e+12   2.852153e+12   3.797045e+11   3.036716e+06   8.579736e-18   0.000000e+00   0.000000e+00
      288000   2.879990e-06   6.578222e+00   3.444504e-01   1.843223e+01   2.160144e+06   1.188107e+06   1.773085e+06  -2.011754e+12   2.990567e+12   4.470724e+11   3.036717e+06   1.083726e-17   0.000000e+00   0.000000e+00
      296000   2.959990e-06   6.743945e+00   4.491746e-01   1.857554e+01   1.974492e+06   1.430967e+06   1.809800e+06  -2.641754e+12   3.066281e+12   4.578078e+11   3.036719e+06   1.363073e-17   0.000000e+00   0.000000e+00
      304000   3.039990e-06   6.892744e+00   5.734576e-01   1.872172e+01   1.736730e+06   1.675594e+06   1.843321e+06  -3.296810e+12   3.028057e+12   3.537517e+11   3.036721e+06   1.656612e-17   0.000000e+00   0.000000e+00
      312000   3.119990e-06   7.020502e+00   7.170442e-01   1.887006e+01   1.450132e+06   1.911577e+06   1.861366e+06  -3.824916e+12   2.840759e+12   6.260349e+10   3.036724e+06   1.865377e-17   0.000000e+00   0.000000e+00
      320000   3.199990e-06   7.123932e+00   8.787503e-01   1.901870e+01   1.132764e+06   2.126669e+06   1.848199e+06  -4.036661e+12   2.512241e+12  -4.165650e+11   3.036727e+06   1.871628e-17   0.000000e+00   0.000000e+00
      328000   3.279990e-06   7.201741e+00   1.056502e+00   1.916463e+01   8.152629e+05   2.311635e+06   1.792601e+06  -3.835962e+12   2.107420e+12  -9.729262e+11   3.036730e+06   1.651697e-17   0.000000e+00   0.000000e+00
      336000   3.359990e-06   7.255190e+00   1.247734e+00   1.930438e+01   5.282158e+05   2.463680e+06   1.694996e+06  -3.302601e+12   1.698250e+12  -1.439118e+12   3.036733e+06   1.303333e-17   0.000000e+00   0.000000e+00
      344000   3.439990e-06   7.287571e+00   1.449878e+00   1.943500e+01   2.899844e+05   2.585305e+06   1.566481e+06  -2.650265e+12   1.351936e+12  -1.740534e+12   3.036734e+06   9.762205e-18   0.000000e+00   0.000000e+00
      352000   3.519990e-06   7.302967e+00   1.660716e+00   1.955456e+01   1.031331e+05   2.681922e+06   1.420712e+06  -2.033447e+12   1.074314e+12  -1.880341e+12   3.036736e+06   7.250928e-18   0.000000e+00   0.000000e+00
      360000   3.599990e-06   7.305286e+00   1.878460e+00   1.966215e+01  -3.834618e+04   2.758748e+06   1.268704e+06  -1.518727e+12   8.557130e+11  -1.906565e+12   3.036737e+06   5.483552e-18   0.000000e+00   0.000000e+00
      368000   3.679990e-06   7.297808e+00   2.101703e+00   1.975758e+01  -1.432752e+05   2.820027e+06   1.117449e+06  -1.120724e+12   6.828088e+11  -1.866805e+12   3.036738e+06   4.278522e-18   0.000000e+00   0.000000e+00
      376000   3.759990e-06   7.283207e+00   2.329272e+00   1.984127e+01  -2.134803e+05   2.864328e+06   9.858153e+05  -5.156624e+11   3.307912e+11  -1.072780e+12   3.036738e+06   1.254409e-18   0.000000e+00   0.000000e+00
      384000   3.839990e-06   7.265219e+00   2.559010e+00   1.991818e+01  -2.283346e+05   2.873969e+06   9.539110e+05   7.182572e+10  -6.273651e+10   2.062075e+11   3.036738e+06   4.234647e-20   0.000000e+00   0.000000e+00
      392000   3.919990e-06   7.247629e+00   2.788342e+00   1.999638e+01  -2.056671e+05   2.854442e+06   1.015697e+06   5.101006e+11  -4.359413e+11   1.328449e+12   3.036738e+06   1.819523e-18   0.000000e+00   0.000000e+00
      400000   3.999990e-06   7.232774e+00   3.015288e+00   2.008174e+01  -1.664362e+05   2.819200e+06   1.116330e+06   4.649675e+11  -4.417382e+11   1.184913e+12   3.036738e+06   1.491582e-18   0.000000e+00   0.000000e+00
      408000   4.079990e-06   7.220893e+00   3.239412e+00   2.017470e+01  -1.312442e+05   2.783939e+06   1.205920e+06   4.144003e+11  -4.389888e+11   1.058545e+12   3.036739e+06   1.220116e-18   0.000000e+00   0.000000e+00
      416000   4.159990e-06   7.211665e+00   3.460729e+00   2.027444e+01  -1.001312e+05   2.749095e+06   1.286171e+06   3.618394e+11  -4.315569e+11   9.506007e+11   3.036739e+06   1.003080e-18   0.000000e+00   0.000000e+00
