     timestep     time              x             y              z              vx             vy             vz             ax             ay             az         v_magnitude      ELoss        Electronic      Nuclear
           0   0.000000e+00   1.000000e-01   1.547553e+01   1.971515e+01   0.000000e+00   9.000057e+04   9.000001e+06   0.000000e+00   0.000000e+00   0.000000e+00   9.000451e+06   0.000000e+00   0.000000e+00   0.000000e+00
        8000   7.999000e-10   9.999450e-02   1.547562e+01   1.972235e+01  -1.395134e+04   1.258831e+05   8.999559e+06  -1.816076e+13   4.647399e+13  -6.781898e+11   9.000451e+06   7.200360e-20   0.000000e+00   0.000000e+00
       16000   1.599900e-09   9.997737e-02   1.547574e+01   1.972955e+01  -2.906371e+04   1.643555e+05   8.998903e+06  -1.962416e+13   4.970431e+13  -9.711454e+11   9.000451e+06   8.260037e-20   0.000000e+00   0.000000e+00
       24000   2.399900e-09   9.994768e-02   1.547588e+01   1.973675e+01  -4.535696e+04   2.054067e+05   8.997992e+06  -2.111312e+13   5.292069e+13  -1.314467e+12   9.000451e+06   9.392168e-20   0.000000e+00   0.000000e+00
       32000   3.199900e-09   9.990448e-02   1.547607e+01   1.974395e+01  -6.285195e+04   2.490248e+05   8.996785e+06  -2.262871e+13   5.612170e+13  -1.711455e+12   9.000451e+06   1.059665e-19   0.000000e+00   0.000000e+00
       40000   3.999900e-09   9.984679e-02   1.547628e+01   1.975114e+01  -8.157043e+04   2.951972e+05   8.995239e+06  -2.417200e+13   5.930579e+13  -2.165391e+12   9.000451e+06   1.187335e-19   0.000000e+00   0.000000e+00
       48000   4.799900e-09   9.977363e-02   1.547654e+01   1.975834e+01  -1.015350e+05   3.439095e+05   8.993305e+06  -2.574398e+13   6.247130e+13  -2.679541e+12   9.000451e+06   1.322213e-19   0.000000e+00   0.000000e+00
       56000   5.599900e-09   9.968400e-02   1.547683e+01   1.976553e+01  -1.227689e+05   3.951461e+05   8.990934e+06  -2.734562e+13   6.561642e+13  -3.257143e+12   9.000451e+06   1.464282e-19   0.000000e+00   0.000000e+00
       64000   6.399900e-09   9.957686e-02   1.547717e+01   1.977272e+01  -1.452963e+05   4.488901e+05   8.988075e+06  -2.897782e+13   6.873923e+13  -3.901411e+12   9.000451e+06   1.613522e-19   0.000000e+00   0.000000e+00
       72000   7.199900e-09   9.945117e-02   1.547755e+01   1.977991e+01  -1.691419e+05   5.051227e+05   8.984673e+06  -3.064142e+13   7.183765e+13  -4.615523e+12   9.000451e+06   1.769909e-19   0.000000e+00   0.000000e+00
       80000   7.999900e-09   9.930587e-02   1.547798e+01   1.978710e+01  -1.943313e+05   5.638236e+05   8.980671e+06  -3.233719e+13   7.490946e+13  -5.402623e+12   9.000451e+06   1.933420e-19   0.000000e+00   0.000000e+00
       88000   8.799900e-09   9.913987e-02   1.547846e+01   1.979428e+01  -2.208904e+05   6.249704e+05   8.976009e+06  -3.406586e+13   7.795228e+13  -6.265809e+12   9.000451e+06   2.104023e-19   0.000000e+00   0.000000e+00
       96000   9.599900e-09   9.895223e-02   1.547898e+01   1.980146e+01  -2.468864e+05   6.843847e+05   8.970997e+06  -2.343099e+13   5.455531e+13  -4.806741e+12   9.000451e+06   1.026095e-19   0.000000e+00   0.000000e+00
      104000   1.039990e-08   9.874741e-02   1.547954e+01   1.980864e+01  -2.649217e+05   7.257282e+05   8.967232e+06  -2.165921e+13   4.880532e+13  -4.589722e+12   9.000451e+06   8.305447e-20   0.000000e+00   0.000000e+00
      112000   1.119990e-08   9.852873e-02   1.548014e+01   1.981581e+01  -2.815430e+05   7.624745e+05   8.963676e+06  -1.989514e+13   4.306238e+13  -4.287871e+12   9.000451e+06   6.560100e-20   0.000000e+00   0.000000e+00
      120000   1.199990e-08   9.829732e-02   1.548076e+01   1.982298e+01  -2.967548e+05   7.946295e+05   8.960392e+06  -1.813479e+13   3.732714e+13  -3.910840e+12   9.000451e+06   5.024348e-20   0.000000e+00   0.000000e+00
      128000   1.279990e-08   9.805430e-02   1.548141e+01   1.983015e+01  -3.105584e+05   8.221995e+05   8.957436e+06  -1.637403e+13   3.160000e+13  -3.468232e+12   9.000451e+06   3.697687e-20   0.000000e+00   0.000000e+00
      136000   1.359990e-08   9.780080e-02   1.548208e+01   1.983731e+01  -3.229518e+05   8.451912e+05   8.954857e+06  -1.460869e+13   2.588122e+13  -2.969605e+12   9.000451e+06   2.579672e-20   0.000000e+00   0.000000e+00
      144000   1.439990e-08   9.753796e-02   1.548276e+01   1.984447e+01  -3.339297e+05   8.636112e+05   8.952697e+06  -1.283450e+13   2.017090e+13  -2.424474e+12   9.000451e+06   1.669930e-20   0.000000e+00   0.000000e+00
      152000   1.519990e-08   9.726690e-02   1.548346e+01   1.985164e+01  -3.434833e+05   8.774663e+05   8.950988e+06  -1.104715e+13   1.446905e+13  -1.842320e+12   9.000451e+06   9.681587e-21   0.000000e+00   0.000000e+00
      160000   1.599990e-08   9.698877e-02   1.548416e+01   1.985880e+01  -3.516003e+05   8.867633e+05   8.949757e+06  -9.242272e+12   8.775585e+12  -1.232596e+12   9.000451e+06   4.741327e-21   0.000000e+00   0.000000e+00
      168000   1.679990e-08   9.670472e-02   1.548488e+01   1.986595e+01  -3.582649e+05   8.915089e+05   8.949021e+06  -7.415459e+12   3.090396e+12  -6.047375e+11   9.000451e+06   1.877056e-21   0.000000e+00   0.000000e+00
      176000   1.759990e-08   9.641594e-02   1.548559e+01   1.987311e+01  -3.634578e+05   8.917096e+05   8.948791e+06  -5.562291e+12  -2.586649e+12   3.183506e+10   9.000451e+06   1.088118e-21   0.000000e+00   0.000000e+00
      184000   1.839990e-08   9.612359e-02   1.548630e+01   1.988027e+01  -3.671562e+05   8.873718e+05   8.949072e+06  -3.678330e+12  -8.255659e+12   6.677034e+11   9.000451e+06   2.374668e-21   0.000000e+00   0.000000e+00
      192000   1.919990e-08   9.582889e-02   1.548701e+01   1.988743e+01  -3.693336e+05   8.785021e+05   8.949857e+06  -1.759141e+12  -1.391669e+13   1.293445e+12   9.000451e+06   5.737676e-21   0.000000e+00   0.000000e+00
      200000   1.999990e-08   9.553307e-02   1.548771e+01   1.989459e+01  -3.699601e+05   8.651067e+05   8.951136e+06   1.996981e+11  -1.956972e+13   1.899626e+12   9.000451e+06   1.117892e-20   0.000000e+00   0.000000e+00
      208000   2.079990e-08   9.523733e-02   1.548839e+01   1.990175e+01  -3.694343e+05   8.518230e+05   8.952432e+06   3.417089e+10  -1.561442e+12   1.499812e+11   9.000451e+06   7.112173e-23   0.000000e+00   0.000000e+00
      216000   2.159990e-08   9.494205e-02   1.548907e+01   1.990892e+01  -3.684748e+05   8.483633e+05   8.952800e+06   2.364397e+12  -7.087161e+12   7.688895e+11   9.000451e+06   1.630831e-21   0.000000e+00   0.000000e+00
      224000   2.239990e-08   9.464827e-02   1.548975e+01   1.991608e+01  -3.656511e+05   8.404825e+05   8.953659e+06   4.694217e+12  -1.261460e+13   1.375841e+12   9.000451e+06   5.292754e-21   0.000000e+00   0.000000e+00
      232000   2.319990e-08   9.435750e-02   1.549042e+01   1.992324e+01  -3.609646e+05   8.281783e+05   8.954995e+06   7.021178e+12  -1.814618e+13   1.961219e+12   9.000451e+06   1.105757e-20   0.000000e+00   0.000000e+00
      240000   2.399990e-08   9.407122e-02   1.549107e+01   1.993041e+01  -3.544184e+05   8.114464e+05   8.956788e+06   9.342778e+12  -2.368427e+13   2.515392e+12   9.000451e+06   1.892639e-20   0.000000e+00   0.000000e+00
      248000   2.479990e-08   9.379093e-02   1.549171e+01   1.993757e+01  -3.460180e+05   7.902806e+05   8.959009e+06   1.165645e+13  -2.923115e+13   3.028711e+12   9.000451e+06   2.890075e-20   0.000000e+00   0.000000e+00
      256000   2.559990e-08   9.351809e-02   1.549233e+01   1.994474e+01  -3.357707e+05   7.646730e+05   8.961621e+06   1.395953e+13  -3.478898e+13   3.491504e+12   9.000451e+06   4.098252e-20   0.000000e+00   0.000000e+00
      264000   2.639990e-08   9.325418e-02   1.549293e+01   1.995191e+01  -3.236861e+05   7.346142e+05   8.964579e+06   1.624923e+13  -4.035979e+13   3.894072e+12   9.000451e+06   5.517391e-20   0.000000e+00   0.000000e+00
      272000   2.719990e-08   9.300068e-02   1.549351e+01   1.995909e+01  -3.097760e+05   7.000929e+05   8.967833e+06   1.852266e+13  -4.594544e+13   4.226684e+12   9.000451e+06   7.147738e-20   0.000000e+00   0.000000e+00
      280000   2.799990e-08   9.275903e-02   1.549405e+01   1.996626e+01  -2.940548e+05   6.610965e+05   8.971321e+06   2.077674e+13  -5.154757e+13   4.479578e+12   9.000451e+06   8.989554e-20   0.000000e+00   0.000000e+00
      288000   2.879990e-08   9.253067e-02   1.549457e+01   1.997344e+01  -2.765391e+05   6.176114e+05   8.974976e+06   2.300822e+13  -5.716761e+13   4.642956e+12   9.000451e+06   1.104311e-19   0.000000e+00   0.000000e+00
      296000   2.959990e-08   9.231704e-02   1.549504e+01   1.998062e+01  -2.572483e+05   5.696227e+05   8.978723e+06   2.521365e+13  -6.280674e+13   4.706992e+12   9.000451e+06   1.330869e-19   0.000000e+00   0.000000e+00
      304000   3.039990e-08   9.211954e-02   1.549548e+01   1.998781e+01  -2.362049e+05   5.171147e+05   8.982478e+06   2.738937e+13  -6.846584e+13   4.661825e+12   9.000451e+06   1.578654e-19   0.000000e+00   0.000000e+00
      312000   3.119990e-08   9.193957e-02   1.549587e+01   1.999499e+01  -2.134341e+05   4.600713e+05   8.986150e+06   2.953148e+13  -7.414545e+13   4.497572e+12   9.000451e+06   1.847690e-19   0.000000e+00   0.000000e+00
      320000   3.199990e-08   9.177817e-02   1.549621e+01   2.000218e+01  -1.917155e+05   4.034149e+05   8.989361e+06   1.984007e+13  -5.813017e+13   3.031873e+12   9.000451e+06   1.093616e-19   0.000000e+00   0.000000e+00
      328000   3.279990e-08   9.163104e-02   1.549652e+01   2.000938e+01  -1.762392e+05   3.582504e+05   8.991591e+06   1.884619e+13  -5.478165e+13   2.552086e+12   9.000451e+06   9.723929e-20   0.000000e+00   0.000000e+00
      336000   3.359990e-08   9.149597e-02   1.549679e+01   2.001657e+01  -1.615691e+05   3.157643e+05   8.993459e+06   1.782463e+13  -5.143407e+13   2.126129e+12   9.000451e+06   8.581665e-20   0.000000e+00   0.000000e+00
      344000   3.439990e-08   9.137231e-02   1.549702e+01   2.002376e+01  -1.477268e+05   2.759558e+05   8.995007e+06   1.677700e+13  -4.808803e+13   1.750843e+12   9.000451e+06   7.509698e-20   0.000000e+00   0.000000e+00
      352000   3.519990e-08   9.125938e-02   1.549723e+01   2.003096e+01  -1.347326e+05   2.388233e+05   8.996273e+06   1.570488e+13  -4.474402e+13   1.423044e+12   9.000451e+06   6.508324e-20   0.000000e+00   0.000000e+00
      360000   3.599990e-08   9.115650e-02   1.549740e+01   2.003816e+01  -1.226052e+05   2.043650e+05   8.997295e+06   1.460985e+13  -4.140241e+13   1.139525e+12   9.000451e+06   5.577815e-20   0.000000e+00   0.000000e+00
      368000   3.679990e-08   9.106298e-02   1.549756e+01   2.004536e+01  -1.113626e+05   1.725790e+05   8.998107e+06   1.349348e+13  -3.806349e+13   8.970544e+11   9.000451e+06   4.718417e-20   0.000000e+00   0.000000e+00
      376000   3.759990e-08   9.097808e-02   1.549768e+01   2.005256e+01  -1.010211e+05   1.434630e+05   8.998741e+06   1.235731e+13  -3.472746e+13   6.923847e+11   9.000451e+06   3.930351e-20   0.000000e+00   0.000000e+00
      384000   3.839990e-08   9.090110e-02   1.549779e+01   2.005975e+01  -9.159589e+04   1.170146e+05   8.999224e+06   1.120287e+13  -3.139443e+13   5.222512e+11   9.000451e+06   3.213818e-20   0.000000e+00   0.000000e+00
      392000   3.919990e-08   9.083128e-02   1.549787e+01   2.006695e+01  -8.310105e+04   9.323145e+04   8.999585e+06   1.003170e+13  -2.806444e+13   3.833757e+11   9.000451e+06   2.568995e-20   0.000000e+00   0.000000e+00
      400000   3.999990e-08   9.076789e-02   1.549794e+01   2.007415e+01  -7.554935e+04   7.211105e+04   8.999845e+06   8.845295e+12  -2.473747e+13   2.724681e+11   9.000451e+06   1.996040e-20   0.000000e+00   0.000000e+00
      408000   4.079990e-08   9.071015e-02   1.549799e+01   2.008135e+01  -6.895236e+04   5.365105e+04   9.000027e+06   7.645170e+12  -2.141342e+13   1.862280e+11   9.000451e+06   1.495089e-20   0.000000e+00   0.000000e+00
      416000   4.159990e-08   9.065730e-02   1.549802e+01   2.008855e+01  -6.332046e+04   3.784916e+04   9.000149e+06   6.432816e+12  -1.809215e+13   1.213467e+11   9.000451e+06   1.066260e-20   0.000000e+00   0.000000e+00
      424000   4.239990e-08   9.060858e-02   1.549805e+01   2.009575e+01  -5.866284e+04   2.470325e+04   9.000226e+06   5.209714e+12  -1.477347e+13   7.450855e+10   9.000451e+06   7.096545e-21   0.000000e+00   0.000000e+00
      432000   4.319990e-08   9.056367e-02   1.549806e+01   2.010295e+01  -5.198872e+04   6.408290e+03   9.000299e+06   1.330004e+13  -3.565673e+13   1.022295e+11   9.000451e+06   4.188011e-20   0.000000e+00   0.000000e+00
      440000   4.399990e-08   9.052630e-02   1.549805e+01   2.011015e+01  -4.148278e+04  -2.161922e+04   9.000330e+06   1.296313e+13  -3.441275e+13  -2.289860e+10   9.000451e+06   3.910345e-20   0.000000e+00   0.000000e+00
      448000   4.479990e-08   9.049722e-02   1.549803e+01   2.011736e+01  -3.125046e+04  -4.865287e+04   9.000265e+06   1.261604e+13  -3.317209e+13  -1.354998e+11   9.000451e+06   3.642258e-20   0.000000e+00   0.000000e+00
      456000   4.559990e-08   9.047622e-02   1.549798e+01   2.012456e+01  -2.129977e+04  -7.469533e+04   9.000116e+06   1.225912e+13  -3.193476e+13  -2.360129e+11   9.000451e+06   3.383745e-20   0.000000e+00   0.000000e+00
      464000   4.639990e-08   9.046307e-02   1.549791e+01   2.013176e+01  -1.163843e+04  -9.974926e+04   8.999891e+06   1.189272e+13  -3.070078e+13  -3.248771e+11   9.000451e+06   3.134801e-20   0.000000e+00   0.000000e+00
      472000   4.719990e-08   9.045752e-02   1.549782e+01   2.013896e+01  -2.273881e+03  -1.238173e+05   8.999599e+06   1.151719e+13  -2.947014e+13  -4.025319e+11   9.000451e+06   2.895421e-20   0.000000e+00   0.000000e+00
      480000   4.799990e-08   9.045935e-02   1.549771e+01   2.014615e+01   6.786699e+03  -1.469022e+05   8.999250e+06   1.113287e+13  -2.824284e+13  -4.694170e+11   9.000451e+06   2.665599e-20   0.000000e+00   0.000000e+00
      488000   4.879990e-08   9.046830e-02   1.549758e+01   2.015335e+01   1.553642e+04  -1.690066e+05   8.998851e+06   1.074011e+13  -2.701885e+13  -5.259721e+11   9.000451e+06   2.445329e-20   0.000000e+00   0.000000e+00
      496000   4.959990e-08   9.048412e-02   1.549744e+01   2.016055e+01   2.396867e+04  -1.901332e+05   8.998411e+06   1.033923e+13  -2.579814e+13  -5.726369e+11   9.000451e+06   2.234604e-20   0.000000e+00   0.000000e+00
      504000   5.039990e-08   9.050656e-02   1.549728e+01   2.016775e+01   3.207709e+04  -2.102844e+05   8.997937e+06   9.930594e+12  -2.458065e+13  -6.098511e+11   9.000451e+06   2.033418e-20   0.000000e+00   0.000000e+00
      512000   5.119990e-08   9.053536e-02   1.549710e+01   2.017495e+01   3.985560e+04  -2.294629e+05   8.997437e+06   9.514520e+12  -2.336634e+13  -6.380540e+11   9.000451e+06   1.841764e-20   0.000000e+00   0.000000e+00
      520000   5.199990e-08   9.057024e-02   1.549691e+01   2.018215e+01   4.729838e+04  -2.476713e+05   8.996919e+06   9.091345e+12  -2.215512e+13  -6.576847e+11   9.000451e+06   1.659635e-20   0.000000e+00   0.000000e+00
      528000   5.279990e-08   9.061094e-02   1.549671e+01   2.018934e+01   5.439990e+04  -2.649118e+05   8.996387e+06   8.661400e+12  -2.094694e+13  -6.691818e+11   9.000451e+06   1.487024e-20   0.000000e+00   0.000000e+00
      536000   5.359990e-08   9.065719e-02   1.549649e+01   2.019654e+01   6.115486e+04  -2.811870e+05   8.995850e+06   8.225015e+12  -1.974169e+13  -6.729838e+11   9.000451e+06   1.323924e-20   0.000000e+00   0.000000e+00
      544000   5.439990e-08   9.070883e-02   1.549626e+01   2.020374e+01   6.819609e+04  -2.977331e+05   8.995267e+06   9.395607e+12  -2.168553e+13  -7.889914e+11   9.000451e+06   1.616905e-20   0.000000e+00   0.000000e+00
      552000   5.519990e-08   9.076638e-02   1.549601e+01   2.021093e+01   7.565414e+04  -3.148730e+05   8.994624e+06   9.248885e+12  -2.116458e+13  -8.186913e+11   9.000451e+06   1.544584e-20   0.000000e+00   0.000000e+00
      560000   5.599990e-08   9.082984e-02   1.549575e+01   2.021813e+01   8.299327e+04  -3.315970e+05   8.993958e+06   9.098349e+12  -2.064559e+13  -8.451301e+11   9.000451e+06   1.473978e-20   0.000000e+00   0.000000e+00
      568000   5.679990e-08   9.089913e-02   1.549548e+01   2.022532e+01   9.021049e+04  -3.479064e+05   8.993272e+06   8.944091e+12  -2.012853e+13  -8.683876e+11   9.000451e+06   1.405081e-20   0.000000e+00   0.000000e+00
      576000   5.759990e-08   9.097415e-02   1.549520e+01   2.023252e+01   9.730284e+04  -3.638031e+05   8.992569e+06   8.786205e+12  -1.961339e+13  -8.885434e+11   9.000451e+06   1.337890e-20   0.000000e+00   0.000000e+00
      584000   5.839990e-08   9.105478e-02   1.549490e+01   2.023971e+01   1.042675e+05  -3.792883e+05   8.991851e+06   8.624784e+12  -1.910017e+13  -9.056767e+11   9.000451e+06   1.272398e-20   0.000000e+00   0.000000e+00
      592000   5.919990e-08   9.114094e-02   1.549459e+01   2.024691e+01   1.111016e+05  -3.943638e+05   8.991121e+06   8.459920e+12  -1.858884e+13  -9.198666e+11   9.000451e+06   1.208602e-20   0.000000e+00   0.000000e+00
      600000   5.999990e-08   9.123251e-02   1.549427e+01   2.025410e+01   1.178024e+05  -4.090309e+05   8.990380e+06   8.291704e+12  -1.807938e+13  -9.311920e+11   9.000451e+06   1.146496e-20   0.000000e+00   0.000000e+00
      608000   6.079990e-08   9.132939e-02   1.549394e+01   2.026129e+01   1.243674e+05  -4.232912e+05   8.989632e+06   8.120226e+12  -1.757179e+13  -9.397314e+11   9.000451e+06   1.086076e-20   0.000000e+00   0.000000e+00
      616000   6.159990e-08   9.143146e-02   1.549359e+01   2.026848e+01   1.307939e+05  -4.371462e+05   8.988877e+06   7.945577e+12  -1.706603e+13  -9.455630e+11   9.000451e+06   1.027337e-20   0.000000e+00   0.000000e+00
      624000   6.239990e-08   9.153862e-02   1.549324e+01   2.027567e+01   1.370795e+05  -4.505973e+05   8.988120e+06   7.767846e+12  -1.656209e+13  -9.487649e+11   9.000451e+06   9.702754e-21   0.000000e+00   0.000000e+00
      632000   6.319990e-08   9.165075e-02   1.549287e+01   2.028286e+01   1.432217e+05  -4.636460e+05   8.987360e+06   7.587123e+12  -1.605994e+13  -9.494148e+11   9.000451e+06   9.148855e-21   0.000000e+00   0.000000e+00
      640000   6.399990e-08   9.176774e-02   1.549249e+01   2.029005e+01   1.492181e+05  -4.762936e+05   8.986601e+06   7.403495e+12  -1.555954e+13  -9.475902e+11   9.000451e+06   8.611633e-21   0.000000e+00   0.000000e+00
      648000   6.479990e-08   9.188946e-02   1.549211e+01   2.029724e+01   1.550665e+05  -4.885417e+05   8.985845e+06   7.217050e+12  -1.506088e+13  -9.433683e+11   9.000451e+06   8.091043e-21   0.000000e+00   0.000000e+00
      656000   6.559990e-08   9.201580e-02   1.549171e+01   2.030443e+01   1.607455e+05  -4.999647e+05   8.985116e+06   7.023862e+12  -1.377510e+13  -8.921527e+11   9.000451e+06   6.936615e-21   0.000000e+00   0.000000e+00
      664000   6.639990e-08   9.214663e-02   1.549131e+01   2.031162e+01   1.663334e+05  -5.108864e+05   8.984400e+06   6.945446e+12  -1.352958e+13  -8.979245e+11   9.000451e+06   6.711381e-21   0.000000e+00   0.000000e+00
      672000   6.719990e-08   9.228191e-02   1.549090e+01   2.031880e+01   1.718578e+05  -5.216122e+05   8.983680e+06   6.865454e+12  -1.328509e+13  -9.026955e+11   9.000451e+06   6.490115e-21   0.000000e+00   0.000000e+00
      680000   6.799990e-08   9.242159e-02   1.549047e+01   2.032599e+01   1.773177e+05  -5.321428e+05   8.982956e+06   6.783917e+12  -1.304165e+13  -9.064842e+11   9.000451e+06   6.272804e-21   0.000000e+00   0.000000e+00
      688000   6.879990e-08   9.256560e-02   1.549004e+01   2.033318e+01   1.827117e+05  -5.424791e+05   8.982230e+06   6.700863e+12  -1.279924e+13  -9.093094e+11   9.000451e+06   6.059431e-21   0.000000e+00   0.000000e+00
      696000   6.959990e-08   9.271391e-02   1.548961e+01   2.034036e+01   1.880386e+05  -5.526219e+05   8.981502e+06   6.616324e+12  -1.255786e+13  -9.111895e+11   9.000451e+06   5.849983e-21   0.000000e+00   0.000000e+00
      704000   7.039990e-08   9.286645e-02   1.548916e+01   2.034755e+01   1.932974e+05  -5.625719e+05   8.980772e+06   6.530328e+12  -1.231749e+13  -9.121431e+11   9.000451e+06   5.644443e-21   0.000000e+00   0.000000e+00
      712000   7.119990e-08   9.302317e-02   1.548871e+01   2.035473e+01   1.984868e+05  -5.723301e+05   8.980042e+06   6.442904e+12  -1.207813e+13  -9.121884e+11   9.000451e+06   5.442798e-21   0.000000e+00   0.000000e+00
      720000   7.199990e-08   9.318401e-02   1.548824e+01   2.036192e+01   2.036057e+05  -5.818972e+05   8.979313e+06   6.354082e+12  -1.183977e+13  -9.113436e+11   9.000451e+06   5.245032e-21   0.000000e+00   0.000000e+00
      728000   7.279990e-08   9.334892e-02   1.548778e+01   2.036910e+01   2.086529e+05  -5.912740e+05   8.978585e+06   6.263890e+12  -1.160241e+13  -9.096269e+11   9.000451e+06   5.051130e-21   0.000000e+00   0.000000e+00
      736000   7.359990e-08   9.351783e-02   1.548730e+01   2.037628e+01   2.136275e+05  -6.004613e+05   8.977858e+06   6.172358e+12  -1.136602e+13  -9.070565e+11   9.000451e+06   4.861080e-21   0.000000e+00   0.000000e+00
      744000   7.439990e-08   9.369070e-02   1.548681e+01   2.038346e+01   2.185283e+05  -6.094599e+05   8.977134e+06   6.079512e+12  -1.113061e+13  -9.036501e+11   9.000451e+06   4.674866e-21   0.000000e+00   0.000000e+00
      752000   7.519990e-08   9.386746e-02   1.548632e+01   2.039064e+01   2.233544e+05  -6.182705e+05   8.976412e+06   5.985382e+12  -1.089615e+13  -8.994257e+11   9.000451e+06   4.492475e-21   0.000000e+00   0.000000e+00
      760000   7.599990e-08   9.404805e-02   1.548583e+01   2.039783e+01   2.281046e+05  -6.268939e+05   8.975695e+06   5.889996e+12  -1.066265e+13  -8.944011e+11   9.000451e+06   4.313892e-21   0.000000e+00   0.000000e+00
      768000   7.679990e-08   9.423236e-02   1.548532e+01   2.040501e+01   2.326138e+05  -6.346350e+05   8.975035e+06   5.515901e+12  -9.218364e+12  -7.948002e+11   9.000451e+06   3.355329e-21   0.000000e+00   0.000000e+00
      776000   7.759990e-08   9.442021e-02   1.548481e+01   2.041219e+01   2.370072e+05  -6.419584e+05   8.974399e+06   5.467479e+12  -9.090035e+12  -7.946208e+11   9.000451e+06   3.272003e-21   0.000000e+00   0.000000e+00
      784000   7.839990e-08   9.461156e-02   1.548429e+01   2.041936e+01   2.413615e+05  -6.491793e+05   8.973764e+06   5.418333e+12  -8.962296e+12  -7.940818e+11   9.000451e+06   3.189827e-21   0.000000e+00   0.000000e+00
      792000   7.919990e-08   9.480638e-02   1.548377e+01   2.042654e+01   2.456763e+05  -6.562982e+05   8.973129e+06   5.368476e+12  -8.835143e+12  -7.931888e+11   9.000451e+06   3.108797e-21   0.000000e+00   0.000000e+00
      800000   7.999990e-08   9.500463e-02   1.548324e+01   2.043372e+01   2.499509e+05  -6.633156e+05   8.972495e+06   5.317919e+12  -8.708573e+12  -7.919471e+11   9.000451e+06   3.028908e-21   0.000000e+00   0.000000e+00
      808000   8.079990e-08   9.520629e-02   1.548271e+01   2.044090e+01   2.541848e+05  -6.702320e+05   8.971862e+06   5.266673e+12  -8.582582e+12  -7.903621e+11   9.000451e+06   2.950156e-21   0.000000e+00   0.000000e+00
      816000   8.159990e-08   9.541132e-02   1.548217e+01   2.044808e+01   2.583774e+05  -6.770479e+05   8.971230e+06   5.214748e+12  -8.457166e+12  -7.884392e+11   9.000451e+06   2.872534e-21   0.000000e+00   0.000000e+00
      824000   8.239990e-08   9.561968e-02   1.548163e+01   2.045525e+01   2.625282e+05  -6.837636e+05   8.970600e+06   5.162157e+12  -8.332321e+12  -7.861837e+11   9.000451e+06   2.796039e-21   0.000000e+00   0.000000e+00
      832000   8.319990e-08   9.583135e-02   1.548108e+01   2.046243e+01   2.666367e+05  -6.903797e+05   8.969972e+06   5.108908e+12  -8.208043e+12  -7.836010e+11   9.000451e+06   2.720666e-21   0.000000e+00   0.000000e+00
      840000   8.399990e-08   9.604629e-02   1.548052e+01   2.046961e+01   2.707023e+05  -6.968967e+05   8.969347e+06   5.055014e+12  -8.084327e+12  -7.806962e+11   9.000451e+06   2.646410e-21   0.000000e+00   0.000000e+00
      848000   8.479990e-08   9.626446e-02   1.547996e+01   2.047678e+01   2.747245e+05  -7.033148e+05   8.968723e+06   5.000486e+12  -7.961169e+12  -7.774747e+11   9.000451e+06   2.573267e-21   0.000000e+00   0.000000e+00
      856000   8.559990e-08   9.648583e-02   1.547940e+01   2.048396e+01   2.787029e+05  -7.096347e+05   8.968103e+06   4.945333e+12  -7.838564e+12  -7.739415e+11   9.000451e+06   2.501232e-21   0.000000e+00   0.000000e+00
      864000   8.639990e-08   9.671037e-02   1.547883e+01   2.049113e+01   2.826369e+05  -7.158566e+05   8.967485e+06   4.889566e+12  -7.716509e+12  -7.701019e+11   9.000451e+06   2.430301e-21   0.000000e+00   0.000000e+00
      872000   8.719990e-08   9.693804e-02   1.547825e+01   2.049830e+01   2.865260e+05  -7.219812e+05   8.966871e+06   4.833196e+12  -7.594996e+12  -7.659610e+11   9.000451e+06   2.360469e-21   0.000000e+00   0.000000e+00
      880000   8.799990e-08   9.716875e-02   1.547767e+01   2.050548e+01   2.901990e+05  -7.273815e+05   8.966316e+06   4.505922e+12  -6.465312e+12  -6.703262e+11   9.000451e+06   1.808811e-21   0.000000e+00   0.000000e+00
      888000   8.879990e-08   9.740235e-02   1.547709e+01   2.051265e+01   2.937906e+05  -7.325246e+05   8.965780e+06   4.473121e+12  -6.392430e+12  -6.688505e+11   9.000451e+06   1.773139e-21   0.000000e+00   0.000000e+00
      896000   8.959990e-08   9.763881e-02   1.547650e+01   2.051982e+01   2.973559e+05  -7.376095e+05   8.965246e+06   4.439956e+12  -6.319903e+12  -6.672278e+11   9.000451e+06   1.737868e-21   0.000000e+00   0.000000e+00
      904000   9.039990e-08   9.787811e-02   1.547591e+01   2.052699e+01   3.008945e+05  -7.426365e+05   8.964713e+06   4.406433e+12  -6.247729e+12  -6.654600e+11   9.000451e+06   1.702996e-21   0.000000e+00   0.000000e+00
      912000   9.119990e-08   9.812023e-02   1.547531e+01   2.053417e+01   3.044061e+05  -7.476060e+05   8.964181e+06   4.372558e+12  -6.175907e+12  -6.635488e+11   9.000451e+06   1.668521e-21   0.000000e+00   0.000000e+00
      920000   9.199990e-08   9.836515e-02   1.547471e+01   2.054134e+01   3.078904e+05  -7.525181e+05   8.963651e+06   4.338333e+12  -6.104433e+12  -6.614963e+11   9.000451e+06   1.634441e-21   0.000000e+00   0.000000e+00
      928000   9.279990e-08   9.861285e-02   1.547411e+01   2.054851e+01   3.113473e+05  -7.573731e+05   8.963123e+06   4.303765e+12  -6.033307e+12  -6.593042e+11   9.000451e+06   1.600755e-21   0.000000e+00   0.000000e+00
      936000   9.359990e-08   9.886330e-02   1.547350e+01   2.055568e+01   3.147764e+05  -7.621714e+05   8.962596e+06   4.268857e+12  -5.962526e+12  -6.569745e+11   9.000451e+06   1.567461e-21   0.000000e+00   0.000000e+00
      944000   9.439990e-08   9.911648e-02   1.547289e+01   2.056285e+01   3.181774e+05  -7.669133e+05   8.962072e+06   4.233615e+12  -5.892088e+12  -6.545089e+11   9.000451e+06   1.534557e-21   0.000000e+00   0.000000e+00
      952000   9.519990e-08   9.937238e-02   1.547227e+01   2.057002e+01   3.215501e+05  -7.715989e+05   8.961549e+06   4.198043e+12  -5.821990e+12  -6.519092e+11   9.000451e+06   1.502041e-21   0.000000e+00   0.000000e+00
      960000   9.599990e-08   9.963096e-02   1.547165e+01   2.057719e+01   3.248942e+05  -7.762285e+05   8.961029e+06   4.162146e+12  -5.752230e+12  -6.491773e+11   9.000451e+06   1.469913e-21   0.000000e+00   0.000000e+00
      968000   9.679990e-08   9.989220e-02   1.547103e+01   2.058435e+01   3.282094e+05  -7.808025e+05   8.960510e+06   4.125927e+12  -5.682806e+12  -6.463150e+11   9.000451e+06   1.438170e-21   0.000000e+00   0.000000e+00
      976000   9.759990e-08   1.001561e-01   1.547040e+01   2.059152e+01   3.313937e+05  -7.849970e+05   8.960027e+06   3.868288e+12  -4.910156e+12  -5.732549e+11   9.000451e+06   1.139368e-21   0.000000e+00   0.000000e+00
      984000   9.839990e-08   1.004224e-01   1.546978e+01   2.059869e+01   3.344662e+05  -7.888744e+05   8.959572e+06   3.812793e+12  -4.783396e+12  -5.635030e+11   9.000451e+06   1.091190e-21   0.000000e+00   0.000000e+00
      992000   9.919990e-08   1.006912e-01   1.546914e+01   2.060586e+01   3.375013e+05  -7.926579e+05   8.959124e+06   3.775728e+12  -4.684929e+12  -5.567347e+11   9.000451e+06   1.055876e-21   0.000000e+00   0.000000e+00
     1000000   9.999990e-08   1.009624e-01   1.546851e+01   2.061303e+01   3.405071e+05  -7.963716e+05   8.958681e+06   3.738844e+12  -4.599486e+12  -5.509739e+11   9.000451e+06   1.024738e-21   0.000000e+00   0.000000e+00
     1008000   1.007999e-07   1.012360e-01   1.546787e+01   2.062019e+01   3.434833e+05  -8.000171e+05   8.958243e+06   3.701710e+12  -4.514268e+12  -5.450805e+11   9.000451e+06   9.941033e-22   0.000000e+00   0.000000e+00
     1016000   1.015999e-07   1.015120e-01   1.546723e+01   2.062736e+01   3.464298e+05  -8.035945e+05   8.957809e+06   3.664331e+12  -4.429274e+12  -5.390571e+11   9.000451e+06   9.639721e-22   0.000000e+00   0.000000e+00
     1024000   1.023999e-07   1.017903e-01   1.546658e+01   2.063452e+01   3.493462e+05  -8.071040e+05   8.957380e+06   3.626710e+12  -4.344503e+12  -5.329058e+11   9.000451e+06   9.343427e-22   0.000000e+00   0.000000e+00
     1032000   1.031999e-07   1.020709e-01   1.546594e+01   2.064169e+01   3.522324e+05  -8.105458e+05   8.956957e+06   3.588851e+12  -4.259953e+12  -5.266290e+11   9.000451e+06   9.052141e-22   0.000000e+00   0.000000e+00
     1040000   1.039999e-07   1.023538e-01   1.546529e+01   2.064886e+01   3.550883e+05  -8.139200e+05   8.956538e+06   3.550757e+12  -4.175621e+12  -5.202290e+11   9.000451e+06   8.765851e-22   0.000000e+00   0.000000e+00
     1048000   1.047999e-07   1.026390e-01   1.546463e+01   2.065602e+01   3.579136e+05  -8.172268e+05   8.956124e+06   3.512431e+12  -4.091508e+12  -5.137081e+11   9.000451e+06   8.484546e-22   0.000000e+00   0.000000e+00
     1056000   1.055999e-07   1.029265e-01   1.546398e+01   2.066319e+01   3.607081e+05  -8.204664e+05   8.955716e+06   3.473878e+12  -4.007610e+12  -5.070686e+11   9.000451e+06   8.208213e-22   0.000000e+00   0.000000e+00
     1064000   1.063999e-07   1.032162e-01   1.546332e+01   2.067035e+01   3.634717e+05  -8.236390e+05   8.955313e+06   3.435100e+12  -3.923926e+12  -5.003128e+11   9.000451e+06   7.936843e-22   0.000000e+00   0.000000e+00
     1072000   1.071999e-07   1.035080e-01   1.546266e+01   2.067751e+01   3.662042e+05  -8.267448e+05   8.954915e+06   3.396100e+12  -3.840455e+12  -4.934429e+11   9.000451e+06   7.670422e-22   0.000000e+00   0.000000e+00
     1080000   1.079999e-07   1.038021e-01   1.546200e+01   2.068468e+01   3.689054e+05  -8.297838e+05   8.954523e+06   3.356883e+12  -3.757193e+12  -4.864612e+11   9.000451e+06   7.408941e-22   0.000000e+00   0.000000e+00
     1088000   1.087999e-07   1.040983e-01   1.546133e+01   2.069184e+01   3.715752e+05  -8.327563e+05   8.954137e+06   3.317452e+12  -3.674141e+12  -4.793699e+11   9.000451e+06   7.152388e-22   0.000000e+00   0.000000e+00
     1096000   1.095999e-07   1.043966e-01   1.546067e+01   2.069900e+01   3.742133e+05  -8.356625e+05   8.953756e+06   3.277809e+12  -3.591295e+12  -4.721714e+11   9.000451e+06   6.900753e-22   0.000000e+00   0.000000e+00
     1104000   1.103999e-07   1.046970e-01   1.546000e+01   2.070617e+01   3.768224e+05  -8.384980e+05   8.953382e+06   3.247369e+12  -3.512734e+12  -4.656452e+11   9.000451e+06   6.680154e-22   0.000000e+00   0.000000e+00
     1112000   1.111999e-07   1.049995e-01   1.545932e+01   2.071333e+01   3.794093e+05  -8.412850e+05   8.953011e+06   3.219655e+12  -3.454712e+12  -4.610697e+11   9.000451e+06   6.510205e-22   0.000000e+00   0.000000e+00
     1120000   1.119999e-07   1.053041e-01   1.545865e+01   2.072049e+01   3.819738e+05  -8.440256e+05   8.952644e+06   3.191792e+12  -3.396847e+12  -4.564243e+11   9.000451e+06   6.342669e-22   0.000000e+00   0.000000e+00
     1128000   1.127999e-07   1.056107e-01   1.545797e+01   2.072765e+01   3.845161e+05  -8.467199e+05   8.952281e+06   3.163780e+12  -3.339135e+12  -4.517100e+11   9.000451e+06   6.177541e-22   0.000000e+00   0.000000e+00
     1136000   1.135999e-07   1.059193e-01   1.545729e+01   2.073482e+01   3.870359e+05  -8.493682e+05   8.951922e+06   3.135622e+12  -3.281578e+12  -4.469280e+11   9.000451e+06   6.014815e-22   0.000000e+00   0.000000e+00
     1144000   1.143999e-07   1.062299e-01   1.545661e+01   2.074198e+01   3.895330e+05  -8.519705e+05   8.951566e+06   3.107320e+12  -3.224173e+12  -4.420793e+11   9.000451e+06   5.854484e-22   0.000000e+00   0.000000e+00
     1152000   1.151999e-07   1.065425e-01   1.545593e+01   2.074914e+01   3.920075e+05  -8.545269e+05   8.951214e+06   3.078876e+12  -3.166919e+12  -4.371651e+11   9.000451e+06   5.696544e-22   0.000000e+00   0.000000e+00
     1160000   1.159999e-07   1.068571e-01   1.545525e+01   2.075630e+01   3.944592e+05  -8.570376e+05   8.950866e+06   3.050292e+12  -3.109816e+12  -4.321864e+11   9.000451e+06   5.540988e-22   0.000000e+00   0.000000e+00
     1168000   1.167999e-07   1.071737e-01   1.545456e+01   2.076346e+01   3.968880e+05  -8.595027e+05   8.950523e+06   3.021569e+12  -3.052862e+12  -4.271443e+11   9.000451e+06   5.387810e-22   0.000000e+00   0.000000e+00
     1176000   1.175999e-07   1.074921e-01   1.545387e+01   2.077062e+01   3.992937e+05  -8.619222e+05   8.950183e+06   2.992709e+12  -2.996056e+12  -4.220400e+11   9.000451e+06   5.237006e-22   0.000000e+00   0.000000e+00
     1184000   1.183999e-07   1.078125e-01   1.545318e+01   2.077778e+01   4.016762e+05  -8.642964e+05   8.949847e+06   2.963715e+12  -2.939397e+12  -4.168744e+11   9.000451e+06   5.088569e-22   0.000000e+00   0.000000e+00
     1192000   1.191999e-07   1.081348e-01   1.545249e+01   2.078494e+01   4.040356e+05  -8.666253e+05   8.949516e+06   2.934588e+12  -2.882885e+12  -4.116487e+11   9.000451e+06   4.942494e-22   0.000000e+00   0.000000e+00
     1200000   1.199999e-07   1.084590e-01   1.545179e+01   2.079210e+01   4.063715e+05  -8.689090e+05   8.949189e+06   2.905330e+12  -2.826517e+12  -4.063640e+11   9.000451e+06   4.798775e-22   0.000000e+00   0.000000e+00
     1208000   1.207999e-07   1.087850e-01   1.545110e+01   2.079926e+01   4.086841e+05  -8.711477e+05   8.948866e+06   2.875944e+12  -2.770293e+12  -4.010212e+11   9.000451e+06   4.657408e-22   0.000000e+00   0.000000e+00
     1216000   1.215999e-07   1.091129e-01   1.545040e+01   2.080642e+01   4.109723e+05  -8.733282e+05   8.948549e+06   2.849127e+12  -2.702501e+12  -3.945982e+11   9.000451e+06   4.504248e-22   0.000000e+00   0.000000e+00
     1224000   1.223999e-07   1.094426e-01   1.544970e+01   2.081358e+01   4.132431e+05  -8.754739e+05   8.948234e+06   2.827745e+12  -2.661782e+12  -3.910118e+11   9.000451e+06   4.405171e-22   0.000000e+00   0.000000e+00
     1232000   1.231999e-07   1.097740e-01   1.544900e+01   2.082073e+01   4.154967e+05  -8.775871e+05   8.947923e+06   2.806268e+12  -2.621174e+12  -3.873862e+11   9.000451e+06   4.307332e-22   0.000000e+00   0.000000e+00
     1240000   1.239999e-07   1.101073e-01   1.544830e+01   2.082789e+01   4.177331e+05  -8.796678e+05   8.947615e+06   2.784698e+12  -2.580676e+12  -3.837220e+11   9.000451e+06   4.210727e-22   0.000000e+00   0.000000e+00
     1248000   1.247999e-07   1.104424e-01   1.544759e+01   2.083505e+01   4.199522e+05  -8.817162e+05   8.947309e+06   2.763036e+12  -2.540288e+12  -3.800199e+11   9.000451e+06   4.115352e-22   0.000000e+00   0.000000e+00
     1256000   1.255999e-07   1.107793e-01   1.544689e+01   2.084221e+01   4.221539e+05  -8.837323e+05   8.947007e+06   2.741283e+12  -2.500010e+12  -3.762802e+11   9.000451e+06   4.021206e-22   0.000000e+00   0.000000e+00
     1264000   1.263999e-07   1.111179e-01   1.544618e+01   2.084937e+01   4.243382e+05  -8.857163e+05   8.946707e+06   2.719440e+12  -2.459839e+12  -3.725036e+11   9.000451e+06   3.928284e-22   0.000000e+00   0.000000e+00
     1272000   1.271999e-07   1.114582e-01   1.544547e+01   2.085652e+01   4.265050e+05  -8.876681e+05   8.946411e+06   2.697509e+12  -2.419777e+12  -3.686907e+11   9.000451e+06   3.836584e-22   0.000000e+00   0.000000e+00
     1280000   1.279999e-07   1.118003e-01   1.544476e+01   2.086368e+01   4.286542e+05  -8.895879e+05   8.946117e+06   2.675489e+12  -2.379821e+12  -3.648419e+11   9.000451e+06   3.746104e-22   0.000000e+00   0.000000e+00
     1288000   1.287999e-07   1.121440e-01   1.544405e+01   2.087084e+01   4.307857e+05  -8.914758e+05   8.945827e+06   2.653383e+12  -2.339972e+12  -3.609579e+11   9.000451e+06   3.656839e-22   0.000000e+00   0.000000e+00
     1296000   1.295999e-07   1.124895e-01   1.544333e+01   2.087799e+01   4.328996e+05  -8.933319e+05   8.945540e+06   2.631192e+12  -2.300228e+12  -3.570391e+11   9.000451e+06   3.568787e-22   0.000000e+00   0.000000e+00
     1304000   1.303999e-07   1.128367e-01   1.544262e+01   2.088515e+01   4.349956e+05  -8.951562e+05   8.945256e+06   2.608916e+12  -2.260589e+12  -3.530862e+11   9.000451e+06   3.481945e-22   0.000000e+00   0.000000e+00
     1312000   1.311999e-07   1.131855e-01   1.544190e+01   2.089231e+01   4.370738e+05  -8.969489e+05   8.944975e+06   2.586557e+12  -2.221055e+12  -3.490997e+11   9.000451e+06   3.396311e-22   0.000000e+00   0.000000e+00
     1320000   1.319999e-07   1.135360e-01   1.544118e+01   2.089946e+01   4.391341e+05  -8.987099e+05   8.944697e+06   2.564116e+12  -2.181624e+12  -3.450801e+11   9.000451e+06   3.311881e-22   0.000000e+00   0.000000e+00
     1328000   1.327999e-07   1.138881e-01   1.544046e+01   2.090662e+01   4.411727e+05  -9.004197e+05   8.944425e+06   2.539258e+12  -2.120056e+12  -3.386680e+11   9.000451e+06   3.197344e-22   0.000000e+00   0.000000e+00
     1336000   1.335999e-07   1.142419e-01   1.543974e+01   2.091377e+01   4.431974e+05  -9.021040e+05   8.944155e+06   2.522391e+12  -2.090659e+12  -3.358515e+11   9.000451e+06   3.136314e-22   0.000000e+00   0.000000e+00
     1344000   1.343999e-07   1.145972e-01   1.543902e+01   2.092093e+01   4.452085e+05  -9.037648e+05   8.943887e+06   2.505463e+12  -2.061344e+12  -3.330121e+11   9.000451e+06   3.075956e-22   0.000000e+00   0.000000e+00
     1352000   1.351999e-07   1.149542e-01   1.543830e+01   2.092808e+01   4.472061e+05  -9.054021e+05   8.943622e+06   2.488473e+12  -2.032110e+12  -3.301499e+11   9.000451e+06   3.016269e-22   0.000000e+00   0.000000e+00
     1360000   1.359999e-07   1.153127e-01   1.543757e+01   2.093524e+01   4.491900e+05  -9.070161e+05   8.943359e+06   2.471424e+12  -2.002956e+12  -3.272653e+11   9.000451e+06   2.957252e-22   0.000000e+00   0.000000e+00
     1368000   1.367999e-07   1.156729e-01   1.543684e+01   2.094239e+01   4.511603e+05  -9.086069e+05   8.943098e+06   2.454316e+12  -1.973882e+12  -3.243587e+11   9.000451e+06   2.898903e-22   0.000000e+00   0.000000e+00
     1376000   1.375999e-07   1.160346e-01   1.543612e+01   2.094955e+01   4.531169e+05  -9.101744e+05   8.942840e+06   2.437149e+12  -1.944888e+12  -3.214303e+11   9.000451e+06   2.841219e-22   0.000000e+00   0.000000e+00
     1384000   1.383999e-07   1.163979e-01   1.543539e+01   2.095670e+01   4.550598e+05  -9.117187e+05   8.942584e+06   2.419924e+12  -1.915973e+12  -3.184804e+11   9.000451e+06   2.784200e-22   0.000000e+00   0.000000e+00
     1392000   1.391999e-07   1.167627e-01   1.543466e+01   2.096385e+01   4.569888e+05  -9.132400e+05   8.942331e+06   2.402642e+12  -1.887137e+12  -3.155093e+11   9.000451e+06   2.727844e-22   0.000000e+00   0.000000e+00
     1400000   1.399999e-07   1.171291e-01   1.543393e+01   2.097101e+01   4.589040e+05  -9.147382e+05   8.942079e+06   2.385304e+12  -1.858380e+12  -3.125174e+11   9.000451e+06   2.672148e-22   0.000000e+00   0.000000e+00
     1408000   1.407999e-07   1.174969e-01   1.543319e+01   2.097816e+01   4.608053e+05  -9.162134e+05   8.941831e+06   2.367909e+12  -1.829700e+12  -3.095048e+11   9.000451e+06   2.617112e-22   0.000000e+00   0.000000e+00
     1416000   1.415999e-07   1.178663e-01   1.543246e+01   2.098532e+01   4.626926e+05  -9.176657e+05   8.941584e+06   2.350460e+12  -1.801097e+12  -3.064719e+11   9.000451e+06   2.562735e-22   0.000000e+00   0.000000e+00
     1424000   1.423999e-07   1.182372e-01   1.543173e+01   2.099247e+01   4.645660e+05  -9.190952e+05   8.941340e+06   2.332956e+12  -1.772571e+12  -3.034190e+11   9.000451e+06   2.509013e-22   0.000000e+00   0.000000e+00
     1432000   1.431999e-07   1.186096e-01   1.543099e+01   2.099962e+01   4.664253e+05  -9.205018e+05   8.941099e+06   2.315398e+12  -1.744122e+12  -3.003464e+11   9.000451e+06   2.455946e-22   0.000000e+00   0.000000e+00
     1440000   1.439999e-07   1.189835e-01   1.543025e+01   2.100677e+01   4.682652e+05  -9.218625e+05   8.940862e+06   2.292532e+12  -1.688218e+12  -2.941346e+11   9.000451e+06   2.368924e-22   0.000000e+00   0.000000e+00
     1448000   1.447999e-07   1.193589e-01   1.542951e+01   2.101393e+01   4.700937e+05  -9.232044e+05   8.940628e+06   2.278856e+12  -1.666562e+12  -2.919092e+11   9.000451e+06   2.329459e-22   0.000000e+00   0.000000e+00
     1456000   1.455999e-07   1.197357e-01   1.542878e+01   2.102108e+01   4.719113e+05  -9.245290e+05   8.940395e+06   2.265138e+12  -1.644967e+12  -2.896699e+11   9.000451e+06   2.290380e-22   0.000000e+00   0.000000e+00
     1464000   1.463999e-07   1.201139e-01   1.542804e+01   2.102823e+01   4.737180e+05  -9.258364e+05   8.940164e+06   2.251379e+12  -1.623434e+12  -2.874167e+11   9.000451e+06   2.251684e-22   0.000000e+00   0.000000e+00
     1472000   1.471999e-07   1.204936e-01   1.542729e+01   2.103538e+01   4.755135e+05  -9.271265e+05   8.939935e+06   2.237581e+12  -1.601963e+12  -2.851498e+11   9.000451e+06   2.213372e-22   0.000000e+00   0.000000e+00
     1480000   1.479999e-07   1.208747e-01   1.542655e+01   2.104254e+01   4.772981e+05  -9.283995e+05   8.939708e+06   2.223742e+12  -1.580551e+12  -2.828695e+11   9.000451e+06   2.175441e-22   0.000000e+00   0.000000e+00
     1488000   1.487999e-07   1.212573e-01   1.542581e+01   2.104969e+01   4.790715e+05  -9.296554e+05   8.939483e+06   2.209865e+12  -1.559201e+12  -2.805757e+11   9.000451e+06   2.137891e-22   0.000000e+00   0.000000e+00
     1496000   1.495999e-07   1.216412e-01   1.542506e+01   2.105684e+01   4.808338e+05  -9.308943e+05   8.939259e+06   2.195948e+12  -1.537910e+12  -2.782688e+11   9.000451e+06   2.100721e-22   0.000000e+00   0.000000e+00
     1504000   1.503999e-07   1.220266e-01   1.542432e+01   2.106399e+01   4.825850e+05  -9.321161e+05   8.939038e+06   2.181993e+12  -1.516679e+12  -2.759489e+11   9.000451e+06   2.063930e-22   0.000000e+00   0.000000e+00
     1512000   1.511999e-07   1.224134e-01   1.542357e+01   2.107114e+01   4.843250e+05  -9.333210e+05   8.938818e+06   2.168000e+12  -1.495508e+12  -2.736161e+11   9.000451e+06   2.027518e-22   0.000000e+00   0.000000e+00
     1520000   1.519999e-07   1.228015e-01   1.542283e+01   2.107829e+01   4.860538e+05  -9.345089e+05   8.938600e+06   2.153970e+12  -1.474396e+12  -2.712707e+11   9.000451e+06   1.991482e-22   0.000000e+00   0.000000e+00
     1528000   1.527999e-07   1.231911e-01   1.542208e+01   2.108544e+01   4.877714e+05  -9.356800e+05   8.938384e+06   2.139902e+12  -1.453342e+12  -2.689128e+11   9.000451e+06   1.955823e-22   0.000000e+00   0.000000e+00
     1536000   1.535999e-07   1.235820e-01   1.542133e+01   2.109259e+01   4.894776e+05  -9.368343e+05   8.938170e+06   2.125797e+12  -1.432347e+12  -2.665424e+11   9.000451e+06   1.920539e-22   0.000000e+00   0.000000e+00
     1544000   1.543999e-07   1.239742e-01   1.542058e+01   2.109974e+01   4.911726e+05  -9.379718e+05   8.937957e+06   2.111656e+12  -1.411411e+12  -2.641600e+11   9.000451e+06   1.885630e-22   0.000000e+00   0.000000e+00
     1552000   1.551999e-07   1.243678e-01   1.541983e+01   2.110689e+01   4.928500e+05  -9.390675e+05   8.937750e+06   2.090873e+12  -1.360258e+12  -2.582149e+11   9.000451e+06   1.818477e-22   0.000000e+00   0.000000e+00
     1560000   1.559999e-07   1.247628e-01   1.541908e+01   2.111404e+01   4.945183e+05  -9.401492e+05   8.937544e+06   2.079780e+12  -1.344023e+12  -2.564542e+11   9.000451e+06   1.792142e-22   0.000000e+00   0.000000e+00
     1568000   1.567999e-07   1.251591e-01   1.541832e+01   2.112119e+01   4.961777e+05  -9.412180e+05   8.937340e+06   2.068659e+12  -1.327836e+12  -2.546848e+11   9.000451e+06   1.766033e-22   0.000000e+00   0.000000e+00
     1576000   1.575999e-07   1.255567e-01   1.541757e+01   2.112834e+01   4.978281e+05  -9.422738e+05   8.937137e+06   2.057510e+12  -1.311696e+12  -2.529068e+11   9.000451e+06   1.740151e-22   0.000000e+00   0.000000e+00
     1584000   1.583999e-07   1.259556e-01   1.541682e+01   2.113549e+01   4.994697e+05  -9.433167e+05   8.936935e+06   2.046334e+12  -1.295602e+12  -2.511202e+11   9.000451e+06   1.714495e-22   0.000000e+00   0.000000e+00
     1592000   1.591999e-07   1.263558e-01   1.541606e+01   2.114264e+01   5.011023e+05  -9.443467e+05   8.936735e+06   2.035131e+12  -1.279556e+12  -2.493251e+11   9.000451e+06   1.689064e-22   0.000000e+00   0.000000e+00
     1600000   1.599999e-07   1.267573e-01   1.541531e+01   2.114979e+01   5.027259e+05  -9.453640e+05   8.936536e+06   2.023901e+12  -1.263555e+12  -2.475217e+11   9.000451e+06   1.663858e-22   0.000000e+00   0.000000e+00
     1608000   1.607999e-07   1.271602e-01   1.541455e+01   2.115694e+01   5.043405e+05  -9.463684e+05   8.936339e+06   2.012645e+12  -1.247601e+12  -2.457100e+11   9.000451e+06   1.638876e-22   0.000000e+00   0.000000e+00
     1616000   1.615999e-07   1.275643e-01   1.541379e+01   2.116409e+01   5.059461e+05  -9.473601e+05   8.936143e+06   2.001362e+12  -1.231693e+12  -2.438902e+11   9.000451e+06   1.614117e-22   0.000000e+00   0.000000e+00
     1624000   1.623999e-07   1.279697e-01   1.541303e+01   2.117124e+01   5.075427e+05  -9.483392e+05   8.935948e+06   1.990053e+12  -1.215830e+12  -2.420623e+11   9.000451e+06   1.589581e-22   0.000000e+00   0.000000e+00
     1632000   1.631999e-07   1.283763e-01   1.541227e+01   2.117839e+01   5.091302e+05  -9.493055e+05   8.935756e+06   1.978718e+12  -1.200013e+12  -2.402264e+11   9.000451e+06   1.565268e-22   0.000000e+00   0.000000e+00
     1640000   1.639999e-07   1.287843e-01   1.541151e+01   2.118554e+01   5.107086e+05  -9.502592e+05   8.935564e+06   1.967358e+12  -1.184242e+12  -2.383826e+11   9.000451e+06   1.541177e-22   0.000000e+00   0.000000e+00
     1648000   1.647999e-07   1.291935e-01   1.541075e+01   2.119269e+01   5.122779e+05  -9.512003e+05   8.935374e+06   1.955973e+12  -1.168515e+12  -2.365311e+11   9.000451e+06   1.517307e-22   0.000000e+00   0.000000e+00
     1656000   1.655999e-07   1.296039e-01   1.540999e+01   2.119983e+01   5.138382e+05  -9.521288e+05   8.935186e+06   1.944563e+12  -1.152834e+12  -2.346718e+11   9.000451e+06   1.493658e-22   0.000000e+00   0.000000e+00
     1664000   1.663999e-07   1.300156e-01   1.540923e+01   2.120698e+01   5.153816e+05  -9.530178e+05   8.935002e+06   1.924338e+12  -1.104205e+12  -2.287739e+11   9.000451e+06   1.438502e-22   0.000000e+00   0.000000e+00
     1672000   1.671999e-07   1.304285e-01   1.540847e+01   2.121413e+01   5.169173e+05  -9.538962e+05   8.934820e+06   1.914964e+12  -1.091851e+12  -2.273565e+11   9.000451e+06   1.420063e-22   0.000000e+00   0.000000e+00
     1680000   1.679999e-07   1.308427e-01   1.540770e+01   2.122128e+01   5.184455e+05  -9.547648e+05   8.934638e+06   1.905570e+12  -1.079534e+12  -2.259335e+11   9.000451e+06   1.401764e-22   0.000000e+00   0.000000e+00
     1688000   1.687999e-07   1.312580e-01   1.540694e+01   2.122842e+01   5.199662e+05  -9.556235e+05   8.934458e+06   1.896156e+12  -1.067254e+12  -2.245049e+11   9.000451e+06   1.383607e-22   0.000000e+00   0.000000e+00
     1696000   1.695999e-07   1.316746e-01   1.540618e+01   2.123557e+01   5.214794e+05  -9.564724e+05   8.934279e+06   1.886724e+12  -1.055012e+12  -2.230708e+11   9.000451e+06   1.365591e-22   0.000000e+00   0.000000e+00
     1704000   1.703999e-07   1.320924e-01   1.540541e+01   2.124272e+01   5.229850e+05  -9.573115e+05   8.934101e+06   1.877273e+12  -1.042806e+12  -2.216311e+11   9.000451e+06   1.347714e-22   0.000000e+00   0.000000e+00
     1712000   1.711999e-07   1.325114e-01   1.540464e+01   2.124987e+01   5.244830e+05  -9.581409e+05   8.933924e+06   1.867803e+12  -1.030637e+12  -2.201860e+11   9.000451e+06   1.329978e-22   0.000000e+00   0.000000e+00
     1720000   1.719999e-07   1.329316e-01   1.540388e+01   2.125701e+01   5.259734e+05  -9.589606e+05   8.933749e+06   1.858314e+12  -1.018504e+12  -2.187356e+11   9.000451e+06   1.312382e-22   0.000000e+00   0.000000e+00
     1728000   1.727999e-07   1.333530e-01   1.540311e+01   2.126416e+01   5.274563e+05  -9.597705e+05   8.933574e+06   1.848807e+12  -1.006408e+12  -2.172798e+11   9.000451e+06   1.294924e-22   0.000000e+00   0.000000e+00
     1736000   1.735999e-07   1.337755e-01   1.540234e+01   2.127131e+01   5.289315e+05  -9.605708e+05   8.933401e+06   1.839282e+12  -9.943482e+11  -2.158188e+11   9.000451e+06   1.277606e-22   0.000000e+00   0.000000e+00
     1744000   1.743999e-07   1.341992e-01   1.540157e+01   2.127845e+01   5.303991e+05  -9.613615e+05   8.933229e+06   1.829739e+12  -9.823244e+11  -2.143526e+11   9.000451e+06   1.260426e-22   0.000000e+00   0.000000e+00
     1752000   1.751999e-07   1.346241e-01   1.540080e+01   2.128560e+01   5.318591e+05  -9.621425e+05   8.933058e+06   1.820178e+12  -9.703365e+11  -2.128812e+11   9.000451e+06   1.243385e-22   0.000000e+00   0.000000e+00
     1760000   1.759999e-07   1.350502e-01   1.540003e+01   2.129275e+01   5.333114e+05  -9.629140e+05   8.932889e+06   1.810600e+12  -9.583844e+11  -2.114047e+11   9.000451e+06   1.226482e-22   0.000000e+00   0.000000e+00
     1768000   1.767999e-07   1.354774e-01   1.539926e+01   2.129989e+01   5.347581e+05  -9.636756e+05   8.932720e+06   1.803713e+12  -9.460428e+11  -2.100399e+11   9.000451e+06   1.212321e-22   0.000000e+00   0.000000e+00
     1776000   1.775999e-07   1.359058e-01   1.539849e+01   2.130704e+01   5.361883e+05  -9.644007e+05   8.932556e+06   1.783717e+12  -9.010199e+11  -2.043482e+11   9.000451e+06   1.166849e-22   0.000000e+00   0.000000e+00
     1784000   1.783999e-07   1.363353e-01   1.539772e+01   2.131419e+01   5.376122e+05  -9.651177e+05   8.932393e+06   1.775923e+12  -8.913698e+11  -2.031969e+11   9.000451e+06   1.153689e-22   0.000000e+00   0.000000e+00
     1792000   1.791999e-07   1.367660e-01   1.539695e+01   2.132133e+01   5.390298e+05  -9.658269e+05   8.932231e+06   1.768115e+12  -8.817493e+11  -2.020418e+11   9.000451e+06   1.140619e-22   0.000000e+00   0.000000e+00
     1800000   1.799999e-07   1.371978e-01   1.539617e+01   2.132848e+01   5.404412e+05  -9.665285e+05   8.932070e+06   1.760294e+12  -8.721584e+11  -2.008830e+11   9.000451e+06   1.127640e-22   0.000000e+00   0.000000e+00
     1808000   1.807999e-07   1.376307e-01   1.539540e+01   2.133562e+01   5.418463e+05  -9.672224e+05   8.931909e+06   1.752458e+12  -8.625969e+11  -1.997205e+11   9.000451e+06   1.114750e-22   0.000000e+00   0.000000e+00
     1816000   1.815999e-07   1.380647e-01   1.539463e+01   2.134277e+01   5.432451e+05  -9.679087e+05   8.931750e+06   1.744610e+12  -8.530646e+11  -1.985545e+11   9.000451e+06   1.101950e-22   0.000000e+00   0.000000e+00
     1824000   1.823999e-07   1.384999e-01   1.539385e+01   2.134991e+01   5.446376e+05  -9.685873e+05   8.931592e+06   1.736748e+12  -8.435616e+11  -1.973849e+11   9.000451e+06   1.089240e-22   0.000000e+00   0.000000e+00
     1832000   1.831999e-07   1.389362e-01   1.539308e+01   2.135706e+01   5.460239e+05  -9.692584e+05   8.931434e+06   1.728873e+12  -8.340876e+11  -1.962117e+11   9.000451e+06   1.076619e-22   0.000000e+00   0.000000e+00
     1840000   1.839999e-07   1.393735e-01   1.539230e+01   2.136420e+01   5.474038e+05  -9.699219e+05   8.931278e+06   1.720985e+12  -8.246425e+11  -1.950351e+11   9.000451e+06   1.064086e-22   0.000000e+00   0.000000e+00
     1848000   1.847999e-07   1.398120e-01   1.539152e+01   2.137135e+01   5.487775e+05  -9.705778e+05   8.931122e+06   1.713084e+12  -8.152263e+11  -1.938550e+11   9.000451e+06   1.051643e-22   0.000000e+00   0.000000e+00
     1856000   1.855999e-07   1.402516e-01   1.539075e+01   2.137849e+01   5.501448e+05  -9.712262e+05   8.930968e+06   1.705171e+12  -8.058388e+11  -1.926714e+11   9.000451e+06   1.039288e-22   0.000000e+00   0.000000e+00
     1864000   1.863999e-07   1.406922e-01   1.538997e+01   2.138564e+01   5.515057e+05  -9.718671e+05   8.930814e+06   1.697245e+12  -7.964799e+11  -1.914845e+11   9.000451e+06   1.027022e-22   0.000000e+00   0.000000e+00
     1872000   1.871999e-07   1.411340e-01   1.538919e+01   2.139278e+01   5.528603e+05  -9.725006e+05   8.930661e+06   1.689306e+12  -7.871495e+11  -1.902942e+11   9.000451e+06   1.014843e-22   0.000000e+00   0.000000e+00
     1880000   1.879999e-07   1.415768e-01   1.538841e+01   2.139993e+01   5.542086e+05  -9.731266e+05   8.930509e+06   1.681355e+12  -7.778475e+11  -1.891006e+11   9.000451e+06   1.002753e-22   0.000000e+00   0.000000e+00
     1888000   1.887999e-07   1.420207e-01   1.538764e+01   2.140707e+01   5.555436e+05  -9.737192e+05   8.930362e+06   1.665281e+12  -7.366437e+11  -1.839142e+11   9.000451e+06   9.685941e-23   0.000000e+00   0.000000e+00
     1896000   1.895999e-07   1.424657e-01   1.538686e+01   2.141422e+01   5.568731e+05  -9.743055e+05   8.930215e+06   1.658614e+12  -7.290724e+11  -1.829717e+11   9.000451e+06   9.588769e-23   0.000000e+00   0.000000e+00
     1904000   1.903999e-07   1.429117e-01   1.538608e+01   2.142136e+01   5.581973e+05  -9.748857e+05   8.930069e+06   1.651937e+12  -7.215252e+11  -1.820267e+11   9.000451e+06   9.492195e-23   0.000000e+00   0.000000e+00
     1912000   1.911999e-07   1.433588e-01   1.538530e+01   2.142850e+01   5.595162e+05  -9.754599e+05   8.929924e+06   1.645250e+12  -7.140019e+11  -1.810793e+11   9.000451e+06   9.396216e-23   0.000000e+00   0.000000e+00
     1920000   1.919999e-07   1.438069e-01   1.538452e+01   2.143565e+01   5.608297e+05  -9.760281e+05   8.929779e+06   1.638554e+12  -7.065024e+11  -1.801294e+11   9.000451e+06   9.300831e-23   0.000000e+00   0.000000e+00
     1928000   1.927999e-07   1.442561e-01   1.538374e+01   2.144279e+01   5.621379e+05  -9.765904e+05   8.929636e+06   1.631847e+12  -6.990268e+11  -1.791771e+11   9.000451e+06   9.206040e-23   0.000000e+00   0.000000e+00
     1936000   1.935999e-07   1.447064e-01   1.538295e+01   2.144994e+01   5.634407e+05  -9.771466e+05   8.929493e+06   1.625132e+12  -6.915748e+11  -1.782223e+11   9.000451e+06   9.111840e-23   0.000000e+00   0.000000e+00
     1944000   1.943999e-07   1.451576e-01   1.538217e+01   2.145708e+01   5.647381e+05  -9.776969e+05   8.929351e+06   1.618407e+12  -6.841465e+11  -1.772652e+11   9.000451e+06   9.018230e-23   0.000000e+00   0.000000e+00
     1952000   1.951999e-07   1.456099e-01   1.538139e+01   2.146422e+01   5.660301e+05  -9.782412e+05   8.929209e+06   1.611672e+12  -6.767416e+11  -1.763058e+11   9.000451e+06   8.925209e-23   0.000000e+00   0.000000e+00
     1960000   1.959999e-07   1.460633e-01   1.538061e+01   2.147137e+01   5.673168e+05  -9.787797e+05   8.929068e+06   1.604929e+12  -6.693602e+11  -1.753440e+11   9.000451e+06   8.832776e-23   0.000000e+00   0.000000e+00
     1968000   1.967999e-07   1.465176e-01   1.537982e+01   2.147851e+01   5.685980e+05  -9.793122e+05   8.928929e+06   1.598176e+12  -6.620021e+11  -1.743800e+11   9.000451e+06   8.740928e-23   0.000000e+00   0.000000e+00
     1976000   1.975999e-07   1.469730e-01   1.537904e+01   2.148565e+01   5.698739e+05  -9.798389e+05   8.928789e+06   1.591414e+12  -6.546673e+11  -1.734136e+11   9.000451e+06   8.649665e-23   0.000000e+00   0.000000e+00
     1984000   1.983999e-07   1.474294e-01   1.537826e+01   2.149280e+01   5.711443e+05  -9.803597e+05   8.928651e+06   1.584644e+12  -6.473557e+11  -1.724450e+11   9.000451e+06   8.558985e-23   0.000000e+00   0.000000e+00
     1992000   1.991999e-07   1.478869e-01   1.537747e+01   2.149994e+01   5.724093e+05  -9.808747e+05   8.928514e+06   1.577864e+12  -6.400671e+11  -1.714741e+11   9.000451e+06   8.468888e-23   0.000000e+00   0.000000e+00
     2000000   1.999999e-07   1.483453e-01   1.537669e+01   2.150708e+01   5.736608e+05  -9.813587e+05   8.928380e+06   1.561489e+12  -6.017552e+11  -1.664694e+11   9.000451e+06   8.177771e-23   0.000000e+00   0.000000e+00
     2008000   2.007999e-07   1.488047e-01   1.537590e+01   2.151422e+01   5.749077e+05  -9.818377e+05   8.928247e+06   1.555791e+12  -5.957936e+11  -1.656998e+11   9.000451e+06   8.105021e-23   0.000000e+00   0.000000e+00
     2016000   2.015999e-07   1.492651e-01   1.537512e+01   2.152137e+01   5.761501e+05  -9.823120e+05   8.928115e+06   1.550085e+12  -5.898517e+11  -1.649284e+11   9.000451e+06   8.032670e-23   0.000000e+00   0.000000e+00
     2024000   2.023999e-07   1.497265e-01   1.537433e+01   2.152851e+01   5.773879e+05  -9.827815e+05   8.927983e+06   1.544372e+12  -5.839294e+11  -1.641554e+11   9.000451e+06   7.960717e-23   0.000000e+00   0.000000e+00
     2032000   2.031999e-07   1.501890e-01   1.537354e+01   2.153565e+01   5.786211e+05  -9.832462e+05   8.927852e+06   1.538653e+12  -5.780266e+11  -1.633808e+11   9.000451e+06   7.889161e-23   0.000000e+00   0.000000e+00
     2040000   2.039999e-07   1.506523e-01   1.537276e+01   2.154279e+01   5.798497e+05  -9.837063e+05   8.927722e+06   1.532927e+12  -5.721434e+11  -1.626045e+11   9.000451e+06   7.818001e-23   0.000000e+00   0.000000e+00
     2048000   2.047999e-07   1.511167e-01   1.537197e+01   2.154993e+01   5.810738e+05  -9.841617e+05   8.927592e+06   1.527193e+12  -5.662796e+11  -1.618267e+11   9.000451e+06   7.747236e-23   0.000000e+00   0.000000e+00
     2056000   2.055999e-07   1.515821e-01   1.537118e+01   2.155708e+01   5.822932e+05  -9.846124e+05   8.927463e+06   1.521453e+12  -5.604351e+11  -1.610472e+11   9.000451e+06   7.676865e-23   0.000000e+00   0.000000e+00
     2064000   2.063999e-07   1.520484e-01   1.537039e+01   2.156422e+01   5.835081e+05  -9.850584e+05   8.927334e+06   1.515707e+12  -5.546100e+11  -1.602662e+11   9.000451e+06   7.606888e-23   0.000000e+00   0.000000e+00
     2072000   2.071999e-07   1.525157e-01   1.536961e+01   2.157136e+01   5.847184e+05  -9.854997e+05   8.927207e+06   1.509953e+12  -5.488041e+11  -1.594836e+11   9.000451e+06   7.537303e-23   0.000000e+00   0.000000e+00
     2080000   2.079999e-07   1.529839e-01   1.536882e+01   2.157850e+01   5.859240e+05  -9.859365e+05   8.927079e+06   1.504193e+12  -5.430174e+11  -1.586995e+11   9.000451e+06   7.468110e-23   0.000000e+00   0.000000e+00
     2088000   2.087999e-07   1.534531e-01   1.536803e+01   2.158564e+01   5.871251e+05  -9.863686e+05   8.926953e+06   1.498427e+12  -5.372498e+11  -1.579139e+11   9.000451e+06   7.399307e-23   0.000000e+00   0.000000e+00
     2096000   2.095999e-07   1.539233e-01   1.536724e+01   2.159279e+01   5.883215e+05  -9.867961e+05   8.926827e+06   1.492654e+12  -5.315012e+11  -1.571268e+11   9.000451e+06   7.330894e-23   0.000000e+00   0.000000e+00
     2104000   2.103999e-07   1.543945e-01   1.536645e+01   2.159993e+01   5.895133e+05  -9.872190e+05   8.926701e+06   1.486875e+12  -5.257716e+11  -1.563382e+11   9.000451e+06   7.262870e-23   0.000000e+00   0.000000e+00
     2112000   2.111999e-07   1.548665e-01   1.536566e+01   2.160707e+01   5.906934e+05  -9.876126e+05   8.926580e+06   1.472515e+12  -4.893318e+11  -1.515782e+11   9.000451e+06   7.028784e-23   0.000000e+00   0.000000e+00
     2120000   2.119999e-07   1.553396e-01   1.536487e+01   2.161421e+01   5.918694e+05  -9.880022e+05   8.926459e+06   1.467546e+12  -4.845459e+11  -1.509364e+11   9.000451e+06   6.972498e-23   0.000000e+00   0.000000e+00
     2128000   2.127999e-07   1.558135e-01   1.536408e+01   2.162135e+01   5.930415e+05  -9.883879e+05   8.926338e+06   1.462571e+12  -4.797765e+11  -1.502935e+11   9.000451e+06   6.916491e-23   0.000000e+00   0.000000e+00
     2136000   2.135999e-07   1.562884e-01   1.536329e+01   2.162849e+01   5.942095e+05  -9.887698e+05   8.926218e+06   1.457592e+12  -4.750235e+11  -1.496494e+11   9.000451e+06   6.860762e-23   0.000000e+00   0.000000e+00
     2144000   2.143999e-07   1.567643e-01   1.536250e+01   2.163563e+01   5.953736e+05  -9.891479e+05   8.926099e+06   1.452607e+12  -4.702868e+11  -1.490043e+11   9.000451e+06   6.805309e-23   0.000000e+00   0.000000e+00
     2152000   2.151999e-07   1.572410e-01   1.536170e+01   2.164277e+01   5.965337e+05  -9.895223e+05   8.925980e+06   1.447617e+12  -4.655664e+11  -1.483580e+11   9.000451e+06   6.750134e-23   0.000000e+00   0.000000e+00
     2160000   2.159999e-07   1.577187e-01   1.536091e+01   2.164991e+01   5.976898e+05  -9.898929e+05   8.925861e+06   1.442623e+12  -4.608623e+11  -1.477107e+11   9.000451e+06   6.695234e-23   0.000000e+00   0.000000e+00
     2168000   2.167999e-07   1.581973e-01   1.536012e+01   2.165705e+01   5.988419e+05  -9.902597e+05   8.925743e+06   1.437623e+12  -4.561743e+11  -1.470622e+11   9.000451e+06   6.640610e-23   0.000000e+00   0.000000e+00
     2176000   2.175999e-07   1.586769e-01   1.535933e+01   2.166420e+01   5.999900e+05  -9.906227e+05   8.925626e+06   1.432619e+12  -4.515025e+11  -1.464127e+11   9.000451e+06   6.586261e-23   0.000000e+00   0.000000e+00
     2184000   2.183999e-07   1.591573e-01   1.535854e+01   2.167134e+01   6.011341e+05  -9.909821e+05   8.925509e+06   1.427609e+12  -4.468468e+11  -1.457622e+11   9.000451e+06   6.532185e-23   0.000000e+00   0.000000e+00
     2192000   2.191999e-07   1.596387e-01   1.535774e+01   2.167848e+01   6.022742e+05  -9.913377e+05   8.925393e+06   1.422595e+12  -4.422071e+11  -1.451105e+11   9.000451e+06   6.478384e-23   0.000000e+00   0.000000e+00
     2200000   2.199999e-07   1.601210e-01   1.535695e+01   2.168562e+01   6.034102e+05  -9.916896e+05   8.925277e+06   1.417576e+12  -4.375834e+11  -1.444579e+11   9.000451e+06   6.424855e-23   0.000000e+00   0.000000e+00
     2208000   2.207999e-07   1.606041e-01   1.535616e+01   2.169276e+01   6.045423e+05  -9.920378e+05   8.925162e+06   1.412552e+12  -4.329756e+11  -1.438042e+11   9.000451e+06   6.371598e-23   0.000000e+00   0.000000e+00
     2216000   2.215999e-07   1.610882e-01   1.535536e+01   2.169990e+01   6.056703e+05  -9.923824e+05   8.925047e+06   1.407524e+12  -4.283837e+11  -1.431495e+11   9.000451e+06   6.318613e-23   0.000000e+00   0.000000e+00
     2224000   2.223999e-07   1.615732e-01   1.535457e+01   2.170704e+01   6.067875e+05  -9.926995e+05   8.924936e+06   1.394222e+12  -3.940459e+11  -1.386190e+11   9.000451e+06   6.125489e-23   0.000000e+00   0.000000e+00
     2232000   2.231999e-07   1.620591e-01   1.535377e+01   2.171418e+01   6.079012e+05  -9.930132e+05   8.924825e+06   1.389885e+12  -3.901770e+11  -1.380827e+11   9.000451e+06   6.081376e-23   0.000000e+00   0.000000e+00
     2240000   2.239999e-07   1.625458e-01   1.535298e+01   2.172132e+01   6.090113e+05  -9.933238e+05   8.924715e+06   1.385545e+12  -3.863219e+11  -1.375456e+11   9.000451e+06   6.037460e-23   0.000000e+00   0.000000e+00
     2248000   2.247999e-07   1.630335e-01   1.535218e+01   2.172846e+01   6.101180e+05  -9.936313e+05   8.924605e+06   1.381201e+12  -3.824804e+11  -1.370078e+11   9.000451e+06   5.993741e-23   0.000000e+00   0.000000e+00
     2256000   2.255999e-07   1.635220e-01   1.535139e+01   2.173560e+01   6.112213e+05  -9.939358e+05   8.924496e+06   1.376854e+12  -3.786526e+11  -1.364692e+11   9.000451e+06   5.950217e-23   0.000000e+00   0.000000e+00
     2264000   2.263999e-07   1.640115e-01   1.535059e+01   2.174274e+01   6.123210e+05  -9.942372e+05   8.924387e+06   1.372503e+12  -3.748384e+11  -1.359298e+11   9.000451e+06   5.906890e-23   0.000000e+00   0.000000e+00
     2272000   2.271999e-07   1.645017e-01   1.534980e+01   2.174987e+01   6.134173e+05  -9.945355e+05   8.924278e+06   1.368148e+12  -3.710377e+11  -1.353897e+11   9.000451e+06   5.863757e-23   0.000000e+00   0.000000e+00
     2280000   2.279999e-07   1.649929e-01   1.534900e+01   2.175701e+01   6.145100e+05  -9.948308e+05   8.924170e+06   1.363790e+12  -3.672505e+11  -1.348489e+11   9.000451e+06   5.820820e-23   0.000000e+00   0.000000e+00
     2288000   2.287999e-07   1.654850e-01   1.534821e+01   2.176415e+01   6.155993e+05  -9.951231e+05   8.924062e+06   1.359428e+12  -3.634768e+11  -1.343073e+11   9.000451e+06   5.778077e-23   0.000000e+00   0.000000e+00
     2296000   2.295999e-07   1.659779e-01   1.534741e+01   2.177129e+01   6.166851e+05  -9.954124e+05   8.923955e+06   1.355062e+12  -3.597166e+11  -1.337650e+11   9.000451e+06   5.735527e-23   0.000000e+00   0.000000e+00
     2304000   2.303999e-07   1.664717e-01   1.534661e+01   2.177843e+01   6.177674e+05  -9.956987e+05   8.923848e+06   1.350694e+12  -3.559697e+11  -1.332220e+11   9.000451e+06   5.693172e-23   0.000000e+00   0.000000e+00
     2312000   2.311999e-07   1.669663e-01   1.534582e+01   2.178557e+01   6.188462e+05  -9.959820e+05   8.923742e+06   1.346321e+12  -3.522362e+11  -1.326783e+11   9.000451e+06   5.651009e-23   0.000000e+00   0.000000e+00
     2320000   2.319999e-07   1.674618e-01   1.534502e+01   2.179271e+01   6.199215e+05  -9.962623e+05   8.923636e+06   1.341946e+12  -3.485160e+11  -1.321338e+11   9.000451e+06   5.609040e-23   0.000000e+00   0.000000e+00
     2328000   2.327999e-07   1.679582e-01   1.534422e+01   2.179985e+01   6.209933e+05  -9.965396e+05   8.923531e+06   1.337567e+12  -3.448091e+11  -1.315887e+11   9.000451e+06   5.567263e-23   0.000000e+00   0.000000e+00
     2336000   2.335999e-07   1.684554e-01   1.534343e+01   2.180699e+01   6.220547e+05  -9.967913e+05   8.923429e+06   1.324618e+12  -3.124876e+11  -1.272459e+11   9.000451e+06   5.402904e-23   0.000000e+00   0.000000e+00
     2344000   2.343999e-07   1.689535e-01   1.534263e+01   2.181413e+01   6.231129e+05  -9.970401e+05   8.923327e+06   1.320812e+12  -3.093235e+11  -1.267938e+11   9.000451e+06   5.367764e-23   0.000000e+00   0.000000e+00
     2352000   2.351999e-07   1.694524e-01   1.534183e+01   2.182126e+01   6.241680e+05  -9.972863e+05   8.923226e+06   1.317003e+12  -3.061710e+11  -1.263412e+11   9.000451e+06   5.332768e-23   0.000000e+00   0.000000e+00
     2360000   2.359999e-07   1.699521e-01   1.534103e+01   2.182840e+01   6.252201e+05  -9.975299e+05   8.923125e+06   1.313191e+12  -3.030302e+11  -1.258881e+11   9.000451e+06   5.297912e-23   0.000000e+00   0.000000e+00
     2368000   2.367999e-07   1.704527e-01   1.534024e+01   2.183554e+01   6.262691e+05  -9.977711e+05   8.923024e+06   1.309376e+12  -2.999010e+11  -1.254344e+11   9.000451e+06   5.263199e-23   0.000000e+00   0.000000e+00
     2376000   2.375999e-07   1.709542e-01   1.533944e+01   2.184268e+01   6.273151e+05  -9.980098e+05   8.922924e+06   1.305559e+12  -2.967834e+11  -1.249803e+11   9.000451e+06   5.228627e-23   0.000000e+00   0.000000e+00
     2384000   2.383999e-07   1.714564e-01   1.533864e+01   2.184982e+01   6.283580e+05  -9.982460e+05   8.922824e+06   1.301739e+12  -2.936773e+11  -1.245256e+11   9.000451e+06   5.194195e-23   0.000000e+00   0.000000e+00
     2392000   2.391999e-07   1.719595e-01   1.533784e+01   2.185696e+01   6.293979e+05  -9.984797e+05   8.922725e+06   1.297917e+12  -2.905828e+11  -1.240705e+11   9.000451e+06   5.159905e-23   0.000000e+00   0.000000e+00
     2400000   2.399999e-07   1.724635e-01   1.533704e+01   2.186409e+01   6.304347e+05  -9.987109e+05   8.922626e+06   1.294091e+12  -2.874997e+11  -1.236148e+11   9.000451e+06   5.125754e-23   0.000000e+00   0.000000e+00
     2408000   2.407999e-07   1.729682e-01   1.533624e+01   2.187123e+01   6.314684e+05  -9.989397e+05   8.922527e+06   1.290264e+12  -2.844281e+11  -1.231587e+11   9.000451e+06   5.091744e-23   0.000000e+00   0.000000e+00
     2416000   2.415999e-07   1.734738e-01   1.533544e+01   2.187837e+01   6.324991e+05  -9.991660e+05   8.922429e+06   1.286433e+12  -2.813679e+11  -1.227021e+11   9.000451e+06   5.057874e-23   0.000000e+00   0.000000e+00
     2424000   2.423999e-07   1.739802e-01   1.533464e+01   2.188551e+01   6.335267e+05  -9.993899e+05   8.922331e+06   1.282601e+12  -2.783192e+11  -1.222451e+11   9.000451e+06   5.024143e-23   0.000000e+00   0.000000e+00
     2432000   2.431999e-07   1.744875e-01   1.533384e+01   2.189265e+01   6.345513e+05  -9.996113e+05   8.922233e+06   1.278765e+12  -2.752817e+11  -1.217875e+11   9.000451e+06   4.990551e-23   0.000000e+00   0.000000e+00
     2440000   2.439999e-07   1.749955e-01   1.533304e+01   2.189978e+01   6.355727e+05  -9.998303e+05   8.922136e+06   1.274927e+12  -2.722557e+11  -1.213295e+11   9.000451e+06   4.957098e-23   0.000000e+00   0.000000e+00
     2448000   2.447999e-07   1.755044e-01   1.533224e+01   2.190692e+01   6.365849e+05  -1.000026e+06   8.922042e+06   1.263257e+12  -2.423557e+11  -1.172974e+11   9.000451e+06   4.824165e-23   0.000000e+00   0.000000e+00
     2456000   2.455999e-07   1.760140e-01   1.533144e+01   2.191406e+01   6.375941e+05  -1.000219e+06   8.921948e+06   1.259845e+12  -2.396928e+11  -1.169044e+11   9.000451e+06   4.795295e-23   0.000000e+00   0.000000e+00
     2464000   2.463999e-07   1.765245e-01   1.533064e+01   2.192120e+01   6.386006e+05  -1.000409e+06   8.921855e+06   1.256431e+12  -2.370399e+11  -1.165110e+11   9.000451e+06   4.766532e-23   0.000000e+00   0.000000e+00
     2472000   2.471999e-07   1.770358e-01   1.532984e+01   2.192833e+01   6.396044e+05  -1.000598e+06   8.921762e+06   1.253015e+12  -2.343968e+11  -1.161173e+11   9.000451e+06   4.737877e-23   0.000000e+00   0.000000e+00
     2480000   2.479999e-07   1.775479e-01   1.532904e+01   2.193547e+01   6.406055e+05  -1.000784e+06   8.921669e+06   1.249597e+12  -2.317636e+11  -1.157232e+11   9.000451e+06   4.709329e-23   0.000000e+00   0.000000e+00
     2488000   2.487999e-07   1.780608e-01   1.532824e+01   2.194261e+01   6.416038e+05  -1.000969e+06   8.921577e+06   1.246177e+12  -2.291402e+11  -1.153287e+11   9.000451e+06   4.680889e-23   0.000000e+00   0.000000e+00
     2496000   2.495999e-07   1.785745e-01   1.532744e+01   2.194975e+01   6.425994e+05  -1.001151e+06   8.921484e+06   1.242756e+12  -2.265266e+11  -1.149339e+11   9.000451e+06   4.652555e-23   0.000000e+00   0.000000e+00
     2504000   2.503999e-07   1.790889e-01   1.532664e+01   2.195688e+01   6.435922e+05  -1.001331e+06   8.921393e+06   1.239332e+12  -2.239228e+11  -1.145387e+11   9.000451e+06   4.624329e-23   0.000000e+00   0.000000e+00
     2512000   2.511999e-07   1.796042e-01   1.532584e+01   2.196402e+01   6.445823e+05  -1.001509e+06   8.921301e+06   1.235906e+12  -2.213288e+11  -1.141432e+11   9.000451e+06   4.596208e-23   0.000000e+00   0.000000e+00
     2520000   2.519999e-07   1.801203e-01   1.532504e+01   2.197116e+01   6.455696e+05  -1.001685e+06   8.921210e+06   1.232479e+12  -2.187445e+11  -1.137473e+11   9.000451e+06   4.568195e-23   0.000000e+00   0.000000e+00
     2528000   2.527999e-07   1.806371e-01   1.532424e+01   2.197829e+01   6.465542e+05  -1.001859e+06   8.921119e+06   1.229050e+12  -2.161699e+11  -1.133511e+11   9.000451e+06   4.540287e-23   0.000000e+00   0.000000e+00
     2536000   2.535999e-07   1.811547e-01   1.532343e+01   2.198543e+01   6.475361e+05  -1.002031e+06   8.921029e+06   1.225618e+12  -2.136051e+11  -1.129546e+11   9.000451e+06   4.512486e-23   0.000000e+00   0.000000e+00
     2544000   2.543999e-07   1.816732e-01   1.532263e+01   2.199257e+01   6.485152e+05  -1.002201e+06   8.920938e+06   1.222185e+12  -2.110499e+11  -1.125577e+11   9.000451e+06   4.484790e-23   0.000000e+00   0.000000e+00
     2552000   2.551999e-07   1.821924e-01   1.532183e+01   2.199970e+01   6.494916e+05  -1.002369e+06   8.920849e+06   1.218751e+12  -2.085043e+11  -1.121604e+11   9.000451e+06   4.457199e-23   0.000000e+00   0.000000e+00
     2560000   2.559999e-07   1.827123e-01   1.532103e+01   2.200684e+01   6.504588e+05  -1.002516e+06   8.920762e+06   1.207151e+12  -1.816468e+11  -1.084331e+11   9.000451e+06   4.343152e-23   0.000000e+00   0.000000e+00
     2568000   2.567999e-07   1.832331e-01   1.532023e+01   2.201398e+01   6.514233e+05  -1.002660e+06   8.920675e+06   1.204127e+12  -1.795063e+11  -1.081062e+11   9.000451e+06   4.319630e-23   0.000000e+00   0.000000e+00
     2576000   2.575999e-07   1.837546e-01   1.531943e+01   2.202111e+01   6.523854e+05  -1.002803e+06   8.920589e+06   1.201103e+12  -1.773744e+11  -1.077791e+11   9.000451e+06   4.296187e-23   0.000000e+00   0.000000e+00
     2584000   2.583999e-07   1.842769e-01   1.531862e+01   2.202825e+01   6.533451e+05  -1.002944e+06   8.920503e+06   1.198076e+12  -1.752511e+11  -1.074518e+11   9.000451e+06   4.272823e-23   0.000000e+00   0.000000e+00
     2592000   2.591999e-07   1.848000e-01   1.531782e+01   2.203539e+01   6.543024e+05  -1.003084e+06   8.920417e+06   1.195048e+12  -1.731363e+11  -1.071243e+11   9.000451e+06   4.249537e-23   0.000000e+00   0.000000e+00
     2600000   2.599999e-07   1.853238e-01   1.531702e+01   2.204252e+01   6.552572e+05  -1.003221e+06   8.920331e+06   1.192019e+12  -1.710300e+11  -1.067965e+11   9.000451e+06   4.226330e-23   0.000000e+00   0.000000e+00
     2608000   2.607999e-07   1.858484e-01   1.531622e+01   2.204966e+01   6.562096e+05  -1.003357e+06   8.920246e+06   1.188989e+12  -1.689322e+11  -1.064685e+11   9.000451e+06   4.203200e-23   0.000000e+00   0.000000e+00
     2616000   2.615999e-07   1.863737e-01   1.531541e+01   2.205680e+01   6.571596e+05  -1.003492e+06   8.920161e+06   1.185957e+12  -1.668429e+11  -1.061403e+11   9.000451e+06   4.180149e-23   0.000000e+00   0.000000e+00
     2624000   2.623999e-07   1.868998e-01   1.531461e+01   2.206393e+01   6.581071e+05  -1.003624e+06   8.920076e+06   1.182924e+12  -1.647620e+11  -1.058118e+11   9.000451e+06   4.157175e-23   0.000000e+00   0.000000e+00
     2632000   2.631999e-07   1.874267e-01   1.531381e+01   2.207107e+01   6.590522e+05  -1.003755e+06   8.919991e+06   1.179889e+12  -1.626896e+11  -1.054832e+11   9.000451e+06   4.134279e-23   0.000000e+00   0.000000e+00
     2640000   2.639999e-07   1.879543e-01   1.531300e+01   2.207820e+01   6.599949e+05  -1.003884e+06   8.919907e+06   1.176854e+12  -1.606255e+11  -1.051543e+11   9.000451e+06   4.111460e-23   0.000000e+00   0.000000e+00
     2648000   2.647999e-07   1.884827e-01   1.531220e+01   2.208534e+01   6.609352e+05  -1.004012e+06   8.919823e+06   1.173816e+12  -1.585699e+11  -1.048252e+11   9.000451e+06   4.088719e-23   0.000000e+00   0.000000e+00
     2656000   2.655999e-07   1.890118e-01   1.531140e+01   2.209248e+01   6.618730e+05  -1.004138e+06   8.919740e+06   1.170778e+12  -1.565226e+11  -1.044959e+11   9.000451e+06   4.066056e-23   0.000000e+00   0.000000e+00
     2664000   2.663999e-07   1.895417e-01   1.531059e+01   2.209961e+01   6.628084e+05  -1.004263e+06   8.919656e+06   1.167738e+12  -1.544837e+11  -1.041665e+11   9.000451e+06   4.043469e-23   0.000000e+00   0.000000e+00
     2672000   2.671999e-07   1.900723e-01   1.530979e+01   2.210675e+01   6.637360e+05  -1.004366e+06   8.919575e+06   1.157694e+12  -1.272421e+11  -1.004757e+11   9.000451e+06   3.951551e-23   0.000000e+00   0.000000e+00
     2680000   2.679999e-07   1.906037e-01   1.530899e+01   2.211388e+01   6.646611e+05  -1.004467e+06   8.919495e+06   1.155003e+12  -1.254158e+11  -1.001920e+11   9.000451e+06   3.932056e-23   0.000000e+00   0.000000e+00
     2688000   2.687999e-07   1.911358e-01   1.530818e+01   2.212102e+01   6.655840e+05  -1.004567e+06   8.919415e+06   1.152311e+12  -1.235968e+11  -9.990802e+10   9.000451e+06   3.912622e-23   0.000000e+00   0.000000e+00
     2696000   2.695999e-07   1.916686e-01   1.530738e+01   2.212815e+01   6.665048e+05  -1.004665e+06   8.919335e+06   1.149618e+12  -1.217852e+11  -9.962393e+10   9.000451e+06   3.893247e-23   0.000000e+00   0.000000e+00
     2704000   2.703999e-07   1.922022e-01   1.530658e+01   2.213529e+01   6.674234e+05  -1.004762e+06   8.919256e+06   1.146924e+12  -1.199808e+11  -9.933970e+10   9.000451e+06   3.873932e-23   0.000000e+00   0.000000e+00
     2712000   2.711999e-07   1.927365e-01   1.530577e+01   2.214242e+01   6.683399e+05  -1.004857e+06   8.919176e+06   1.144229e+12  -1.181838e+11  -9.905531e+10   9.000451e+06   3.854677e-23   0.000000e+00   0.000000e+00
     2720000   2.719999e-07   1.932715e-01   1.530497e+01   2.214956e+01   6.692542e+05  -1.004951e+06   8.919097e+06   1.141533e+12  -1.163940e+11  -9.877077e+10   9.000451e+06   3.835481e-23   0.000000e+00   0.000000e+00
     2728000   2.727999e-07   1.938073e-01   1.530416e+01   2.215670e+01   6.701663e+05  -1.005043e+06   8.919018e+06   1.138837e+12  -1.146114e+11  -9.848609e+10   9.000451e+06   3.816344e-23   0.000000e+00   0.000000e+00
     2736000   2.735999e-07   1.943438e-01   1.530336e+01   2.216383e+01   6.710763e+05  -1.005134e+06   8.918940e+06   1.136139e+12  -1.128361e+11  -9.820126e+10   9.000451e+06   3.797267e-23   0.000000e+00   0.000000e+00
     2744000   2.743999e-07   1.948810e-01   1.530256e+01   2.217097e+01   6.719841e+05  -1.005224e+06   8.918861e+06   1.133440e+12  -1.110681e+11  -9.791629e+10   9.000451e+06   3.778250e-23   0.000000e+00   0.000000e+00
     2752000   2.751999e-07   1.954190e-01   1.530175e+01   2.217810e+01   6.728898e+05  -1.005312e+06   8.918783e+06   1.130740e+12  -1.093072e+11  -9.763118e+10   9.000451e+06   3.759291e-23   0.000000e+00   0.000000e+00
     2760000   2.759999e-07   1.959576e-01   1.530095e+01   2.218524e+01   6.737933e+05  -1.005399e+06   8.918705e+06   1.128040e+12  -1.075535e+11  -9.734593e+10   9.000451e+06   3.740391e-23   0.000000e+00   0.000000e+00
     2768000   2.767999e-07   1.964970e-01   1.530014e+01   2.219237e+01   6.746947e+05  -1.005484e+06   8.918627e+06   1.125338e+12  -1.058070e+11  -9.706054e+10   9.000451e+06   3.721550e-23   0.000000e+00   0.000000e+00
     2776000   2.775999e-07   1.970371e-01   1.529934e+01   2.219951e+01   6.755929e+05  -1.005569e+06   8.918550e+06   1.121131e+12  -1.054245e+11  -9.681391e+10   9.000451e+06   3.693849e-23   0.000000e+00   0.000000e+00
     2784000   2.783999e-07   1.975780e-01   1.529853e+01   2.220664e+01   6.764848e+05  -1.005635e+06   8.918475e+06   1.113303e+12  -7.990657e+10  -9.345648e+10   9.000451e+06   3.627748e-23   0.000000e+00   0.000000e+00
     2792000   2.791999e-07   1.981195e-01   1.529773e+01   2.221378e+01   6.773745e+05  -1.005698e+06   8.918400e+06   1.110971e+12  -7.829961e+10  -9.321053e+10   9.000451e+06   3.611878e-23   0.000000e+00   0.000000e+00
     2800000   2.799999e-07   1.986618e-01   1.529692e+01   2.222091e+01   6.782623e+05  -1.005760e+06   8.918325e+06   1.108637e+12  -7.669894e+10  -9.296449e+10   9.000451e+06   3.596053e-23   0.000000e+00   0.000000e+00
     2808000   2.807999e-07   1.992047e-01   1.529612e+01   2.222804e+01   6.791483e+05  -1.005821e+06   8.918251e+06   1.106304e+12  -7.510456e+10  -9.271838e+10   9.000451e+06   3.580273e-23   0.000000e+00   0.000000e+00
     2816000   2.815999e-07   1.997484e-01   1.529532e+01   2.223518e+01   6.800324e+05  -1.005880e+06   8.918177e+06   1.103969e+12  -7.351645e+10  -9.247218e+10   9.000451e+06   3.564537e-23   0.000000e+00   0.000000e+00
     2824000   2.823999e-07   2.002928e-01   1.529451e+01   2.224231e+01   6.809129e+05  -1.005935e+06   8.918104e+06   1.097427e+12  -6.278195e+10  -9.087209e+10   9.000451e+06   3.517816e-23   0.000000e+00   0.000000e+00
     2832000   2.831999e-07   2.008379e-01   1.529371e+01   2.224945e+01   6.817897e+05  -1.005984e+06   8.918031e+06   1.094522e+12  -5.965188e+10  -9.040587e+10   9.000451e+06   3.498048e-23   0.000000e+00   0.000000e+00
     2840000   2.839999e-07   2.013837e-01   1.529290e+01   2.225658e+01   6.826641e+05  -1.006030e+06   8.917959e+06   1.091615e+12  -5.652839e+10  -8.993933e+10   9.000451e+06   3.478378e-23   0.000000e+00   0.000000e+00
     2848000   2.847999e-07   2.019301e-01   1.529210e+01   2.226372e+01   6.835363e+05  -1.006074e+06   8.917887e+06   1.088706e+12  -5.341148e+10  -8.947249e+10   9.000451e+06   3.458805e-23   0.000000e+00   0.000000e+00
     2856000   2.855999e-07   2.024773e-01   1.529129e+01   2.227085e+01   6.844061e+05  -1.006116e+06   8.917816e+06   1.085795e+12  -5.030113e+10  -8.900536e+10   9.000451e+06   3.439330e-23   0.000000e+00   0.000000e+00
     2864000   2.863999e-07   2.030252e-01   1.529049e+01   2.227799e+01   6.852735e+05  -1.006155e+06   8.917745e+06   1.082883e+12  -4.719731e+10  -8.853792e+10   9.000451e+06   3.419951e-23   0.000000e+00   0.000000e+00
     2872000   2.871999e-07   2.035737e-01   1.528968e+01   2.228512e+01   6.861387e+05  -1.006191e+06   8.917674e+06   1.079969e+12  -4.410003e+10  -8.807019e+10   9.000451e+06   3.400670e-23   0.000000e+00   0.000000e+00
     2880000   2.879999e-07   2.041230e-01   1.528888e+01   2.229225e+01   6.870015e+05  -1.006225e+06   8.917604e+06   1.077053e+12  -4.100925e+10  -8.760217e+10   9.000451e+06   3.381486e-23   0.000000e+00   0.000000e+00
     2888000   2.887999e-07   2.046729e-01   1.528807e+01   2.229939e+01   6.878620e+05  -1.006257e+06   8.917534e+06   1.074136e+12  -3.792496e+10  -8.713387e+10   9.000451e+06   3.362398e-23   0.000000e+00   0.000000e+00
     2896000   2.895999e-07   2.052236e-01   1.528727e+01   2.230652e+01   6.887201e+05  -1.006286e+06   8.917465e+06   1.071343e+12  -3.573488e+10  -8.677524e+10   9.000451e+06   3.344427e-23   0.000000e+00   0.000000e+00
     2904000   2.903999e-07   2.057749e-01   1.528646e+01   2.231366e+01   6.895761e+05  -1.006314e+06   8.917395e+06   1.068696e+12  -3.314775e+10  -8.638223e+10   9.000451e+06   3.327335e-23   0.000000e+00   0.000000e+00
     2912000   2.911999e-07   2.063269e-01   1.528566e+01   2.232079e+01   6.904300e+05  -1.006339e+06   8.917326e+06   1.066048e+12  -3.056644e+10  -8.598897e+10   9.000451e+06   3.310315e-23   0.000000e+00   0.000000e+00
     2920000   2.919999e-07   2.068796e-01   1.528485e+01   2.232792e+01   6.912818e+05  -1.006363e+06   8.917258e+06   1.063398e+12  -2.799093e+10  -8.559548e+10   9.000451e+06   3.293369e-23   0.000000e+00   0.000000e+00
     2928000   2.927999e-07   2.074330e-01   1.528405e+01   2.233506e+01   6.921315e+05  -1.006384e+06   8.917189e+06   1.060748e+12  -2.542121e+10  -8.520175e+10   9.000451e+06   3.276495e-23   0.000000e+00   0.000000e+00
     2936000   2.935999e-07   2.079870e-01   1.528324e+01   2.234219e+01   6.929790e+05  -1.006403e+06   8.917121e+06   1.058095e+12  -2.285726e+10  -8.480779e+10   9.000451e+06   3.259693e-23   0.000000e+00   0.000000e+00
     2944000   2.943999e-07   2.085417e-01   1.528244e+01   2.234932e+01   6.938244e+05  -1.006421e+06   8.917054e+06   1.055442e+12  -2.029908e+10  -8.441360e+10   9.000451e+06   3.242964e-23   0.000000e+00   0.000000e+00
     2952000   2.951999e-07   2.090971e-01   1.528163e+01   2.235646e+01   6.946677e+05  -1.006436e+06   8.916986e+06   1.052787e+12  -1.774665e+10  -8.401919e+10   9.000451e+06   3.226307e-23   0.000000e+00   0.000000e+00
     2960000   2.959999e-07   2.096532e-01   1.528083e+01   2.236359e+01   6.955089e+05  -1.006449e+06   8.916919e+06   1.050131e+12  -1.519996e+10  -8.362455e+10   9.000451e+06   3.209722e-23   0.000000e+00   0.000000e+00
     2968000   2.967999e-07   2.102099e-01   1.528002e+01   2.237073e+01   6.963479e+05  -1.006460e+06   8.916853e+06   1.047474e+12  -1.265900e+10  -8.322969e+10   9.000451e+06   3.193209e-23   0.000000e+00   0.000000e+00
     2976000   2.975999e-07   2.107673e-01   1.527922e+01   2.237786e+01   6.971848e+05  -1.006469e+06   8.916786e+06   1.044815e+12  -1.012375e+10  -8.283461e+10   9.000451e+06   3.176768e-23   0.000000e+00   0.000000e+00
     2984000   2.983999e-07   2.113254e-01   1.527841e+01   2.238499e+01   6.980196e+05  -1.006476e+06   8.916720e+06   1.042156e+12  -7.594200e+09  -8.243932e+10   9.000451e+06   3.160399e-23   0.000000e+00   0.000000e+00
     2992000   2.991999e-07   2.118842e-01   1.527761e+01   2.239213e+01   6.988523e+05  -1.006481e+06   8.916654e+06   1.039495e+12  -5.070339e+09  -8.204382e+10   9.000451e+06   3.144102e-23   0.000000e+00   0.000000e+00
     3000000   2.999999e-07   2.124436e-01   1.527680e+01   2.239926e+01   6.996828e+05  -1.006485e+06   8.916589e+06   1.036833e+12  -2.552154e+09  -8.164810e+10   9.000451e+06   3.127876e-23   0.000000e+00   0.000000e+00
     3008000   3.007999e-07   2.130037e-01   1.527599e+01   2.240639e+01   7.005100e+05  -1.006483e+06   8.916524e+06   1.032574e+12   3.475107e+09  -8.072995e+10   9.000451e+06   3.101975e-23   0.000000e+00   0.000000e+00
     3016000   3.015999e-07   2.135644e-01   1.527519e+01   2.241353e+01   7.013351e+05  -1.006479e+06   8.916460e+06   1.030051e+12   5.870067e+09  -8.035732e+10   9.000451e+06   3.086821e-23   0.000000e+00   0.000000e+00
     3024000   3.023999e-07   2.141258e-01   1.527438e+01   2.242066e+01   7.021581e+05  -1.006474e+06   8.916395e+06   1.027527e+12   8.259790e+09  -7.998449e+10   9.000451e+06   3.071730e-23   0.000000e+00   0.000000e+00
     3032000   3.031999e-07   2.146879e-01   1.527358e+01   2.242779e+01   7.029791e+05  -1.006466e+06   8.916332e+06   1.025003e+12   1.064429e+10  -7.961147e+10   9.000451e+06   3.056703e-23   0.000000e+00   0.000000e+00
     3040000   3.039999e-07   2.152506e-01   1.527277e+01   2.243492e+01   7.037981e+05  -1.006457e+06   8.916268e+06   1.022477e+12   1.302357e+10  -7.923824e+10   9.000451e+06   3.041739e-23   0.000000e+00   0.000000e+00
     3048000   3.047999e-07   2.158139e-01   1.527197e+01   2.244206e+01   7.046151e+05  -1.006445e+06   8.916205e+06   1.019950e+12   1.539764e+10  -7.886482e+10   9.000451e+06   3.026839e-23   0.000000e+00   0.000000e+00
     3056000   3.055999e-07   2.163779e-01   1.527116e+01   2.244919e+01   7.054300e+05  -1.006432e+06   8.916142e+06   1.017422e+12   1.776653e+10  -7.849121e+10   9.000451e+06   3.012002e-23   0.000000e+00   0.000000e+00
     3064000   3.063999e-07   2.169426e-01   1.527036e+01   2.245632e+01   7.062429e+05  -1.006417e+06   8.916079e+06   1.014892e+12   2.013023e+10  -7.811741e+10   9.000451e+06   2.997228e-23   0.000000e+00   0.000000e+00
     3072000   3.071999e-07   2.175079e-01   1.526955e+01   2.246346e+01   7.070538e+05  -1.006400e+06   8.916017e+06   1.012362e+12   2.248876e+10  -7.774342e+10   9.000451e+06   2.982518e-23   0.000000e+00   0.000000e+00
     3080000   3.079999e-07   2.180739e-01   1.526875e+01   2.247059e+01   7.078627e+05  -1.006381e+06   8.915955e+06   1.009831e+12   2.484213e+10  -7.736925e+10   9.000451e+06   2.967870e-23   0.000000e+00   0.000000e+00
     3088000   3.087999e-07   2.186405e-01   1.526794e+01   2.247772e+01   7.086696e+05  -1.006360e+06   8.915893e+06   1.007298e+12   2.719035e+10  -7.699490e+10   9.000451e+06   2.953285e-23   0.000000e+00   0.000000e+00
     3096000   3.095999e-07   2.192078e-01   1.526714e+01   2.248485e+01   7.094744e+05  -1.006337e+06   8.915832e+06   1.004765e+12   2.953344e+10  -7.662036e+10   9.000451e+06   2.938763e-23   0.000000e+00   0.000000e+00
     3104000   3.103999e-07   2.197757e-01   1.526633e+01   2.249199e+01   7.102772e+05  -1.006313e+06   8.915770e+06   1.002230e+12   3.187140e+10  -7.624565e+10   9.000451e+06   2.924304e-23   0.000000e+00   0.000000e+00
     3112000   3.111999e-07   2.203442e-01   1.526553e+01   2.249912e+01   7.110780e+05  -1.006286e+06   8.915710e+06   9.996949e+11   3.420424e+10  -7.587076e+10   9.000451e+06   2.909907e-23   0.000000e+00   0.000000e+00
     3120000   3.119999e-07   2.209134e-01   1.526472e+01   2.250625e+01   7.118774e+05  -1.006256e+06   8.915649e+06   9.982955e+11   3.938300e+10  -7.526479e+10   9.000451e+06   2.902659e-23   0.000000e+00   0.000000e+00
     3128000   3.127999e-07   2.214832e-01   1.526392e+01   2.251338e+01   7.126752e+05  -1.006224e+06   8.915589e+06   9.961713e+11   4.141607e+10  -7.495552e+10   9.000451e+06   2.890749e-23   0.000000e+00   0.000000e+00
     3136000   3.135999e-07   2.220537e-01   1.526311e+01   2.252052e+01   7.134712e+05  -1.006190e+06   8.915529e+06   9.940464e+11   4.344467e+10  -7.464614e+10   9.000451e+06   2.878884e-23   0.000000e+00   0.000000e+00
     3144000   3.143999e-07   2.226248e-01   1.526231e+01   2.252765e+01   7.142656e+05  -1.006154e+06   8.915470e+06   9.919206e+11   4.546882e+10  -7.433664e+10   9.000451e+06   2.867063e-23   0.000000e+00   0.000000e+00
     3152000   3.151999e-07   2.231965e-01   1.526150e+01   2.253478e+01   7.150583e+05  -1.006117e+06   8.915410e+06   9.897940e+11   4.748853e+10  -7.402702e+10   9.000451e+06   2.855287e-23   0.000000e+00   0.000000e+00
     3160000   3.159999e-07   2.237689e-01   1.526070e+01   2.254191e+01   7.158493e+05  -1.006078e+06   8.915351e+06   9.876665e+11   4.950380e+10  -7.371730e+10   9.000451e+06   2.843555e-23   0.000000e+00   0.000000e+00
     3168000   3.167999e-07   2.243419e-01   1.525989e+01   2.254905e+01   7.166386e+05  -1.006038e+06   8.915292e+06   9.855383e+11   5.151465e+10  -7.340746e+10   9.000451e+06   2.831867e-23   0.000000e+00   0.000000e+00
     3176000   3.175999e-07   2.249155e-01   1.525909e+01   2.255618e+01   7.174262e+05  -1.005996e+06   8.915234e+06   9.834093e+11   5.352107e+10  -7.309752e+10   9.000451e+06   2.820224e-23   0.000000e+00   0.000000e+00
     3184000   3.183999e-07   2.254897e-01   1.525828e+01   2.256331e+01   7.182120e+05  -1.005952e+06   8.915175e+06   9.812795e+11   5.552309e+10  -7.278747e+10   9.000451e+06   2.808625e-23   0.000000e+00   0.000000e+00
     3192000   3.191999e-07   2.260646e-01   1.525748e+01   2.257044e+01   7.189962e+05  -1.005907e+06   8.915117e+06   9.791489e+11   5.752070e+10  -7.247732e+10   9.000451e+06   2.797069e-23   0.000000e+00   0.000000e+00
     3200000   3.199999e-07   2.266401e-01   1.525667e+01   2.257757e+01   7.197787e+05  -1.005860e+06   8.915060e+06   9.770176e+11   5.951392e+10  -7.216706e+10   9.000451e+06   2.785558e-23   0.000000e+00   0.000000e+00
     3208000   3.207999e-07   2.272163e-01   1.525587e+01   2.258471e+01   7.205594e+05  -1.005812e+06   8.915002e+06   9.748855e+11   6.150275e+10  -7.185670e+10   9.000451e+06   2.774091e-23   0.000000e+00   0.000000e+00
     3216000   3.215999e-07   2.277930e-01   1.525507e+01   2.259184e+01   7.213385e+05  -1.005762e+06   8.914945e+06   9.727526e+11   6.348721e+10  -7.154624e+10   9.000451e+06   2.762667e-23   0.000000e+00   0.000000e+00
     3224000   3.223999e-07   2.283704e-01   1.525426e+01   2.259897e+01   7.221158e+05  -1.005710e+06   8.914887e+06   9.706190e+11   6.546730e+10  -7.123569e+10   9.000451e+06   2.751287e-23   0.000000e+00   0.000000e+00
     3232000   3.231999e-07   2.289484e-01   1.525346e+01   2.260610e+01   7.228899e+05  -1.005654e+06   8.914831e+06   9.662203e+11   7.105447e+10  -7.033387e+10   9.000451e+06   2.728488e-23   0.000000e+00   0.000000e+00
     3240000   3.239999e-07   2.295270e-01   1.525265e+01   2.261323e+01   7.236621e+05  -1.005597e+06   8.914775e+06   9.641597e+11   7.286162e+10  -7.004734e+10   9.000451e+06   2.717622e-23   0.000000e+00   0.000000e+00
     3248000   3.247999e-07   2.301063e-01   1.525185e+01   2.262037e+01   7.244326e+05  -1.005538e+06   8.914719e+06   9.620985e+11   7.466468e+10  -6.976072e+10   9.000451e+06   2.706794e-23   0.000000e+00   0.000000e+00
     3256000   3.255999e-07   2.306861e-01   1.525104e+01   2.262750e+01   7.252014e+05  -1.005477e+06   8.914663e+06   9.600366e+11   7.646364e+10  -6.947401e+10   9.000451e+06   2.696005e-23   0.000000e+00   0.000000e+00
     3264000   3.263999e-07   2.312666e-01   1.525024e+01   2.263463e+01   7.259686e+05  -1.005415e+06   8.914608e+06   9.579741e+11   7.825852e+10  -6.918720e+10   9.000451e+06   2.685254e-23   0.000000e+00   0.000000e+00
     3272000   3.271999e-07   2.318477e-01   1.524943e+01   2.264176e+01   7.267342e+05  -1.005352e+06   8.914553e+06   9.559110e+11   8.004933e+10  -6.890030e+10   9.000451e+06   2.674541e-23   0.000000e+00   0.000000e+00
     3280000   3.279999e-07   2.324294e-01   1.524863e+01   2.264889e+01   7.274981e+05  -1.005287e+06   8.914498e+06   9.538472e+11   8.183607e+10  -6.861331e+10   9.000451e+06   2.663866e-23   0.000000e+00   0.000000e+00
     3288000   3.287999e-07   2.330117e-01   1.524783e+01   2.265602e+01   7.282603e+05  -1.005221e+06   8.914443e+06   9.517828e+11   8.361875e+10  -6.832622e+10   9.000451e+06   2.653230e-23   0.000000e+00   0.000000e+00
     3296000   3.295999e-07   2.335946e-01   1.524702e+01   2.266316e+01   7.290209e+05  -1.005154e+06   8.914388e+06   9.497178e+11   8.539738e+10  -6.803906e+10   9.000451e+06   2.642631e-23   0.000000e+00   0.000000e+00
     3304000   3.303999e-07   2.341781e-01   1.524622e+01   2.267029e+01   7.297799e+05  -1.005085e+06   8.914334e+06   9.476521e+11   8.717196e+10  -6.775180e+10   9.000451e+06   2.632071e-23   0.000000e+00   0.000000e+00
     3312000   3.311999e-07   2.347622e-01   1.524541e+01   2.267742e+01   7.305372e+05  -1.005014e+06   8.914280e+06   9.455859e+11   8.894251e+10  -6.746446e+10   9.000451e+06   2.621548e-23   0.000000e+00   0.000000e+00
     3320000   3.319999e-07   2.353470e-01   1.524461e+01   2.268455e+01   7.312928e+05  -1.004942e+06   8.914226e+06   9.435190e+11   9.070903e+10  -6.717703e+10   9.000451e+06   2.611064e-23   0.000000e+00   0.000000e+00
     3328000   3.327999e-07   2.359323e-01   1.524381e+01   2.269168e+01   7.320468e+05  -1.004869e+06   8.914172e+06   9.414516e+11   9.247153e+10  -6.688952e+10   9.000451e+06   2.600617e-23   0.000000e+00   0.000000e+00
     3336000   3.335999e-07   2.365182e-01   1.524300e+01   2.269881e+01   7.327991e+05  -1.004794e+06   8.914119e+06   9.393835e+11   9.423002e+10  -6.660193e+10   9.000451e+06   2.590208e-23   0.000000e+00   0.000000e+00
     3344000   3.343999e-07   2.371048e-01   1.524220e+01   2.270594e+01   7.335494e+05  -1.004715e+06   8.914066e+06   9.368863e+11   1.001326e+11  -6.581145e+10   9.000451e+06   2.579674e-23   0.000000e+00   0.000000e+00
     3352000   3.351999e-07   2.376919e-01   1.524139e+01   2.271308e+01   7.342983e+05  -1.004635e+06   8.914014e+06   9.351728e+11   1.017406e+11  -6.556907e+10   9.000451e+06   2.571244e-23   0.000000e+00   0.000000e+00
     3360000   3.359999e-07   2.382797e-01   1.524059e+01   2.272021e+01   7.350457e+05  -1.004553e+06   8.913961e+06   9.334586e+11   1.033451e+11  -6.532664e+10   9.000451e+06   2.562842e-23   0.000000e+00   0.000000e+00
     3368000   3.367999e-07   2.388680e-01   1.523979e+01   2.272734e+01   7.357918e+05  -1.004469e+06   8.913909e+06   9.317440e+11   1.049462e+11  -6.508416e+10   9.000451e+06   2.554467e-23   0.000000e+00   0.000000e+00
     3376000   3.375999e-07   2.394569e-01   1.523898e+01   2.273447e+01   7.365365e+05  -1.004385e+06   8.913857e+06   9.300289e+11   1.065438e+11  -6.484165e+10   9.000451e+06   2.546119e-23   0.000000e+00   0.000000e+00
     3384000   3.383999e-07   2.400465e-01   1.523818e+01   2.274160e+01   7.372798e+05  -1.004299e+06   8.913805e+06   9.283132e+11   1.081380e+11  -6.459909e+10   9.000451e+06   2.537799e-23   0.000000e+00   0.000000e+00
     3392000   3.391999e-07   2.406366e-01   1.523738e+01   2.274873e+01   7.380218e+05  -1.004212e+06   8.913754e+06   9.265971e+11   1.097287e+11  -6.435649e+10   9.000451e+06   2.529506e-23   0.000000e+00   0.000000e+00
     3400000   3.399999e-07   2.412273e-01   1.523657e+01   2.275586e+01   7.387624e+05  -1.004123e+06   8.913702e+06   9.248805e+11   1.113160e+11  -6.411385e+10   9.000451e+06   2.521240e-23   0.000000e+00   0.000000e+00
     3408000   3.407999e-07   2.418186e-01   1.523577e+01   2.276299e+01   7.395016e+05  -1.004034e+06   8.913651e+06   9.231633e+11   1.128999e+11  -6.387118e+10   9.000451e+06   2.513001e-23   0.000000e+00   0.000000e+00
     3416000   3.415999e-07   2.424105e-01   1.523497e+01   2.277012e+01   7.402395e+05  -1.003943e+06   8.913600e+06   9.214457e+11   1.144804e+11  -6.362846e+10   9.000451e+06   2.504789e-23   0.000000e+00   0.000000e+00
     3424000   3.423999e-07   2.430030e-01   1.523416e+01   2.277725e+01   7.409759e+05  -1.003850e+06   8.913549e+06   9.197277e+11   1.160574e+11  -6.338571e+10   9.000451e+06   2.496604e-23   0.000000e+00   0.000000e+00
     3432000   3.431999e-07   2.435960e-01   1.523336e+01   2.278439e+01   7.417110e+05  -1.003757e+06   8.913499e+06   9.180091e+11   1.176310e+11  -6.314293e+10   9.000451e+06   2.488446e-23   0.000000e+00   0.000000e+00
     3440000   3.439999e-07   2.441897e-01   1.523256e+01   2.279152e+01   7.424447e+05  -1.003662e+06   8.913448e+06   9.162901e+11   1.192013e+11  -6.290011e+10   9.000451e+06   2.480315e-23   0.000000e+00   0.000000e+00
     3448000   3.447999e-07   2.447840e-01   1.523175e+01   2.279865e+01   7.431771e+05  -1.003566e+06   8.913398e+06   9.145706e+11   1.207681e+11  -6.265725e+10   9.000451e+06   2.472210e-23   0.000000e+00   0.000000e+00
     3456000   3.455999e-07   2.453788e-01   1.523095e+01   2.280578e+01   7.439058e+05  -1.003465e+06   8.913349e+06   9.093559e+11   1.283179e+11  -6.144857e+10   9.000451e+06   2.449711e-23   0.000000e+00   0.000000e+00
     3464000   3.463999e-07   2.459742e-01   1.523015e+01   2.281291e+01   7.446326e+05  -1.003362e+06   8.913300e+06   9.075413e+11   1.298638e+11  -6.119892e+10   9.000451e+06   2.441243e-23   0.000000e+00   0.000000e+00
     3472000   3.471999e-07   2.465702e-01   1.522935e+01   2.282004e+01   7.453579e+05  -1.003257e+06   8.913251e+06   9.057262e+11   1.314065e+11  -6.094921e+10   9.000451e+06   2.432804e-23   0.000000e+00   0.000000e+00
     3480000   3.479999e-07   2.471668e-01   1.522854e+01   2.282717e+01   7.460817e+05  -1.003152e+06   8.913202e+06   9.039107e+11   1.329459e+11  -6.069943e+10   9.000451e+06   2.424392e-23   0.000000e+00   0.000000e+00
     3488000   3.487999e-07   2.477639e-01   1.522774e+01   2.283430e+01   7.468041e+05  -1.003045e+06   8.913154e+06   9.020947e+11   1.344819e+11  -6.044960e+10   9.000451e+06   2.416009e-23   0.000000e+00   0.000000e+00
     3496000   3.495999e-07   2.483617e-01   1.522694e+01   2.284143e+01   7.475251e+05  -1.002936e+06   8.913105e+06   9.002782e+11   1.360147e+11  -6.019971e+10   9.000451e+06   2.407653e-23   0.000000e+00   0.000000e+00
     3504000   3.503999e-07   2.489600e-01   1.522614e+01   2.284856e+01   7.482446e+05  -1.002827e+06   8.913057e+06   8.984613e+11   1.375443e+11  -5.994976e+10   9.000451e+06   2.399326e-23   0.000000e+00   0.000000e+00
     3512000   3.511999e-07   2.495589e-01   1.522533e+01   2.285569e+01   7.489626e+05  -1.002716e+06   8.913009e+06   8.966439e+11   1.390705e+11  -5.969975e+10   9.000451e+06   2.391027e-23   0.000000e+00   0.000000e+00
     3520000   3.519999e-07   2.501583e-01   1.522453e+01   2.286282e+01   7.496792e+05  -1.002604e+06   8.912962e+06   8.948262e+11   1.405935e+11  -5.944969e+10   9.000451e+06   2.382756e-23   0.000000e+00   0.000000e+00
     3528000   3.527999e-07   2.507583e-01   1.522373e+01   2.286995e+01   7.503943e+05  -1.002491e+06   8.912914e+06   8.930079e+11   1.421133e+11  -5.919957e+10   9.000451e+06   2.374513e-23   0.000000e+00   0.000000e+00
     3536000   3.535999e-07   2.513589e-01   1.522293e+01   2.287708e+01   7.511080e+05  -1.002377e+06   8.912867e+06   8.911893e+11   1.436297e+11  -5.894940e+10   9.000451e+06   2.366297e-23   0.000000e+00   0.000000e+00
     3544000   3.543999e-07   2.519601e-01   1.522213e+01   2.288421e+01   7.518202e+05  -1.002262e+06   8.912820e+06   8.893702e+11   1.451430e+11  -5.869918e+10   9.000451e+06   2.358110e-23   0.000000e+00   0.000000e+00
     3552000   3.551999e-07   2.525619e-01   1.522132e+01   2.289134e+01   7.525310e+05  -1.002145e+06   8.912773e+06   8.875507e+11   1.466530e+11  -5.844891e+10   9.000451e+06   2.349950e-23   0.000000e+00   0.000000e+00
     3560000   3.559999e-07   2.531642e-01   1.522052e+01   2.289847e+01   7.532403e+05  -1.002027e+06   8.912726e+06   8.857308e+11   1.481597e+11  -5.819858e+10   9.000451e+06   2.341818e-23   0.000000e+00   0.000000e+00
     3568000   3.567999e-07   2.537670e-01   1.521972e+01   2.290560e+01   7.539482e+05  -1.001905e+06   8.912680e+06   8.841062e+11   1.543742e+11  -5.743524e+10   9.000451e+06   2.338685e-23   0.000000e+00   0.000000e+00
     3576000   3.575999e-07   2.543705e-01   1.521892e+01   2.291273e+01   7.546549e+05  -1.001781e+06   8.912634e+06   8.826519e+11   1.556874e+11  -5.723704e+10   9.000451e+06   2.332367e-23   0.000000e+00   0.000000e+00
     3584000   3.583999e-07   2.549745e-01   1.521812e+01   2.291986e+01   7.553605e+05  -1.001656e+06   8.912589e+06   8.811973e+11   1.569978e+11  -5.703884e+10   9.000451e+06   2.326067e-23   0.000000e+00   0.000000e+00
     3592000   3.591999e-07   2.555791e-01   1.521732e+01   2.292699e+01   7.560648e+05  -1.001530e+06   8.912543e+06   8.797423e+11   1.583055e+11  -5.684062e+10   9.000451e+06   2.319785e-23   0.000000e+00   0.000000e+00
     3600000   3.599999e-07   2.561842e-01   1.521652e+01   2.293412e+01   7.567680e+05  -1.001402e+06   8.912498e+06   8.782871e+11   1.596104e+11  -5.664240e+10   9.000451e+06   2.313522e-23   0.000000e+00   0.000000e+00
     3608000   3.607999e-07   2.567899e-01   1.521572e+01   2.294125e+01   7.574701e+05  -1.001274e+06   8.912453e+06   8.768315e+11   1.609126e+11  -5.644416e+10   9.000451e+06   2.307277e-23   0.000000e+00   0.000000e+00
     3616000   3.615999e-07   2.573961e-01   1.521491e+01   2.294838e+01   7.581710e+05  -1.001145e+06   8.912408e+06   8.753756e+11   1.622121e+11  -5.624591e+10   9.000451e+06   2.301050e-23   0.000000e+00   0.000000e+00
     3624000   3.623999e-07   2.580030e-01   1.521411e+01   2.295551e+01   7.588707e+05  -1.001015e+06   8.912363e+06   8.739194e+11   1.635088e+11  -5.604766e+10   9.000451e+06   2.294841e-23   0.000000e+00   0.000000e+00
     3632000   3.631999e-07   2.586103e-01   1.521331e+01   2.296264e+01   7.595692e+05  -1.000883e+06   8.912318e+06   8.724629e+11   1.648027e+11  -5.584940e+10   9.000451e+06   2.288650e-23   0.000000e+00   0.000000e+00
     3640000   3.639999e-07   2.592183e-01   1.521251e+01   2.296977e+01   7.602666e+05  -1.000751e+06   8.912273e+06   8.710061e+11   1.660940e+11  -5.565113e+10   9.000451e+06   2.282477e-23   0.000000e+00   0.000000e+00
     3648000   3.647999e-07   2.598268e-01   1.521171e+01   2.297690e+01   7.609629e+05  -1.000618e+06   8.912229e+06   8.695490e+11   1.673825e+11  -5.545285e+10   9.000451e+06   2.276322e-23   0.000000e+00   0.000000e+00
     3656000   3.655999e-07   2.604358e-01   1.521091e+01   2.298403e+01   7.616579e+05  -1.000483e+06   8.912185e+06   8.680916e+11   1.686683e+11  -5.525457e+10   9.000451e+06   2.270185e-23   0.000000e+00   0.000000e+00
     3664000   3.663999e-07   2.610454e-01   1.521011e+01   2.299116e+01   7.623518e+05  -1.000348e+06   8.912140e+06   8.666339e+11   1.699514e+11  -5.505628e+10   9.000451e+06   2.264066e-23   0.000000e+00   0.000000e+00
     3672000   3.671999e-07   2.616556e-01   1.520931e+01   2.299829e+01   7.630445e+05  -1.000211e+06   8.912096e+06   8.651759e+11   1.712318e+11  -5.485799e+10   9.000451e+06   2.257965e-23   0.000000e+00   0.000000e+00
     3680000   3.679999e-07   2.622663e-01   1.520851e+01   2.300542e+01   7.637339e+05  -1.000070e+06   8.912053e+06   8.600250e+11   1.792572e+11  -5.358590e+10   9.000451e+06   2.240004e-23   0.000000e+00   0.000000e+00
     3688000   3.687999e-07   2.628775e-01   1.520771e+01   2.301255e+01   7.644213e+05  -9.999257e+05   8.912010e+06   8.585081e+11   1.804659e+11  -5.338967e+10   9.000451e+06   2.233663e-23   0.000000e+00   0.000000e+00
     3696000   3.695999e-07   2.634894e-01   1.520691e+01   2.301968e+01   7.651075e+05  -9.997809e+05   8.911968e+06   8.569910e+11   1.816719e+11  -5.319342e+10   9.000451e+06   2.227339e-23   0.000000e+00   0.000000e+00
     3704000   3.703999e-07   2.641017e-01   1.520611e+01   2.302681e+01   7.657924e+05  -9.996351e+05   8.911925e+06   8.554737e+11   1.828754e+11  -5.299714e+10   9.000451e+06   2.221034e-23   0.000000e+00   0.000000e+00
     3712000   3.711999e-07   2.647146e-01   1.520531e+01   2.303394e+01   7.664762e+05  -9.994883e+05   8.911883e+06   8.539560e+11   1.840762e+11  -5.280085e+10   9.000451e+06   2.214746e-23   0.000000e+00   0.000000e+00
     3720000   3.719999e-07   2.653281e-01   1.520451e+01   2.304107e+01   7.671588e+05  -9.993405e+05   8.911841e+06   8.524382e+11   1.852743e+11  -5.260453e+10   9.000451e+06   2.208476e-23   0.000000e+00   0.000000e+00
     3728000   3.727999e-07   2.659421e-01   1.520371e+01   2.304820e+01   7.678401e+05  -9.991918e+05   8.911799e+06   8.509200e+11   1.864699e+11  -5.240819e+10   9.000451e+06   2.202224e-23   0.000000e+00   0.000000e+00
     3736000   3.735999e-07   2.665566e-01   1.520291e+01   2.305533e+01   7.685203e+05  -9.990422e+05   8.911757e+06   8.494017e+11   1.876629e+11  -5.221183e+10   9.000451e+06   2.195990e-23   0.000000e+00   0.000000e+00
     3744000   3.743999e-07   2.671717e-01   1.520211e+01   2.306246e+01   7.691992e+05  -9.988916e+05   8.911715e+06   8.478830e+11   1.888533e+11  -5.201545e+10   9.000451e+06   2.189774e-23   0.000000e+00   0.000000e+00
     3752000   3.751999e-07   2.677873e-01   1.520131e+01   2.306959e+01   7.698769e+05  -9.987400e+05   8.911674e+06   8.463642e+11   1.900410e+11  -5.181906e+10   9.000451e+06   2.183575e-23   0.000000e+00   0.000000e+00
     3760000   3.759999e-07   2.684035e-01   1.520052e+01   2.307672e+01   7.705533e+05  -9.985875e+05   8.911632e+06   8.448451e+11   1.912262e+11  -5.162264e+10   9.000451e+06   2.177394e-23   0.000000e+00   0.000000e+00
     3768000   3.767999e-07   2.690202e-01   1.519972e+01   2.308385e+01   7.712295e+05  -9.984340e+05   8.911591e+06   8.465966e+11   1.925677e+11  -5.169157e+10   9.000451e+06   2.187470e-23   0.000000e+00   0.000000e+00
     3776000   3.775999e-07   2.696375e-01   1.519892e+01   2.309098e+01   7.719062e+05  -9.982795e+05   8.911550e+06   8.451412e+11   1.937332e+11  -5.150280e+10   9.000451e+06   2.181596e-23   0.000000e+00   0.000000e+00
     3784000   3.783999e-07   2.702553e-01   1.519812e+01   2.309810e+01   7.725818e+05  -9.981240e+05   8.911509e+06   8.436856e+11   1.948962e+11  -5.131403e+10   9.000451e+06   2.175738e-23   0.000000e+00   0.000000e+00
     3792000   3.791999e-07   2.708736e-01   1.519732e+01   2.310523e+01   7.732541e+05  -9.979637e+05   8.911468e+06   8.387890e+11   2.027377e+11  -5.007840e+10   9.000451e+06   2.160570e-23   0.000000e+00   0.000000e+00
     3800000   3.799999e-07   2.714925e-01   1.519652e+01   2.311236e+01   7.739246e+05  -9.978011e+05   8.911428e+06   8.374115e+11   2.038838e+11  -4.989748e+10   9.000451e+06   2.155188e-23   0.000000e+00   0.000000e+00
     3808000   3.807999e-07   2.721119e-01   1.519572e+01   2.311949e+01   7.745940e+05  -9.976375e+05   8.911389e+06   8.360338e+11   2.050276e+11  -4.971654e+10   9.000451e+06   2.149822e-23   0.000000e+00   0.000000e+00
     3816000   3.815999e-07   2.727318e-01   1.519493e+01   2.312662e+01   7.752622e+05  -9.974730e+05   8.911349e+06   8.346558e+11   2.061690e+11  -4.953560e+10   9.000451e+06   2.144470e-23   0.000000e+00   0.000000e+00
     3824000   3.823999e-07   2.733523e-01   1.519413e+01   2.313375e+01   7.759294e+05  -9.973076e+05   8.911309e+06   8.332777e+11   2.073081e+11  -4.935465e+10   9.000451e+06   2.139134e-23   0.000000e+00   0.000000e+00
     3832000   3.831999e-07   2.739733e-01   1.519333e+01   2.314088e+01   7.765955e+05  -9.971413e+05   8.911270e+06   8.318993e+11   2.084449e+11  -4.917370e+10   9.000451e+06   2.133812e-23   0.000000e+00   0.000000e+00
     3840000   3.839999e-07   2.745949e-01   1.519253e+01   2.314801e+01   7.772604e+05  -9.969741e+05   8.911231e+06   8.305208e+11   2.095794e+11  -4.899274e+10   9.000451e+06   2.128505e-23   0.000000e+00   0.000000e+00
     3848000   3.847999e-07   2.752169e-01   1.519174e+01   2.315514e+01   7.779243e+05  -9.968060e+05   8.911191e+06   8.291420e+11   2.107116e+11  -4.881178e+10   9.000451e+06   2.123213e-23   0.000000e+00   0.000000e+00
     3856000   3.855999e-07   2.758395e-01   1.519094e+01   2.316227e+01   7.785871e+05  -9.966370e+05   8.911153e+06   8.277631e+11   2.118415e+11  -4.863081e+10   9.000451e+06   2.117936e-23   0.000000e+00   0.000000e+00
     3864000   3.863999e-07   2.764627e-01   1.519014e+01   2.316940e+01   7.792487e+05  -9.964671e+05   8.911114e+06   8.263839e+11   2.129690e+11  -4.844983e+10   9.000451e+06   2.112673e-23   0.000000e+00   0.000000e+00
     3872000   3.871999e-07   2.770863e-01   1.518934e+01   2.317652e+01   7.799093e+05  -9.962962e+05   8.911075e+06   8.250046e+11   2.140942e+11  -4.826885e+10   9.000451e+06   2.107425e-23   0.000000e+00   0.000000e+00
     3880000   3.879999e-07   2.777105e-01   1.518855e+01   2.318365e+01   7.805687e+05  -9.961245e+05   8.911036e+06   8.236251e+11   2.152172e+11  -4.808787e+10   9.000451e+06   2.102192e-23   0.000000e+00   0.000000e+00
     3888000   3.887999e-07   2.783352e-01   1.518775e+01   2.319078e+01   7.812271e+05  -9.959519e+05   8.910998e+06   8.222454e+11   2.163378e+11  -4.790689e+10   9.000451e+06   2.096974e-23   0.000000e+00   0.000000e+00
     3896000   3.895999e-07   2.789605e-01   1.518695e+01   2.319791e+01   7.818843e+05  -9.957784e+05   8.910960e+06   8.208655e+11   2.174562e+11  -4.772590e+10   9.000451e+06   2.091771e-23   0.000000e+00   0.000000e+00
     3904000   3.903999e-07   2.795863e-01   1.518616e+01   2.320504e+01   7.825399e+05  -9.956005e+05   8.910922e+06   8.186151e+11   2.246420e+11  -4.679036e+10   9.000451e+06   2.090033e-23   0.000000e+00   0.000000e+00
     3912000   3.911999e-07   2.802126e-01   1.518536e+01   2.321217e+01   7.831944e+05  -9.954204e+05   8.910885e+06   8.174379e+11   2.257124e+11  -4.663217e+10   9.000451e+06   2.085815e-23   0.000000e+00   0.000000e+00
     3920000   3.919999e-07   2.808394e-01   1.518456e+01   2.321930e+01   7.838478e+05  -9.952394e+05   8.910848e+06   8.162605e+11   2.267809e+11  -4.647400e+10   9.000451e+06   2.081608e-23   0.000000e+00   0.000000e+00
     3928000   3.927999e-07   2.814667e-01   1.518377e+01   2.322643e+01   7.845004e+05  -9.950575e+05   8.910810e+06   8.150829e+11   2.278473e+11  -4.631583e+10   9.000451e+06   2.077412e-23   0.000000e+00   0.000000e+00
     3936000   3.935999e-07   2.820946e-01   1.518297e+01   2.323355e+01   7.851520e+05  -9.948748e+05   8.910773e+06   8.139051e+11   2.289117e+11  -4.615768e+10   9.000451e+06   2.073228e-23   0.000000e+00   0.000000e+00
     3944000   3.943999e-07   2.827230e-01   1.518218e+01   2.324068e+01   7.858026e+05  -9.946913e+05   8.910737e+06   8.127271e+11   2.299741e+11  -4.599954e+10   9.000451e+06   2.069055e-23   0.000000e+00   0.000000e+00
     3952000   3.951999e-07   2.833519e-01   1.518138e+01   2.324781e+01   7.864523e+05  -9.945069e+05   8.910700e+06   8.115490e+11   2.310345e+11  -4.584142e+10   9.000451e+06   2.064893e-23   0.000000e+00   0.000000e+00
     3960000   3.959999e-07   2.839813e-01   1.518058e+01   2.325494e+01   7.871011e+05  -9.943216e+05   8.910663e+06   8.103707e+11   2.320929e+11  -4.568330e+10   9.000451e+06   2.060742e-23   0.000000e+00   0.000000e+00
     3968000   3.967999e-07   2.846112e-01   1.517979e+01   2.326207e+01   7.877489e+05  -9.941355e+05   8.910627e+06   8.091922e+11   2.331494e+11  -4.552520e+10   9.000451e+06   2.056603e-23   0.000000e+00   0.000000e+00
     3976000   3.975999e-07   2.852417e-01   1.517899e+01   2.326920e+01   7.883958e+05  -9.939486e+05   8.910590e+06   8.080135e+11   2.342038e+11  -4.536712e+10   9.000451e+06   2.052474e-23   0.000000e+00   0.000000e+00
     3984000   3.983999e-07   2.858727e-01   1.517820e+01   2.327633e+01   7.890417e+05  -9.937608e+05   8.910554e+06   8.068347e+11   2.352563e+11  -4.520905e+10   9.000451e+06   2.048357e-23   0.000000e+00   0.000000e+00
     3992000   3.991999e-07   2.865041e-01   1.517740e+01   2.328345e+01   7.896867e+05  -9.935722e+05   8.910518e+06   8.056557e+11   2.363068e+11  -4.505099e+10   9.000451e+06   2.044251e-23   0.000000e+00   0.000000e+00
     4000000   3.999999e-07   2.871362e-01   1.517661e+01   2.329058e+01   7.903308e+05  -9.933827e+05   8.910482e+06   8.044765e+11   2.373553e+11  -4.489295e+10   9.000451e+06   2.040156e-23   0.000000e+00   0.000000e+00
     4008000   4.007999e-07   2.877687e-01   1.517581e+01   2.329771e+01   7.909739e+05  -9.931924e+05   8.910446e+06   8.032972e+11   2.384019e+11  -4.473493e+10   9.000451e+06   2.036072e-23   0.000000e+00   0.000000e+00
     4016000   4.015999e-07   2.884017e-01   1.517502e+01   2.330484e+01   7.916136e+05  -9.929983e+05   8.910411e+06   7.975765e+11   2.449256e+11  -4.356271e+10   9.000451e+06   2.018408e-23   0.000000e+00   0.000000e+00
     4024000   4.023999e-07   2.890353e-01   1.517423e+01   2.331197e+01   7.922512e+05  -9.928020e+05   8.910376e+06   7.963549e+11   2.458733e+11  -4.341114e+10   9.000451e+06   2.014085e-23   0.000000e+00   0.000000e+00
     4032000   4.031999e-07   2.896693e-01   1.517343e+01   2.331910e+01   7.928878e+05  -9.926049e+05   8.910342e+06   7.951332e+11   2.468191e+11  -4.325957e+10   9.000451e+06   2.009772e-23   0.000000e+00   0.000000e+00
     4040000   4.039999e-07   2.903039e-01   1.517264e+01   2.332622e+01   7.935234e+05  -9.924070e+05   8.910307e+06   7.939114e+11   2.477630e+11  -4.310800e+10   9.000451e+06   2.005470e-23   0.000000e+00   0.000000e+00
     4048000   4.047999e-07   2.909389e-01   1.517184e+01   2.333335e+01   7.941580e+05  -9.922085e+05   8.910273e+06   7.926894e+11   2.487049e+11  -4.295643e+10   9.000451e+06   2.001178e-23   0.000000e+00   0.000000e+00
     4056000   4.055999e-07   2.915745e-01   1.517105e+01   2.334048e+01   7.947917e+05  -9.920091e+05   8.910238e+06   7.914674e+11   2.496450e+11  -4.280486e+10   9.000451e+06   1.996897e-23   0.000000e+00   0.000000e+00
     4064000   4.063999e-07   2.922106e-01   1.517026e+01   2.334761e+01   7.954244e+05  -9.918090e+05   8.910204e+06   7.902452e+11   2.505832e+11  -4.265329e+10   9.000451e+06   1.992627e-23   0.000000e+00   0.000000e+00
     4072000   4.071999e-07   2.928472e-01   1.516946e+01   2.335474e+01   7.960561e+05  -9.916082e+05   8.910170e+06   7.890229e+11   2.515195e+11  -4.250172e+10   9.000451e+06   1.988367e-23   0.000000e+00   0.000000e+00
     4080000   4.079999e-07   2.934843e-01   1.516867e+01   2.336186e+01   7.966868e+05  -9.914066e+05   8.910136e+06   7.878004e+11   2.524539e+11  -4.235016e+10   9.000451e+06   1.984118e-23   0.000000e+00   0.000000e+00
     4088000   4.087999e-07   2.941219e-01   1.516788e+01   2.336899e+01   7.973166e+05  -9.912043e+05   8.910102e+06   7.865779e+11   2.533864e+11  -4.219860e+10   9.000451e+06   1.979879e-23   0.000000e+00   0.000000e+00
     4096000   4.095999e-07   2.947600e-01   1.516708e+01   2.337612e+01   7.979453e+05  -9.910012e+05   8.910069e+06   7.853552e+11   2.543170e+11  -4.204704e+10   9.000451e+06   1.975651e-23   0.000000e+00   0.000000e+00
     4104000   4.103999e-07   2.953986e-01   1.516629e+01   2.338325e+01   7.985731e+05  -9.907974e+05   8.910035e+06   7.841325e+11   2.552458e+11  -4.189548e+10   9.000451e+06   1.971433e-23   0.000000e+00   0.000000e+00
     4112000   4.111999e-07   2.960377e-01   1.516550e+01   2.339038e+01   7.992000e+05  -9.905928e+05   8.910002e+06   7.829096e+11   2.561726e+11  -4.174393e+10   9.000451e+06   1.967226e-23   0.000000e+00   0.000000e+00
     4120000   4.119999e-07   2.966773e-01   1.516471e+01   2.339750e+01   7.998258e+05  -9.903875e+05   8.909968e+06   7.816867e+11   2.570976e+11  -4.159238e+10   9.000451e+06   1.963029e-23   0.000000e+00   0.000000e+00
     4128000   4.127999e-07   2.973174e-01   1.516391e+01   2.340463e+01   8.004503e+05  -9.901777e+05   8.909935e+06   7.799211e+11   2.651665e+11  -4.059806e+10   9.000451e+06   1.967006e-23   0.000000e+00   0.000000e+00
     4136000   4.135999e-07   2.979581e-01   1.516312e+01   2.341176e+01   8.010739e+05  -9.899652e+05   8.909903e+06   7.789075e+11   2.661472e+11  -4.045902e+10   9.000451e+06   1.963911e-23   0.000000e+00   0.000000e+00
     4144000   4.143999e-07   2.985992e-01   1.516233e+01   2.341889e+01   8.016966e+05  -9.897519e+05   8.909871e+06   7.778937e+11   2.671263e+11  -4.031999e+10   9.000451e+06   1.960825e-23   0.000000e+00   0.000000e+00
     4152000   4.151999e-07   2.992408e-01   1.516154e+01   2.342602e+01   8.023185e+05  -9.895378e+05   8.909839e+06   7.768798e+11   2.681038e+11  -4.018099e+10   9.000451e+06   1.957747e-23   0.000000e+00   0.000000e+00
     4160000   4.159999e-07   2.998829e-01   1.516075e+01   2.343314e+01   8.029396e+05  -9.893229e+05   8.909806e+06   7.758657e+11   2.690797e+11  -4.004201e+10   9.000451e+06   1.954677e-23   0.000000e+00   0.000000e+00
     4168000   4.167999e-07   3.005255e-01   1.515996e+01   2.344027e+01   8.035587e+05  -9.891058e+05   8.909775e+06   7.729372e+11   2.725358e+11  -3.945482e+10   9.000451e+06   1.946839e-23   0.000000e+00   0.000000e+00
     4176000   4.175999e-07   3.011686e-01   1.515916e+01   2.344740e+01   8.041766e+05  -9.888872e+05   8.909743e+06   7.717463e+11   2.740385e+11  -3.924097e+10   9.000451e+06   1.943846e-23   0.000000e+00   0.000000e+00
     4184000   4.183999e-07   3.018122e-01   1.515837e+01   2.345453e+01   8.047935e+05  -9.886673e+05   8.909712e+06   7.705549e+11   2.755395e+11  -3.902714e+10   9.000451e+06   1.940870e-23   0.000000e+00   0.000000e+00
     4192000   4.191999e-07   3.024562e-01   1.515758e+01   2.346166e+01   8.054094e+05  -9.884463e+05   8.909681e+06   7.693630e+11   2.770388e+11  -3.881332e+10   9.000451e+06   1.937910e-23   0.000000e+00   0.000000e+00
     4200000   4.199999e-07   3.031008e-01   1.515679e+01   2.346878e+01   8.060245e+05  -9.882241e+05   8.909650e+06   7.681708e+11   2.785363e+11  -3.859951e+10   9.000451e+06   1.934967e-23   0.000000e+00   0.000000e+00
     4208000   4.207999e-07   3.037459e-01   1.515600e+01   2.347591e+01   8.066385e+05  -9.880006e+05   8.909619e+06   7.669781e+11   2.800321e+11  -3.838572e+10   9.000451e+06   1.932041e-23   0.000000e+00   0.000000e+00
     4216000   4.215999e-07   3.043914e-01   1.515521e+01   2.348304e+01   8.072516e+05  -9.877760e+05   8.909588e+06   7.657850e+11   2.815261e+11  -3.817195e+10   9.000451e+06   1.929132e-23   0.000000e+00   0.000000e+00
     4224000   4.223999e-07   3.050375e-01   1.515442e+01   2.349017e+01   8.078638e+05  -9.875502e+05   8.909558e+06   7.645915e+11   2.830185e+11  -3.795820e+10   9.000451e+06   1.926239e-23   0.000000e+00   0.000000e+00
     4232000   4.231999e-07   3.056840e-01   1.515363e+01   2.349729e+01   8.084750e+05  -9.873232e+05   8.909528e+06   7.633975e+11   2.845091e+11  -3.774446e+10   9.000451e+06   1.923363e-23   0.000000e+00   0.000000e+00
     4240000   4.239999e-07   3.063310e-01   1.515284e+01   2.350442e+01   8.090855e+05  -9.870947e+05   8.909498e+06   7.627339e+11   2.866041e+11  -3.751181e+10   9.000451e+06   1.923844e-23   0.000000e+00   0.000000e+00
     4248000   4.247999e-07   3.069786e-01   1.515205e+01   2.351155e+01   8.096952e+05  -9.868648e+05   8.909468e+06   7.615419e+11   2.879323e+11  -3.731609e+10   9.000451e+06   1.920755e-23   0.000000e+00   0.000000e+00
     4256000   4.255999e-07   3.076266e-01   1.515126e+01   2.351868e+01   8.103039e+05  -9.866340e+05   8.909438e+06   7.603496e+11   2.892589e+11  -3.712037e+10   9.000451e+06   1.917679e-23   0.000000e+00   0.000000e+00
     4264000   4.263999e-07   3.082750e-01   1.515047e+01   2.352580e+01   8.109117e+05  -9.864020e+05   8.909408e+06   7.591569e+11   2.905839e+11  -3.692464e+10   9.000451e+06   1.914619e-23   0.000000e+00   0.000000e+00
     4272000   4.271999e-07   3.089240e-01   1.514968e+01   2.353293e+01   8.115186e+05  -9.861690e+05   8.909379e+06   7.579638e+11   2.919073e+11  -3.672891e+10   9.000451e+06   1.911572e-23   0.000000e+00   0.000000e+00
     4280000   4.279999e-07   3.095735e-01   1.514890e+01   2.354006e+01   8.121245e+05  -9.859350e+05   8.909349e+06   7.567704e+11   2.932292e+11  -3.653317e+10   9.000451e+06   1.908540e-23   0.000000e+00   0.000000e+00
     4288000   4.287999e-07   3.102234e-01   1.514811e+01   2.354719e+01   8.127294e+05  -9.856999e+05   8.909320e+06   7.555766e+11   2.945495e+11  -3.633744e+10   9.000451e+06   1.905522e-23   0.000000e+00   0.000000e+00
