     timestep     time              x             y              z              vx             vy             vz             ax             ay             az         v_magnitude      ELoss        Electronic      Nuclear
           0   0.000000e+00   1.000000e-01   5.750703e+00   6.290092e+00  -1.045214e+05  -7.739058e+04  -6.943835e+04   0.000000e+00   0.000000e+00   0.000000e+00   1.474304e+05   0.000000e+00   0.000000e+00   0.000000e+00
        8000   7.999000e-10   9.991639e-02   5.750641e+00   6.290036e+00  -1.045062e+05  -7.741098e+04  -6.943845e+04   1.897296e+10  -2.549683e+10  -1.304591e+08   1.474304e+05   7.822795e-30   0.000000e+00   0.000000e+00
       16000   1.599900e-09   9.983279e-02   5.750579e+00   6.289981e+00  -1.044911e+05  -7.743137e+04  -6.943855e+04   1.897708e+10  -2.549223e+10  -1.301490e+08   1.474304e+05   7.822190e-30   0.000000e+00   0.000000e+00
       24000   2.399900e-09   9.974920e-02   5.750517e+00   6.289925e+00  -1.044759e+05  -7.745177e+04  -6.943866e+04   1.898120e+10  -2.548763e+10  -1.298390e+08   1.474304e+05   7.821585e-30   0.000000e+00   0.000000e+00
       32000   3.199900e-09   9.966563e-02   5.750455e+00   6.289870e+00  -1.044607e+05  -7.747215e+04  -6.943876e+04   1.898532e+10  -2.548304e+10  -1.295293e+08   1.474304e+05   7.820980e-30   0.000000e+00   0.000000e+00
       40000   3.999900e-09   9.958207e-02   5.750393e+00   6.289814e+00  -1.044455e+05  -7.749254e+04  -6.943887e+04   1.898944e+10  -2.547844e+10  -1.292198e+08   1.474304e+05   7.820375e-30   0.000000e+00   0.000000e+00
       48000   4.799900e-09   9.949852e-02   5.750331e+00   6.289759e+00  -1.044303e+05  -7.751292e+04  -6.943897e+04   1.899355e+10  -2.547384e+10  -1.289106e+08   1.474304e+05   7.819770e-30   0.000000e+00   0.000000e+00
       56000   5.599900e-09   9.941498e-02   5.750269e+00   6.289703e+00  -1.044151e+05  -7.753330e+04  -6.943907e+04   1.899767e+10  -2.546924e+10  -1.286015e+08   1.474304e+05   7.819165e-30   0.000000e+00   0.000000e+00
       64000   6.399900e-09   9.933145e-02   5.750207e+00   6.289648e+00  -1.043999e+05  -7.755367e+04  -6.943917e+04   1.900178e+10  -2.546464e+10  -1.282928e+08   1.474304e+05   7.818560e-30   0.000000e+00   0.000000e+00
       72000   7.199900e-09   9.924794e-02   5.750145e+00   6.289592e+00  -1.043847e+05  -7.757404e+04  -6.943928e+04   1.900589e+10  -2.546004e+10  -1.279842e+08   1.474304e+05   7.817955e-30   0.000000e+00   0.000000e+00
       80000   7.999900e-09   9.916444e-02   5.750083e+00   6.289536e+00  -1.043695e+05  -7.759441e+04  -6.943938e+04   1.901000e+10  -2.545543e+10  -1.276759e+08   1.474304e+05   7.817350e-30   0.000000e+00   0.000000e+00
       88000   8.799900e-09   9.908095e-02   5.750021e+00   6.289481e+00  -1.043543e+05  -7.761477e+04  -6.943948e+04   1.901411e+10  -2.545083e+10  -1.273678e+08   1.474304e+05   7.816745e-30   0.000000e+00   0.000000e+00
       96000   9.599900e-09   9.899747e-02   5.749959e+00   6.289425e+00  -1.043391e+05  -7.763513e+04  -6.943958e+04   1.901822e+10  -2.544623e+10  -1.270600e+08   1.474304e+05   7.816141e-30   0.000000e+00   0.000000e+00
      104000   1.039990e-08   9.891400e-02   5.749897e+00   6.289370e+00  -1.043239e+05  -7.765548e+04  -6.943968e+04   1.902233e+10  -2.544162e+10  -1.267524e+08   1.474304e+05   7.815536e-30   0.000000e+00   0.000000e+00
      112000   1.119990e-08   9.883055e-02   5.749835e+00   6.289314e+00  -1.043087e+05  -7.767583e+04  -6.943979e+04   1.902644e+10  -2.543702e+10  -1.264450e+08   1.474304e+05   7.814931e-30   0.000000e+00   0.000000e+00
      120000   1.199990e-08   9.874711e-02   5.749772e+00   6.289259e+00  -1.042934e+05  -7.769618e+04  -6.943989e+04   1.903054e+10  -2.543242e+10  -1.261378e+08   1.474304e+05   7.814326e-30   0.000000e+00   0.000000e+00
      128000   1.279990e-08   9.866368e-02   5.749710e+00   6.289203e+00  -1.042782e+05  -7.771653e+04  -6.943999e+04   1.903465e+10  -2.542781e+10  -1.258309e+08   1.474304e+05   7.813721e-30   0.000000e+00   0.000000e+00
      136000   1.359990e-08   9.858026e-02   5.749648e+00   6.289148e+00  -1.042630e+05  -7.773687e+04  -6.944009e+04   1.903875e+10  -2.542320e+10  -1.255242e+08   1.474304e+05   7.813117e-30   0.000000e+00   0.000000e+00
      144000   1.439990e-08   9.849686e-02   5.749586e+00   6.289092e+00  -1.042477e+05  -7.775720e+04  -6.944019e+04   1.904285e+10  -2.541860e+10  -1.252178e+08   1.474304e+05   7.812512e-30   0.000000e+00   0.000000e+00
      152000   1.519990e-08   9.841347e-02   5.749524e+00   6.289037e+00  -1.042325e+05  -7.777754e+04  -6.944029e+04   1.904695e+10  -2.541399e+10  -1.249116e+08   1.474304e+05   7.811907e-30   0.000000e+00   0.000000e+00
      160000   1.599990e-08   9.833009e-02   5.749461e+00   6.288981e+00  -1.042173e+05  -7.779787e+04  -6.944039e+04   1.905105e+10  -2.540938e+10  -1.246056e+08   1.474304e+05   7.811303e-30   0.000000e+00   0.000000e+00
      168000   1.679990e-08   9.824672e-02   5.749399e+00   6.288925e+00  -1.042020e+05  -7.781819e+04  -6.944049e+04   1.905515e+10  -2.540478e+10  -1.242998e+08   1.474304e+05   7.810698e-30   0.000000e+00   0.000000e+00
      176000   1.759990e-08   9.816337e-02   5.749337e+00   6.288870e+00  -1.041868e+05  -7.783851e+04  -6.944059e+04   1.905925e+10  -2.540017e+10  -1.239943e+08   1.474304e+05   7.810094e-30   0.000000e+00   0.000000e+00
      184000   1.839990e-08   9.808002e-02   5.749275e+00   6.288814e+00  -1.041715e+05  -7.785883e+04  -6.944069e+04   1.906334e+10  -2.539556e+10  -1.236890e+08   1.474304e+05   7.809489e-30   0.000000e+00   0.000000e+00
      192000   1.919990e-08   9.799669e-02   5.749212e+00   6.288759e+00  -1.041563e+05  -7.787915e+04  -6.944078e+04   1.906744e+10  -2.539095e+10  -1.233840e+08   1.474304e+05   7.808884e-30   0.000000e+00   0.000000e+00
      200000   1.999990e-08   9.791337e-02   5.749150e+00   6.288703e+00  -1.041410e+05  -7.789946e+04  -6.944088e+04   1.907153e+10  -2.538634e+10  -1.230792e+08   1.474304e+05   7.808280e-30   0.000000e+00   0.000000e+00
      208000   2.079990e-08   9.783007e-02   5.749088e+00   6.288648e+00  -1.041258e+05  -7.791977e+04  -6.944098e+04   1.907562e+10  -2.538173e+10  -1.227746e+08   1.474304e+05   7.807675e-30   0.000000e+00   0.000000e+00
      216000   2.159990e-08   9.774677e-02   5.749025e+00   6.288592e+00  -1.041105e+05  -7.794007e+04  -6.944108e+04   1.907971e+10  -2.537711e+10  -1.224702e+08   1.474304e+05   7.807071e-30   0.000000e+00   0.000000e+00
      224000   2.239990e-08   9.766349e-02   5.748963e+00   6.288537e+00  -1.040952e+05  -7.796037e+04  -6.944118e+04   1.908380e+10  -2.537250e+10  -1.221661e+08   1.474304e+05   7.806466e-30   0.000000e+00   0.000000e+00
      232000   2.319990e-08   9.758022e-02   5.748901e+00   6.288481e+00  -1.040800e+05  -7.798066e+04  -6.944128e+04   1.908789e+10  -2.536789e+10  -1.218622e+08   1.474304e+05   7.805862e-30   0.000000e+00   0.000000e+00
      240000   2.399990e-08   9.749696e-02   5.748838e+00   6.288425e+00  -1.040647e+05  -7.800096e+04  -6.944137e+04   1.909198e+10  -2.536328e+10  -1.215586e+08   1.474304e+05   7.805257e-30   0.000000e+00   0.000000e+00
      248000   2.479990e-08   9.741371e-02   5.748776e+00   6.288370e+00  -1.040494e+05  -7.802125e+04  -6.944147e+04   1.909607e+10  -2.535866e+10  -1.212552e+08   1.474304e+05   7.804653e-30   0.000000e+00   0.000000e+00
      256000   2.559990e-08   9.733048e-02   5.748713e+00   6.288314e+00  -1.040341e+05  -7.804153e+04  -6.944157e+04   1.910015e+10  -2.535405e+10  -1.209520e+08   1.474304e+05   7.804049e-30   0.000000e+00   0.000000e+00
      264000   2.639990e-08   9.724726e-02   5.748651e+00   6.288259e+00  -1.040189e+05  -7.806181e+04  -6.944166e+04   1.910423e+10  -2.534943e+10  -1.206490e+08   1.474304e+05   7.803444e-30   0.000000e+00   0.000000e+00
      272000   2.719990e-08   9.716405e-02   5.748589e+00   6.288203e+00  -1.040036e+05  -7.808209e+04  -6.944176e+04   1.910832e+10  -2.534482e+10  -1.203463e+08   1.474304e+05   7.802840e-30   0.000000e+00   0.000000e+00
      280000   2.799990e-08   9.708085e-02   5.748526e+00   6.288148e+00  -1.039883e+05  -7.810236e+04  -6.944186e+04   1.911240e+10  -2.534020e+10  -1.200438e+08   1.474304e+05   7.802236e-30   0.000000e+00   0.000000e+00
      288000   2.879990e-08   9.699767e-02   5.748464e+00   6.288092e+00  -1.039730e+05  -7.812263e+04  -6.944195e+04   1.911648e+10  -2.533559e+10  -1.197416e+08   1.474304e+05   7.801631e-30   0.000000e+00   0.000000e+00
      296000   2.959990e-08   9.691450e-02   5.748401e+00   6.288037e+00  -1.039577e+05  -7.814290e+04  -6.944205e+04   1.912056e+10  -2.533097e+10  -1.194395e+08   1.474304e+05   7.801027e-30   0.000000e+00   0.000000e+00
      304000   3.039990e-08   9.683134e-02   5.748339e+00   6.287981e+00  -1.039424e+05  -7.816316e+04  -6.944214e+04   1.912464e+10  -2.532635e+10  -1.191377e+08   1.474304e+05   7.800423e-30   0.000000e+00   0.000000e+00
      312000   3.119990e-08   9.674819e-02   5.748276e+00   6.287925e+00  -1.039271e+05  -7.818342e+04  -6.944224e+04   1.912871e+10  -2.532173e+10  -1.188362e+08   1.474304e+05   7.799819e-30   0.000000e+00   0.000000e+00
      320000   3.199990e-08   9.666505e-02   5.748213e+00   6.287870e+00  -1.039118e+05  -7.820368e+04  -6.944233e+04   1.913279e+10  -2.531711e+10  -1.185349e+08   1.474304e+05   7.799214e-30   0.000000e+00   0.000000e+00
      328000   3.279990e-08   9.658193e-02   5.748151e+00   6.287814e+00  -1.038965e+05  -7.822393e+04  -6.944243e+04   1.913687e+10  -2.531249e+10  -1.182338e+08   1.474304e+05   7.798610e-30   0.000000e+00   0.000000e+00
      336000   3.359990e-08   9.649882e-02   5.748088e+00   6.287759e+00  -1.038812e+05  -7.824418e+04  -6.944252e+04   1.914094e+10  -2.530787e+10  -1.179329e+08   1.474304e+05   7.798006e-30   0.000000e+00   0.000000e+00
      344000   3.439990e-08   9.641572e-02   5.748026e+00   6.287703e+00  -1.038659e+05  -7.826442e+04  -6.944262e+04   1.914501e+10  -2.530325e+10  -1.176323e+08   1.474304e+05   7.797402e-30   0.000000e+00   0.000000e+00
      352000   3.519990e-08   9.633263e-02   5.747963e+00   6.287648e+00  -1.038505e+05  -7.828466e+04  -6.944271e+04   1.914908e+10  -2.529863e+10  -1.173319e+08   1.474304e+05   7.796798e-30   0.000000e+00   0.000000e+00
      360000   3.599990e-08   9.624956e-02   5.747900e+00   6.287592e+00  -1.038352e+05  -7.830490e+04  -6.944280e+04   1.915315e+10  -2.529401e+10  -1.170317e+08   1.474304e+05   7.796194e-30   0.000000e+00   0.000000e+00
      368000   3.679990e-08   9.616650e-02   5.747838e+00   6.287537e+00  -1.038199e+05  -7.832513e+04  -6.944290e+04   1.915722e+10  -2.528939e+10  -1.167318e+08   1.474304e+05   7.795590e-30   0.000000e+00   0.000000e+00
      376000   3.759990e-08   9.608345e-02   5.747775e+00   6.287481e+00  -1.038046e+05  -7.834536e+04  -6.944299e+04   1.916129e+10  -2.528477e+10  -1.164321e+08   1.474304e+05   7.794986e-30   0.000000e+00   0.000000e+00
      384000   3.839990e-08   9.600041e-02   5.747712e+00   6.287425e+00  -1.037892e+05  -7.836559e+04  -6.944308e+04   1.916536e+10  -2.528014e+10  -1.161326e+08   1.474304e+05   7.794382e-30   0.000000e+00   0.000000e+00
      392000   3.919990e-08   9.591739e-02   5.747650e+00   6.287370e+00  -1.037739e+05  -7.838581e+04  -6.944318e+04   1.916942e+10  -2.527552e+10  -1.158334e+08   1.474304e+05   7.793778e-30   0.000000e+00   0.000000e+00
      400000   3.999990e-08   9.583437e-02   5.747587e+00   6.287314e+00  -1.037586e+05  -7.840603e+04  -6.944327e+04   1.917349e+10  -2.527089e+10  -1.155344e+08   1.474304e+05   7.793174e-30   0.000000e+00   0.000000e+00
      408000   4.079990e-08   9.575137e-02   5.747524e+00   6.287259e+00  -1.037432e+05  -7.842625e+04  -6.944336e+04   1.917755e+10  -2.526627e+10  -1.152356e+08   1.474304e+05   7.792570e-30   0.000000e+00   0.000000e+00
      416000   4.159990e-08   9.566838e-02   5.747462e+00   6.287203e+00  -1.037279e+05  -7.844646e+04  -6.944345e+04   1.918161e+10  -2.526164e+10  -1.149371e+08   1.474304e+05   7.791966e-30   0.000000e+00   0.000000e+00
      424000   4.239990e-08   9.558541e-02   5.747399e+00   6.287148e+00  -1.037125e+05  -7.846666e+04  -6.944355e+04   1.918567e+10  -2.525702e+10  -1.146387e+08   1.474304e+05   7.791362e-30   0.000000e+00   0.000000e+00
      432000   4.319990e-08   9.550244e-02   5.747336e+00   6.287092e+00  -1.036972e+05  -7.848687e+04  -6.944364e+04   1.918973e+10  -2.525239e+10  -1.143407e+08   1.474304e+05   7.790758e-30   0.000000e+00   0.000000e+00
      440000   4.399990e-08   9.541949e-02   5.747273e+00   6.287037e+00  -1.036818e+05  -7.850707e+04  -6.944373e+04   1.919379e+10  -2.524776e+10  -1.140428e+08   1.474304e+05   7.790154e-30   0.000000e+00   0.000000e+00
      448000   4.479990e-08   9.533655e-02   5.747210e+00   6.286981e+00  -1.036665e+05  -7.852726e+04  -6.944382e+04   1.919785e+10  -2.524314e+10  -1.137452e+08   1.474304e+05   7.789550e-30   0.000000e+00   0.000000e+00
      456000   4.559990e-08   9.525363e-02   5.747148e+00   6.286925e+00  -1.036511e+05  -7.854746e+04  -6.944391e+04   1.920190e+10  -2.523851e+10  -1.134478e+08   1.474304e+05   7.788946e-30   0.000000e+00   0.000000e+00
      464000   4.639990e-08   9.517071e-02   5.747085e+00   6.286870e+00  -1.036358e+05  -7.856765e+04  -6.944400e+04   1.920596e+10  -2.523388e+10  -1.131507e+08   1.474304e+05   7.788342e-30   0.000000e+00   0.000000e+00
      472000   4.719990e-08   9.508781e-02   5.747022e+00   6.286814e+00  -1.036204e+05  -7.858783e+04  -6.944409e+04   1.921001e+10  -2.522925e+10  -1.128538e+08   1.474304e+05   7.787739e-30   0.000000e+00   0.000000e+00
      480000   4.799990e-08   9.500492e-02   5.746959e+00   6.286759e+00  -1.036050e+05  -7.860801e+04  -6.944418e+04   1.921406e+10  -2.522462e+10  -1.125571e+08   1.474304e+05   7.787135e-30   0.000000e+00   0.000000e+00
      488000   4.879990e-08   9.492204e-02   5.746896e+00   6.286703e+00  -1.035896e+05  -7.862819e+04  -6.944427e+04   1.921812e+10  -2.521999e+10  -1.122606e+08   1.474304e+05   7.786531e-30   0.000000e+00   0.000000e+00
      496000   4.959990e-08   9.483917e-02   5.746833e+00   6.286648e+00  -1.035743e+05  -7.864836e+04  -6.944436e+04   1.922217e+10  -2.521536e+10  -1.119644e+08   1.474304e+05   7.785928e-30   0.000000e+00   0.000000e+00
      504000   5.039990e-08   9.475632e-02   5.746770e+00   6.286592e+00  -1.035589e+05  -7.866854e+04  -6.944445e+04   1.922621e+10  -2.521072e+10  -1.116684e+08   1.474304e+05   7.785324e-30   0.000000e+00   0.000000e+00
      512000   5.119990e-08   9.467348e-02   5.746707e+00   6.286537e+00  -1.035435e+05  -7.868870e+04  -6.944454e+04   1.923026e+10  -2.520609e+10  -1.113726e+08   1.474304e+05   7.784720e-30   0.000000e+00   0.000000e+00
      520000   5.199990e-08   9.459065e-02   5.746644e+00   6.286481e+00  -1.035281e+05  -7.870886e+04  -6.944463e+04   1.923431e+10  -2.520146e+10  -1.110771e+08   1.474304e+05   7.784117e-30   0.000000e+00   0.000000e+00
      528000   5.279990e-08   9.450784e-02   5.746581e+00   6.286425e+00  -1.035127e+05  -7.872902e+04  -6.944472e+04   1.923835e+10  -2.519683e+10  -1.107818e+08   1.474304e+05   7.783513e-30   0.000000e+00   0.000000e+00
      536000   5.359990e-08   9.442503e-02   5.746518e+00   6.286370e+00  -1.034973e+05  -7.874918e+04  -6.944481e+04   1.924240e+10  -2.519219e+10  -1.104867e+08   1.474304e+05   7.782909e-30   0.000000e+00   0.000000e+00
      544000   5.439990e-08   9.434224e-02   5.746455e+00   6.286314e+00  -1.034819e+05  -7.876933e+04  -6.944489e+04   1.924644e+10  -2.518756e+10  -1.101919e+08   1.474304e+05   7.782306e-30   0.000000e+00   0.000000e+00
      552000   5.519990e-08   9.425946e-02   5.746392e+00   6.286259e+00  -1.034665e+05  -7.878948e+04  -6.944498e+04   1.925048e+10  -2.518292e+10  -1.098973e+08   1.474304e+05   7.781702e-30   0.000000e+00   0.000000e+00
      560000   5.599990e-08   9.417669e-02   5.746329e+00   6.286203e+00  -1.034511e+05  -7.880962e+04  -6.944507e+04   1.925452e+10  -2.517829e+10  -1.096029e+08   1.474304e+05   7.781099e-30   0.000000e+00   0.000000e+00
      568000   5.679990e-08   9.409394e-02   5.746266e+00   6.286148e+00  -1.034357e+05  -7.882977e+04  -6.944516e+04   1.925856e+10  -2.517365e+10  -1.093088e+08   1.474304e+05   7.780495e-30   0.000000e+00   0.000000e+00
      576000   5.759990e-08   9.401120e-02   5.746203e+00   6.286092e+00  -1.034203e+05  -7.884990e+04  -6.944525e+04   1.926260e+10  -2.516901e+10  -1.090149e+08   1.474304e+05   7.779892e-30   0.000000e+00   0.000000e+00
      584000   5.839990e-08   9.392847e-02   5.746140e+00   6.286037e+00  -1.034049e+05  -7.887004e+04  -6.944533e+04   1.926664e+10  -2.516438e+10  -1.087212e+08   1.474304e+05   7.779288e-30   0.000000e+00   0.000000e+00
      592000   5.919990e-08   9.384575e-02   5.746077e+00   6.285981e+00  -1.033895e+05  -7.889017e+04  -6.944542e+04   1.927068e+10  -2.515974e+10  -1.084277e+08   1.474304e+05   7.778685e-30   0.000000e+00   0.000000e+00
      600000   5.999990e-08   9.376304e-02   5.746014e+00   6.285925e+00  -1.033741e+05  -7.891029e+04  -6.944551e+04   1.927471e+10  -2.515510e+10  -1.081345e+08   1.474304e+05   7.778081e-30   0.000000e+00   0.000000e+00
      608000   6.079990e-08   9.368035e-02   5.745951e+00   6.285870e+00  -1.033587e+05  -7.893041e+04  -6.944559e+04   1.927875e+10  -2.515046e+10  -1.078415e+08   1.474304e+05   7.777478e-30   0.000000e+00   0.000000e+00
      616000   6.159990e-08   9.359767e-02   5.745888e+00   6.285814e+00  -1.033432e+05  -7.895053e+04  -6.944568e+04   1.928278e+10  -2.514582e+10  -1.075488e+08   1.474304e+05   7.776875e-30   0.000000e+00   0.000000e+00
      624000   6.239990e-08   9.351500e-02   5.745824e+00   6.285759e+00  -1.033278e+05  -7.897065e+04  -6.944576e+04   1.928681e+10  -2.514118e+10  -1.072562e+08   1.474304e+05   7.776271e-30   0.000000e+00   0.000000e+00
      632000   6.319990e-08   9.343234e-02   5.745761e+00   6.285703e+00  -1.033124e+05  -7.899076e+04  -6.944585e+04   1.929084e+10  -2.513654e+10  -1.069640e+08   1.474304e+05   7.775668e-30   0.000000e+00   0.000000e+00
      640000   6.399990e-08   9.334970e-02   5.745698e+00   6.285648e+00  -1.032969e+05  -7.901087e+04  -6.944594e+04   1.929487e+10  -2.513190e+10  -1.066719e+08   1.474304e+05   7.775065e-30   0.000000e+00   0.000000e+00
      648000   6.479990e-08   9.326707e-02   5.745635e+00   6.285592e+00  -1.032815e+05  -7.903097e+04  -6.944602e+04   1.929890e+10  -2.512726e+10  -1.063801e+08   1.474304e+05   7.774461e-30   0.000000e+00   0.000000e+00
      656000   6.559990e-08   9.318445e-02   5.745572e+00   6.285537e+00  -1.032661e+05  -7.905107e+04  -6.944611e+04   1.930292e+10  -2.512262e+10  -1.060884e+08   1.474304e+05   7.773858e-30   0.000000e+00   0.000000e+00
      664000   6.639990e-08   9.310184e-02   5.745508e+00   6.285481e+00  -1.032506e+05  -7.907117e+04  -6.944619e+04   1.930695e+10  -2.511797e+10  -1.057971e+08   1.474304e+05   7.773255e-30   0.000000e+00   0.000000e+00
      672000   6.719990e-08   9.301925e-02   5.745445e+00   6.285425e+00  -1.032352e+05  -7.909126e+04  -6.944627e+04   1.931097e+10  -2.511333e+10  -1.055059e+08   1.474304e+05   7.772652e-30   0.000000e+00   0.000000e+00
      680000   6.799990e-08   9.293667e-02   5.745382e+00   6.285370e+00  -1.032197e+05  -7.911135e+04  -6.944636e+04   1.931500e+10  -2.510869e+10  -1.052150e+08   1.474304e+05   7.772049e-30   0.000000e+00   0.000000e+00
      688000   6.879990e-08   9.285410e-02   5.745318e+00   6.285314e+00  -1.032043e+05  -7.913143e+04  -6.944644e+04   1.931902e+10  -2.510404e+10  -1.049243e+08   1.474304e+05   7.771445e-30   0.000000e+00   0.000000e+00
      696000   6.959990e-08   9.277154e-02   5.745255e+00   6.285259e+00  -1.031888e+05  -7.915151e+04  -6.944653e+04   1.932304e+10  -2.509940e+10  -1.046339e+08   1.474304e+05   7.770842e-30   0.000000e+00   0.000000e+00
      704000   7.039990e-08   9.268900e-02   5.745192e+00   6.285203e+00  -1.031734e+05  -7.917159e+04  -6.944661e+04   1.932706e+10  -2.509475e+10  -1.043437e+08   1.474304e+05   7.770239e-30   0.000000e+00   0.000000e+00
      712000   7.119990e-08   9.260646e-02   5.745128e+00   6.285148e+00  -1.031579e+05  -7.919166e+04  -6.944669e+04   1.933108e+10  -2.509011e+10  -1.040537e+08   1.474304e+05   7.769636e-30   0.000000e+00   0.000000e+00
      720000   7.199990e-08   9.252394e-02   5.745065e+00   6.285092e+00  -1.031424e+05  -7.921173e+04  -6.944678e+04   1.933510e+10  -2.508546e+10  -1.037639e+08   1.474304e+05   7.769033e-30   0.000000e+00   0.000000e+00
      728000   7.279990e-08   9.244144e-02   5.745002e+00   6.285037e+00  -1.031270e+05  -7.923180e+04  -6.944686e+04   1.933911e+10  -2.508081e+10  -1.034744e+08   1.474304e+05   7.768430e-30   0.000000e+00   0.000000e+00
      736000   7.359990e-08   9.235894e-02   5.744938e+00   6.284981e+00  -1.031115e+05  -7.925186e+04  -6.944694e+04   1.934313e+10  -2.507616e+10  -1.031851e+08   1.474304e+05   7.767827e-30   0.000000e+00   0.000000e+00
      744000   7.439990e-08   9.227646e-02   5.744875e+00   6.284925e+00  -1.030960e+05  -7.927192e+04  -6.944702e+04   1.934714e+10  -2.507152e+10  -1.028960e+08   1.474304e+05   7.767224e-30   0.000000e+00   0.000000e+00
      752000   7.519990e-08   9.219399e-02   5.744812e+00   6.284870e+00  -1.030805e+05  -7.929198e+04  -6.944711e+04   1.935115e+10  -2.506687e+10  -1.026072e+08   1.474304e+05   7.766621e-30   0.000000e+00   0.000000e+00
      760000   7.599990e-08   9.211153e-02   5.744748e+00   6.284814e+00  -1.030650e+05  -7.931203e+04  -6.944719e+04   1.935517e+10  -2.506222e+10  -1.023186e+08   1.474304e+05   7.766018e-30   0.000000e+00   0.000000e+00
      768000   7.679990e-08   9.202908e-02   5.744685e+00   6.284759e+00  -1.030496e+05  -7.933208e+04  -6.944727e+04   1.935918e+10  -2.505757e+10  -1.020302e+08   1.474304e+05   7.765415e-30   0.000000e+00   0.000000e+00
      776000   7.759990e-08   9.194665e-02   5.744621e+00   6.284703e+00  -1.030341e+05  -7.935212e+04  -6.944735e+04   1.936319e+10  -2.505292e+10  -1.017420e+08   1.474304e+05   7.764812e-30   0.000000e+00   0.000000e+00
      784000   7.839990e-08   9.186423e-02   5.744558e+00   6.284648e+00  -1.030186e+05  -7.937216e+04  -6.944743e+04   1.936719e+10  -2.504827e+10  -1.014541e+08   1.474304e+05   7.764209e-30   0.000000e+00   0.000000e+00
      792000   7.919990e-08   9.178182e-02   5.744494e+00   6.284592e+00  -1.030031e+05  -7.939220e+04  -6.944751e+04   1.937120e+10  -2.504362e+10  -1.011664e+08   1.474304e+05   7.763607e-30   0.000000e+00   0.000000e+00
      800000   7.999990e-08   9.169942e-02   5.744431e+00   6.284537e+00  -1.029876e+05  -7.941223e+04  -6.944760e+04   1.937521e+10  -2.503896e+10  -1.008790e+08   1.474304e+05   7.763004e-30   0.000000e+00   0.000000e+00
      808000   8.079990e-08   9.161704e-02   5.744367e+00   6.284481e+00  -1.029721e+05  -7.943226e+04  -6.944768e+04   1.937921e+10  -2.503431e+10  -1.005917e+08   1.474304e+05   7.762401e-30   0.000000e+00   0.000000e+00
      816000   8.159990e-08   9.153467e-02   5.744304e+00   6.284425e+00  -1.029566e+05  -7.945229e+04  -6.944776e+04   1.938321e+10  -2.502966e+10  -1.003047e+08   1.474304e+05   7.761798e-30   0.000000e+00   0.000000e+00
      824000   8.239990e-08   9.145231e-02   5.744240e+00   6.284370e+00  -1.029411e+05  -7.947231e+04  -6.944784e+04   1.938722e+10  -2.502500e+10  -1.000180e+08   1.474304e+05   7.761195e-30   0.000000e+00   0.000000e+00
      832000   8.319990e-08   9.136996e-02   5.744176e+00   6.284314e+00  -1.029256e+05  -7.949233e+04  -6.944792e+04   1.939122e+10  -2.502035e+10  -9.973144e+07   1.474304e+05   7.760593e-30   0.000000e+00   0.000000e+00
      840000   8.399990e-08   9.128763e-02   5.744113e+00   6.284259e+00  -1.029100e+05  -7.951234e+04  -6.944800e+04   1.939522e+10  -2.501570e+10  -9.944513e+07   1.474304e+05   7.759990e-30   0.000000e+00   0.000000e+00
      848000   8.479990e-08   9.120531e-02   5.744049e+00   6.284203e+00  -1.028945e+05  -7.953235e+04  -6.944808e+04   1.939922e+10  -2.501104e+10  -9.915905e+07   1.474304e+05   7.759387e-30   0.000000e+00   0.000000e+00
      856000   8.559990e-08   9.112300e-02   5.743986e+00   6.284148e+00  -1.028790e+05  -7.955236e+04  -6.944815e+04   1.940321e+10  -2.500638e+10  -9.887320e+07   1.474304e+05   7.758785e-30   0.000000e+00   0.000000e+00
      864000   8.639990e-08   9.104070e-02   5.743922e+00   6.284092e+00  -1.028635e+05  -7.957236e+04  -6.944823e+04   1.940721e+10  -2.500173e+10  -9.858758e+07   1.474304e+05   7.758182e-30   0.000000e+00   0.000000e+00
      872000   8.719990e-08   9.095841e-02   5.743858e+00   6.284037e+00  -1.028480e+05  -7.959236e+04  -6.944831e+04   1.941120e+10  -2.499707e+10  -9.830218e+07   1.474304e+05   7.757580e-30   0.000000e+00   0.000000e+00
      880000   8.799990e-08   9.087614e-02   5.743795e+00   6.283981e+00  -1.028324e+05  -7.961236e+04  -6.944839e+04   1.941520e+10  -2.499241e+10  -9.801702e+07   1.474304e+05   7.756977e-30   0.000000e+00   0.000000e+00
      888000   8.879990e-08   9.079388e-02   5.743731e+00   6.283925e+00  -1.028169e+05  -7.963235e+04  -6.944847e+04   1.941919e+10  -2.498776e+10  -9.773209e+07   1.474304e+05   7.756374e-30   0.000000e+00   0.000000e+00
      896000   8.959990e-08   9.071164e-02   5.743667e+00   6.283870e+00  -1.028014e+05  -7.965234e+04  -6.944855e+04   1.942318e+10  -2.498310e+10  -9.744739e+07   1.474304e+05   7.755772e-30   0.000000e+00   0.000000e+00
      904000   9.039990e-08   9.062940e-02   5.743603e+00   6.283814e+00  -1.027858e+05  -7.967232e+04  -6.944863e+04   1.942717e+10  -2.497844e+10  -9.716291e+07   1.474304e+05   7.755169e-30   0.000000e+00   0.000000e+00
      912000   9.119990e-08   9.054718e-02   5.743540e+00   6.283759e+00  -1.027703e+05  -7.969230e+04  -6.944870e+04   1.943116e+10  -2.497378e+10  -9.687867e+07   1.474304e+05   7.754567e-30   0.000000e+00   0.000000e+00
      920000   9.199990e-08   9.046497e-02   5.743476e+00   6.283703e+00  -1.027547e+05  -7.971228e+04  -6.944878e+04   1.943515e+10  -2.496912e+10  -9.659465e+07   1.474304e+05   7.753964e-30   0.000000e+00   0.000000e+00
      928000   9.279990e-08   9.038277e-02   5.743412e+00   6.283648e+00  -1.027392e+05  -7.973225e+04  -6.944886e+04   1.943914e+10  -2.496446e+10  -9.631086e+07   1.474304e+05   7.753362e-30   0.000000e+00   0.000000e+00
      936000   9.359990e-08   9.030059e-02   5.743348e+00   6.283592e+00  -1.027236e+05  -7.975222e+04  -6.944893e+04   1.944312e+10  -2.495980e+10  -9.602731e+07   1.474304e+05   7.752760e-30   0.000000e+00   0.000000e+00
      944000   9.439990e-08   9.021841e-02   5.743285e+00   6.283536e+00  -1.027081e+05  -7.977219e+04  -6.944901e+04   1.944711e+10  -2.495513e+10  -9.574398e+07   1.474304e+05   7.752157e-30   0.000000e+00   0.000000e+00
      952000   9.519990e-08   9.013625e-02   5.743221e+00   6.283481e+00  -1.026925e+05  -7.979215e+04  -6.944909e+04   1.945109e+10  -2.495047e+10  -9.546088e+07   1.474304e+05   7.751555e-30   0.000000e+00   0.000000e+00
      960000   9.599990e-08   9.005410e-02   5.743157e+00   6.283425e+00  -1.026769e+05  -7.981211e+04  -6.944916e+04   1.945507e+10  -2.494581e+10  -9.517801e+07   1.474304e+05   7.750952e-30   0.000000e+00   0.000000e+00
      968000   9.679990e-08   8.997197e-02   5.743093e+00   6.283370e+00  -1.026614e+05  -7.983207e+04  -6.944924e+04   1.945906e+10  -2.494115e+10  -9.489537e+07   1.474304e+05   7.750350e-30   0.000000e+00   0.000000e+00
      976000   9.759990e-08   8.988985e-02   5.743029e+00   6.283314e+00  -1.026458e+05  -7.985202e+04  -6.944932e+04   1.946304e+10  -2.493648e+10  -9.461296e+07   1.474304e+05   7.749748e-30   0.000000e+00   0.000000e+00
      984000   9.839990e-08   8.980774e-02   5.742965e+00   6.283259e+00  -1.026302e+05  -7.987196e+04  -6.944939e+04   1.946701e+10  -2.493182e+10  -9.433077e+07   1.474304e+05   7.749146e-30   0.000000e+00   0.000000e+00
      992000   9.919990e-08   8.972564e-02   5.742901e+00   6.283203e+00  -1.026147e+05  -7.989191e+04  -6.944947e+04   1.947099e+10  -2.492715e+10  -9.404882e+07   1.474304e+05   7.748543e-30   0.000000e+00   0.000000e+00
     1000000   9.999990e-08   8.964355e-02   5.742837e+00   6.283148e+00  -1.025991e+05  -7.991185e+04  -6.944954e+04   1.947497e+10  -2.492249e+10  -9.376709e+07   1.474304e+05   7.747941e-30   0.000000e+00   0.000000e+00
     1008000   1.007999e-07   8.956148e-02   5.742773e+00   6.283092e+00  -1.025835e+05  -7.993178e+04  -6.944962e+04   1.947894e+10  -2.491782e+10  -9.348560e+07   1.474304e+05   7.747339e-30   0.000000e+00   0.000000e+00
     1016000   1.015999e-07   8.947942e-02   5.742710e+00   6.283036e+00  -1.025679e+05  -7.995172e+04  -6.944969e+04   1.948292e+10  -2.491315e+10  -9.320433e+07   1.474304e+05   7.746737e-30   0.000000e+00   0.000000e+00
     1024000   1.023999e-07   8.939737e-02   5.742646e+00   6.282981e+00  -1.025523e+05  -7.997164e+04  -6.944977e+04   1.948689e+10  -2.490849e+10  -9.292329e+07   1.474304e+05   7.746135e-30   0.000000e+00   0.000000e+00
     1032000   1.031999e-07   8.931534e-02   5.742582e+00   6.282925e+00  -1.025367e+05  -7.999157e+04  -6.944984e+04   1.949086e+10  -2.490382e+10  -9.264248e+07   1.474304e+05   7.745532e-30   0.000000e+00   0.000000e+00
     1040000   1.039999e-07   8.923331e-02   5.742518e+00   6.282870e+00  -1.025211e+05  -8.001149e+04  -6.944991e+04   1.949483e+10  -2.489915e+10  -9.236190e+07   1.474304e+05   7.744930e-30   0.000000e+00   0.000000e+00
     1048000   1.047999e-07   8.915130e-02   5.742454e+00   6.282814e+00  -1.025055e+05  -8.003141e+04  -6.944999e+04   1.949880e+10  -2.489448e+10  -9.208154e+07   1.474304e+05   7.744328e-30   0.000000e+00   0.000000e+00
     1056000   1.055999e-07   8.906930e-02   5.742389e+00   6.282759e+00  -1.024899e+05  -8.005132e+04  -6.945006e+04   1.950277e+10  -2.488981e+10  -9.180142e+07   1.474304e+05   7.743726e-30   0.000000e+00   0.000000e+00
     1064000   1.063999e-07   8.898732e-02   5.742325e+00   6.282703e+00  -1.024743e+05  -8.007123e+04  -6.945013e+04   1.950674e+10  -2.488514e+10  -9.152152e+07   1.474304e+05   7.743124e-30   0.000000e+00   0.000000e+00
     1072000   1.071999e-07   8.890534e-02   5.742261e+00   6.282648e+00  -1.024587e+05  -8.009114e+04  -6.945021e+04   1.951070e+10  -2.488047e+10  -9.124185e+07   1.474304e+05   7.742522e-30   0.000000e+00   0.000000e+00
     1080000   1.079999e-07   8.882338e-02   5.742197e+00   6.282592e+00  -1.024431e+05  -8.011104e+04  -6.945028e+04   1.951467e+10  -2.487580e+10  -9.096241e+07   1.474304e+05   7.741920e-30   0.000000e+00   0.000000e+00
     1088000   1.087999e-07   8.874144e-02   5.742133e+00   6.282536e+00  -1.024275e+05  -8.013094e+04  -6.945035e+04   1.951863e+10  -2.487113e+10  -9.068320e+07   1.474304e+05   7.741318e-30   0.000000e+00   0.000000e+00
     1096000   1.095999e-07   8.865950e-02   5.742069e+00   6.282481e+00  -1.024119e+05  -8.015083e+04  -6.945043e+04   1.952260e+10  -2.486646e+10  -9.040422e+07   1.474304e+05   7.740716e-30   0.000000e+00   0.000000e+00
     1104000   1.103999e-07   8.857758e-02   5.742005e+00   6.282425e+00  -1.023963e+05  -8.017073e+04  -6.945050e+04   1.952656e+10  -2.486179e+10  -9.012546e+07   1.474304e+05   7.740114e-30   0.000000e+00   0.000000e+00
     1112000   1.111999e-07   8.849567e-02   5.741941e+00   6.282370e+00  -1.023807e+05  -8.019061e+04  -6.945057e+04   1.953052e+10  -2.485711e+10  -8.984694e+07   1.474304e+05   7.739513e-30   0.000000e+00   0.000000e+00
     1120000   1.119999e-07   8.841377e-02   5.741877e+00   6.282314e+00  -1.023650e+05  -8.021050e+04  -6.945064e+04   1.953448e+10  -2.485244e+10  -8.956864e+07   1.474304e+05   7.738911e-30   0.000000e+00   0.000000e+00
     1128000   1.127999e-07   8.833188e-02   5.741812e+00   6.282259e+00  -1.023494e+05  -8.023038e+04  -6.945071e+04   1.953843e+10  -2.484777e+10  -8.929057e+07   1.474304e+05   7.738309e-30   0.000000e+00   0.000000e+00
     1136000   1.135999e-07   8.825001e-02   5.741748e+00   6.282203e+00  -1.023338e+05  -8.025025e+04  -6.945078e+04   1.954239e+10  -2.484309e+10  -8.901273e+07   1.474304e+05   7.737707e-30   0.000000e+00   0.000000e+00
     1144000   1.143999e-07   8.816815e-02   5.741684e+00   6.282147e+00  -1.023181e+05  -8.027013e+04  -6.945086e+04   1.954635e+10  -2.483842e+10  -8.873511e+07   1.474304e+05   7.737105e-30   0.000000e+00   0.000000e+00
     1152000   1.151999e-07   8.808630e-02   5.741620e+00   6.282092e+00  -1.023025e+05  -8.029000e+04  -6.945093e+04   1.955030e+10  -2.483374e+10  -8.845773e+07   1.474304e+05   7.736504e-30   0.000000e+00   0.000000e+00
     1160000   1.159999e-07   8.800446e-02   5.741556e+00   6.282036e+00  -1.022868e+05  -8.030986e+04  -6.945100e+04   1.955425e+10  -2.482907e+10  -8.818057e+07   1.474304e+05   7.735902e-30   0.000000e+00   0.000000e+00
     1168000   1.167999e-07   8.792264e-02   5.741491e+00   6.281981e+00  -1.022712e+05  -8.032972e+04  -6.945107e+04   1.955820e+10  -2.482439e+10  -8.790364e+07   1.474304e+05   7.735300e-30   0.000000e+00   0.000000e+00
     1176000   1.175999e-07   8.784083e-02   5.741427e+00   6.281925e+00  -1.022556e+05  -8.034958e+04  -6.945114e+04   1.956216e+10  -2.481971e+10  -8.762694e+07   1.474304e+05   7.734699e-30   0.000000e+00   0.000000e+00
     1184000   1.183999e-07   8.775903e-02   5.741363e+00   6.281870e+00  -1.022399e+05  -8.036943e+04  -6.945121e+04   1.956610e+10  -2.481503e+10  -8.735046e+07   1.474304e+05   7.734097e-30   0.000000e+00   0.000000e+00
     1192000   1.191999e-07   8.767725e-02   5.741299e+00   6.281814e+00  -1.022243e+05  -8.038928e+04  -6.945128e+04   1.957005e+10  -2.481036e+10  -8.707422e+07   1.474304e+05   7.733495e-30   0.000000e+00   0.000000e+00
     1200000   1.199999e-07   8.759547e-02   5.741234e+00   6.281759e+00  -1.022086e+05  -8.040913e+04  -6.945135e+04   1.957400e+10  -2.480568e+10  -8.679820e+07   1.474304e+05   7.732894e-30   0.000000e+00   0.000000e+00
     1208000   1.207999e-07   8.751371e-02   5.741170e+00   6.281703e+00  -1.021929e+05  -8.042897e+04  -6.945142e+04   1.957795e+10  -2.480100e+10  -8.652241e+07   1.474304e+05   7.732292e-30   0.000000e+00   0.000000e+00
     1216000   1.215999e-07   8.743196e-02   5.741105e+00   6.281647e+00  -1.021773e+05  -8.044881e+04  -6.945149e+04   1.958189e+10  -2.479632e+10  -8.624684e+07   1.474304e+05   7.731690e-30   0.000000e+00   0.000000e+00
     1224000   1.223999e-07   8.735023e-02   5.741041e+00   6.281592e+00  -1.021616e+05  -8.046865e+04  -6.945155e+04   1.958584e+10  -2.479164e+10  -8.597151e+07   1.474304e+05   7.731089e-30   0.000000e+00   0.000000e+00
     1232000   1.231999e-07   8.726851e-02   5.740977e+00   6.281536e+00  -1.021459e+05  -8.048848e+04  -6.945162e+04   1.958978e+10  -2.478696e+10  -8.569640e+07   1.474304e+05   7.730487e-30   0.000000e+00   0.000000e+00
     1240000   1.239999e-07   8.718679e-02   5.740912e+00   6.281481e+00  -1.021303e+05  -8.050831e+04  -6.945169e+04   1.959372e+10  -2.478228e+10  -8.542152e+07   1.474304e+05   7.729886e-30   0.000000e+00   0.000000e+00
     1248000   1.247999e-07   8.710510e-02   5.740848e+00   6.281425e+00  -1.021146e+05  -8.052813e+04  -6.945176e+04   1.959766e+10  -2.477759e+10  -8.514686e+07   1.474304e+05   7.729285e-30   0.000000e+00   0.000000e+00
     1256000   1.255999e-07   8.702341e-02   5.740784e+00   6.281370e+00  -1.020989e+05  -8.054795e+04  -6.945183e+04   1.960160e+10  -2.477291e+10  -8.487244e+07   1.474304e+05   7.728683e-30   0.000000e+00   0.000000e+00
     1264000   1.263999e-07   8.694174e-02   5.740719e+00   6.281314e+00  -1.020832e+05  -8.056777e+04  -6.945190e+04   1.960554e+10  -2.476823e+10  -8.459824e+07   1.474304e+05   7.728082e-30   0.000000e+00   0.000000e+00
     1272000   1.271999e-07   8.686008e-02   5.740655e+00   6.281259e+00  -1.020675e+05  -8.058758e+04  -6.945196e+04   1.960947e+10  -2.476354e+10  -8.432427e+07   1.474304e+05   7.727480e-30   0.000000e+00   0.000000e+00
     1280000   1.279999e-07   8.677843e-02   5.740590e+00   6.281203e+00  -1.020518e+05  -8.060739e+04  -6.945203e+04   1.961341e+10  -2.475886e+10  -8.405052e+07   1.474304e+05   7.726879e-30   0.000000e+00   0.000000e+00
     1288000   1.287999e-07   8.669680e-02   5.740526e+00   6.281147e+00  -1.020362e+05  -8.062719e+04  -6.945210e+04   1.961734e+10  -2.475418e+10  -8.377701e+07   1.474304e+05   7.726278e-30   0.000000e+00   0.000000e+00
     1296000   1.295999e-07   8.661517e-02   5.740461e+00   6.281092e+00  -1.020205e+05  -8.064699e+04  -6.945216e+04   1.962128e+10  -2.474949e+10  -8.350372e+07   1.474304e+05   7.725676e-30   0.000000e+00   0.000000e+00
     1304000   1.303999e-07   8.653356e-02   5.740397e+00   6.281036e+00  -1.020048e+05  -8.066679e+04  -6.945223e+04   1.962521e+10  -2.474481e+10  -8.323066e+07   1.474304e+05   7.725075e-30   0.000000e+00   0.000000e+00
     1312000   1.311999e-07   8.645197e-02   5.740332e+00   6.280981e+00  -1.019891e+05  -8.068659e+04  -6.945230e+04   1.962914e+10  -2.474012e+10  -8.295782e+07   1.474304e+05   7.724474e-30   0.000000e+00   0.000000e+00
     1320000   1.319999e-07   8.637038e-02   5.740267e+00   6.280925e+00  -1.019733e+05  -8.070638e+04  -6.945236e+04   1.963307e+10  -2.473543e+10  -8.268521e+07   1.474304e+05   7.723873e-30   0.000000e+00   0.000000e+00
     1328000   1.327999e-07   8.628881e-02   5.740203e+00   6.280870e+00  -1.019576e+05  -8.072616e+04  -6.945243e+04   1.963700e+10  -2.473075e+10  -8.241283e+07   1.474304e+05   7.723271e-30   0.000000e+00   0.000000e+00
     1336000   1.335999e-07   8.620725e-02   5.740138e+00   6.280814e+00  -1.019419e+05  -8.074595e+04  -6.945250e+04   1.964092e+10  -2.472606e+10  -8.214068e+07   1.474304e+05   7.722670e-30   0.000000e+00   0.000000e+00
     1344000   1.343999e-07   8.612570e-02   5.740074e+00   6.280758e+00  -1.019262e+05  -8.076572e+04  -6.945256e+04   1.964485e+10  -2.472137e+10  -8.186875e+07   1.474304e+05   7.722069e-30   0.000000e+00   0.000000e+00
     1352000   1.351999e-07   8.604417e-02   5.740009e+00   6.280703e+00  -1.019105e+05  -8.078550e+04  -6.945263e+04   1.964878e+10  -2.471668e+10  -8.159705e+07   1.474304e+05   7.721468e-30   0.000000e+00   0.000000e+00
     1360000   1.359999e-07   8.596264e-02   5.739944e+00   6.280647e+00  -1.018948e+05  -8.080527e+04  -6.945269e+04   1.965270e+10  -2.471199e+10  -8.132558e+07   1.474304e+05   7.720867e-30   0.000000e+00   0.000000e+00
     1368000   1.367999e-07   8.588113e-02   5.739880e+00   6.280592e+00  -1.018791e+05  -8.082504e+04  -6.945276e+04   1.965662e+10  -2.470730e+10  -8.105433e+07   1.474304e+05   7.720266e-30   0.000000e+00   0.000000e+00
     1376000   1.375999e-07   8.579964e-02   5.739815e+00   6.280536e+00  -1.018633e+05  -8.084480e+04  -6.945282e+04   1.966054e+10  -2.470261e+10  -8.078331e+07   1.474304e+05   7.719665e-30   0.000000e+00   0.000000e+00
     1384000   1.383999e-07   8.571815e-02   5.739750e+00   6.280481e+00  -1.018476e+05  -8.086456e+04  -6.945289e+04   1.966446e+10  -2.469792e+10  -8.051252e+07   1.474304e+05   7.719064e-30   0.000000e+00   0.000000e+00
     1392000   1.391999e-07   8.563668e-02   5.739686e+00   6.280425e+00  -1.018319e+05  -8.088432e+04  -6.945295e+04   1.966838e+10  -2.469323e+10  -8.024195e+07   1.474304e+05   7.718463e-30   0.000000e+00   0.000000e+00
     1400000   1.399999e-07   8.555522e-02   5.739621e+00   6.280370e+00  -1.018161e+05  -8.090407e+04  -6.945301e+04   1.967230e+10  -2.468854e+10  -7.997161e+07   1.474304e+05   7.717862e-30   0.000000e+00   0.000000e+00
     1408000   1.407999e-07   8.547378e-02   5.739556e+00   6.280314e+00  -1.018004e+05  -8.092382e+04  -6.945308e+04   1.967622e+10  -2.468385e+10  -7.970150e+07   1.474304e+05   7.717261e-30   0.000000e+00   0.000000e+00
     1416000   1.415999e-07   8.539234e-02   5.739492e+00   6.280258e+00  -1.017846e+05  -8.094357e+04  -6.945314e+04   1.968013e+10  -2.467915e+10  -7.943161e+07   1.474304e+05   7.716660e-30   0.000000e+00   0.000000e+00
     1424000   1.423999e-07   8.531092e-02   5.739427e+00   6.280203e+00  -1.017689e+05  -8.096331e+04  -6.945321e+04   1.968405e+10  -2.467446e+10  -7.916195e+07   1.474304e+05   7.716059e-30   0.000000e+00   0.000000e+00
     1432000   1.431999e-07   8.522951e-02   5.739362e+00   6.280147e+00  -1.017532e+05  -8.098305e+04  -6.945327e+04   1.968796e+10  -2.466977e+10  -7.889252e+07   1.474304e+05   7.715458e-30   0.000000e+00   0.000000e+00
     1440000   1.439999e-07   8.514812e-02   5.739297e+00   6.280092e+00  -1.017374e+05  -8.100278e+04  -6.945333e+04   1.969187e+10  -2.466507e+10  -7.862331e+07   1.474304e+05   7.714857e-30   0.000000e+00   0.000000e+00
     1448000   1.447999e-07   8.506673e-02   5.739232e+00   6.280036e+00  -1.017216e+05  -8.102251e+04  -6.945339e+04   1.969578e+10  -2.466038e+10  -7.835433e+07   1.474304e+05   7.714256e-30   0.000000e+00   0.000000e+00
     1456000   1.455999e-07   8.498536e-02   5.739168e+00   6.279981e+00  -1.017059e+05  -8.104224e+04  -6.945346e+04   1.969969e+10  -2.465568e+10  -7.808558e+07   1.474304e+05   7.713656e-30   0.000000e+00   0.000000e+00
     1464000   1.463999e-07   8.490400e-02   5.739103e+00   6.279925e+00  -1.016901e+05  -8.106196e+04  -6.945352e+04   1.970360e+10  -2.465099e+10  -7.781705e+07   1.474304e+05   7.713055e-30   0.000000e+00   0.000000e+00
     1472000   1.471999e-07   8.482266e-02   5.739038e+00   6.279869e+00  -1.016744e+05  -8.108168e+04  -6.945358e+04   1.970751e+10  -2.464629e+10  -7.754875e+07   1.474304e+05   7.712454e-30   0.000000e+00   0.000000e+00
     1480000   1.479999e-07   8.474132e-02   5.738973e+00   6.279814e+00  -1.016586e+05  -8.110139e+04  -6.945364e+04   1.971142e+10  -2.464159e+10  -7.728067e+07   1.474304e+05   7.711853e-30   0.000000e+00   0.000000e+00
     1488000   1.487999e-07   8.466000e-02   5.738908e+00   6.279758e+00  -1.016428e+05  -8.112110e+04  -6.945371e+04   1.971532e+10  -2.463689e+10  -7.701282e+07   1.474304e+05   7.711253e-30   0.000000e+00   0.000000e+00
     1496000   1.495999e-07   8.457869e-02   5.738843e+00   6.279703e+00  -1.016270e+05  -8.114081e+04  -6.945377e+04   1.971922e+10  -2.463220e+10  -7.674520e+07   1.474304e+05   7.710652e-30   0.000000e+00   0.000000e+00
     1504000   1.503999e-07   8.449740e-02   5.738778e+00   6.279647e+00  -1.016113e+05  -8.116052e+04  -6.945383e+04   1.972313e+10  -2.462750e+10  -7.647780e+07   1.474304e+05   7.710051e-30   0.000000e+00   0.000000e+00
     1512000   1.511999e-07   8.441612e-02   5.738713e+00   6.279592e+00  -1.015955e+05  -8.118022e+04  -6.945389e+04   1.972703e+10  -2.462280e+10  -7.621063e+07   1.474304e+05   7.709451e-30   0.000000e+00   0.000000e+00
     1520000   1.519999e-07   8.433485e-02   5.738648e+00   6.279536e+00  -1.015797e+05  -8.119991e+04  -6.945395e+04   1.973093e+10  -2.461810e+10  -7.594369e+07   1.474304e+05   7.708850e-30   0.000000e+00   0.000000e+00
     1528000   1.527999e-07   8.425359e-02   5.738583e+00   6.279481e+00  -1.015639e+05  -8.121960e+04  -6.945401e+04   1.973483e+10  -2.461340e+10  -7.567697e+07   1.474304e+05   7.708250e-30   0.000000e+00   0.000000e+00
     1536000   1.535999e-07   8.417234e-02   5.738518e+00   6.279425e+00  -1.015481e+05  -8.123929e+04  -6.945407e+04   1.973873e+10  -2.460870e+10  -7.541047e+07   1.474304e+05   7.707649e-30   0.000000e+00   0.000000e+00
     1544000   1.543999e-07   8.409111e-02   5.738453e+00   6.279369e+00  -1.015323e+05  -8.125898e+04  -6.945413e+04   1.974262e+10  -2.460400e+10  -7.514421e+07   1.474304e+05   7.707049e-30   0.000000e+00   0.000000e+00
     1552000   1.551999e-07   8.400989e-02   5.738388e+00   6.279314e+00  -1.015165e+05  -8.127866e+04  -6.945419e+04   1.974652e+10  -2.459930e+10  -7.487816e+07   1.474304e+05   7.706448e-30   0.000000e+00   0.000000e+00
     1560000   1.559999e-07   8.392869e-02   5.738323e+00   6.279258e+00  -1.015007e+05  -8.129834e+04  -6.945425e+04   1.975041e+10  -2.459459e+10  -7.461235e+07   1.474304e+05   7.705848e-30   0.000000e+00   0.000000e+00
     1568000   1.567999e-07   8.384749e-02   5.738258e+00   6.279203e+00  -1.014849e+05  -8.131801e+04  -6.945431e+04   1.975431e+10  -2.458989e+10  -7.434676e+07   1.474304e+05   7.705247e-30   0.000000e+00   0.000000e+00
     1576000   1.575999e-07   8.376631e-02   5.738193e+00   6.279147e+00  -1.014691e+05  -8.133768e+04  -6.945437e+04   1.975820e+10  -2.458519e+10  -7.408139e+07   1.474304e+05   7.704647e-30   0.000000e+00   0.000000e+00
     1584000   1.583999e-07   8.368514e-02   5.738128e+00   6.279092e+00  -1.014533e+05  -8.135735e+04  -6.945443e+04   1.976209e+10  -2.458049e+10  -7.381625e+07   1.474304e+05   7.704046e-30   0.000000e+00   0.000000e+00
     1592000   1.591999e-07   8.360398e-02   5.738063e+00   6.279036e+00  -1.014375e+05  -8.137701e+04  -6.945449e+04   1.976598e+10  -2.457578e+10  -7.355134e+07   1.474304e+05   7.703446e-30   0.000000e+00   0.000000e+00
     1600000   1.599999e-07   8.352284e-02   5.737998e+00   6.278980e+00  -1.014217e+05  -8.139667e+04  -6.945455e+04   1.976987e+10  -2.457108e+10  -7.328665e+07   1.474304e+05   7.702846e-30   0.000000e+00   0.000000e+00
     1608000   1.607999e-07   8.344171e-02   5.737933e+00   6.278925e+00  -1.014059e+05  -8.141632e+04  -6.945461e+04   1.977376e+10  -2.456637e+10  -7.302219e+07   1.474304e+05   7.702245e-30   0.000000e+00   0.000000e+00
     1616000   1.615999e-07   8.336059e-02   5.737868e+00   6.278869e+00  -1.013901e+05  -8.143598e+04  -6.945466e+04   1.977764e+10  -2.456167e+10  -7.275795e+07   1.474304e+05   7.701645e-30   0.000000e+00   0.000000e+00
     1624000   1.623999e-07   8.327949e-02   5.737803e+00   6.278814e+00  -1.013742e+05  -8.145562e+04  -6.945472e+04   1.978153e+10  -2.455696e+10  -7.249394e+07   1.474304e+05   7.701045e-30   0.000000e+00   0.000000e+00
     1632000   1.631999e-07   8.319839e-02   5.737737e+00   6.278758e+00  -1.013584e+05  -8.147527e+04  -6.945478e+04   1.978541e+10  -2.455225e+10  -7.223015e+07   1.474304e+05   7.700445e-30   0.000000e+00   0.000000e+00
     1640000   1.639999e-07   8.311731e-02   5.737672e+00   6.278703e+00  -1.013426e+05  -8.149491e+04  -6.945484e+04   1.978929e+10  -2.454755e+10  -7.196659e+07   1.474304e+05   7.699844e-30   0.000000e+00   0.000000e+00
     1648000   1.647999e-07   8.303624e-02   5.737607e+00   6.278647e+00  -1.013268e+05  -8.151454e+04  -6.945489e+04   1.979318e+10  -2.454284e+10  -7.170326e+07   1.474304e+05   7.699244e-30   0.000000e+00   0.000000e+00
     1656000   1.655999e-07   8.295519e-02   5.737542e+00   6.278591e+00  -1.013109e+05  -8.153417e+04  -6.945495e+04   1.979706e+10  -2.453813e+10  -7.144015e+07   1.474304e+05   7.698644e-30   0.000000e+00   0.000000e+00
     1664000   1.663999e-07   8.287415e-02   5.737477e+00   6.278536e+00  -1.012951e+05  -8.155380e+04  -6.945501e+04   1.980094e+10  -2.453342e+10  -7.117726e+07   1.474304e+05   7.698044e-30   0.000000e+00   0.000000e+00
     1672000   1.671999e-07   8.279312e-02   5.737411e+00   6.278480e+00  -1.012792e+05  -8.157343e+04  -6.945507e+04   1.980481e+10  -2.452871e+10  -7.091460e+07   1.474304e+05   7.697444e-30   0.000000e+00   0.000000e+00
     1680000   1.679999e-07   8.271210e-02   5.737346e+00   6.278425e+00  -1.012634e+05  -8.159305e+04  -6.945512e+04   1.980869e+10  -2.452400e+10  -7.065216e+07   1.474304e+05   7.696844e-30   0.000000e+00   0.000000e+00
     1688000   1.687999e-07   8.263110e-02   5.737281e+00   6.278369e+00  -1.012475e+05  -8.161267e+04  -6.945518e+04   1.981257e+10  -2.451929e+10  -7.038995e+07   1.474304e+05   7.696244e-30   0.000000e+00   0.000000e+00
     1696000   1.695999e-07   8.255010e-02   5.737215e+00   6.278314e+00  -1.012317e+05  -8.163228e+04  -6.945524e+04   1.981644e+10  -2.451458e+10  -7.012797e+07   1.474304e+05   7.695644e-30   0.000000e+00   0.000000e+00
     1704000   1.703999e-07   8.246912e-02   5.737150e+00   6.278258e+00  -1.012158e+05  -8.165189e+04  -6.945529e+04   1.982031e+10  -2.450987e+10  -6.986621e+07   1.474304e+05   7.695044e-30   0.000000e+00   0.000000e+00
     1712000   1.711999e-07   8.238816e-02   5.737085e+00   6.278203e+00  -1.012000e+05  -8.167150e+04  -6.945535e+04   1.982419e+10  -2.450516e+10  -6.960467e+07   1.474304e+05   7.694444e-30   0.000000e+00   0.000000e+00
     1720000   1.719999e-07   8.230720e-02   5.737020e+00   6.278147e+00  -1.011841e+05  -8.169110e+04  -6.945540e+04   1.982806e+10  -2.450045e+10  -6.934336e+07   1.474304e+05   7.693844e-30   0.000000e+00   0.000000e+00
     1728000   1.727999e-07   8.222626e-02   5.736954e+00   6.278091e+00  -1.011683e+05  -8.171070e+04  -6.945546e+04   1.983193e+10  -2.449573e+10  -6.908228e+07   1.474304e+05   7.693244e-30   0.000000e+00   0.000000e+00
     1736000   1.735999e-07   8.214534e-02   5.736889e+00   6.278036e+00  -1.011524e+05  -8.173029e+04  -6.945551e+04   1.983580e+10  -2.449102e+10  -6.882142e+07   1.474304e+05   7.692644e-30   0.000000e+00   0.000000e+00
     1744000   1.743999e-07   8.206442e-02   5.736823e+00   6.277980e+00  -1.011365e+05  -8.174988e+04  -6.945557e+04   1.983966e+10  -2.448631e+10  -6.856078e+07   1.474304e+05   7.692044e-30   0.000000e+00   0.000000e+00
     1752000   1.751999e-07   8.198352e-02   5.736758e+00   6.277925e+00  -1.011206e+05  -8.176947e+04  -6.945562e+04   1.984353e+10  -2.448159e+10  -6.830037e+07   1.474304e+05   7.691444e-30   0.000000e+00   0.000000e+00
     1760000   1.759999e-07   8.190263e-02   5.736693e+00   6.277869e+00  -1.011048e+05  -8.178905e+04  -6.945568e+04   1.984740e+10  -2.447688e+10  -6.804018e+07   1.474304e+05   7.690845e-30   0.000000e+00   0.000000e+00
     1768000   1.767999e-07   8.182175e-02   5.736627e+00   6.277814e+00  -1.010889e+05  -8.180863e+04  -6.945573e+04   1.985126e+10  -2.447216e+10  -6.778022e+07   1.474304e+05   7.690245e-30   0.000000e+00   0.000000e+00
     1776000   1.775999e-07   8.174088e-02   5.736562e+00   6.277758e+00  -1.010730e+05  -8.182821e+04  -6.945579e+04   1.985512e+10  -2.446745e+10  -6.752048e+07   1.474304e+05   7.689645e-30   0.000000e+00   0.000000e+00
     1784000   1.783999e-07   8.166003e-02   5.736496e+00   6.277702e+00  -1.010571e+05  -8.184778e+04  -6.945584e+04   1.985898e+10  -2.446273e+10  -6.726097e+07   1.474304e+05   7.689045e-30   0.000000e+00   0.000000e+00
     1792000   1.791999e-07   8.157919e-02   5.736431e+00   6.277647e+00  -1.010412e+05  -8.186735e+04  -6.945589e+04   1.986285e+10  -2.445801e+10  -6.700168e+07   1.474304e+05   7.688446e-30   0.000000e+00   0.000000e+00
     1800000   1.799999e-07   8.149837e-02   5.736365e+00   6.277591e+00  -1.010253e+05  -8.188691e+04  -6.945595e+04   1.986670e+10  -2.445330e+10  -6.674261e+07   1.474304e+05   7.687846e-30   0.000000e+00   0.000000e+00
     1808000   1.807999e-07   8.141755e-02   5.736300e+00   6.277536e+00  -1.010094e+05  -8.190647e+04  -6.945600e+04   1.987056e+10  -2.444858e+10  -6.648377e+07   1.474304e+05   7.687246e-30   0.000000e+00   0.000000e+00
     1816000   1.815999e-07   8.133675e-02   5.736234e+00   6.277480e+00  -1.009935e+05  -8.192603e+04  -6.945605e+04   1.987442e+10  -2.444386e+10  -6.622516e+07   1.474304e+05   7.686647e-30   0.000000e+00   0.000000e+00
     1824000   1.823999e-07   8.125596e-02   5.736169e+00   6.277425e+00  -1.009776e+05  -8.194558e+04  -6.945611e+04   1.987828e+10  -2.443914e+10  -6.596676e+07   1.474304e+05   7.686047e-30   0.000000e+00   0.000000e+00
     1832000   1.831999e-07   8.117519e-02   5.736103e+00   6.277369e+00  -1.009617e+05  -8.196513e+04  -6.945616e+04   1.988213e+10  -2.443442e+10  -6.570860e+07   1.474304e+05   7.685448e-30   0.000000e+00   0.000000e+00
     1840000   1.839999e-07   8.109442e-02   5.736037e+00   6.277314e+00  -1.009458e+05  -8.198468e+04  -6.945621e+04   1.988598e+10  -2.442970e+10  -6.545065e+07   1.474304e+05   7.684848e-30   0.000000e+00   0.000000e+00
     1848000   1.847999e-07   8.101367e-02   5.735972e+00   6.277258e+00  -1.009299e+05  -8.200422e+04  -6.945626e+04   1.988984e+10  -2.442498e+10  -6.519293e+07   1.474304e+05   7.684249e-30   0.000000e+00   0.000000e+00
     1856000   1.855999e-07   8.093294e-02   5.735906e+00   6.277202e+00  -1.009140e+05  -8.202376e+04  -6.945632e+04   1.989369e+10  -2.442026e+10  -6.493544e+07   1.474304e+05   7.683649e-30   0.000000e+00   0.000000e+00
     1864000   1.863999e-07   8.085221e-02   5.735841e+00   6.277147e+00  -1.008981e+05  -8.204329e+04  -6.945637e+04   1.989754e+10  -2.441554e+10  -6.467817e+07   1.474304e+05   7.683050e-30   0.000000e+00   0.000000e+00
     1872000   1.871999e-07   8.077150e-02   5.735775e+00   6.277091e+00  -1.008822e+05  -8.206282e+04  -6.945642e+04   1.990139e+10  -2.441082e+10  -6.442112e+07   1.474304e+05   7.682450e-30   0.000000e+00   0.000000e+00
     1880000   1.879999e-07   8.069080e-02   5.735709e+00   6.277036e+00  -1.008663e+05  -8.208235e+04  -6.945647e+04   1.990523e+10  -2.440610e+10  -6.416429e+07   1.474304e+05   7.681851e-30   0.000000e+00   0.000000e+00
     1888000   1.887999e-07   8.061011e-02   5.735644e+00   6.276980e+00  -1.008503e+05  -8.210187e+04  -6.945652e+04   1.990908e+10  -2.440137e+10  -6.390770e+07   1.474304e+05   7.681251e-30   0.000000e+00   0.000000e+00
     1896000   1.895999e-07   8.052944e-02   5.735578e+00   6.276925e+00  -1.008344e+05  -8.212139e+04  -6.945657e+04   1.991293e+10  -2.439665e+10  -6.365132e+07   1.474304e+05   7.680652e-30   0.000000e+00   0.000000e+00
     1904000   1.903999e-07   8.044878e-02   5.735512e+00   6.276869e+00  -1.008185e+05  -8.214091e+04  -6.945662e+04   1.991677e+10  -2.439193e+10  -6.339517e+07   1.474304e+05   7.680053e-30   0.000000e+00   0.000000e+00
     1912000   1.911999e-07   8.036813e-02   5.735447e+00   6.276813e+00  -1.008025e+05  -8.216042e+04  -6.945667e+04   1.992061e+10  -2.438720e+10  -6.313924e+07   1.474304e+05   7.679453e-30   0.000000e+00   0.000000e+00
     1920000   1.919999e-07   8.028749e-02   5.735381e+00   6.276758e+00  -1.007866e+05  -8.217993e+04  -6.945672e+04   1.992445e+10  -2.438248e+10  -6.288353e+07   1.474304e+05   7.678854e-30   0.000000e+00   0.000000e+00
     1928000   1.927999e-07   8.020687e-02   5.735315e+00   6.276702e+00  -1.007707e+05  -8.219943e+04  -6.945677e+04   1.992830e+10  -2.437775e+10  -6.262805e+07   1.474304e+05   7.678255e-30   0.000000e+00   0.000000e+00
     1936000   1.935999e-07   8.012626e-02   5.735249e+00   6.276647e+00  -1.007547e+05  -8.221893e+04  -6.945682e+04   1.993213e+10  -2.437303e+10  -6.237280e+07   1.474304e+05   7.677656e-30   0.000000e+00   0.000000e+00
     1944000   1.943999e-07   8.004566e-02   5.735183e+00   6.276591e+00  -1.007388e+05  -8.223843e+04  -6.945687e+04   1.993597e+10  -2.436830e+10  -6.211776e+07   1.474304e+05   7.677057e-30   0.000000e+00   0.000000e+00
     1952000   1.951999e-07   7.996508e-02   5.735118e+00   6.276536e+00  -1.007228e+05  -8.225792e+04  -6.945692e+04   1.993981e+10  -2.436357e+10  -6.186295e+07   1.474304e+05   7.676457e-30   0.000000e+00   0.000000e+00
     1960000   1.959999e-07   7.988451e-02   5.735052e+00   6.276480e+00  -1.007069e+05  -8.227741e+04  -6.945697e+04   1.994365e+10  -2.435885e+10  -6.160837e+07   1.474304e+05   7.675858e-30   0.000000e+00   0.000000e+00
     1968000   1.967999e-07   7.980395e-02   5.734986e+00   6.276424e+00  -1.006909e+05  -8.229690e+04  -6.945702e+04   1.994748e+10  -2.435412e+10  -6.135400e+07   1.474304e+05   7.675259e-30   0.000000e+00   0.000000e+00
     1976000   1.975999e-07   7.972340e-02   5.734920e+00   6.276369e+00  -1.006749e+05  -8.231638e+04  -6.945707e+04   1.995131e+10  -2.434939e+10  -6.109986e+07   1.474304e+05   7.674660e-30   0.000000e+00   0.000000e+00
     1984000   1.983999e-07   7.964287e-02   5.734854e+00   6.276313e+00  -1.006590e+05  -8.233585e+04  -6.945712e+04   1.995515e+10  -2.434466e+10  -6.084595e+07   1.474304e+05   7.674061e-30   0.000000e+00   0.000000e+00
     1992000   1.991999e-07   7.956235e-02   5.734788e+00   6.276258e+00  -1.006430e+05  -8.235533e+04  -6.945717e+04   1.995898e+10  -2.433993e+10  -6.059225e+07   1.474304e+05   7.673462e-30   0.000000e+00   0.000000e+00
     2000000   1.999999e-07   7.948184e-02   5.734723e+00   6.276202e+00  -1.006270e+05  -8.237480e+04  -6.945722e+04   1.996281e+10  -2.433520e+10  -6.033878e+07   1.474304e+05   7.672863e-30   0.000000e+00   0.000000e+00
     2008000   2.007999e-07   7.940134e-02   5.734657e+00   6.276147e+00  -1.006111e+05  -8.239427e+04  -6.945727e+04   1.996664e+10  -2.433047e+10  -6.008554e+07   1.474304e+05   7.672264e-30   0.000000e+00   0.000000e+00
     2016000   2.015999e-07   7.932086e-02   5.734591e+00   6.276091e+00  -1.005951e+05  -8.241373e+04  -6.945731e+04   1.997047e+10  -2.432574e+10  -5.983251e+07   1.474304e+05   7.671665e-30   0.000000e+00   0.000000e+00
     2024000   2.023999e-07   7.924039e-02   5.734525e+00   6.276036e+00  -1.005791e+05  -8.243319e+04  -6.945736e+04   1.997429e+10  -2.432101e+10  -5.957971e+07   1.474304e+05   7.671066e-30   0.000000e+00   0.000000e+00
     2032000   2.031999e-07   7.915994e-02   5.734459e+00   6.275980e+00  -1.005631e+05  -8.245264e+04  -6.945741e+04   1.997812e+10  -2.431628e+10  -5.932713e+07   1.474304e+05   7.670467e-30   0.000000e+00   0.000000e+00
     2040000   2.039999e-07   7.907949e-02   5.734393e+00   6.275924e+00  -1.005472e+05  -8.247209e+04  -6.945746e+04   1.998194e+10  -2.431155e+10  -5.907478e+07   1.474304e+05   7.669868e-30   0.000000e+00   0.000000e+00
     2048000   2.047999e-07   7.899906e-02   5.734327e+00   6.275869e+00  -1.005312e+05  -8.249154e+04  -6.945750e+04   1.998576e+10  -2.430682e+10  -5.882265e+07   1.474304e+05   7.669270e-30   0.000000e+00   0.000000e+00
     2056000   2.055999e-07   7.891864e-02   5.734261e+00   6.275813e+00  -1.005152e+05  -8.251098e+04  -6.945755e+04   1.998959e+10  -2.430208e+10  -5.857074e+07   1.474304e+05   7.668671e-30   0.000000e+00   0.000000e+00
     2064000   2.063999e-07   7.883824e-02   5.734195e+00   6.275758e+00  -1.004992e+05  -8.253042e+04  -6.945760e+04   1.999341e+10  -2.429735e+10  -5.831905e+07   1.474304e+05   7.668072e-30   0.000000e+00   0.000000e+00
     2072000   2.071999e-07   7.875784e-02   5.734129e+00   6.275702e+00  -1.004832e+05  -8.254986e+04  -6.945764e+04   1.999723e+10  -2.429261e+10  -5.806759e+07   1.474304e+05   7.667473e-30   0.000000e+00   0.000000e+00
     2080000   2.079999e-07   7.867746e-02   5.734063e+00   6.275647e+00  -1.004672e+05  -8.256929e+04  -6.945769e+04   2.000104e+10  -2.428788e+10  -5.781635e+07   1.474304e+05   7.666874e-30   0.000000e+00   0.000000e+00
     2088000   2.087999e-07   7.859710e-02   5.733997e+00   6.275591e+00  -1.004512e+05  -8.258872e+04  -6.945774e+04   2.000486e+10  -2.428314e+10  -5.756533e+07   1.474304e+05   7.666276e-30   0.000000e+00   0.000000e+00
     2096000   2.095999e-07   7.851674e-02   5.733931e+00   6.275535e+00  -1.004352e+05  -8.260814e+04  -6.945778e+04   2.000868e+10  -2.427841e+10  -5.731454e+07   1.474304e+05   7.665677e-30   0.000000e+00   0.000000e+00
     2104000   2.103999e-07   7.843640e-02   5.733865e+00   6.275480e+00  -1.004192e+05  -8.262757e+04  -6.945783e+04   2.001249e+10  -2.427367e+10  -5.706396e+07   1.474304e+05   7.665078e-30   0.000000e+00   0.000000e+00
     2112000   2.111999e-07   7.835607e-02   5.733798e+00   6.275424e+00  -1.004032e+05  -8.264698e+04  -6.945787e+04   2.001631e+10  -2.426894e+10  -5.681361e+07   1.474304e+05   7.664480e-30   0.000000e+00   0.000000e+00
     2120000   2.119999e-07   7.827575e-02   5.733732e+00   6.275369e+00  -1.003871e+05  -8.266640e+04  -6.945792e+04   2.002012e+10  -2.426420e+10  -5.656349e+07   1.474304e+05   7.663881e-30   0.000000e+00   0.000000e+00
     2128000   2.127999e-07   7.819545e-02   5.733666e+00   6.275313e+00  -1.003711e+05  -8.268580e+04  -6.945796e+04   2.002393e+10  -2.425946e+10  -5.631358e+07   1.474304e+05   7.663283e-30   0.000000e+00   0.000000e+00
     2136000   2.135999e-07   7.811516e-02   5.733600e+00   6.275258e+00  -1.003551e+05  -8.270521e+04  -6.945801e+04   2.002774e+10  -2.425472e+10  -5.606390e+07   1.474304e+05   7.662684e-30   0.000000e+00   0.000000e+00
     2144000   2.143999e-07   7.803488e-02   5.733534e+00   6.275202e+00  -1.003391e+05  -8.272461e+04  -6.945805e+04   2.003155e+10  -2.424999e+10  -5.581444e+07   1.474304e+05   7.662086e-30   0.000000e+00   0.000000e+00
     2152000   2.151999e-07   7.795462e-02   5.733468e+00   6.275146e+00  -1.003231e+05  -8.274401e+04  -6.945810e+04   2.003536e+10  -2.424525e+10  -5.556520e+07   1.474304e+05   7.661487e-30   0.000000e+00   0.000000e+00
     2160000   2.159999e-07   7.787437e-02   5.733401e+00   6.275091e+00  -1.003070e+05  -8.276340e+04  -6.945814e+04   2.003916e+10  -2.424051e+10  -5.531619e+07   1.474304e+05   7.660889e-30   0.000000e+00   0.000000e+00
     2168000   2.167999e-07   7.779413e-02   5.733335e+00   6.275035e+00  -1.002910e+05  -8.278280e+04  -6.945819e+04   2.004297e+10  -2.423577e+10  -5.506739e+07   1.474304e+05   7.660290e-30   0.000000e+00   0.000000e+00
     2176000   2.175999e-07   7.771390e-02   5.733269e+00   6.274980e+00  -1.002750e+05  -8.280218e+04  -6.945823e+04   2.004677e+10  -2.423103e+10  -5.481882e+07   1.474304e+05   7.659692e-30   0.000000e+00   0.000000e+00
     2184000   2.183999e-07   7.763369e-02   5.733203e+00   6.274924e+00  -1.002589e+05  -8.282156e+04  -6.945827e+04   2.005058e+10  -2.422629e+10  -5.457047e+07   1.474304e+05   7.659093e-30   0.000000e+00   0.000000e+00
     2192000   2.191999e-07   7.755349e-02   5.733137e+00   6.274869e+00  -1.002429e+05  -8.284094e+04  -6.945832e+04   2.005438e+10  -2.422154e+10  -5.432235e+07   1.474304e+05   7.658495e-30   0.000000e+00   0.000000e+00
     2200000   2.199999e-07   7.747330e-02   5.733070e+00   6.274813e+00  -1.002268e+05  -8.286032e+04  -6.945836e+04   2.005818e+10  -2.421680e+10  -5.407444e+07   1.474304e+05   7.657897e-30   0.000000e+00   0.000000e+00
     2208000   2.207999e-07   7.739312e-02   5.733004e+00   6.274757e+00  -1.002108e+05  -8.287969e+04  -6.945840e+04   2.006198e+10  -2.421206e+10  -5.382676e+07   1.474304e+05   7.657299e-30   0.000000e+00   0.000000e+00
     2216000   2.215999e-07   7.731296e-02   5.732938e+00   6.274702e+00  -1.001947e+05  -8.289906e+04  -6.945845e+04   2.006578e+10  -2.420732e+10  -5.357930e+07   1.474304e+05   7.656700e-30   0.000000e+00   0.000000e+00
     2224000   2.223999e-07   7.723281e-02   5.732871e+00   6.274646e+00  -1.001787e+05  -8.291842e+04  -6.945849e+04   2.006958e+10  -2.420257e+10  -5.333206e+07   1.474304e+05   7.656102e-30   0.000000e+00   0.000000e+00
     2232000   2.231999e-07   7.715267e-02   5.732805e+00   6.274591e+00  -1.001626e+05  -8.293778e+04  -6.945853e+04   2.007337e+10  -2.419783e+10  -5.308504e+07   1.474304e+05   7.655504e-30   0.000000e+00   0.000000e+00
     2240000   2.239999e-07   7.707255e-02   5.732739e+00   6.274535e+00  -1.001466e+05  -8.295714e+04  -6.945858e+04   2.007717e+10  -2.419309e+10  -5.283825e+07   1.474304e+05   7.654906e-30   0.000000e+00   0.000000e+00
     2248000   2.247999e-07   7.699244e-02   5.732672e+00   6.274480e+00  -1.001305e+05  -8.297649e+04  -6.945862e+04   2.008096e+10  -2.418834e+10  -5.259167e+07   1.474304e+05   7.654307e-30   0.000000e+00   0.000000e+00
     2256000   2.255999e-07   7.691234e-02   5.732606e+00   6.274424e+00  -1.001144e+05  -8.299584e+04  -6.945866e+04   2.008475e+10  -2.418360e+10  -5.234532e+07   1.474304e+05   7.653709e-30   0.000000e+00   0.000000e+00
     2264000   2.263999e-07   7.683226e-02   5.732539e+00   6.274369e+00  -1.000984e+05  -8.301519e+04  -6.945870e+04   2.008854e+10  -2.417885e+10  -5.209919e+07   1.474304e+05   7.653111e-30   0.000000e+00   0.000000e+00
     2272000   2.271999e-07   7.675219e-02   5.732473e+00   6.274313e+00  -1.000823e+05  -8.303453e+04  -6.945874e+04   2.009233e+10  -2.417410e+10  -5.185328e+07   1.474304e+05   7.652513e-30   0.000000e+00   0.000000e+00
     2280000   2.279999e-07   7.667213e-02   5.732407e+00   6.274257e+00  -1.000662e+05  -8.305386e+04  -6.945878e+04   2.009612e+10  -2.416936e+10  -5.160760e+07   1.474304e+05   7.651915e-30   0.000000e+00   0.000000e+00
     2288000   2.287999e-07   7.659208e-02   5.732340e+00   6.274202e+00  -1.000501e+05  -8.307320e+04  -6.945883e+04   2.009991e+10  -2.416461e+10  -5.136213e+07   1.474304e+05   7.651317e-30   0.000000e+00   0.000000e+00
     2296000   2.295999e-07   7.651205e-02   5.732274e+00   6.274146e+00  -1.000341e+05  -8.309253e+04  -6.945887e+04   2.010370e+10  -2.415986e+10  -5.111689e+07   1.474304e+05   7.650719e-30   0.000000e+00   0.000000e+00
     2304000   2.303999e-07   7.643202e-02   5.732207e+00   6.274091e+00  -1.000180e+05  -8.311185e+04  -6.945891e+04   2.010748e+10  -2.415511e+10  -5.087187e+07   1.474304e+05   7.650121e-30   0.000000e+00   0.000000e+00
     2312000   2.311999e-07   7.635202e-02   5.732141e+00   6.274035e+00  -1.000019e+05  -8.313118e+04  -6.945895e+04   2.011127e+10  -2.415037e+10  -5.062707e+07   1.474304e+05   7.649523e-30   0.000000e+00   0.000000e+00
     2320000   2.319999e-07   7.627202e-02   5.732074e+00   6.273980e+00  -9.998579e+04  -8.315049e+04  -6.945899e+04   2.011505e+10  -2.414562e+10  -5.038249e+07   1.474304e+05   7.648925e-30   0.000000e+00   0.000000e+00
     2328000   2.327999e-07   7.619204e-02   5.732008e+00   6.273924e+00  -9.996970e+04  -8.316981e+04  -6.945903e+04   2.011883e+10  -2.414087e+10  -5.013813e+07   1.474304e+05   7.648328e-30   0.000000e+00   0.000000e+00
     2336000   2.335999e-07   7.611207e-02   5.731941e+00   6.273868e+00  -9.995360e+04  -8.318912e+04  -6.945907e+04   2.012262e+10  -2.413612e+10  -4.989399e+07   1.474304e+05   7.647730e-30   0.000000e+00   0.000000e+00
     2344000   2.343999e-07   7.603211e-02   5.731875e+00   6.273813e+00  -9.993750e+04  -8.320843e+04  -6.945911e+04   2.012639e+10  -2.413137e+10  -4.965008e+07   1.474304e+05   7.647132e-30   0.000000e+00   0.000000e+00
     2352000   2.351999e-07   7.595217e-02   5.731808e+00   6.273757e+00  -9.992140e+04  -8.322773e+04  -6.945915e+04   2.013017e+10  -2.412662e+10  -4.940638e+07   1.474304e+05   7.646534e-30   0.000000e+00   0.000000e+00
     2360000   2.359999e-07   7.587224e-02   5.731741e+00   6.273702e+00  -9.990529e+04  -8.324703e+04  -6.945919e+04   2.013395e+10  -2.412186e+10  -4.916291e+07   1.474304e+05   7.645936e-30   0.000000e+00   0.000000e+00
     2368000   2.367999e-07   7.579232e-02   5.731675e+00   6.273646e+00  -9.988918e+04  -8.326632e+04  -6.945923e+04   2.013773e+10  -2.411711e+10  -4.891966e+07   1.474304e+05   7.645339e-30   0.000000e+00   0.000000e+00
     2376000   2.375999e-07   7.571242e-02   5.731608e+00   6.273591e+00  -9.987307e+04  -8.328562e+04  -6.945927e+04   2.014150e+10  -2.411236e+10  -4.867662e+07   1.474304e+05   7.644741e-30   0.000000e+00   0.000000e+00
     2384000   2.383999e-07   7.563252e-02   5.731541e+00   6.273535e+00  -9.985696e+04  -8.330490e+04  -6.945930e+04   2.014528e+10  -2.410761e+10  -4.843381e+07   1.474304e+05   7.644143e-30   0.000000e+00   0.000000e+00
     2392000   2.391999e-07   7.555265e-02   5.731475e+00   6.273479e+00  -9.984084e+04  -8.332419e+04  -6.945934e+04   2.014905e+10  -2.410285e+10  -4.819122e+07   1.474304e+05   7.643546e-30   0.000000e+00   0.000000e+00
     2400000   2.399999e-07   7.547278e-02   5.731408e+00   6.273424e+00  -9.982472e+04  -8.334347e+04  -6.945938e+04   2.015282e+10  -2.409810e+10  -4.794886e+07   1.474304e+05   7.642948e-30   0.000000e+00   0.000000e+00
     2408000   2.407999e-07   7.539293e-02   5.731341e+00   6.273368e+00  -9.980860e+04  -8.336275e+04  -6.945942e+04   2.015659e+10  -2.409335e+10  -4.770671e+07   1.474304e+05   7.642350e-30   0.000000e+00   0.000000e+00
     2416000   2.415999e-07   7.531309e-02   5.731275e+00   6.273313e+00  -9.979247e+04  -8.338202e+04  -6.945946e+04   2.016036e+10  -2.408859e+10  -4.746478e+07   1.474304e+05   7.641753e-30   0.000000e+00   0.000000e+00
     2424000   2.423999e-07   7.523326e-02   5.731208e+00   6.273257e+00  -9.977634e+04  -8.340129e+04  -6.945950e+04   2.016413e+10  -2.408384e+10  -4.722307e+07   1.474304e+05   7.641155e-30   0.000000e+00   0.000000e+00
     2432000   2.431999e-07   7.515344e-02   5.731141e+00   6.273202e+00  -9.976021e+04  -8.342055e+04  -6.945953e+04   2.016789e+10  -2.407908e+10  -4.698159e+07   1.474304e+05   7.640558e-30   0.000000e+00   0.000000e+00
     2440000   2.439999e-07   7.507364e-02   5.731075e+00   6.273146e+00  -9.974407e+04  -8.343981e+04  -6.945957e+04   2.017166e+10  -2.407432e+10  -4.674032e+07   1.474304e+05   7.639960e-30   0.000000e+00   0.000000e+00
     2448000   2.447999e-07   7.499385e-02   5.731008e+00   6.273090e+00  -9.972793e+04  -8.345907e+04  -6.945961e+04   2.017542e+10  -2.406957e+10  -4.649928e+07   1.474304e+05   7.639363e-30   0.000000e+00   0.000000e+00
     2456000   2.455999e-07   7.491408e-02   5.730941e+00   6.273035e+00  -9.971179e+04  -8.347833e+04  -6.945965e+04   2.017919e+10  -2.406481e+10  -4.625845e+07   1.474304e+05   7.638765e-30   0.000000e+00   0.000000e+00
     2464000   2.463999e-07   7.483431e-02   5.730874e+00   6.272979e+00  -9.969565e+04  -8.349757e+04  -6.945968e+04   2.018295e+10  -2.406005e+10  -4.601785e+07   1.474304e+05   7.638168e-30   0.000000e+00   0.000000e+00
     2472000   2.471999e-07   7.475456e-02   5.730807e+00   6.272924e+00  -9.967950e+04  -8.351682e+04  -6.945972e+04   2.018671e+10  -2.405529e+10  -4.577747e+07   1.474304e+05   7.637571e-30   0.000000e+00   0.000000e+00
     2480000   2.479999e-07   7.467483e-02   5.730741e+00   6.272868e+00  -9.966335e+04  -8.353606e+04  -6.945976e+04   2.019047e+10  -2.405053e+10  -4.553731e+07   1.474304e+05   7.636973e-30   0.000000e+00   0.000000e+00
     2488000   2.487999e-07   7.459510e-02   5.730674e+00   6.272813e+00  -9.964719e+04  -8.355530e+04  -6.945979e+04   2.019423e+10  -2.404578e+10  -4.529736e+07   1.474304e+05   7.636376e-30   0.000000e+00   0.000000e+00
     2496000   2.495999e-07   7.451539e-02   5.730607e+00   6.272757e+00  -9.963104e+04  -8.357454e+04  -6.945983e+04   2.019799e+10  -2.404102e+10  -4.505764e+07   1.474304e+05   7.635779e-30   0.000000e+00   0.000000e+00
     2504000   2.503999e-07   7.443569e-02   5.730540e+00   6.272701e+00  -9.961488e+04  -8.359377e+04  -6.945986e+04   2.020174e+10  -2.403626e+10  -4.481814e+07   1.474304e+05   7.635181e-30   0.000000e+00   0.000000e+00
     2512000   2.511999e-07   7.435601e-02   5.730473e+00   6.272646e+00  -9.959871e+04  -8.361299e+04  -6.945990e+04   2.020550e+10  -2.403150e+10  -4.457886e+07   1.474304e+05   7.634584e-30   0.000000e+00   0.000000e+00
     2520000   2.519999e-07   7.427634e-02   5.730406e+00   6.272590e+00  -9.958255e+04  -8.363222e+04  -6.945994e+04   2.020925e+10  -2.402673e+10  -4.433980e+07   1.474304e+05   7.633987e-30   0.000000e+00   0.000000e+00
     2528000   2.527999e-07   7.419668e-02   5.730339e+00   6.272535e+00  -9.956638e+04  -8.365144e+04  -6.945997e+04   2.021301e+10  -2.402197e+10  -4.410096e+07   1.474304e+05   7.633390e-30   0.000000e+00   0.000000e+00
     2536000   2.535999e-07   7.411703e-02   5.730272e+00   6.272479e+00  -9.955021e+04  -8.367065e+04  -6.946001e+04   2.021676e+10  -2.401721e+10  -4.386233e+07   1.474304e+05   7.632793e-30   0.000000e+00   0.000000e+00
     2544000   2.543999e-07   7.403740e-02   5.730206e+00   6.272424e+00  -9.953403e+04  -8.368987e+04  -6.946004e+04   2.022051e+10  -2.401245e+10  -4.362393e+07   1.474304e+05   7.632196e-30   0.000000e+00   0.000000e+00
     2552000   2.551999e-07   7.395777e-02   5.730139e+00   6.272368e+00  -9.951785e+04  -8.370907e+04  -6.946008e+04   2.022426e+10  -2.400769e+10  -4.338575e+07   1.474304e+05   7.631599e-30   0.000000e+00   0.000000e+00
     2560000   2.559999e-07   7.387817e-02   5.730072e+00   6.272313e+00  -9.950167e+04  -8.372828e+04  -6.946011e+04   2.022800e+10  -2.400292e+10  -4.314779e+07   1.474304e+05   7.631002e-30   0.000000e+00   0.000000e+00
     2568000   2.567999e-07   7.379857e-02   5.730005e+00   6.272257e+00  -9.948549e+04  -8.374748e+04  -6.946014e+04   2.023175e+10  -2.399816e+10  -4.291005e+07   1.474304e+05   7.630405e-30   0.000000e+00   0.000000e+00
     2576000   2.575999e-07   7.371899e-02   5.729938e+00   6.272201e+00  -9.946930e+04  -8.376667e+04  -6.946018e+04   2.023550e+10  -2.399339e+10  -4.267253e+07   1.474304e+05   7.629808e-30   0.000000e+00   0.000000e+00
     2584000   2.583999e-07   7.363942e-02   5.729871e+00   6.272146e+00  -9.945311e+04  -8.378587e+04  -6.946021e+04   2.023924e+10  -2.398863e+10  -4.243522e+07   1.474304e+05   7.629211e-30   0.000000e+00   0.000000e+00
     2592000   2.591999e-07   7.355986e-02   5.729804e+00   6.272090e+00  -9.943692e+04  -8.380506e+04  -6.946025e+04   2.024299e+10  -2.398386e+10  -4.219814e+07   1.474304e+05   7.628614e-30   0.000000e+00   0.000000e+00
     2600000   2.599999e-07   7.348032e-02   5.729736e+00   6.272035e+00  -9.942072e+04  -8.382424e+04  -6.946028e+04   2.024673e+10  -2.397910e+10  -4.196128e+07   1.474304e+05   7.628017e-30   0.000000e+00   0.000000e+00
     2608000   2.607999e-07   7.340079e-02   5.729669e+00   6.271979e+00  -9.940452e+04  -8.384342e+04  -6.946031e+04   2.025047e+10  -2.397433e+10  -4.172464e+07   1.474304e+05   7.627420e-30   0.000000e+00   0.000000e+00
     2616000   2.615999e-07   7.332127e-02   5.729602e+00   6.271924e+00  -9.938832e+04  -8.386260e+04  -6.946035e+04   2.025421e+10  -2.396957e+10  -4.148821e+07   1.474304e+05   7.626823e-30   0.000000e+00   0.000000e+00
     2624000   2.623999e-07   7.324177e-02   5.729535e+00   6.271868e+00  -9.937212e+04  -8.388177e+04  -6.946038e+04   2.025795e+10  -2.396480e+10  -4.125201e+07   1.474304e+05   7.626226e-30   0.000000e+00   0.000000e+00
     2632000   2.631999e-07   7.316228e-02   5.729468e+00   6.271812e+00  -9.935591e+04  -8.390094e+04  -6.946041e+04   2.026169e+10  -2.396003e+10  -4.101602e+07   1.474304e+05   7.625629e-30   0.000000e+00   0.000000e+00
     2640000   2.639999e-07   7.308280e-02   5.729401e+00   6.271757e+00  -9.933970e+04  -8.392011e+04  -6.946045e+04   2.026542e+10  -2.395526e+10  -4.078026e+07   1.474304e+05   7.625033e-30   0.000000e+00   0.000000e+00
     2648000   2.647999e-07   7.300334e-02   5.729334e+00   6.271701e+00  -9.932349e+04  -8.393927e+04  -6.946048e+04   2.026916e+10  -2.395050e+10  -4.054471e+07   1.474304e+05   7.624436e-30   0.000000e+00   0.000000e+00
     2656000   2.655999e-07   7.292388e-02   5.729267e+00   6.271646e+00  -9.930727e+04  -8.395843e+04  -6.946051e+04   2.027289e+10  -2.394573e+10  -4.030939e+07   1.474304e+05   7.623839e-30   0.000000e+00   0.000000e+00
     2664000   2.663999e-07   7.284444e-02   5.729200e+00   6.271590e+00  -9.929105e+04  -8.397759e+04  -6.946054e+04   2.027662e+10  -2.394096e+10  -4.007428e+07   1.474304e+05   7.623242e-30   0.000000e+00   0.000000e+00
     2672000   2.671999e-07   7.276502e-02   5.729132e+00   6.271535e+00  -9.927483e+04  -8.399674e+04  -6.946057e+04   2.028036e+10  -2.393619e+10  -3.983939e+07   1.474304e+05   7.622646e-30   0.000000e+00   0.000000e+00
     2680000   2.679999e-07   7.268560e-02   5.729065e+00   6.271479e+00  -9.925860e+04  -8.401588e+04  -6.946061e+04   2.028409e+10  -2.393142e+10  -3.960472e+07   1.474304e+05   7.622049e-30   0.000000e+00   0.000000e+00
     2688000   2.687999e-07   7.260620e-02   5.728998e+00   6.271423e+00  -9.924237e+04  -8.403503e+04  -6.946064e+04   2.028782e+10  -2.392665e+10  -3.937027e+07   1.474304e+05   7.621453e-30   0.000000e+00   0.000000e+00
     2696000   2.695999e-07   7.252682e-02   5.728931e+00   6.271368e+00  -9.922614e+04  -8.405417e+04  -6.946067e+04   2.029154e+10  -2.392187e+10  -3.913604e+07   1.474304e+05   7.620856e-30   0.000000e+00   0.000000e+00
     2704000   2.703999e-07   7.244744e-02   5.728863e+00   6.271312e+00  -9.920990e+04  -8.407330e+04  -6.946070e+04   2.029527e+10  -2.391710e+10  -3.890203e+07   1.474304e+05   7.620260e-30   0.000000e+00   0.000000e+00
     2712000   2.711999e-07   7.236808e-02   5.728796e+00   6.271257e+00  -9.919367e+04  -8.409243e+04  -6.946073e+04   2.029900e+10  -2.391233e+10  -3.866824e+07   1.474304e+05   7.619663e-30   0.000000e+00   0.000000e+00
     2720000   2.719999e-07   7.228873e-02   5.728729e+00   6.271201e+00  -9.917743e+04  -8.411156e+04  -6.946076e+04   2.030272e+10  -2.390756e+10  -3.843467e+07   1.474304e+05   7.619067e-30   0.000000e+00   0.000000e+00
     2728000   2.727999e-07   7.220940e-02   5.728662e+00   6.271146e+00  -9.916118e+04  -8.413069e+04  -6.946079e+04   2.030644e+10  -2.390278e+10  -3.820131e+07   1.474304e+05   7.618470e-30   0.000000e+00   0.000000e+00
     2736000   2.735999e-07   7.213007e-02   5.728594e+00   6.271090e+00  -9.914494e+04  -8.414981e+04  -6.946082e+04   2.031017e+10  -2.389801e+10  -3.796818e+07   1.474304e+05   7.617874e-30   0.000000e+00   0.000000e+00
     2744000   2.743999e-07   7.205076e-02   5.728527e+00   6.271034e+00  -9.912869e+04  -8.416892e+04  -6.946085e+04   2.031389e+10  -2.389324e+10  -3.773526e+07   1.474304e+05   7.617277e-30   0.000000e+00   0.000000e+00
     2752000   2.751999e-07   7.197147e-02   5.728460e+00   6.270979e+00  -9.911243e+04  -8.418804e+04  -6.946088e+04   2.031761e+10  -2.388846e+10  -3.750256e+07   1.474304e+05   7.616681e-30   0.000000e+00   0.000000e+00
     2760000   2.759999e-07   7.189218e-02   5.728392e+00   6.270923e+00  -9.909618e+04  -8.420714e+04  -6.946091e+04   2.032133e+10  -2.388369e+10  -3.727008e+07   1.474304e+05   7.616085e-30   0.000000e+00   0.000000e+00
     2768000   2.767999e-07   7.181291e-02   5.728325e+00   6.270868e+00  -9.907992e+04  -8.422625e+04  -6.946094e+04   2.032504e+10  -2.387891e+10  -3.703782e+07   1.474304e+05   7.615488e-30   0.000000e+00   0.000000e+00
     2776000   2.775999e-07   7.173366e-02   5.728257e+00   6.270812e+00  -9.906366e+04  -8.424535e+04  -6.946097e+04   2.032876e+10  -2.387414e+10  -3.680578e+07   1.474304e+05   7.614892e-30   0.000000e+00   0.000000e+00
     2784000   2.783999e-07   7.165441e-02   5.728190e+00   6.270757e+00  -9.904739e+04  -8.426445e+04  -6.946100e+04   2.033248e+10  -2.386936e+10  -3.657395e+07   1.474304e+05   7.614296e-30   0.000000e+00   0.000000e+00
     2792000   2.791999e-07   7.157518e-02   5.728123e+00   6.270701e+00  -9.903113e+04  -8.428354e+04  -6.946103e+04   2.033619e+10  -2.386458e+10  -3.634235e+07   1.474304e+05   7.613700e-30   0.000000e+00   0.000000e+00
     2800000   2.799999e-07   7.149596e-02   5.728055e+00   6.270645e+00  -9.901486e+04  -8.430263e+04  -6.946106e+04   2.033990e+10  -2.385981e+10  -3.611096e+07   1.474304e+05   7.613103e-30   0.000000e+00   0.000000e+00
     2808000   2.807999e-07   7.141676e-02   5.727988e+00   6.270590e+00  -9.899858e+04  -8.432172e+04  -6.946109e+04   2.034362e+10  -2.385503e+10  -3.587979e+07   1.474304e+05   7.612507e-30   0.000000e+00   0.000000e+00
     2816000   2.815999e-07   7.133757e-02   5.727920e+00   6.270534e+00  -9.898231e+04  -8.434080e+04  -6.946112e+04   2.034733e+10  -2.385025e+10  -3.564884e+07   1.474304e+05   7.611911e-30   0.000000e+00   0.000000e+00
     2824000   2.823999e-07   7.125839e-02   5.727853e+00   6.270479e+00  -9.896603e+04  -8.435988e+04  -6.946115e+04   2.035104e+10  -2.384547e+10  -3.541811e+07   1.474304e+05   7.611315e-30   0.000000e+00   0.000000e+00
     2832000   2.831999e-07   7.117922e-02   5.727785e+00   6.270423e+00  -9.894974e+04  -8.437895e+04  -6.946117e+04   2.035474e+10  -2.384069e+10  -3.518760e+07   1.474304e+05   7.610719e-30   0.000000e+00   0.000000e+00
     2840000   2.839999e-07   7.110007e-02   5.727718e+00   6.270368e+00  -9.893346e+04  -8.439802e+04  -6.946120e+04   2.035845e+10  -2.383591e+10  -3.495730e+07   1.474304e+05   7.610123e-30   0.000000e+00   0.000000e+00
     2848000   2.847999e-07   7.102093e-02   5.727650e+00   6.270312e+00  -9.891717e+04  -8.441709e+04  -6.946123e+04   2.036216e+10  -2.383113e+10  -3.472722e+07   1.474304e+05   7.609527e-30   0.000000e+00   0.000000e+00
     2856000   2.855999e-07   7.094180e-02   5.727583e+00   6.270256e+00  -9.890088e+04  -8.443615e+04  -6.946126e+04   2.036586e+10  -2.382635e+10  -3.449736e+07   1.474304e+05   7.608931e-30   0.000000e+00   0.000000e+00
     2864000   2.863999e-07   7.086268e-02   5.727515e+00   6.270201e+00  -9.888459e+04  -8.445521e+04  -6.946129e+04   2.036957e+10  -2.382157e+10  -3.426772e+07   1.474304e+05   7.608335e-30   0.000000e+00   0.000000e+00
     2872000   2.871999e-07   7.078358e-02   5.727448e+00   6.270145e+00  -9.886829e+04  -8.447427e+04  -6.946131e+04   2.037327e+10  -2.381679e+10  -3.403830e+07   1.474304e+05   7.607739e-30   0.000000e+00   0.000000e+00
     2880000   2.879999e-07   7.070450e-02   5.727380e+00   6.270090e+00  -9.885199e+04  -8.449332e+04  -6.946134e+04   2.037697e+10  -2.381201e+10  -3.380909e+07   1.474304e+05   7.607143e-30   0.000000e+00   0.000000e+00
     2888000   2.887999e-07   7.062542e-02   5.727312e+00   6.270034e+00  -9.883568e+04  -8.451237e+04  -6.946137e+04   2.038067e+10  -2.380723e+10  -3.358011e+07   1.474304e+05   7.606547e-30   0.000000e+00   0.000000e+00
     2896000   2.895999e-07   7.054636e-02   5.727245e+00   6.269979e+00  -9.881938e+04  -8.453141e+04  -6.946139e+04   2.038437e+10  -2.380244e+10  -3.335134e+07   1.474304e+05   7.605951e-30   0.000000e+00   0.000000e+00
     2904000   2.903999e-07   7.046731e-02   5.727177e+00   6.269923e+00  -9.880307e+04  -8.455045e+04  -6.946142e+04   2.038807e+10  -2.379766e+10  -3.312279e+07   1.474304e+05   7.605356e-30   0.000000e+00   0.000000e+00
     2912000   2.911999e-07   7.038827e-02   5.727110e+00   6.269867e+00  -9.878676e+04  -8.456949e+04  -6.946145e+04   2.039176e+10  -2.379288e+10  -3.289445e+07   1.474304e+05   7.604760e-30   0.000000e+00   0.000000e+00
     2920000   2.919999e-07   7.030925e-02   5.727042e+00   6.269812e+00  -9.877044e+04  -8.458852e+04  -6.946147e+04   2.039546e+10  -2.378809e+10  -3.266633e+07   1.474304e+05   7.604164e-30   0.000000e+00   0.000000e+00
     2928000   2.927999e-07   7.023024e-02   5.726974e+00   6.269756e+00  -9.875413e+04  -8.460755e+04  -6.946150e+04   2.039915e+10  -2.378331e+10  -3.243844e+07   1.474304e+05   7.603568e-30   0.000000e+00   0.000000e+00
     2936000   2.935999e-07   7.015124e-02   5.726907e+00   6.269701e+00  -9.873780e+04  -8.462657e+04  -6.946153e+04   2.040285e+10  -2.377852e+10  -3.221076e+07   1.474304e+05   7.602973e-30   0.000000e+00   0.000000e+00
     2944000   2.943999e-07   7.007226e-02   5.726839e+00   6.269645e+00  -9.872148e+04  -8.464559e+04  -6.946155e+04   2.040654e+10  -2.377374e+10  -3.198329e+07   1.474304e+05   7.602377e-30   0.000000e+00   0.000000e+00
     2952000   2.951999e-07   6.999329e-02   5.726771e+00   6.269590e+00  -9.870515e+04  -8.466461e+04  -6.946158e+04   2.041023e+10  -2.376895e+10  -3.175605e+07   1.474304e+05   7.601781e-30   0.000000e+00   0.000000e+00
     2960000   2.959999e-07   6.991433e-02   5.726703e+00   6.269534e+00  -9.868882e+04  -8.468362e+04  -6.946160e+04   2.041392e+10  -2.376416e+10  -3.152902e+07   1.474304e+05   7.601186e-30   0.000000e+00   0.000000e+00
     2968000   2.967999e-07   6.983539e-02   5.726636e+00   6.269479e+00  -9.867249e+04  -8.470263e+04  -6.946163e+04   2.041761e+10  -2.375938e+10  -3.130221e+07   1.474304e+05   7.600590e-30   0.000000e+00   0.000000e+00
     2976000   2.975999e-07   6.975646e-02   5.726568e+00   6.269423e+00  -9.865616e+04  -8.472164e+04  -6.946165e+04   2.042129e+10  -2.375459e+10  -3.107561e+07   1.474304e+05   7.599995e-30   0.000000e+00   0.000000e+00
     2984000   2.983999e-07   6.967754e-02   5.726500e+00   6.269367e+00  -9.863982e+04  -8.474064e+04  -6.946168e+04   2.042498e+10  -2.374980e+10  -3.084924e+07   1.474304e+05   7.599399e-30   0.000000e+00   0.000000e+00
     2992000   2.991999e-07   6.959863e-02   5.726432e+00   6.269312e+00  -9.862348e+04  -8.475964e+04  -6.946170e+04   2.042866e+10  -2.374501e+10  -3.062308e+07   1.474304e+05   7.598804e-30   0.000000e+00   0.000000e+00
     3000000   2.999999e-07   6.951974e-02   5.726364e+00   6.269256e+00  -9.860713e+04  -8.477863e+04  -6.946173e+04   2.043235e+10  -2.374023e+10  -3.039713e+07   1.474304e+05   7.598208e-30   0.000000e+00   0.000000e+00
     3008000   3.007999e-07   6.944086e-02   5.726297e+00   6.269201e+00  -9.859078e+04  -8.479762e+04  -6.946175e+04   2.043603e+10  -2.373544e+10  -3.017141e+07   1.474304e+05   7.597613e-30   0.000000e+00   0.000000e+00
     3016000   3.015999e-07   6.936199e-02   5.726229e+00   6.269145e+00  -9.857443e+04  -8.481661e+04  -6.946177e+04   2.043971e+10  -2.373065e+10  -2.994590e+07   1.474304e+05   7.597018e-30   0.000000e+00   0.000000e+00
     3024000   3.023999e-07   6.928314e-02   5.726161e+00   6.269090e+00  -9.855808e+04  -8.483559e+04  -6.946180e+04   2.044339e+10  -2.372586e+10  -2.972061e+07   1.474304e+05   7.596422e-30   0.000000e+00   0.000000e+00
     3032000   3.031999e-07   6.920430e-02   5.726093e+00   6.269034e+00  -9.854172e+04  -8.485457e+04  -6.946182e+04   2.044707e+10  -2.372107e+10  -2.949554e+07   1.474304e+05   7.595827e-30   0.000000e+00   0.000000e+00
     3040000   3.039999e-07   6.912547e-02   5.726025e+00   6.268978e+00  -9.852537e+04  -8.487354e+04  -6.946185e+04   2.045075e+10  -2.371628e+10  -2.927068e+07   1.474304e+05   7.595232e-30   0.000000e+00   0.000000e+00
     3048000   3.047999e-07   6.904666e-02   5.725957e+00   6.268923e+00  -9.850900e+04  -8.489252e+04  -6.946187e+04   2.045443e+10  -2.371148e+10  -2.904604e+07   1.474304e+05   7.594636e-30   0.000000e+00   0.000000e+00
     3056000   3.055999e-07   6.896786e-02   5.725889e+00   6.268867e+00  -9.849264e+04  -8.491148e+04  -6.946189e+04   2.045810e+10  -2.370669e+10  -2.882162e+07   1.474304e+05   7.594041e-30   0.000000e+00   0.000000e+00
     3064000   3.063999e-07   6.888907e-02   5.725821e+00   6.268812e+00  -9.847627e+04  -8.493045e+04  -6.946191e+04   2.046178e+10  -2.370190e+10  -2.859741e+07   1.474304e+05   7.593446e-30   0.000000e+00   0.000000e+00
     3072000   3.071999e-07   6.881030e-02   5.725753e+00   6.268756e+00  -9.845990e+04  -8.494941e+04  -6.946194e+04   2.046545e+10  -2.369711e+10  -2.837342e+07   1.474304e+05   7.592851e-30   0.000000e+00   0.000000e+00
     3080000   3.079999e-07   6.873154e-02   5.725685e+00   6.268701e+00  -9.844353e+04  -8.496836e+04  -6.946196e+04   2.046912e+10  -2.369231e+10  -2.814965e+07   1.474304e+05   7.592256e-30   0.000000e+00   0.000000e+00
     3088000   3.087999e-07   6.865279e-02   5.725617e+00   6.268645e+00  -9.842715e+04  -8.498731e+04  -6.946198e+04   2.047279e+10  -2.368752e+10  -2.792609e+07   1.474304e+05   7.591660e-30   0.000000e+00   0.000000e+00
     3096000   3.095999e-07   6.857405e-02   5.725549e+00   6.268589e+00  -9.841077e+04  -8.500626e+04  -6.946200e+04   2.047646e+10  -2.368273e+10  -2.770275e+07   1.474304e+05   7.591065e-30   0.000000e+00   0.000000e+00
     3104000   3.103999e-07   6.849533e-02   5.725481e+00   6.268534e+00  -9.839439e+04  -8.502521e+04  -6.946203e+04   2.048013e+10  -2.367793e+10  -2.747963e+07   1.474304e+05   7.590470e-30   0.000000e+00   0.000000e+00
     3112000   3.111999e-07   6.841662e-02   5.725413e+00   6.268478e+00  -9.837800e+04  -8.504415e+04  -6.946205e+04   2.048380e+10  -2.367314e+10  -2.725672e+07   1.474304e+05   7.589875e-30   0.000000e+00   0.000000e+00
     3120000   3.119999e-07   6.833793e-02   5.725345e+00   6.268423e+00  -9.836161e+04  -8.506308e+04  -6.946207e+04   2.048746e+10  -2.366834e+10  -2.703403e+07   1.474304e+05   7.589280e-30   0.000000e+00   0.000000e+00
     3128000   3.127999e-07   6.825924e-02   5.725277e+00   6.268367e+00  -9.834522e+04  -8.508202e+04  -6.946209e+04   2.049113e+10  -2.366355e+10  -2.681156e+07   1.474304e+05   7.588685e-30   0.000000e+00   0.000000e+00
     3136000   3.135999e-07   6.818057e-02   5.725209e+00   6.268312e+00  -9.832883e+04  -8.510094e+04  -6.946211e+04   2.049479e+10  -2.365875e+10  -2.658930e+07   1.474304e+05   7.588090e-30   0.000000e+00   0.000000e+00
     3144000   3.143999e-07   6.810192e-02   5.725141e+00   6.268256e+00  -9.831243e+04  -8.511987e+04  -6.946213e+04   2.049845e+10  -2.365395e+10  -2.636726e+07   1.474304e+05   7.587495e-30   0.000000e+00   0.000000e+00
     3152000   3.151999e-07   6.802327e-02   5.725073e+00   6.268200e+00  -9.829603e+04  -8.513879e+04  -6.946216e+04   2.050212e+10  -2.364916e+10  -2.614543e+07   1.474304e+05   7.586901e-30   0.000000e+00   0.000000e+00
     3160000   3.159999e-07   6.794464e-02   5.725005e+00   6.268145e+00  -9.827963e+04  -8.515771e+04  -6.946218e+04   2.050578e+10  -2.364436e+10  -2.592383e+07   1.474304e+05   7.586306e-30   0.000000e+00   0.000000e+00
     3168000   3.167999e-07   6.786603e-02   5.724937e+00   6.268089e+00  -9.826322e+04  -8.517662e+04  -6.946220e+04   2.050944e+10  -2.363956e+10  -2.570243e+07   1.474304e+05   7.585711e-30   0.000000e+00   0.000000e+00
     3176000   3.175999e-07   6.778742e-02   5.724869e+00   6.268034e+00  -9.824681e+04  -8.519553e+04  -6.946222e+04   2.051309e+10  -2.363476e+10  -2.548126e+07   1.474304e+05   7.585116e-30   0.000000e+00   0.000000e+00
     3184000   3.183999e-07   6.770883e-02   5.724800e+00   6.267978e+00  -9.823040e+04  -8.521444e+04  -6.946224e+04   2.051675e+10  -2.362996e+10  -2.526030e+07   1.474304e+05   7.584521e-30   0.000000e+00   0.000000e+00
     3192000   3.191999e-07   6.763025e-02   5.724732e+00   6.267923e+00  -9.821398e+04  -8.523334e+04  -6.946226e+04   2.052041e+10  -2.362516e+10  -2.503955e+07   1.474304e+05   7.583927e-30   0.000000e+00   0.000000e+00
     3200000   3.199999e-07   6.755169e-02   5.724664e+00   6.267867e+00  -9.819757e+04  -8.525224e+04  -6.946228e+04   2.052406e+10  -2.362036e+10  -2.481902e+07   1.474304e+05   7.583332e-30   0.000000e+00   0.000000e+00
     3208000   3.207999e-07   6.747314e-02   5.724596e+00   6.267811e+00  -9.818115e+04  -8.527113e+04  -6.946230e+04   2.052771e+10  -2.361556e+10  -2.459871e+07   1.474304e+05   7.582737e-30   0.000000e+00   0.000000e+00
     3216000   3.215999e-07   6.739460e-02   5.724528e+00   6.267756e+00  -9.816472e+04  -8.529002e+04  -6.946232e+04   2.053137e+10  -2.361076e+10  -2.437861e+07   1.474304e+05   7.582143e-30   0.000000e+00   0.000000e+00
     3224000   3.223999e-07   6.731607e-02   5.724459e+00   6.267700e+00  -9.814830e+04  -8.530891e+04  -6.946234e+04   2.053502e+10  -2.360596e+10  -2.415873e+07   1.474304e+05   7.581548e-30   0.000000e+00   0.000000e+00
     3232000   3.231999e-07   6.723756e-02   5.724391e+00   6.267645e+00  -9.813187e+04  -8.532779e+04  -6.946236e+04   2.053867e+10  -2.360116e+10  -2.393907e+07   1.474304e+05   7.580953e-30   0.000000e+00   0.000000e+00
     3240000   3.239999e-07   6.715906e-02   5.724323e+00   6.267589e+00  -9.811543e+04  -8.534667e+04  -6.946237e+04   2.054231e+10  -2.359636e+10  -2.371962e+07   1.474304e+05   7.580359e-30   0.000000e+00   0.000000e+00
     3248000   3.247999e-07   6.708058e-02   5.724255e+00   6.267534e+00  -9.809900e+04  -8.536555e+04  -6.946239e+04   2.054596e+10  -2.359156e+10  -2.350038e+07   1.474304e+05   7.579764e-30   0.000000e+00   0.000000e+00
     3256000   3.255999e-07   6.700211e-02   5.724186e+00   6.267478e+00  -9.808256e+04  -8.538442e+04  -6.946241e+04   2.054961e+10  -2.358675e+10  -2.328137e+07   1.474304e+05   7.579170e-30   0.000000e+00   0.000000e+00
     3264000   3.263999e-07   6.692365e-02   5.724118e+00   6.267422e+00  -9.806612e+04  -8.540329e+04  -6.946243e+04   2.055325e+10  -2.358195e+10  -2.306256e+07   1.474304e+05   7.578575e-30   0.000000e+00   0.000000e+00
     3272000   3.271999e-07   6.684520e-02   5.724050e+00   6.267367e+00  -9.804968e+04  -8.542215e+04  -6.946245e+04   2.055690e+10  -2.357715e+10  -2.284398e+07   1.474304e+05   7.577981e-30   0.000000e+00   0.000000e+00
     3280000   3.279999e-07   6.676677e-02   5.723981e+00   6.267311e+00  -9.803323e+04  -8.544101e+04  -6.946247e+04   2.056054e+10  -2.357234e+10  -2.262560e+07   1.474304e+05   7.577387e-30   0.000000e+00   0.000000e+00
     3288000   3.287999e-07   6.668835e-02   5.723913e+00   6.267256e+00  -9.801678e+04  -8.545986e+04  -6.946249e+04   2.056418e+10  -2.356754e+10  -2.240745e+07   1.474304e+05   7.576792e-30   0.000000e+00   0.000000e+00
     3296000   3.295999e-07   6.660994e-02   5.723845e+00   6.267200e+00  -9.800033e+04  -8.547872e+04  -6.946250e+04   2.056782e+10  -2.356273e+10  -2.218951e+07   1.474304e+05   7.576198e-30   0.000000e+00   0.000000e+00
     3304000   3.303999e-07   6.653155e-02   5.723776e+00   6.267145e+00  -9.798387e+04  -8.549757e+04  -6.946252e+04   2.057146e+10  -2.355793e+10  -2.197178e+07   1.474304e+05   7.575604e-30   0.000000e+00   0.000000e+00
     3312000   3.311999e-07   6.645317e-02   5.723708e+00   6.267089e+00  -9.796741e+04  -8.551641e+04  -6.946254e+04   2.057510e+10  -2.355312e+10  -2.175427e+07   1.474304e+05   7.575009e-30   0.000000e+00   0.000000e+00
     3320000   3.319999e-07   6.637480e-02   5.723639e+00   6.267033e+00  -9.795095e+04  -8.553525e+04  -6.946256e+04   2.057874e+10  -2.354831e+10  -2.153698e+07   1.474304e+05   7.574415e-30   0.000000e+00   0.000000e+00
     3328000   3.327999e-07   6.629644e-02   5.723571e+00   6.266978e+00  -9.793449e+04  -8.555409e+04  -6.946257e+04   2.058237e+10  -2.354351e+10  -2.131990e+07   1.474304e+05   7.573821e-30   0.000000e+00   0.000000e+00
     3336000   3.335999e-07   6.621810e-02   5.723502e+00   6.266922e+00  -9.791802e+04  -8.557292e+04  -6.946259e+04   2.058601e+10  -2.353870e+10  -2.110303e+07   1.474304e+05   7.573227e-30   0.000000e+00   0.000000e+00
     3344000   3.343999e-07   6.613978e-02   5.723434e+00   6.266867e+00  -9.790155e+04  -8.559175e+04  -6.946261e+04   2.058964e+10  -2.353389e+10  -2.088638e+07   1.474304e+05   7.572633e-30   0.000000e+00   0.000000e+00
     3352000   3.351999e-07   6.606146e-02   5.723366e+00   6.266811e+00  -9.788507e+04  -8.561057e+04  -6.946262e+04   2.059327e+10  -2.352908e+10  -2.066994e+07   1.474304e+05   7.572038e-30   0.000000e+00   0.000000e+00
     3360000   3.359999e-07   6.598316e-02   5.723297e+00   6.266756e+00  -9.786860e+04  -8.562940e+04  -6.946264e+04   2.059690e+10  -2.352427e+10  -2.045372e+07   1.474304e+05   7.571444e-30   0.000000e+00   0.000000e+00
     3368000   3.367999e-07   6.590487e-02   5.723229e+00   6.266700e+00  -9.785212e+04  -8.564821e+04  -6.946266e+04   2.060053e+10  -2.351947e+10  -2.023772e+07   1.474304e+05   7.570850e-30   0.000000e+00   0.000000e+00
     3376000   3.375999e-07   6.582660e-02   5.723160e+00   6.266644e+00  -9.783564e+04  -8.566703e+04  -6.946267e+04   2.060416e+10  -2.351466e+10  -2.002193e+07   1.474304e+05   7.570256e-30   0.000000e+00   0.000000e+00
     3384000   3.383999e-07   6.574833e-02   5.723091e+00   6.266589e+00  -9.781915e+04  -8.568584e+04  -6.946269e+04   2.060779e+10  -2.350985e+10  -1.980635e+07   1.474304e+05   7.569662e-30   0.000000e+00   0.000000e+00
     3392000   3.391999e-07   6.567008e-02   5.723023e+00   6.266533e+00  -9.780266e+04  -8.570464e+04  -6.946270e+04   2.061142e+10  -2.350504e+10  -1.959099e+07   1.474304e+05   7.569068e-30   0.000000e+00   0.000000e+00
     3400000   3.399999e-07   6.559185e-02   5.722954e+00   6.266478e+00  -9.778617e+04  -8.572344e+04  -6.946272e+04   2.061504e+10  -2.350022e+10  -1.937585e+07   1.474304e+05   7.568474e-30   0.000000e+00   0.000000e+00
     3408000   3.407999e-07   6.551363e-02   5.722886e+00   6.266422e+00  -9.776968e+04  -8.574224e+04  -6.946273e+04   2.061867e+10  -2.349541e+10  -1.916091e+07   1.474304e+05   7.567880e-30   0.000000e+00   0.000000e+00
     3416000   3.415999e-07   6.543542e-02   5.722817e+00   6.266367e+00  -9.775318e+04  -8.576104e+04  -6.946275e+04   2.062229e+10  -2.349060e+10  -1.894620e+07   1.474304e+05   7.567287e-30   0.000000e+00   0.000000e+00
     3424000   3.423999e-07   6.535722e-02   5.722749e+00   6.266311e+00  -9.773669e+04  -8.577983e+04  -6.946277e+04   2.062591e+10  -2.348579e+10  -1.873169e+07   1.474304e+05   7.566693e-30   0.000000e+00   0.000000e+00
     3432000   3.431999e-07   6.527904e-02   5.722680e+00   6.266255e+00  -9.772018e+04  -8.579861e+04  -6.946278e+04   2.062953e+10  -2.348098e+10  -1.851741e+07   1.474304e+05   7.566099e-30   0.000000e+00   0.000000e+00
     3440000   3.439999e-07   6.520087e-02   5.722611e+00   6.266200e+00  -9.770368e+04  -8.581740e+04  -6.946279e+04   2.063315e+10  -2.347616e+10  -1.830333e+07   1.474304e+05   7.565505e-30   0.000000e+00   0.000000e+00
     3448000   3.447999e-07   6.512271e-02   5.722543e+00   6.266144e+00  -9.768717e+04  -8.583618e+04  -6.946281e+04   2.063677e+10  -2.347135e+10  -1.808947e+07   1.474304e+05   7.564911e-30   0.000000e+00   0.000000e+00
     3456000   3.455999e-07   6.504457e-02   5.722474e+00   6.266089e+00  -9.767066e+04  -8.585495e+04  -6.946282e+04   2.064038e+10  -2.346654e+10  -1.787583e+07   1.474304e+05   7.564318e-30   0.000000e+00   0.000000e+00
     3464000   3.463999e-07   6.496644e-02   5.722405e+00   6.266033e+00  -9.765415e+04  -8.587372e+04  -6.946284e+04   2.064400e+10  -2.346172e+10  -1.766240e+07   1.474304e+05   7.563724e-30   0.000000e+00   0.000000e+00
     3472000   3.471999e-07   6.488832e-02   5.722337e+00   6.265978e+00  -9.763763e+04  -8.589249e+04  -6.946285e+04   2.064762e+10  -2.345691e+10  -1.744918e+07   1.474304e+05   7.563130e-30   0.000000e+00   0.000000e+00
     3480000   3.479999e-07   6.481022e-02   5.722268e+00   6.265922e+00  -9.762111e+04  -8.591125e+04  -6.946287e+04   2.065123e+10  -2.345209e+10  -1.723618e+07   1.474304e+05   7.562537e-30   0.000000e+00   0.000000e+00
     3488000   3.487999e-07   6.473213e-02   5.722199e+00   6.265866e+00  -9.760459e+04  -8.593001e+04  -6.946288e+04   2.065484e+10  -2.344728e+10  -1.702339e+07   1.474304e+05   7.561943e-30   0.000000e+00   0.000000e+00
     3496000   3.495999e-07   6.465405e-02   5.722130e+00   6.265811e+00  -9.758806e+04  -8.594877e+04  -6.946289e+04   2.065845e+10  -2.344246e+10  -1.681081e+07   1.474304e+05   7.561350e-30   0.000000e+00   0.000000e+00
     3504000   3.503999e-07   6.457599e-02   5.722062e+00   6.265755e+00  -9.757153e+04  -8.596752e+04  -6.946291e+04   2.066206e+10  -2.343764e+10  -1.659845e+07   1.474304e+05   7.560756e-30   0.000000e+00   0.000000e+00
     3512000   3.511999e-07   6.449794e-02   5.721993e+00   6.265700e+00  -9.755500e+04  -8.598627e+04  -6.946292e+04   2.066567e+10  -2.343283e+10  -1.638631e+07   1.474304e+05   7.560163e-30   0.000000e+00   0.000000e+00
     3520000   3.519999e-07   6.441990e-02   5.721924e+00   6.265644e+00  -9.753847e+04  -8.600501e+04  -6.946293e+04   2.066928e+10  -2.342801e+10  -1.617438e+07   1.474304e+05   7.559569e-30   0.000000e+00   0.000000e+00
     3528000   3.527999e-07   6.434188e-02   5.721855e+00   6.265589e+00  -9.752193e+04  -8.602375e+04  -6.946295e+04   2.067288e+10  -2.342319e+10  -1.596266e+07   1.474304e+05   7.558976e-30   0.000000e+00   0.000000e+00
     3536000   3.535999e-07   6.426387e-02   5.721786e+00   6.265533e+00  -9.750539e+04  -8.604249e+04  -6.946296e+04   2.067649e+10  -2.341837e+10  -1.575115e+07   1.474304e+05   7.558382e-30   0.000000e+00   0.000000e+00
     3544000   3.543999e-07   6.418587e-02   5.721717e+00   6.265477e+00  -9.748885e+04  -8.606122e+04  -6.946297e+04   2.068009e+10  -2.341356e+10  -1.553986e+07   1.474304e+05   7.557789e-30   0.000000e+00   0.000000e+00
     3552000   3.551999e-07   6.410788e-02   5.721649e+00   6.265422e+00  -9.747230e+04  -8.607995e+04  -6.946298e+04   2.068370e+10  -2.340874e+10  -1.532878e+07   1.474304e+05   7.557196e-30   0.000000e+00   0.000000e+00
     3560000   3.559999e-07   6.402991e-02   5.721580e+00   6.265366e+00  -9.745575e+04  -8.609868e+04  -6.946300e+04   2.068730e+10  -2.340392e+10  -1.511792e+07   1.474304e+05   7.556602e-30   0.000000e+00   0.000000e+00
     3568000   3.567999e-07   6.395195e-02   5.721511e+00   6.265311e+00  -9.743920e+04  -8.611740e+04  -6.946301e+04   2.069090e+10  -2.339910e+10  -1.490727e+07   1.474304e+05   7.556009e-30   0.000000e+00   0.000000e+00
     3576000   3.575999e-07   6.387401e-02   5.721442e+00   6.265255e+00  -9.742265e+04  -8.613612e+04  -6.946302e+04   2.069450e+10  -2.339428e+10  -1.469683e+07   1.474304e+05   7.555416e-30   0.000000e+00   0.000000e+00
     3584000   3.583999e-07   6.379608e-02   5.721373e+00   6.265200e+00  -9.740609e+04  -8.615483e+04  -6.946303e+04   2.069810e+10  -2.338946e+10  -1.448661e+07   1.474304e+05   7.554822e-30   0.000000e+00   0.000000e+00
     3592000   3.591999e-07   6.371816e-02   5.721304e+00   6.265144e+00  -9.738953e+04  -8.617354e+04  -6.946304e+04   2.070169e+10  -2.338463e+10  -1.427660e+07   1.474304e+05   7.554229e-30   0.000000e+00   0.000000e+00
     3600000   3.599999e-07   6.364025e-02   5.721235e+00   6.265088e+00  -9.737297e+04  -8.619225e+04  -6.946305e+04   2.070529e+10  -2.337981e+10  -1.406680e+07   1.474304e+05   7.553636e-30   0.000000e+00   0.000000e+00
     3608000   3.607999e-07   6.356236e-02   5.721166e+00   6.265033e+00  -9.735640e+04  -8.621095e+04  -6.946306e+04   2.070889e+10  -2.337499e+10  -1.385722e+07   1.474304e+05   7.553043e-30   0.000000e+00   0.000000e+00
     3616000   3.615999e-07   6.348448e-02   5.721097e+00   6.264977e+00  -9.733984e+04  -8.622965e+04  -6.946308e+04   2.071248e+10  -2.337017e+10  -1.364785e+07   1.474304e+05   7.552450e-30   0.000000e+00   0.000000e+00
     3624000   3.623999e-07   6.340662e-02   5.721028e+00   6.264922e+00  -9.732326e+04  -8.624834e+04  -6.946309e+04   2.071607e+10  -2.336535e+10  -1.343870e+07   1.474304e+05   7.551857e-30   0.000000e+00   0.000000e+00
     3632000   3.631999e-07   6.332877e-02   5.720959e+00   6.264866e+00  -9.730669e+04  -8.626703e+04  -6.946310e+04   2.071966e+10  -2.336052e+10  -1.322975e+07   1.474304e+05   7.551264e-30   0.000000e+00   0.000000e+00
     3640000   3.639999e-07   6.325093e-02   5.720890e+00   6.264811e+00  -9.729011e+04  -8.628572e+04  -6.946311e+04   2.072325e+10  -2.335570e+10  -1.302102e+07   1.474304e+05   7.550671e-30   0.000000e+00   0.000000e+00
     3648000   3.647999e-07   6.317310e-02   5.720821e+00   6.264755e+00  -9.727353e+04  -8.630440e+04  -6.946312e+04   2.072684e+10  -2.335087e+10  -1.281250e+07   1.474304e+05   7.550078e-30   0.000000e+00   0.000000e+00
     3656000   3.655999e-07   6.309529e-02   5.720752e+00   6.264699e+00  -9.725695e+04  -8.632308e+04  -6.946313e+04   2.073043e+10  -2.334605e+10  -1.260420e+07   1.474304e+05   7.549485e-30   0.000000e+00   0.000000e+00
     3664000   3.663999e-07   6.301749e-02   5.720683e+00   6.264644e+00  -9.724036e+04  -8.634175e+04  -6.946314e+04   2.073402e+10  -2.334123e+10  -1.239611e+07   1.474304e+05   7.548892e-30   0.000000e+00   0.000000e+00
     3672000   3.671999e-07   6.293971e-02   5.720614e+00   6.264588e+00  -9.722378e+04  -8.636042e+04  -6.946315e+04   2.073760e+10  -2.333640e+10  -1.218823e+07   1.474304e+05   7.548299e-30   0.000000e+00   0.000000e+00
     3680000   3.679999e-07   6.286193e-02   5.720545e+00   6.264533e+00  -9.720718e+04  -8.637909e+04  -6.946316e+04   2.074119e+10  -2.333157e+10  -1.198057e+07   1.474304e+05   7.547706e-30   0.000000e+00   0.000000e+00
     3688000   3.687999e-07   6.278418e-02   5.720476e+00   6.264477e+00  -9.719059e+04  -8.639775e+04  -6.946317e+04   2.074477e+10  -2.332675e+10  -1.177311e+07   1.474304e+05   7.547113e-30   0.000000e+00   0.000000e+00
     3696000   3.695999e-07   6.270643e-02   5.720407e+00   6.264422e+00  -9.717399e+04  -8.641641e+04  -6.946318e+04   2.074835e+10  -2.332192e+10  -1.156587e+07   1.474304e+05   7.546521e-30   0.000000e+00   0.000000e+00
     3704000   3.703999e-07   6.262870e-02   5.720338e+00   6.264366e+00  -9.715739e+04  -8.643507e+04  -6.946319e+04   2.075193e+10  -2.331709e+10  -1.135885e+07   1.474304e+05   7.545928e-30   0.000000e+00   0.000000e+00
     3712000   3.711999e-07   6.255098e-02   5.720268e+00   6.264311e+00  -9.714079e+04  -8.645372e+04  -6.946319e+04   2.075551e+10  -2.331227e+10  -1.115203e+07   1.474304e+05   7.545335e-30   0.000000e+00   0.000000e+00
     3720000   3.719999e-07   6.247327e-02   5.720199e+00   6.264255e+00  -9.712418e+04  -8.647237e+04  -6.946320e+04   2.075909e+10  -2.330744e+10  -1.094543e+07   1.474304e+05   7.544742e-30   0.000000e+00   0.000000e+00
     3728000   3.727999e-07   6.239558e-02   5.720130e+00   6.264199e+00  -9.710757e+04  -8.649101e+04  -6.946321e+04   2.076267e+10  -2.330261e+10  -1.073904e+07   1.474304e+05   7.544150e-30   0.000000e+00   0.000000e+00
     3736000   3.735999e-07   6.231790e-02   5.720061e+00   6.264144e+00  -9.709096e+04  -8.650965e+04  -6.946322e+04   2.076624e+10  -2.329778e+10  -1.053287e+07   1.474304e+05   7.543557e-30   0.000000e+00   0.000000e+00
     3744000   3.743999e-07   6.224023e-02   5.719992e+00   6.264088e+00  -9.707435e+04  -8.652829e+04  -6.946323e+04   2.076982e+10  -2.329295e+10  -1.032690e+07   1.474304e+05   7.542965e-30   0.000000e+00   0.000000e+00
     3752000   3.751999e-07   6.216258e-02   5.719922e+00   6.264033e+00  -9.705773e+04  -8.654692e+04  -6.946324e+04   2.077339e+10  -2.328812e+10  -1.012115e+07   1.474304e+05   7.542372e-30   0.000000e+00   0.000000e+00
     3760000   3.759999e-07   6.208494e-02   5.719853e+00   6.263977e+00  -9.704111e+04  -8.656555e+04  -6.946325e+04   2.077696e+10  -2.328329e+10  -9.915610e+06   1.474304e+05   7.541780e-30   0.000000e+00   0.000000e+00
     3768000   3.767999e-07   6.200731e-02   5.719784e+00   6.263922e+00  -9.702449e+04  -8.658417e+04  -6.946325e+04   2.078054e+10  -2.327846e+10  -9.710283e+06   1.474304e+05   7.541187e-30   0.000000e+00   0.000000e+00
     3776000   3.775999e-07   6.192970e-02   5.719715e+00   6.263866e+00  -9.700786e+04  -8.660280e+04  -6.946326e+04   2.078411e+10  -2.327363e+10  -9.505168e+06   1.474304e+05   7.540595e-30   0.000000e+00   0.000000e+00
     3784000   3.783999e-07   6.185210e-02   5.719645e+00   6.263810e+00  -9.699123e+04  -8.662141e+04  -6.946327e+04   2.078767e+10  -2.326880e+10  -9.300265e+06   1.474304e+05   7.540002e-30   0.000000e+00   0.000000e+00
     3792000   3.791999e-07   6.177452e-02   5.719576e+00   6.263755e+00  -9.697460e+04  -8.664003e+04  -6.946328e+04   2.079124e+10  -2.326397e+10  -9.095574e+06   1.474304e+05   7.539410e-30   0.000000e+00   0.000000e+00
     3800000   3.799999e-07   6.169694e-02   5.719507e+00   6.263699e+00  -9.695797e+04  -8.665864e+04  -6.946328e+04   2.079481e+10  -2.325914e+10  -8.891096e+06   1.474304e+05   7.538817e-30   0.000000e+00   0.000000e+00
     3808000   3.807999e-07   6.161938e-02   5.719437e+00   6.263644e+00  -9.694133e+04  -8.667724e+04  -6.946329e+04   2.079837e+10  -2.325430e+10  -8.686829e+06   1.474304e+05   7.538225e-30   0.000000e+00   0.000000e+00
     3816000   3.815999e-07   6.154184e-02   5.719368e+00   6.263588e+00  -9.692469e+04  -8.669584e+04  -6.946330e+04   2.080194e+10  -2.324947e+10  -8.482775e+06   1.474304e+05   7.537633e-30   0.000000e+00   0.000000e+00
     3824000   3.823999e-07   6.146430e-02   5.719299e+00   6.263533e+00  -9.690805e+04  -8.671444e+04  -6.946330e+04   2.080550e+10  -2.324464e+10  -8.278932e+06   1.474304e+05   7.537040e-30   0.000000e+00   0.000000e+00
     3832000   3.831999e-07   6.138678e-02   5.719229e+00   6.263477e+00  -9.689140e+04  -8.673303e+04  -6.946331e+04   2.080906e+10  -2.323980e+10  -8.075301e+06   1.474304e+05   7.536448e-30   0.000000e+00   0.000000e+00
     3840000   3.839999e-07   6.130928e-02   5.719160e+00   6.263421e+00  -9.687475e+04  -8.675162e+04  -6.946332e+04   2.081262e+10  -2.323497e+10  -7.871882e+06   1.474304e+05   7.535856e-30   0.000000e+00   0.000000e+00
     3848000   3.847999e-07   6.123178e-02   5.719090e+00   6.263366e+00  -9.685810e+04  -8.677021e+04  -6.946332e+04   2.081618e+10  -2.323013e+10  -7.668675e+06   1.474304e+05   7.535264e-30   0.000000e+00   0.000000e+00
     3856000   3.855999e-07   6.115430e-02   5.719021e+00   6.263310e+00  -9.684145e+04  -8.678879e+04  -6.946333e+04   2.081974e+10  -2.322530e+10  -7.465680e+06   1.474304e+05   7.534672e-30   0.000000e+00   0.000000e+00
     3864000   3.863999e-07   6.107684e-02   5.718952e+00   6.263255e+00  -9.682479e+04  -8.680737e+04  -6.946333e+04   2.082330e+10  -2.322046e+10  -7.262896e+06   1.474304e+05   7.534080e-30   0.000000e+00   0.000000e+00
     3872000   3.871999e-07   6.099938e-02   5.718882e+00   6.263199e+00  -9.680813e+04  -8.682594e+04  -6.946334e+04   2.082686e+10  -2.321563e+10  -7.060324e+06   1.474304e+05   7.533487e-30   0.000000e+00   0.000000e+00
     3880000   3.879999e-07   6.092194e-02   5.718813e+00   6.263144e+00  -9.679147e+04  -8.684451e+04  -6.946335e+04   2.083041e+10  -2.321079e+10  -6.857963e+06   1.474304e+05   7.532895e-30   0.000000e+00   0.000000e+00
     3888000   3.887999e-07   6.084452e-02   5.718743e+00   6.263088e+00  -9.677480e+04  -8.686308e+04  -6.946335e+04   2.083397e+10  -2.320595e+10  -6.655814e+06   1.474304e+05   7.532303e-30   0.000000e+00   0.000000e+00
     3896000   3.895999e-07   6.076711e-02   5.718674e+00   6.263032e+00  -9.675813e+04  -8.688164e+04  -6.946336e+04   2.083752e+10  -2.320112e+10  -6.453877e+06   1.474304e+05   7.531711e-30   0.000000e+00   0.000000e+00
     3904000   3.903999e-07   6.068971e-02   5.718604e+00   6.262977e+00  -9.674146e+04  -8.690020e+04  -6.946336e+04   2.084107e+10  -2.319628e+10  -6.252151e+06   1.474304e+05   7.531119e-30   0.000000e+00   0.000000e+00
     3912000   3.911999e-07   6.061232e-02   5.718535e+00   6.262921e+00  -9.672479e+04  -8.691876e+04  -6.946337e+04   2.084462e+10  -2.319144e+10  -6.050636e+06   1.474304e+05   7.530527e-30   0.000000e+00   0.000000e+00
     3920000   3.919999e-07   6.053495e-02   5.718465e+00   6.262866e+00  -9.670811e+04  -8.693731e+04  -6.946337e+04   2.084817e+10  -2.318660e+10  -5.849332e+06   1.474304e+05   7.529936e-30   0.000000e+00   0.000000e+00
     3928000   3.927999e-07   6.045759e-02   5.718396e+00   6.262810e+00  -9.669143e+04  -8.695586e+04  -6.946338e+04   2.085172e+10  -2.318176e+10  -5.648240e+06   1.474304e+05   7.529344e-30   0.000000e+00   0.000000e+00
     3936000   3.935999e-07   6.038024e-02   5.718326e+00   6.262755e+00  -9.667475e+04  -8.697440e+04  -6.946338e+04   2.085526e+10  -2.317692e+10  -5.447359e+06   1.474304e+05   7.528752e-30   0.000000e+00   0.000000e+00
     3944000   3.943999e-07   6.030291e-02   5.718256e+00   6.262699e+00  -9.665806e+04  -8.699294e+04  -6.946338e+04   2.085881e+10  -2.317208e+10  -5.246689e+06   1.474304e+05   7.528160e-30   0.000000e+00   0.000000e+00
     3952000   3.951999e-07   6.022559e-02   5.718187e+00   6.262643e+00  -9.664137e+04  -8.701148e+04  -6.946339e+04   2.086235e+10  -2.316724e+10  -5.046230e+06   1.474304e+05   7.527568e-30   0.000000e+00   0.000000e+00
     3960000   3.959999e-07   6.014828e-02   5.718117e+00   6.262588e+00  -9.662468e+04  -8.703001e+04  -6.946339e+04   2.086590e+10  -2.316240e+10  -4.845982e+06   1.474304e+05   7.526977e-30   0.000000e+00   0.000000e+00
     3968000   3.967999e-07   6.007099e-02   5.718048e+00   6.262532e+00  -9.660799e+04  -8.704854e+04  -6.946340e+04   2.086944e+10  -2.315756e+10  -4.645945e+06   1.474304e+05   7.526385e-30   0.000000e+00   0.000000e+00
     3976000   3.975999e-07   5.999371e-02   5.717978e+00   6.262477e+00  -9.659129e+04  -8.706706e+04  -6.946340e+04   2.087298e+10  -2.315272e+10  -4.446119e+06   1.474304e+05   7.525793e-30   0.000000e+00   0.000000e+00
     3984000   3.983999e-07   5.991644e-02   5.717908e+00   6.262421e+00  -9.657459e+04  -8.708558e+04  -6.946340e+04   2.087652e+10  -2.314788e+10  -4.246504e+06   1.474304e+05   7.525202e-30   0.000000e+00   0.000000e+00
     3992000   3.991999e-07   5.983919e-02   5.717839e+00   6.262366e+00  -9.655789e+04  -8.710410e+04  -6.946341e+04   2.088006e+10  -2.314304e+10  -4.047099e+06   1.474304e+05   7.524610e-30   0.000000e+00   0.000000e+00
     4000000   3.999999e-07   5.976195e-02   5.717769e+00   6.262310e+00  -9.654118e+04  -8.712261e+04  -6.946341e+04   2.088360e+10  -2.313820e+10  -3.847906e+06   1.474304e+05   7.524018e-30   0.000000e+00   0.000000e+00
     4008000   4.007999e-07   5.968472e-02   5.717699e+00   6.262254e+00  -9.652447e+04  -8.714112e+04  -6.946341e+04   2.088713e+10  -2.313335e+10  -3.648923e+06   1.474304e+05   7.523427e-30   0.000000e+00   0.000000e+00
     4016000   4.015999e-07   5.960751e-02   5.717629e+00   6.262199e+00  -9.650776e+04  -8.715962e+04  -6.946342e+04   2.089067e+10  -2.312851e+10  -3.450151e+06   1.474304e+05   7.522835e-30   0.000000e+00   0.000000e+00
     4024000   4.023999e-07   5.953031e-02   5.717560e+00   6.262143e+00  -9.649105e+04  -8.717812e+04  -6.946342e+04   2.089420e+10  -2.312366e+10  -3.251589e+06   1.474304e+05   7.522244e-30   0.000000e+00   0.000000e+00
     4032000   4.031999e-07   5.945312e-02   5.717490e+00   6.262088e+00  -9.647433e+04  -8.719662e+04  -6.946342e+04   2.089773e+10  -2.311882e+10  -3.053238e+06   1.474304e+05   7.521652e-30   0.000000e+00   0.000000e+00
     4040000   4.039999e-07   5.937595e-02   5.717420e+00   6.262032e+00  -9.645761e+04  -8.721511e+04  -6.946342e+04   2.090127e+10  -2.311398e+10  -2.855098e+06   1.474304e+05   7.521061e-30   0.000000e+00   0.000000e+00
     4048000   4.047999e-07   5.929879e-02   5.717350e+00   6.261977e+00  -9.644089e+04  -8.723360e+04  -6.946343e+04   2.090480e+10  -2.310913e+10  -2.657168e+06   1.474304e+05   7.520470e-30   0.000000e+00   0.000000e+00
     4056000   4.055999e-07   5.922165e-02   5.717281e+00   6.261921e+00  -9.642416e+04  -8.725209e+04  -6.946343e+04   2.090833e+10  -2.310429e+10  -2.459448e+06   1.474304e+05   7.519878e-30   0.000000e+00   0.000000e+00
     4064000   4.063999e-07   5.914451e-02   5.717211e+00   6.261865e+00  -9.640744e+04  -8.727057e+04  -6.946343e+04   2.091185e+10  -2.309944e+10  -2.261939e+06   1.474304e+05   7.519287e-30   0.000000e+00   0.000000e+00
     4072000   4.071999e-07   5.906739e-02   5.717141e+00   6.261810e+00  -9.639071e+04  -8.728905e+04  -6.946343e+04   2.091538e+10  -2.309459e+10  -2.064640e+06   1.474304e+05   7.518696e-30   0.000000e+00   0.000000e+00
     4080000   4.079999e-07   5.899029e-02   5.717071e+00   6.261754e+00  -9.637397e+04  -8.730752e+04  -6.946343e+04   2.091891e+10  -2.308975e+10  -1.867551e+06   1.474304e+05   7.518105e-30   0.000000e+00   0.000000e+00
     4088000   4.087999e-07   5.891319e-02   5.717001e+00   6.261699e+00  -9.635724e+04  -8.732599e+04  -6.946343e+04   2.092243e+10  -2.308490e+10  -1.670672e+06   1.474304e+05   7.517513e-30   0.000000e+00   0.000000e+00
     4096000   4.095999e-07   5.883612e-02   5.716931e+00   6.261643e+00  -9.634050e+04  -8.734446e+04  -6.946344e+04   2.092596e+10  -2.308005e+10  -1.474004e+06   1.474304e+05   7.516922e-30   0.000000e+00   0.000000e+00
     4104000   4.103999e-07   5.875905e-02   5.716862e+00   6.261588e+00  -9.632375e+04  -8.736292e+04  -6.946344e+04   2.092948e+10  -2.307520e+10  -1.277545e+06   1.474304e+05   7.516331e-30   0.000000e+00   0.000000e+00
     4112000   4.111999e-07   5.868200e-02   5.716792e+00   6.261532e+00  -9.630701e+04  -8.738138e+04  -6.946344e+04   2.093300e+10  -2.307036e+10  -1.081297e+06   1.474304e+05   7.515740e-30   0.000000e+00   0.000000e+00
     4120000   4.119999e-07   5.860496e-02   5.716722e+00   6.261476e+00  -9.629026e+04  -8.739983e+04  -6.946344e+04   2.093652e+10  -2.306551e+10  -8.852584e+05   1.474304e+05   7.515149e-30   0.000000e+00   0.000000e+00
     4128000   4.127999e-07   5.852793e-02   5.716652e+00   6.261421e+00  -9.627351e+04  -8.741828e+04  -6.946344e+04   2.094004e+10  -2.306066e+10  -6.894299e+05   1.474304e+05   7.514558e-30   0.000000e+00   0.000000e+00
     4136000   4.135999e-07   5.845092e-02   5.716582e+00   6.261365e+00  -9.625676e+04  -8.743673e+04  -6.946344e+04   2.094356e+10  -2.305581e+10  -4.938113e+05   1.474304e+05   7.513967e-30   0.000000e+00   0.000000e+00
     4144000   4.143999e-07   5.837392e-02   5.716512e+00   6.261310e+00  -9.624000e+04  -8.745517e+04  -6.946344e+04   2.094707e+10  -2.305096e+10  -2.984024e+05   1.474304e+05   7.513376e-30   0.000000e+00   0.000000e+00
     4152000   4.151999e-07   5.829694e-02   5.716442e+00   6.261254e+00  -9.622324e+04  -8.747361e+04  -6.946344e+04   2.095059e+10  -2.304611e+10  -1.032033e+05   1.474304e+05   7.512785e-30   0.000000e+00   0.000000e+00
     4160000   4.159999e-07   5.821997e-02   5.716372e+00   6.261199e+00  -9.620648e+04  -8.749204e+04  -6.946344e+04   2.095410e+10  -2.304126e+10   9.178604e+04   1.474304e+05   7.512194e-30   0.000000e+00   0.000000e+00
     4168000   4.167999e-07   5.814301e-02   5.716302e+00   6.261143e+00  -9.618972e+04  -8.751048e+04  -6.946344e+04   2.095761e+10  -2.303641e+10   2.865658e+05   1.474304e+05   7.511603e-30   0.000000e+00   0.000000e+00
     4176000   4.175999e-07   5.806606e-02   5.716232e+00   6.261087e+00  -9.617295e+04  -8.752890e+04  -6.946344e+04   2.096113e+10  -2.303156e+10   4.811359e+05   1.474304e+05   7.511012e-30   0.000000e+00   0.000000e+00
     4184000   4.183999e-07   5.798913e-02   5.716162e+00   6.261032e+00  -9.615618e+04  -8.754733e+04  -6.946344e+04   2.096464e+10  -2.302670e+10   6.754965e+05   1.474304e+05   7.510421e-30   0.000000e+00   0.000000e+00
     4192000   4.191999e-07   5.791221e-02   5.716092e+00   6.260976e+00  -9.613940e+04  -8.756575e+04  -6.946344e+04   2.096815e+10  -2.302185e+10   8.696476e+05   1.474304e+05   7.509830e-30   0.000000e+00   0.000000e+00
     4200000   4.199999e-07   5.783531e-02   5.716022e+00   6.260921e+00  -9.612263e+04  -8.758416e+04  -6.946344e+04   2.097165e+10  -2.301700e+10   1.063589e+06   1.474304e+05   7.509240e-30   0.000000e+00   0.000000e+00
     4208000   4.207999e-07   5.775842e-02   5.715952e+00   6.260865e+00  -9.610585e+04  -8.760257e+04  -6.946344e+04   2.097516e+10  -2.301214e+10   1.257322e+06   1.474304e+05   7.508649e-30   0.000000e+00   0.000000e+00
     4216000   4.215999e-07   5.768154e-02   5.715882e+00   6.260810e+00  -9.608907e+04  -8.762098e+04  -6.946344e+04   2.097867e+10  -2.300729e+10   1.450845e+06   1.474304e+05   7.508058e-30   0.000000e+00   0.000000e+00
     4224000   4.223999e-07   5.760467e-02   5.715812e+00   6.260754e+00  -9.607228e+04  -8.763938e+04  -6.946343e+04   2.098217e+10  -2.300244e+10   1.644158e+06   1.474304e+05   7.507468e-30   0.000000e+00   0.000000e+00
     4232000   4.231999e-07   5.752782e-02   5.715741e+00   6.260698e+00  -9.605550e+04  -8.765778e+04  -6.946343e+04   2.098568e+10  -2.299758e+10   1.837263e+06   1.474304e+05   7.506877e-30   0.000000e+00   0.000000e+00
     4240000   4.239999e-07   5.745098e-02   5.715671e+00   6.260643e+00  -9.603871e+04  -8.767618e+04  -6.946343e+04   2.098918e+10  -2.299273e+10   2.030158e+06   1.474304e+05   7.506286e-30   0.000000e+00   0.000000e+00
     4248000   4.247999e-07   5.737416e-02   5.715601e+00   6.260587e+00  -9.602191e+04  -8.769457e+04  -6.946343e+04   2.099268e+10  -2.298787e+10   2.222844e+06   1.474304e+05   7.505696e-30   0.000000e+00   0.000000e+00
     4256000   4.255999e-07   5.729735e-02   5.715531e+00   6.260532e+00  -9.600512e+04  -8.771296e+04  -6.946343e+04   2.099618e+10  -2.298302e+10   2.415321e+06   1.474304e+05   7.505105e-30   0.000000e+00   0.000000e+00
     4264000   4.263999e-07   5.722055e-02   5.715461e+00   6.260476e+00  -9.598832e+04  -8.773135e+04  -6.946343e+04   2.099968e+10  -2.297816e+10   2.607590e+06   1.474304e+05   7.504515e-30   0.000000e+00   0.000000e+00
     4272000   4.271999e-07   5.714377e-02   5.715391e+00   6.260421e+00  -9.597152e+04  -8.774973e+04  -6.946342e+04   2.100318e+10  -2.297331e+10   2.799649e+06   1.474304e+05   7.503924e-30   0.000000e+00   0.000000e+00
     4280000   4.279999e-07   5.706700e-02   5.715320e+00   6.260365e+00  -9.595472e+04  -8.776810e+04  -6.946342e+04   2.100667e+10  -2.296845e+10   2.991499e+06   1.474304e+05   7.503334e-30   0.000000e+00   0.000000e+00
     4288000   4.287999e-07   5.699024e-02   5.715250e+00   6.260309e+00  -9.593791e+04  -8.778648e+04  -6.946342e+04   2.101017e+10  -2.296359e+10   3.183140e+06   1.474304e+05   7.502744e-30   0.000000e+00   0.000000e+00
