     timestep     time              x             y              z              vx             vy             vz             ax             ay             az         v_magnitude      ELoss        Electronic      Nuclear
           0   0.000000e+00   1.000000e-01   1.710232e+00   7.395714e+00   1.241683e+04  -1.369594e+05  -5.313812e+04   0.000000e+00   0.000000e+00   0.000000e+00   1.474304e+05   0.000000e+00   0.000000e+00   0.000000e+00
        8000   7.999000e-10   1.000099e-01   1.710122e+00   7.395671e+00   1.242697e+04  -1.369586e+05  -5.313786e+04   1.268374e+10   1.024637e+09   3.253357e+08   1.474304e+05   1.254904e-30   0.000000e+00   0.000000e+00
       16000   1.599900e-09   1.000199e-01   1.710013e+00   7.395629e+00   1.243712e+04  -1.369578e+05  -5.313760e+04   1.268297e+10   1.025508e+09   3.253489e+08   1.474304e+05   1.254765e-30   0.000000e+00   0.000000e+00
       24000   2.399900e-09   1.000298e-01   1.709903e+00   7.395586e+00   1.244727e+04  -1.369569e+05  -5.313734e+04   1.268219e+10   1.026379e+09   3.253621e+08   1.474304e+05   1.254626e-30   0.000000e+00   0.000000e+00
       32000   3.199900e-09   1.000398e-01   1.709794e+00   7.395544e+00   1.245741e+04  -1.369561e+05  -5.313708e+04   1.268141e+10   1.027249e+09   3.253754e+08   1.474304e+05   1.254488e-30   0.000000e+00   0.000000e+00
       40000   3.999900e-09   1.000498e-01   1.709684e+00   7.395501e+00   1.246756e+04  -1.369553e+05  -5.313682e+04   1.268064e+10   1.028119e+09   3.253887e+08   1.474304e+05   1.254349e-30   0.000000e+00   0.000000e+00
       48000   4.799900e-09   1.000597e-01   1.709575e+00   7.395459e+00   1.247770e+04  -1.369545e+05  -5.313656e+04   1.267986e+10   1.028990e+09   3.254020e+08   1.474304e+05   1.254210e-30   0.000000e+00   0.000000e+00
       56000   5.599900e-09   1.000697e-01   1.709465e+00   7.395416e+00   1.248784e+04  -1.369536e+05  -5.313630e+04   1.267908e+10   1.029860e+09   3.254152e+08   1.474304e+05   1.254072e-30   0.000000e+00   0.000000e+00
       64000   6.399900e-09   1.000797e-01   1.709355e+00   7.395374e+00   1.249799e+04  -1.369528e+05  -5.313604e+04   1.267831e+10   1.030729e+09   3.254285e+08   1.474304e+05   1.253933e-30   0.000000e+00   0.000000e+00
       72000   7.199900e-09   1.000897e-01   1.709246e+00   7.395331e+00   1.250813e+04  -1.369520e+05  -5.313578e+04   1.267753e+10   1.031599e+09   3.254419e+08   1.474304e+05   1.253795e-30   0.000000e+00   0.000000e+00
       80000   7.999900e-09   1.000997e-01   1.709136e+00   7.395289e+00   1.251827e+04  -1.369512e+05  -5.313552e+04   1.267675e+10   1.032468e+09   3.254552e+08   1.474304e+05   1.253656e-30   0.000000e+00   0.000000e+00
       88000   8.799900e-09   1.001098e-01   1.709027e+00   7.395246e+00   1.252841e+04  -1.369503e+05  -5.313526e+04   1.267598e+10   1.033338e+09   3.254685e+08   1.474304e+05   1.253517e-30   0.000000e+00   0.000000e+00
       96000   9.599900e-09   1.001198e-01   1.708917e+00   7.395204e+00   1.253855e+04  -1.369495e+05  -5.313500e+04   1.267520e+10   1.034207e+09   3.254819e+08   1.474304e+05   1.253379e-30   0.000000e+00   0.000000e+00
      104000   1.039990e-08   1.001298e-01   1.708808e+00   7.395161e+00   1.254869e+04  -1.369487e+05  -5.313474e+04   1.267442e+10   1.035076e+09   3.254952e+08   1.474304e+05   1.253240e-30   0.000000e+00   0.000000e+00
      112000   1.119990e-08   1.001399e-01   1.708698e+00   7.395119e+00   1.255883e+04  -1.369479e+05  -5.313448e+04   1.267365e+10   1.035945e+09   3.255086e+08   1.474304e+05   1.253102e-30   0.000000e+00   0.000000e+00
      120000   1.199990e-08   1.001499e-01   1.708589e+00   7.395076e+00   1.256897e+04  -1.369470e+05  -5.313422e+04   1.267287e+10   1.036814e+09   3.255220e+08   1.474304e+05   1.252964e-30   0.000000e+00   0.000000e+00
      128000   1.279990e-08   1.001600e-01   1.708479e+00   7.395034e+00   1.257911e+04  -1.369462e+05  -5.313396e+04   1.267209e+10   1.037682e+09   3.255354e+08   1.474304e+05   1.252825e-30   0.000000e+00   0.000000e+00
      136000   1.359990e-08   1.001700e-01   1.708369e+00   7.394991e+00   1.258925e+04  -1.369454e+05  -5.313370e+04   1.267132e+10   1.038550e+09   3.255488e+08   1.474304e+05   1.252687e-30   0.000000e+00   0.000000e+00
      144000   1.439990e-08   1.001801e-01   1.708260e+00   7.394949e+00   1.259938e+04  -1.369445e+05  -5.313344e+04   1.267054e+10   1.039419e+09   3.255622e+08   1.474304e+05   1.252548e-30   0.000000e+00   0.000000e+00
      152000   1.519990e-08   1.001902e-01   1.708150e+00   7.394906e+00   1.260952e+04  -1.369437e+05  -5.313318e+04   1.266976e+10   1.040287e+09   3.255756e+08   1.474304e+05   1.252410e-30   0.000000e+00   0.000000e+00
      160000   1.599990e-08   1.002003e-01   1.708041e+00   7.394864e+00   1.261965e+04  -1.369429e+05  -5.313292e+04   1.266899e+10   1.041155e+09   3.255890e+08   1.474304e+05   1.252272e-30   0.000000e+00   0.000000e+00
      168000   1.679990e-08   1.002104e-01   1.707931e+00   7.394821e+00   1.262979e+04  -1.369420e+05  -5.313266e+04   1.266821e+10   1.042022e+09   3.256025e+08   1.474304e+05   1.252133e-30   0.000000e+00   0.000000e+00
      176000   1.759990e-08   1.002205e-01   1.707822e+00   7.394779e+00   1.263992e+04  -1.369412e+05  -5.313240e+04   1.266743e+10   1.042890e+09   3.256159e+08   1.474304e+05   1.251995e-30   0.000000e+00   0.000000e+00
      184000   1.839990e-08   1.002306e-01   1.707712e+00   7.394736e+00   1.265006e+04  -1.369404e+05  -5.313214e+04   1.266666e+10   1.043757e+09   3.256294e+08   1.474304e+05   1.251857e-30   0.000000e+00   0.000000e+00
      192000   1.919990e-08   1.002407e-01   1.707603e+00   7.394694e+00   1.266019e+04  -1.369395e+05  -5.313188e+04   1.266588e+10   1.044625e+09   3.256429e+08   1.474304e+05   1.251718e-30   0.000000e+00   0.000000e+00
      200000   1.999990e-08   1.002509e-01   1.707493e+00   7.394651e+00   1.267032e+04  -1.369387e+05  -5.313161e+04   1.266510e+10   1.045492e+09   3.256563e+08   1.474304e+05   1.251580e-30   0.000000e+00   0.000000e+00
      208000   2.079990e-08   1.002610e-01   1.707383e+00   7.394609e+00   1.268045e+04  -1.369379e+05  -5.313135e+04   1.266433e+10   1.046359e+09   3.256698e+08   1.474304e+05   1.251442e-30   0.000000e+00   0.000000e+00
      216000   2.159990e-08   1.002712e-01   1.707274e+00   7.394566e+00   1.269058e+04  -1.369370e+05  -5.313109e+04   1.266355e+10   1.047225e+09   3.256834e+08   1.474304e+05   1.251304e-30   0.000000e+00   0.000000e+00
      224000   2.239990e-08   1.002813e-01   1.707164e+00   7.394524e+00   1.270072e+04  -1.369362e+05  -5.313083e+04   1.266277e+10   1.048092e+09   3.256969e+08   1.474304e+05   1.251165e-30   0.000000e+00   0.000000e+00
      232000   2.319990e-08   1.002915e-01   1.707055e+00   7.394481e+00   1.271085e+04  -1.369354e+05  -5.313057e+04   1.266200e+10   1.048958e+09   3.257104e+08   1.474304e+05   1.251027e-30   0.000000e+00   0.000000e+00
      240000   2.399990e-08   1.003017e-01   1.706945e+00   7.394439e+00   1.272097e+04  -1.369345e+05  -5.313031e+04   1.266122e+10   1.049825e+09   3.257239e+08   1.474304e+05   1.250889e-30   0.000000e+00   0.000000e+00
      248000   2.479990e-08   1.003118e-01   1.706836e+00   7.394396e+00   1.273110e+04  -1.369337e+05  -5.313005e+04   1.266044e+10   1.050691e+09   3.257375e+08   1.474304e+05   1.250751e-30   0.000000e+00   0.000000e+00
      256000   2.559990e-08   1.003220e-01   1.706726e+00   7.394354e+00   1.274123e+04  -1.369328e+05  -5.312979e+04   1.265967e+10   1.051557e+09   3.257511e+08   1.474304e+05   1.250613e-30   0.000000e+00   0.000000e+00
      264000   2.639990e-08   1.003322e-01   1.706617e+00   7.394311e+00   1.275136e+04  -1.369320e+05  -5.312953e+04   1.265889e+10   1.052422e+09   3.257646e+08   1.474304e+05   1.250475e-30   0.000000e+00   0.000000e+00
      272000   2.719990e-08   1.003424e-01   1.706507e+00   7.394269e+00   1.276149e+04  -1.369311e+05  -5.312927e+04   1.265811e+10   1.053288e+09   3.257782e+08   1.474304e+05   1.250337e-30   0.000000e+00   0.000000e+00
      280000   2.799990e-08   1.003526e-01   1.706398e+00   7.394226e+00   1.277161e+04  -1.369303e+05  -5.312901e+04   1.265734e+10   1.054154e+09   3.257918e+08   1.474304e+05   1.250199e-30   0.000000e+00   0.000000e+00
      288000   2.879990e-08   1.003629e-01   1.706288e+00   7.394184e+00   1.278174e+04  -1.369295e+05  -5.312875e+04   1.265656e+10   1.055019e+09   3.258054e+08   1.474304e+05   1.250061e-30   0.000000e+00   0.000000e+00
      296000   2.959990e-08   1.003731e-01   1.706178e+00   7.394141e+00   1.279186e+04  -1.369286e+05  -5.312849e+04   1.265578e+10   1.055884e+09   3.258191e+08   1.474304e+05   1.249923e-30   0.000000e+00   0.000000e+00
      304000   3.039990e-08   1.003833e-01   1.706069e+00   7.394099e+00   1.280199e+04  -1.369278e+05  -5.312823e+04   1.265501e+10   1.056749e+09   3.258327e+08   1.474304e+05   1.249785e-30   0.000000e+00   0.000000e+00
      312000   3.119990e-08   1.003936e-01   1.705959e+00   7.394056e+00   1.281211e+04  -1.369269e+05  -5.312797e+04   1.265423e+10   1.057614e+09   3.258463e+08   1.474304e+05   1.249647e-30   0.000000e+00   0.000000e+00
      320000   3.199990e-08   1.004038e-01   1.705850e+00   7.394014e+00   1.282223e+04  -1.369261e+05  -5.312771e+04   1.265345e+10   1.058479e+09   3.258600e+08   1.474304e+05   1.249509e-30   0.000000e+00   0.000000e+00
      328000   3.279990e-08   1.004141e-01   1.705740e+00   7.393971e+00   1.283236e+04  -1.369252e+05  -5.312744e+04   1.265268e+10   1.059343e+09   3.258736e+08   1.474304e+05   1.249371e-30   0.000000e+00   0.000000e+00
      336000   3.359990e-08   1.004244e-01   1.705631e+00   7.393929e+00   1.284248e+04  -1.369244e+05  -5.312718e+04   1.265190e+10   1.060208e+09   3.258873e+08   1.474304e+05   1.249233e-30   0.000000e+00   0.000000e+00
      344000   3.439990e-08   1.004346e-01   1.705521e+00   7.393886e+00   1.285260e+04  -1.369235e+05  -5.312692e+04   1.265112e+10   1.061072e+09   3.259010e+08   1.474304e+05   1.249095e-30   0.000000e+00   0.000000e+00
      352000   3.519990e-08   1.004449e-01   1.705412e+00   7.393844e+00   1.286272e+04  -1.369227e+05  -5.312666e+04   1.265035e+10   1.061936e+09   3.259147e+08   1.474304e+05   1.248957e-30   0.000000e+00   0.000000e+00
      360000   3.599990e-08   1.004552e-01   1.705302e+00   7.393801e+00   1.287284e+04  -1.369218e+05  -5.312640e+04   1.264957e+10   1.062800e+09   3.259284e+08   1.474304e+05   1.248819e-30   0.000000e+00   0.000000e+00
      368000   3.679990e-08   1.004655e-01   1.705193e+00   7.393759e+00   1.288296e+04  -1.369210e+05  -5.312614e+04   1.264879e+10   1.063663e+09   3.259421e+08   1.474304e+05   1.248681e-30   0.000000e+00   0.000000e+00
      376000   3.759990e-08   1.004758e-01   1.705083e+00   7.393716e+00   1.289308e+04  -1.369201e+05  -5.312588e+04   1.264802e+10   1.064527e+09   3.259558e+08   1.474304e+05   1.248543e-30   0.000000e+00   0.000000e+00
      384000   3.839990e-08   1.004861e-01   1.704974e+00   7.393674e+00   1.290320e+04  -1.369193e+05  -5.312562e+04   1.264724e+10   1.065390e+09   3.259696e+08   1.474304e+05   1.248406e-30   0.000000e+00   0.000000e+00
      392000   3.919990e-08   1.004965e-01   1.704864e+00   7.393631e+00   1.291331e+04  -1.369184e+05  -5.312536e+04   1.264647e+10   1.066254e+09   3.259833e+08   1.474304e+05   1.248268e-30   0.000000e+00   0.000000e+00
      400000   3.999990e-08   1.005068e-01   1.704754e+00   7.393589e+00   1.292343e+04  -1.369176e+05  -5.312510e+04   1.264569e+10   1.067117e+09   3.259971e+08   1.474304e+05   1.248130e-30   0.000000e+00   0.000000e+00
      408000   4.079990e-08   1.005172e-01   1.704645e+00   7.393546e+00   1.293355e+04  -1.369167e+05  -5.312484e+04   1.264491e+10   1.067980e+09   3.260109e+08   1.474304e+05   1.247992e-30   0.000000e+00   0.000000e+00
      416000   4.159990e-08   1.005275e-01   1.704535e+00   7.393504e+00   1.294366e+04  -1.369159e+05  -5.312458e+04   1.264414e+10   1.068842e+09   3.260247e+08   1.474304e+05   1.247855e-30   0.000000e+00   0.000000e+00
      424000   4.239990e-08   1.005379e-01   1.704426e+00   7.393461e+00   1.295378e+04  -1.369150e+05  -5.312432e+04   1.264336e+10   1.069705e+09   3.260384e+08   1.474304e+05   1.247717e-30   0.000000e+00   0.000000e+00
      432000   4.319990e-08   1.005482e-01   1.704316e+00   7.393419e+00   1.296389e+04  -1.369142e+05  -5.312405e+04   1.264258e+10   1.070567e+09   3.260523e+08   1.474304e+05   1.247579e-30   0.000000e+00   0.000000e+00
      440000   4.399990e-08   1.005586e-01   1.704207e+00   7.393376e+00   1.297400e+04  -1.369133e+05  -5.312379e+04   1.264181e+10   1.071430e+09   3.260661e+08   1.474304e+05   1.247441e-30   0.000000e+00   0.000000e+00
      448000   4.479990e-08   1.005690e-01   1.704097e+00   7.393334e+00   1.298412e+04  -1.369124e+05  -5.312353e+04   1.264103e+10   1.072292e+09   3.260799e+08   1.474304e+05   1.247304e-30   0.000000e+00   0.000000e+00
      456000   4.559990e-08   1.005794e-01   1.703988e+00   7.393291e+00   1.299423e+04  -1.369116e+05  -5.312327e+04   1.264025e+10   1.073154e+09   3.260937e+08   1.474304e+05   1.247166e-30   0.000000e+00   0.000000e+00
      464000   4.639990e-08   1.005898e-01   1.703878e+00   7.393249e+00   1.300434e+04  -1.369107e+05  -5.312301e+04   1.263948e+10   1.074016e+09   3.261076e+08   1.474304e+05   1.247029e-30   0.000000e+00   0.000000e+00
      472000   4.719990e-08   1.006002e-01   1.703769e+00   7.393206e+00   1.301445e+04  -1.369099e+05  -5.312275e+04   1.263870e+10   1.074877e+09   3.261214e+08   1.474304e+05   1.246891e-30   0.000000e+00   0.000000e+00
      480000   4.799990e-08   1.006106e-01   1.703659e+00   7.393164e+00   1.302456e+04  -1.369090e+05  -5.312249e+04   1.263792e+10   1.075739e+09   3.261353e+08   1.474304e+05   1.246753e-30   0.000000e+00   0.000000e+00
      488000   4.879990e-08   1.006210e-01   1.703550e+00   7.393121e+00   1.303467e+04  -1.369081e+05  -5.312223e+04   1.263715e+10   1.076600e+09   3.261492e+08   1.474304e+05   1.246616e-30   0.000000e+00   0.000000e+00
      496000   4.959990e-08   1.006315e-01   1.703440e+00   7.393079e+00   1.304478e+04  -1.369073e+05  -5.312197e+04   1.263637e+10   1.077461e+09   3.261631e+08   1.474304e+05   1.246478e-30   0.000000e+00   0.000000e+00
      504000   5.039990e-08   1.006419e-01   1.703331e+00   7.393036e+00   1.305489e+04  -1.369064e+05  -5.312171e+04   1.263559e+10   1.078322e+09   3.261770e+08   1.474304e+05   1.246341e-30   0.000000e+00   0.000000e+00
      512000   5.119990e-08   1.006523e-01   1.703221e+00   7.392994e+00   1.306500e+04  -1.369056e+05  -5.312145e+04   1.263482e+10   1.079183e+09   3.261909e+08   1.474304e+05   1.246203e-30   0.000000e+00   0.000000e+00
      520000   5.199990e-08   1.006628e-01   1.703112e+00   7.392951e+00   1.307511e+04  -1.369047e+05  -5.312118e+04   1.263404e+10   1.080044e+09   3.262048e+08   1.474304e+05   1.246066e-30   0.000000e+00   0.000000e+00
      528000   5.279990e-08   1.006733e-01   1.703002e+00   7.392909e+00   1.308522e+04  -1.369038e+05  -5.312092e+04   1.263327e+10   1.080904e+09   3.262188e+08   1.474304e+05   1.245928e-30   0.000000e+00   0.000000e+00
      536000   5.359990e-08   1.006837e-01   1.702892e+00   7.392866e+00   1.309532e+04  -1.369030e+05  -5.312066e+04   1.263249e+10   1.081765e+09   3.262327e+08   1.474304e+05   1.245791e-30   0.000000e+00   0.000000e+00
      544000   5.439990e-08   1.006942e-01   1.702783e+00   7.392824e+00   1.310543e+04  -1.369021e+05  -5.312040e+04   1.263171e+10   1.082625e+09   3.262467e+08   1.474304e+05   1.245653e-30   0.000000e+00   0.000000e+00
      552000   5.519990e-08   1.007047e-01   1.702673e+00   7.392781e+00   1.311553e+04  -1.369012e+05  -5.312014e+04   1.263094e+10   1.083485e+09   3.262607e+08   1.474304e+05   1.245516e-30   0.000000e+00   0.000000e+00
      560000   5.599990e-08   1.007152e-01   1.702564e+00   7.392739e+00   1.312564e+04  -1.369004e+05  -5.311988e+04   1.263016e+10   1.084345e+09   3.262746e+08   1.474304e+05   1.245379e-30   0.000000e+00   0.000000e+00
      568000   5.679990e-08   1.007257e-01   1.702454e+00   7.392696e+00   1.313574e+04  -1.368995e+05  -5.311962e+04   1.262938e+10   1.085205e+09   3.262886e+08   1.474304e+05   1.245241e-30   0.000000e+00   0.000000e+00
      576000   5.759990e-08   1.007362e-01   1.702345e+00   7.392654e+00   1.314584e+04  -1.368986e+05  -5.311936e+04   1.262861e+10   1.086064e+09   3.263026e+08   1.474304e+05   1.245104e-30   0.000000e+00   0.000000e+00
      584000   5.839990e-08   1.007467e-01   1.702235e+00   7.392611e+00   1.315595e+04  -1.368978e+05  -5.311910e+04   1.262783e+10   1.086924e+09   3.263167e+08   1.474304e+05   1.244967e-30   0.000000e+00   0.000000e+00
      592000   5.919990e-08   1.007573e-01   1.702126e+00   7.392569e+00   1.316605e+04  -1.368969e+05  -5.311884e+04   1.262705e+10   1.087783e+09   3.263307e+08   1.474304e+05   1.244829e-30   0.000000e+00   0.000000e+00
      600000   5.999990e-08   1.007678e-01   1.702016e+00   7.392526e+00   1.317615e+04  -1.368960e+05  -5.311857e+04   1.262628e+10   1.088642e+09   3.263447e+08   1.474304e+05   1.244692e-30   0.000000e+00   0.000000e+00
      608000   6.079990e-08   1.007784e-01   1.701907e+00   7.392484e+00   1.318625e+04  -1.368951e+05  -5.311831e+04   1.262550e+10   1.089501e+09   3.263588e+08   1.474304e+05   1.244555e-30   0.000000e+00   0.000000e+00
      616000   6.159990e-08   1.007889e-01   1.701797e+00   7.392441e+00   1.319635e+04  -1.368943e+05  -5.311805e+04   1.262473e+10   1.090360e+09   3.263728e+08   1.474304e+05   1.244417e-30   0.000000e+00   0.000000e+00
      624000   6.239990e-08   1.007995e-01   1.701688e+00   7.392399e+00   1.320645e+04  -1.368934e+05  -5.311779e+04   1.262395e+10   1.091218e+09   3.263869e+08   1.474304e+05   1.244280e-30   0.000000e+00   0.000000e+00
      632000   6.319990e-08   1.008100e-01   1.701578e+00   7.392356e+00   1.321655e+04  -1.368925e+05  -5.311753e+04   1.262317e+10   1.092077e+09   3.264010e+08   1.474304e+05   1.244143e-30   0.000000e+00   0.000000e+00
      640000   6.399990e-08   1.008206e-01   1.701469e+00   7.392314e+00   1.322665e+04  -1.368917e+05  -5.311727e+04   1.262240e+10   1.092935e+09   3.264151e+08   1.474304e+05   1.244006e-30   0.000000e+00   0.000000e+00
      648000   6.479990e-08   1.008312e-01   1.701359e+00   7.392271e+00   1.323674e+04  -1.368908e+05  -5.311701e+04   1.262162e+10   1.093793e+09   3.264292e+08   1.474304e+05   1.243869e-30   0.000000e+00   0.000000e+00
      656000   6.559990e-08   1.008418e-01   1.701250e+00   7.392229e+00   1.324684e+04  -1.368899e+05  -5.311675e+04   1.262084e+10   1.094651e+09   3.264433e+08   1.474304e+05   1.243731e-30   0.000000e+00   0.000000e+00
      664000   6.639990e-08   1.008524e-01   1.701140e+00   7.392186e+00   1.325694e+04  -1.368890e+05  -5.311649e+04   1.262007e+10   1.095509e+09   3.264574e+08   1.474304e+05   1.243594e-30   0.000000e+00   0.000000e+00
      672000   6.719990e-08   1.008630e-01   1.701031e+00   7.392144e+00   1.326703e+04  -1.368882e+05  -5.311622e+04   1.261929e+10   1.096367e+09   3.264716e+08   1.474304e+05   1.243457e-30   0.000000e+00   0.000000e+00
      680000   6.799990e-08   1.008736e-01   1.700921e+00   7.392101e+00   1.327713e+04  -1.368873e+05  -5.311596e+04   1.261851e+10   1.097224e+09   3.264857e+08   1.474304e+05   1.243320e-30   0.000000e+00   0.000000e+00
      688000   6.879990e-08   1.008842e-01   1.700812e+00   7.392059e+00   1.328722e+04  -1.368864e+05  -5.311570e+04   1.261774e+10   1.098081e+09   3.264999e+08   1.474304e+05   1.243183e-30   0.000000e+00   0.000000e+00
      696000   6.959990e-08   1.008949e-01   1.700702e+00   7.392016e+00   1.329732e+04  -1.368855e+05  -5.311544e+04   1.261696e+10   1.098939e+09   3.265140e+08   1.474304e+05   1.243046e-30   0.000000e+00   0.000000e+00
      704000   7.039990e-08   1.009055e-01   1.700593e+00   7.391974e+00   1.330741e+04  -1.368846e+05  -5.311518e+04   1.261619e+10   1.099796e+09   3.265282e+08   1.474304e+05   1.242909e-30   0.000000e+00   0.000000e+00
      712000   7.119990e-08   1.009162e-01   1.700483e+00   7.391931e+00   1.331750e+04  -1.368838e+05  -5.311492e+04   1.261541e+10   1.100653e+09   3.265424e+08   1.474304e+05   1.242772e-30   0.000000e+00   0.000000e+00
      720000   7.199990e-08   1.009268e-01   1.700374e+00   7.391889e+00   1.332759e+04  -1.368829e+05  -5.311466e+04   1.261463e+10   1.101509e+09   3.265566e+08   1.474304e+05   1.242635e-30   0.000000e+00   0.000000e+00
      728000   7.279990e-08   1.009375e-01   1.700264e+00   7.391846e+00   1.333769e+04  -1.368820e+05  -5.311440e+04   1.261386e+10   1.102366e+09   3.265708e+08   1.474304e+05   1.242498e-30   0.000000e+00   0.000000e+00
      736000   7.359990e-08   1.009482e-01   1.700155e+00   7.391804e+00   1.334778e+04  -1.368811e+05  -5.311413e+04   1.261308e+10   1.103222e+09   3.265851e+08   1.474304e+05   1.242361e-30   0.000000e+00   0.000000e+00
      744000   7.439990e-08   1.009589e-01   1.700045e+00   7.391761e+00   1.335787e+04  -1.368802e+05  -5.311387e+04   1.261230e+10   1.104078e+09   3.265993e+08   1.474304e+05   1.242224e-30   0.000000e+00   0.000000e+00
      752000   7.519990e-08   1.009695e-01   1.699936e+00   7.391719e+00   1.336795e+04  -1.368794e+05  -5.311361e+04   1.259177e+10   1.098294e+09   3.387538e+08   1.474304e+05   1.238181e-30   0.000000e+00   0.000000e+00
      760000   7.599990e-08   1.009802e-01   1.699826e+00   7.391676e+00   1.337802e+04  -1.368785e+05  -5.311334e+04   1.259103e+10   1.099147e+09   3.387747e+08   1.474304e+05   1.238050e-30   0.000000e+00   0.000000e+00
      768000   7.679990e-08   1.009909e-01   1.699717e+00   7.391634e+00   1.338809e+04  -1.368776e+05  -5.311306e+04   1.259029e+10   1.100001e+09   3.387957e+08   1.474304e+05   1.237920e-30   0.000000e+00   0.000000e+00
      776000   7.759990e-08   1.010017e-01   1.699607e+00   7.391591e+00   1.339816e+04  -1.368767e+05  -5.311279e+04   1.258955e+10   1.100854e+09   3.388167e+08   1.474304e+05   1.237790e-30   0.000000e+00   0.000000e+00
      784000   7.839990e-08   1.010124e-01   1.699498e+00   7.391549e+00   1.340824e+04  -1.368758e+05  -5.311252e+04   1.258881e+10   1.101708e+09   3.388378e+08   1.474304e+05   1.237660e-30   0.000000e+00   0.000000e+00
      792000   7.919990e-08   1.010231e-01   1.699388e+00   7.391506e+00   1.341831e+04  -1.368750e+05  -5.311225e+04   1.258806e+10   1.102561e+09   3.388588e+08   1.474304e+05   1.237530e-30   0.000000e+00   0.000000e+00
      800000   7.999990e-08   1.010339e-01   1.699279e+00   7.391464e+00   1.342838e+04  -1.368741e+05  -5.311198e+04   1.258732e+10   1.103414e+09   3.388798e+08   1.474304e+05   1.237400e-30   0.000000e+00   0.000000e+00
      808000   8.079990e-08   1.010446e-01   1.699169e+00   7.391422e+00   1.343845e+04  -1.368732e+05  -5.311171e+04   1.258658e+10   1.104267e+09   3.389009e+08   1.474304e+05   1.237271e-30   0.000000e+00   0.000000e+00
      816000   8.159990e-08   1.010554e-01   1.699060e+00   7.391379e+00   1.344852e+04  -1.368723e+05  -5.311144e+04   1.258584e+10   1.105119e+09   3.389219e+08   1.474304e+05   1.237141e-30   0.000000e+00   0.000000e+00
      824000   8.239990e-08   1.010661e-01   1.698950e+00   7.391337e+00   1.345858e+04  -1.368714e+05  -5.311117e+04   1.258510e+10   1.105972e+09   3.389430e+08   1.474304e+05   1.237011e-30   0.000000e+00   0.000000e+00
      832000   8.319990e-08   1.010769e-01   1.698841e+00   7.391294e+00   1.346865e+04  -1.368705e+05  -5.311090e+04   1.258436e+10   1.106824e+09   3.389641e+08   1.474304e+05   1.236881e-30   0.000000e+00   0.000000e+00
      840000   8.399990e-08   1.010877e-01   1.698731e+00   7.391252e+00   1.347872e+04  -1.368696e+05  -5.311062e+04   1.258361e+10   1.107676e+09   3.389851e+08   1.474304e+05   1.236751e-30   0.000000e+00   0.000000e+00
      848000   8.479990e-08   1.010985e-01   1.698622e+00   7.391209e+00   1.348879e+04  -1.368688e+05  -5.311035e+04   1.258287e+10   1.108528e+09   3.390062e+08   1.474304e+05   1.236621e-30   0.000000e+00   0.000000e+00
      856000   8.559990e-08   1.011092e-01   1.698512e+00   7.391167e+00   1.349885e+04  -1.368679e+05  -5.311008e+04   1.258213e+10   1.109380e+09   3.390273e+08   1.474304e+05   1.236491e-30   0.000000e+00   0.000000e+00
      864000   8.639990e-08   1.011201e-01   1.698403e+00   7.391124e+00   1.350892e+04  -1.368670e+05  -5.310981e+04   1.258139e+10   1.110232e+09   3.390485e+08   1.474304e+05   1.236361e-30   0.000000e+00   0.000000e+00
      872000   8.719990e-08   1.011309e-01   1.698293e+00   7.391082e+00   1.351898e+04  -1.368661e+05  -5.310954e+04   1.258065e+10   1.111084e+09   3.390696e+08   1.474304e+05   1.236232e-30   0.000000e+00   0.000000e+00
      880000   8.799990e-08   1.011417e-01   1.698184e+00   7.391039e+00   1.352905e+04  -1.368652e+05  -5.310927e+04   1.257990e+10   1.111935e+09   3.390907e+08   1.474304e+05   1.236102e-30   0.000000e+00   0.000000e+00
      888000   8.879990e-08   1.011525e-01   1.698074e+00   7.390997e+00   1.353911e+04  -1.368643e+05  -5.310900e+04   1.257916e+10   1.112786e+09   3.391119e+08   1.474304e+05   1.235972e-30   0.000000e+00   0.000000e+00
      896000   8.959990e-08   1.011633e-01   1.697965e+00   7.390954e+00   1.354917e+04  -1.368634e+05  -5.310873e+04   1.257842e+10   1.113638e+09   3.391330e+08   1.474304e+05   1.235842e-30   0.000000e+00   0.000000e+00
      904000   9.039990e-08   1.011742e-01   1.697855e+00   7.390912e+00   1.355924e+04  -1.368625e+05  -5.310845e+04   1.257768e+10   1.114489e+09   3.391542e+08   1.474304e+05   1.235713e-30   0.000000e+00   0.000000e+00
      912000   9.119990e-08   1.011850e-01   1.697746e+00   7.390869e+00   1.356930e+04  -1.368616e+05  -5.310818e+04   1.257694e+10   1.115339e+09   3.391753e+08   1.474304e+05   1.235583e-30   0.000000e+00   0.000000e+00
      920000   9.199990e-08   1.011959e-01   1.697636e+00   7.390827e+00   1.357936e+04  -1.368608e+05  -5.310791e+04   1.257619e+10   1.116190e+09   3.391965e+08   1.474304e+05   1.235453e-30   0.000000e+00   0.000000e+00
      928000   9.279990e-08   1.012068e-01   1.697527e+00   7.390784e+00   1.358942e+04  -1.368599e+05  -5.310764e+04   1.257545e+10   1.117041e+09   3.392177e+08   1.474304e+05   1.235323e-30   0.000000e+00   0.000000e+00
      936000   9.359990e-08   1.012176e-01   1.697417e+00   7.390742e+00   1.359948e+04  -1.368590e+05  -5.310737e+04   1.257471e+10   1.117891e+09   3.392389e+08   1.474304e+05   1.235194e-30   0.000000e+00   0.000000e+00
      944000   9.439990e-08   1.012285e-01   1.697308e+00   7.390699e+00   1.360954e+04  -1.368581e+05  -5.310710e+04   1.257397e+10   1.118741e+09   3.392601e+08   1.474304e+05   1.235064e-30   0.000000e+00   0.000000e+00
      952000   9.519990e-08   1.012394e-01   1.697198e+00   7.390657e+00   1.361960e+04  -1.368572e+05  -5.310683e+04   1.257323e+10   1.119592e+09   3.392813e+08   1.474304e+05   1.234935e-30   0.000000e+00   0.000000e+00
      960000   9.599990e-08   1.012503e-01   1.697089e+00   7.390614e+00   1.362966e+04  -1.368563e+05  -5.310655e+04   1.257249e+10   1.120441e+09   3.393026e+08   1.474304e+05   1.234805e-30   0.000000e+00   0.000000e+00
      968000   9.679990e-08   1.012612e-01   1.696979e+00   7.390572e+00   1.363971e+04  -1.368554e+05  -5.310628e+04   1.257174e+10   1.121291e+09   3.393238e+08   1.474304e+05   1.234675e-30   0.000000e+00   0.000000e+00
      976000   9.759990e-08   1.012721e-01   1.696870e+00   7.390529e+00   1.364977e+04  -1.368545e+05  -5.310601e+04   1.257100e+10   1.122141e+09   3.393451e+08   1.474304e+05   1.234546e-30   0.000000e+00   0.000000e+00
      984000   9.839990e-08   1.012831e-01   1.696760e+00   7.390487e+00   1.365983e+04  -1.368536e+05  -5.310574e+04   1.257026e+10   1.122990e+09   3.393663e+08   1.474304e+05   1.234416e-30   0.000000e+00   0.000000e+00
      992000   9.919990e-08   1.012940e-01   1.696651e+00   7.390444e+00   1.366988e+04  -1.368527e+05  -5.310547e+04   1.256952e+10   1.123840e+09   3.393876e+08   1.474304e+05   1.234287e-30   0.000000e+00   0.000000e+00
     1000000   9.999990e-08   1.013049e-01   1.696541e+00   7.390402e+00   1.367994e+04  -1.368518e+05  -5.310520e+04   1.256878e+10   1.124689e+09   3.394089e+08   1.474304e+05   1.234157e-30   0.000000e+00   0.000000e+00
     1008000   1.007999e-07   1.013159e-01   1.696432e+00   7.390359e+00   1.368999e+04  -1.368509e+05  -5.310493e+04   1.256804e+10   1.125538e+09   3.394302e+08   1.474304e+05   1.234028e-30   0.000000e+00   0.000000e+00
     1016000   1.015999e-07   1.013268e-01   1.696322e+00   7.390317e+00   1.370005e+04  -1.368500e+05  -5.310465e+04   1.256729e+10   1.126387e+09   3.394515e+08   1.474304e+05   1.233898e-30   0.000000e+00   0.000000e+00
     1024000   1.023999e-07   1.013378e-01   1.696213e+00   7.390274e+00   1.371010e+04  -1.368491e+05  -5.310438e+04   1.256655e+10   1.127236e+09   3.394728e+08   1.474304e+05   1.233769e-30   0.000000e+00   0.000000e+00
     1032000   1.031999e-07   1.013488e-01   1.696103e+00   7.390232e+00   1.372015e+04  -1.368482e+05  -5.310411e+04   1.256581e+10   1.128084e+09   3.394941e+08   1.474304e+05   1.233639e-30   0.000000e+00   0.000000e+00
     1040000   1.039999e-07   1.013598e-01   1.695994e+00   7.390189e+00   1.373021e+04  -1.368473e+05  -5.310384e+04   1.256507e+10   1.128933e+09   3.395154e+08   1.474304e+05   1.233510e-30   0.000000e+00   0.000000e+00
     1048000   1.047999e-07   1.013707e-01   1.695884e+00   7.390147e+00   1.374026e+04  -1.368464e+05  -5.310357e+04   1.256433e+10   1.129781e+09   3.395367e+08   1.474304e+05   1.233380e-30   0.000000e+00   0.000000e+00
     1056000   1.055999e-07   1.013817e-01   1.695775e+00   7.390104e+00   1.375031e+04  -1.368455e+05  -5.310330e+04   1.256358e+10   1.130629e+09   3.395581e+08   1.474304e+05   1.233251e-30   0.000000e+00   0.000000e+00
     1064000   1.063999e-07   1.013927e-01   1.695666e+00   7.390062e+00   1.376036e+04  -1.368446e+05  -5.310302e+04   1.256284e+10   1.131477e+09   3.395794e+08   1.474304e+05   1.233122e-30   0.000000e+00   0.000000e+00
     1072000   1.071999e-07   1.014038e-01   1.695556e+00   7.390019e+00   1.377041e+04  -1.368437e+05  -5.310275e+04   1.256210e+10   1.132325e+09   3.396008e+08   1.474304e+05   1.232992e-30   0.000000e+00   0.000000e+00
     1080000   1.079999e-07   1.014148e-01   1.695447e+00   7.389977e+00   1.378046e+04  -1.368428e+05  -5.310248e+04   1.256136e+10   1.133173e+09   3.396222e+08   1.474304e+05   1.232863e-30   0.000000e+00   0.000000e+00
     1088000   1.087999e-07   1.014258e-01   1.695337e+00   7.389935e+00   1.379051e+04  -1.368418e+05  -5.310221e+04   1.256062e+10   1.134020e+09   3.396436e+08   1.474304e+05   1.232734e-30   0.000000e+00   0.000000e+00
     1096000   1.095999e-07   1.014368e-01   1.695228e+00   7.389892e+00   1.380056e+04  -1.368409e+05  -5.310194e+04   1.255988e+10   1.134868e+09   3.396650e+08   1.474304e+05   1.232604e-30   0.000000e+00   0.000000e+00
     1104000   1.103999e-07   1.014479e-01   1.695118e+00   7.389850e+00   1.381060e+04  -1.368400e+05  -5.310167e+04   1.255913e+10   1.135715e+09   3.396864e+08   1.474304e+05   1.232475e-30   0.000000e+00   0.000000e+00
     1112000   1.111999e-07   1.014589e-01   1.695009e+00   7.389807e+00   1.382065e+04  -1.368391e+05  -5.310139e+04   1.255839e+10   1.136562e+09   3.397078e+08   1.474304e+05   1.232346e-30   0.000000e+00   0.000000e+00
     1120000   1.119999e-07   1.014700e-01   1.694899e+00   7.389765e+00   1.383070e+04  -1.368382e+05  -5.310112e+04   1.255765e+10   1.137409e+09   3.397292e+08   1.474304e+05   1.232217e-30   0.000000e+00   0.000000e+00
     1128000   1.127999e-07   1.014811e-01   1.694790e+00   7.389722e+00   1.384074e+04  -1.368373e+05  -5.310085e+04   1.255691e+10   1.138256e+09   3.397507e+08   1.474304e+05   1.232087e-30   0.000000e+00   0.000000e+00
     1136000   1.135999e-07   1.014921e-01   1.694680e+00   7.389680e+00   1.385079e+04  -1.368364e+05  -5.310058e+04   1.255617e+10   1.139103e+09   3.397721e+08   1.474304e+05   1.231958e-30   0.000000e+00   0.000000e+00
     1144000   1.143999e-07   1.015032e-01   1.694571e+00   7.389637e+00   1.386083e+04  -1.368355e+05  -5.310031e+04   1.255543e+10   1.139949e+09   3.397936e+08   1.474304e+05   1.231829e-30   0.000000e+00   0.000000e+00
     1152000   1.151999e-07   1.015143e-01   1.694461e+00   7.389595e+00   1.387088e+04  -1.368346e+05  -5.310004e+04   1.255468e+10   1.140796e+09   3.398150e+08   1.474304e+05   1.231700e-30   0.000000e+00   0.000000e+00
     1160000   1.159999e-07   1.015254e-01   1.694352e+00   7.389552e+00   1.388092e+04  -1.368337e+05  -5.309976e+04   1.255394e+10   1.141642e+09   3.398365e+08   1.474304e+05   1.231571e-30   0.000000e+00   0.000000e+00
     1168000   1.167999e-07   1.015365e-01   1.694242e+00   7.389510e+00   1.389096e+04  -1.368327e+05  -5.309949e+04   1.255320e+10   1.142488e+09   3.398580e+08   1.474304e+05   1.231441e-30   0.000000e+00   0.000000e+00
     1176000   1.175999e-07   1.015476e-01   1.694133e+00   7.389467e+00   1.390101e+04  -1.368318e+05  -5.309922e+04   1.255246e+10   1.143334e+09   3.398795e+08   1.474304e+05   1.231312e-30   0.000000e+00   0.000000e+00
     1184000   1.183999e-07   1.015588e-01   1.694023e+00   7.389425e+00   1.391105e+04  -1.368309e+05  -5.309895e+04   1.255172e+10   1.144179e+09   3.399010e+08   1.474304e+05   1.231183e-30   0.000000e+00   0.000000e+00
     1192000   1.191999e-07   1.015699e-01   1.693914e+00   7.389382e+00   1.392109e+04  -1.368300e+05  -5.309868e+04   1.255098e+10   1.145025e+09   3.399225e+08   1.474304e+05   1.231054e-30   0.000000e+00   0.000000e+00
     1200000   1.199999e-07   1.015810e-01   1.693805e+00   7.389340e+00   1.393113e+04  -1.368291e+05  -5.309840e+04   1.255023e+10   1.145871e+09   3.399440e+08   1.474304e+05   1.230925e-30   0.000000e+00   0.000000e+00
     1208000   1.207999e-07   1.015922e-01   1.693695e+00   7.389297e+00   1.394117e+04  -1.368282e+05  -5.309813e+04   1.254949e+10   1.146716e+09   3.399655e+08   1.474304e+05   1.230796e-30   0.000000e+00   0.000000e+00
     1216000   1.215999e-07   1.016034e-01   1.693586e+00   7.389255e+00   1.395121e+04  -1.368272e+05  -5.309786e+04   1.254875e+10   1.147561e+09   3.399871e+08   1.474304e+05   1.230667e-30   0.000000e+00   0.000000e+00
     1224000   1.223999e-07   1.016145e-01   1.693476e+00   7.389212e+00   1.396125e+04  -1.368263e+05  -5.309759e+04   1.254801e+10   1.148406e+09   3.400086e+08   1.474304e+05   1.230538e-30   0.000000e+00   0.000000e+00
     1232000   1.231999e-07   1.016257e-01   1.693367e+00   7.389170e+00   1.397128e+04  -1.368254e+05  -5.309732e+04   1.254727e+10   1.149251e+09   3.400302e+08   1.474304e+05   1.230409e-30   0.000000e+00   0.000000e+00
     1240000   1.239999e-07   1.016369e-01   1.693257e+00   7.389127e+00   1.398132e+04  -1.368245e+05  -5.309704e+04   1.254653e+10   1.150096e+09   3.400518e+08   1.474304e+05   1.230280e-30   0.000000e+00   0.000000e+00
     1248000   1.247999e-07   1.016481e-01   1.693148e+00   7.389085e+00   1.399136e+04  -1.368236e+05  -5.309677e+04   1.254578e+10   1.150940e+09   3.400733e+08   1.474304e+05   1.230151e-30   0.000000e+00   0.000000e+00
     1256000   1.255999e-07   1.016593e-01   1.693038e+00   7.389042e+00   1.400140e+04  -1.368226e+05  -5.309650e+04   1.254504e+10   1.151785e+09   3.400949e+08   1.474304e+05   1.230022e-30   0.000000e+00   0.000000e+00
     1264000   1.263999e-07   1.016705e-01   1.692929e+00   7.389000e+00   1.401143e+04  -1.368217e+05  -5.309623e+04   1.254430e+10   1.152629e+09   3.401165e+08   1.474304e+05   1.229893e-30   0.000000e+00   0.000000e+00
     1272000   1.271999e-07   1.016817e-01   1.692819e+00   7.388957e+00   1.402147e+04  -1.368208e+05  -5.309596e+04   1.254356e+10   1.153473e+09   3.401381e+08   1.474304e+05   1.229764e-30   0.000000e+00   0.000000e+00
     1280000   1.279999e-07   1.016929e-01   1.692710e+00   7.388915e+00   1.403150e+04  -1.368199e+05  -5.309568e+04   1.254282e+10   1.154317e+09   3.401598e+08   1.474304e+05   1.229635e-30   0.000000e+00   0.000000e+00
     1288000   1.287999e-07   1.017041e-01   1.692600e+00   7.388873e+00   1.404153e+04  -1.368190e+05  -5.309541e+04   1.254208e+10   1.155161e+09   3.401814e+08   1.474304e+05   1.229506e-30   0.000000e+00   0.000000e+00
     1296000   1.295999e-07   1.017154e-01   1.692491e+00   7.388830e+00   1.405157e+04  -1.368180e+05  -5.309514e+04   1.254133e+10   1.156004e+09   3.402030e+08   1.474304e+05   1.229378e-30   0.000000e+00   0.000000e+00
     1304000   1.303999e-07   1.017266e-01   1.692382e+00   7.388788e+00   1.406160e+04  -1.368171e+05  -5.309487e+04   1.254059e+10   1.156848e+09   3.402247e+08   1.474304e+05   1.229249e-30   0.000000e+00   0.000000e+00
     1312000   1.311999e-07   1.017379e-01   1.692272e+00   7.388745e+00   1.407163e+04  -1.368162e+05  -5.309459e+04   1.253985e+10   1.157691e+09   3.402463e+08   1.474304e+05   1.229120e-30   0.000000e+00   0.000000e+00
     1320000   1.319999e-07   1.017491e-01   1.692163e+00   7.388703e+00   1.408166e+04  -1.368153e+05  -5.309432e+04   1.253911e+10   1.158535e+09   3.402680e+08   1.474304e+05   1.228991e-30   0.000000e+00   0.000000e+00
     1328000   1.327999e-07   1.017604e-01   1.692053e+00   7.388660e+00   1.409170e+04  -1.368143e+05  -5.309405e+04   1.253837e+10   1.159378e+09   3.402897e+08   1.474304e+05   1.228862e-30   0.000000e+00   0.000000e+00
     1336000   1.335999e-07   1.017717e-01   1.691944e+00   7.388618e+00   1.410173e+04  -1.368134e+05  -5.309378e+04   1.253763e+10   1.160221e+09   3.403114e+08   1.474304e+05   1.228733e-30   0.000000e+00   0.000000e+00
     1344000   1.343999e-07   1.017830e-01   1.691834e+00   7.388575e+00   1.411176e+04  -1.368125e+05  -5.309351e+04   1.253688e+10   1.161063e+09   3.403331e+08   1.474304e+05   1.228605e-30   0.000000e+00   0.000000e+00
     1352000   1.351999e-07   1.017943e-01   1.691725e+00   7.388533e+00   1.412178e+04  -1.368115e+05  -5.309323e+04   1.253614e+10   1.161906e+09   3.403548e+08   1.474304e+05   1.228476e-30   0.000000e+00   0.000000e+00
     1360000   1.359999e-07   1.018056e-01   1.691615e+00   7.388490e+00   1.413181e+04  -1.368106e+05  -5.309296e+04   1.253540e+10   1.162748e+09   3.403765e+08   1.474304e+05   1.228347e-30   0.000000e+00   0.000000e+00
     1368000   1.367999e-07   1.018169e-01   1.691506e+00   7.388448e+00   1.414184e+04  -1.368097e+05  -5.309269e+04   1.253466e+10   1.163591e+09   3.403982e+08   1.474304e+05   1.228219e-30   0.000000e+00   0.000000e+00
     1376000   1.375999e-07   1.018282e-01   1.691397e+00   7.388405e+00   1.415187e+04  -1.368088e+05  -5.309242e+04   1.253392e+10   1.164433e+09   3.404200e+08   1.474304e+05   1.228090e-30   0.000000e+00   0.000000e+00
     1384000   1.383999e-07   1.018395e-01   1.691287e+00   7.388363e+00   1.416190e+04  -1.368078e+05  -5.309214e+04   1.253318e+10   1.165275e+09   3.404417e+08   1.474304e+05   1.227961e-30   0.000000e+00   0.000000e+00
     1392000   1.391999e-07   1.018508e-01   1.691178e+00   7.388320e+00   1.417192e+04  -1.368069e+05  -5.309187e+04   1.253243e+10   1.166117e+09   3.404635e+08   1.474304e+05   1.227833e-30   0.000000e+00   0.000000e+00
     1400000   1.399999e-07   1.018622e-01   1.691068e+00   7.388278e+00   1.418195e+04  -1.368060e+05  -5.309160e+04   1.253169e+10   1.166959e+09   3.404853e+08   1.474304e+05   1.227704e-30   0.000000e+00   0.000000e+00
     1408000   1.407999e-07   1.018735e-01   1.690959e+00   7.388235e+00   1.419197e+04  -1.368050e+05  -5.309133e+04   1.253095e+10   1.167800e+09   3.405070e+08   1.474304e+05   1.227575e-30   0.000000e+00   0.000000e+00
     1416000   1.415999e-07   1.018849e-01   1.690849e+00   7.388193e+00   1.420200e+04  -1.368041e+05  -5.309105e+04   1.253021e+10   1.168642e+09   3.405288e+08   1.474304e+05   1.227447e-30   0.000000e+00   0.000000e+00
     1424000   1.423999e-07   1.018963e-01   1.690740e+00   7.388150e+00   1.421202e+04  -1.368031e+05  -5.309078e+04   1.252947e+10   1.169483e+09   3.405506e+08   1.474304e+05   1.227318e-30   0.000000e+00   0.000000e+00
     1432000   1.431999e-07   1.019076e-01   1.690630e+00   7.388108e+00   1.422204e+04  -1.368022e+05  -5.309051e+04   1.252873e+10   1.170324e+09   3.405724e+08   1.474304e+05   1.227190e-30   0.000000e+00   0.000000e+00
     1440000   1.439999e-07   1.019190e-01   1.690521e+00   7.388066e+00   1.423207e+04  -1.368013e+05  -5.309024e+04   1.252798e+10   1.171165e+09   3.405942e+08   1.474304e+05   1.227061e-30   0.000000e+00   0.000000e+00
     1448000   1.447999e-07   1.019304e-01   1.690412e+00   7.388023e+00   1.424209e+04  -1.368003e+05  -5.308996e+04   1.252724e+10   1.172006e+09   3.406161e+08   1.474304e+05   1.226933e-30   0.000000e+00   0.000000e+00
     1456000   1.455999e-07   1.019418e-01   1.690302e+00   7.387981e+00   1.425211e+04  -1.367994e+05  -5.308969e+04   1.252650e+10   1.172847e+09   3.406379e+08   1.474304e+05   1.226804e-30   0.000000e+00   0.000000e+00
     1464000   1.463999e-07   1.019532e-01   1.690193e+00   7.387938e+00   1.426213e+04  -1.367985e+05  -5.308942e+04   1.252576e+10   1.173687e+09   3.406597e+08   1.474304e+05   1.226676e-30   0.000000e+00   0.000000e+00
     1472000   1.471999e-07   1.019646e-01   1.690083e+00   7.387896e+00   1.427215e+04  -1.367975e+05  -5.308915e+04   1.252502e+10   1.174528e+09   3.406816e+08   1.474304e+05   1.226547e-30   0.000000e+00   0.000000e+00
     1480000   1.479999e-07   1.019760e-01   1.689974e+00   7.387853e+00   1.428217e+04  -1.367966e+05  -5.308887e+04   1.252428e+10   1.175368e+09   3.407035e+08   1.474304e+05   1.226419e-30   0.000000e+00   0.000000e+00
     1488000   1.487999e-07   1.019875e-01   1.689864e+00   7.387811e+00   1.429219e+04  -1.367956e+05  -5.308860e+04   1.252354e+10   1.176208e+09   3.407253e+08   1.474304e+05   1.226290e-30   0.000000e+00   0.000000e+00
     1496000   1.495999e-07   1.019989e-01   1.689755e+00   7.387768e+00   1.430221e+04  -1.367947e+05  -5.308833e+04   1.252279e+10   1.177048e+09   3.407472e+08   1.474304e+05   1.226162e-30   0.000000e+00   0.000000e+00
     1504000   1.503999e-07   1.020103e-01   1.689645e+00   7.387726e+00   1.431223e+04  -1.367938e+05  -5.308806e+04   1.252205e+10   1.177888e+09   3.407691e+08   1.474304e+05   1.226033e-30   0.000000e+00   0.000000e+00
     1512000   1.511999e-07   1.020218e-01   1.689536e+00   7.387683e+00   1.432224e+04  -1.367928e+05  -5.308778e+04   1.252131e+10   1.178727e+09   3.407910e+08   1.474304e+05   1.225905e-30   0.000000e+00   0.000000e+00
     1520000   1.519999e-07   1.020333e-01   1.689427e+00   7.387641e+00   1.433226e+04  -1.367919e+05  -5.308751e+04   1.252057e+10   1.179567e+09   3.408129e+08   1.474304e+05   1.225777e-30   0.000000e+00   0.000000e+00
     1528000   1.527999e-07   1.020447e-01   1.689317e+00   7.387598e+00   1.434228e+04  -1.367909e+05  -5.308724e+04   1.251983e+10   1.180406e+09   3.408349e+08   1.474304e+05   1.225648e-30   0.000000e+00   0.000000e+00
     1536000   1.535999e-07   1.020562e-01   1.689208e+00   7.387556e+00   1.435229e+04  -1.367900e+05  -5.308697e+04   1.251909e+10   1.181245e+09   3.408568e+08   1.474304e+05   1.225520e-30   0.000000e+00   0.000000e+00
     1544000   1.543999e-07   1.020677e-01   1.689098e+00   7.387513e+00   1.436231e+04  -1.367890e+05  -5.308669e+04   1.251835e+10   1.182084e+09   3.408787e+08   1.474304e+05   1.225392e-30   0.000000e+00   0.000000e+00
     1552000   1.551999e-07   1.020792e-01   1.688989e+00   7.387471e+00   1.437232e+04  -1.367881e+05  -5.308642e+04   1.251760e+10   1.182923e+09   3.409007e+08   1.474304e+05   1.225263e-30   0.000000e+00   0.000000e+00
     1560000   1.559999e-07   1.020907e-01   1.688879e+00   7.387428e+00   1.438234e+04  -1.367871e+05  -5.308615e+04   1.251686e+10   1.183762e+09   3.409227e+08   1.474304e+05   1.225135e-30   0.000000e+00   0.000000e+00
     1568000   1.567999e-07   1.021022e-01   1.688770e+00   7.387386e+00   1.439235e+04  -1.367862e+05  -5.308588e+04   1.251612e+10   1.184601e+09   3.409446e+08   1.474304e+05   1.225007e-30   0.000000e+00   0.000000e+00
     1576000   1.575999e-07   1.021137e-01   1.688661e+00   7.387344e+00   1.440236e+04  -1.367853e+05  -5.308560e+04   1.251538e+10   1.185439e+09   3.409666e+08   1.474304e+05   1.224879e-30   0.000000e+00   0.000000e+00
     1584000   1.583999e-07   1.021252e-01   1.688551e+00   7.387301e+00   1.441237e+04  -1.367843e+05  -5.308533e+04   1.251464e+10   1.186277e+09   3.409886e+08   1.474304e+05   1.224750e-30   0.000000e+00   0.000000e+00
     1592000   1.591999e-07   1.021368e-01   1.688442e+00   7.387259e+00   1.442239e+04  -1.367834e+05  -5.308506e+04   1.251390e+10   1.187116e+09   3.410106e+08   1.474304e+05   1.224622e-30   0.000000e+00   0.000000e+00
     1600000   1.599999e-07   1.021483e-01   1.688332e+00   7.387216e+00   1.443240e+04  -1.367824e+05  -5.308478e+04   1.251315e+10   1.187954e+09   3.410326e+08   1.474304e+05   1.224494e-30   0.000000e+00   0.000000e+00
     1608000   1.607999e-07   1.021599e-01   1.688223e+00   7.387174e+00   1.444241e+04  -1.367815e+05  -5.308451e+04   1.251241e+10   1.188791e+09   3.410547e+08   1.474304e+05   1.224366e-30   0.000000e+00   0.000000e+00
     1616000   1.615999e-07   1.021714e-01   1.688113e+00   7.387131e+00   1.445242e+04  -1.367805e+05  -5.308424e+04   1.251167e+10   1.189629e+09   3.410767e+08   1.474304e+05   1.224238e-30   0.000000e+00   0.000000e+00
     1624000   1.623999e-07   1.021830e-01   1.688004e+00   7.387089e+00   1.446242e+04  -1.367795e+05  -5.308397e+04   1.251093e+10   1.190467e+09   3.410987e+08   1.474304e+05   1.224110e-30   0.000000e+00   0.000000e+00
     1632000   1.631999e-07   1.021946e-01   1.687895e+00   7.387046e+00   1.447243e+04  -1.367786e+05  -5.308369e+04   1.251019e+10   1.191304e+09   3.411208e+08   1.474304e+05   1.223981e-30   0.000000e+00   0.000000e+00
     1640000   1.639999e-07   1.022062e-01   1.687785e+00   7.387004e+00   1.448244e+04  -1.367776e+05  -5.308342e+04   1.250945e+10   1.192141e+09   3.411429e+08   1.474304e+05   1.223853e-30   0.000000e+00   0.000000e+00
     1648000   1.647999e-07   1.022177e-01   1.687676e+00   7.386961e+00   1.449245e+04  -1.367767e+05  -5.308315e+04   1.250871e+10   1.192979e+09   3.411649e+08   1.474304e+05   1.223725e-30   0.000000e+00   0.000000e+00
     1656000   1.655999e-07   1.022293e-01   1.687566e+00   7.386919e+00   1.450246e+04  -1.367757e+05  -5.308287e+04   1.250796e+10   1.193816e+09   3.411870e+08   1.474304e+05   1.223597e-30   0.000000e+00   0.000000e+00
     1664000   1.663999e-07   1.022409e-01   1.687457e+00   7.386876e+00   1.451246e+04  -1.367748e+05  -5.308260e+04   1.250722e+10   1.194652e+09   3.412091e+08   1.474304e+05   1.223469e-30   0.000000e+00   0.000000e+00
     1672000   1.671999e-07   1.022526e-01   1.687348e+00   7.386834e+00   1.452247e+04  -1.367738e+05  -5.308233e+04   1.250648e+10   1.195489e+09   3.412312e+08   1.474304e+05   1.223341e-30   0.000000e+00   0.000000e+00
     1680000   1.679999e-07   1.022642e-01   1.687238e+00   7.386791e+00   1.453247e+04  -1.367729e+05  -5.308206e+04   1.250574e+10   1.196326e+09   3.412533e+08   1.474304e+05   1.223213e-30   0.000000e+00   0.000000e+00
     1688000   1.687999e-07   1.022758e-01   1.687129e+00   7.386749e+00   1.454248e+04  -1.367719e+05  -5.308178e+04   1.250500e+10   1.197162e+09   3.412754e+08   1.474304e+05   1.223085e-30   0.000000e+00   0.000000e+00
     1696000   1.695999e-07   1.022875e-01   1.687019e+00   7.386707e+00   1.455248e+04  -1.367710e+05  -5.308151e+04   1.250426e+10   1.197998e+09   3.412976e+08   1.474304e+05   1.222957e-30   0.000000e+00   0.000000e+00
     1704000   1.703999e-07   1.022991e-01   1.686910e+00   7.386664e+00   1.456248e+04  -1.367700e+05  -5.308124e+04   1.250352e+10   1.198834e+09   3.413197e+08   1.474304e+05   1.222829e-30   0.000000e+00   0.000000e+00
     1712000   1.711999e-07   1.023108e-01   1.686800e+00   7.386622e+00   1.457249e+04  -1.367690e+05  -5.308096e+04   1.250278e+10   1.199670e+09   3.413419e+08   1.474304e+05   1.222701e-30   0.000000e+00   0.000000e+00
     1720000   1.719999e-07   1.023224e-01   1.686691e+00   7.386579e+00   1.458249e+04  -1.367681e+05  -5.308069e+04   1.250203e+10   1.200506e+09   3.413640e+08   1.474304e+05   1.222573e-30   0.000000e+00   0.000000e+00
     1728000   1.727999e-07   1.023341e-01   1.686582e+00   7.386537e+00   1.459249e+04  -1.367671e+05  -5.308042e+04   1.250129e+10   1.201342e+09   3.413862e+08   1.474304e+05   1.222446e-30   0.000000e+00   0.000000e+00
     1736000   1.735999e-07   1.023458e-01   1.686472e+00   7.386494e+00   1.460249e+04  -1.367662e+05  -5.308014e+04   1.250055e+10   1.202177e+09   3.414084e+08   1.474304e+05   1.222318e-30   0.000000e+00   0.000000e+00
     1744000   1.743999e-07   1.023574e-01   1.686363e+00   7.386452e+00   1.461249e+04  -1.367652e+05  -5.307987e+04   1.249981e+10   1.203012e+09   3.414306e+08   1.474304e+05   1.222190e-30   0.000000e+00   0.000000e+00
     1752000   1.751999e-07   1.023691e-01   1.686253e+00   7.386409e+00   1.462249e+04  -1.367642e+05  -5.307960e+04   1.249907e+10   1.203848e+09   3.414528e+08   1.474304e+05   1.222062e-30   0.000000e+00   0.000000e+00
     1760000   1.759999e-07   1.023808e-01   1.686144e+00   7.386367e+00   1.463249e+04  -1.367633e+05  -5.307932e+04   1.249833e+10   1.204683e+09   3.414750e+08   1.474304e+05   1.221934e-30   0.000000e+00   0.000000e+00
     1768000   1.767999e-07   1.023926e-01   1.686035e+00   7.386324e+00   1.464249e+04  -1.367623e+05  -5.307905e+04   1.249759e+10   1.205518e+09   3.414972e+08   1.474304e+05   1.221806e-30   0.000000e+00   0.000000e+00
     1776000   1.775999e-07   1.024043e-01   1.685925e+00   7.386282e+00   1.465248e+04  -1.367613e+05  -5.307878e+04   1.249684e+10   1.206352e+09   3.415194e+08   1.474304e+05   1.221679e-30   0.000000e+00   0.000000e+00
     1784000   1.783999e-07   1.024160e-01   1.685816e+00   7.386239e+00   1.466248e+04  -1.367604e+05  -5.307850e+04   1.249610e+10   1.207187e+09   3.415417e+08   1.474304e+05   1.221551e-30   0.000000e+00   0.000000e+00
     1792000   1.791999e-07   1.024277e-01   1.685706e+00   7.386197e+00   1.467248e+04  -1.367594e+05  -5.307823e+04   1.249536e+10   1.208021e+09   3.415639e+08   1.474304e+05   1.221423e-30   0.000000e+00   0.000000e+00
     1800000   1.799999e-07   1.024395e-01   1.685597e+00   7.386154e+00   1.468247e+04  -1.367584e+05  -5.307796e+04   1.249462e+10   1.208856e+09   3.415862e+08   1.474304e+05   1.221295e-30   0.000000e+00   0.000000e+00
     1808000   1.807999e-07   1.024512e-01   1.685487e+00   7.386112e+00   1.469247e+04  -1.367575e+05  -5.307768e+04   1.249388e+10   1.209690e+09   3.416085e+08   1.474304e+05   1.221168e-30   0.000000e+00   0.000000e+00
     1816000   1.815999e-07   1.024630e-01   1.685378e+00   7.386070e+00   1.470246e+04  -1.367565e+05  -5.307741e+04   1.249314e+10   1.210524e+09   3.416308e+08   1.474304e+05   1.221040e-30   0.000000e+00   0.000000e+00
     1824000   1.823999e-07   1.024747e-01   1.685269e+00   7.386027e+00   1.471246e+04  -1.367555e+05  -5.307714e+04   1.249240e+10   1.211358e+09   3.416530e+08   1.474304e+05   1.220912e-30   0.000000e+00   0.000000e+00
     1832000   1.831999e-07   1.024865e-01   1.685159e+00   7.385985e+00   1.472245e+04  -1.367546e+05  -5.307686e+04   1.249166e+10   1.212192e+09   3.416753e+08   1.474304e+05   1.220784e-30   0.000000e+00   0.000000e+00
     1840000   1.839999e-07   1.024983e-01   1.685050e+00   7.385942e+00   1.473244e+04  -1.367536e+05  -5.307659e+04   1.249091e+10   1.213025e+09   3.416977e+08   1.474304e+05   1.220657e-30   0.000000e+00   0.000000e+00
     1848000   1.847999e-07   1.025101e-01   1.684940e+00   7.385900e+00   1.474244e+04  -1.367526e+05  -5.307632e+04   1.249017e+10   1.213858e+09   3.417200e+08   1.474304e+05   1.220529e-30   0.000000e+00   0.000000e+00
     1856000   1.855999e-07   1.025219e-01   1.684831e+00   7.385857e+00   1.475243e+04  -1.367516e+05  -5.307604e+04   1.248943e+10   1.214692e+09   3.417423e+08   1.474304e+05   1.220402e-30   0.000000e+00   0.000000e+00
     1864000   1.863999e-07   1.025337e-01   1.684722e+00   7.385815e+00   1.476242e+04  -1.367507e+05  -5.307577e+04   1.248869e+10   1.215525e+09   3.417646e+08   1.474304e+05   1.220274e-30   0.000000e+00   0.000000e+00
     1872000   1.871999e-07   1.025455e-01   1.684612e+00   7.385772e+00   1.477241e+04  -1.367497e+05  -5.307550e+04   1.248795e+10   1.216358e+09   3.417870e+08   1.474304e+05   1.220146e-30   0.000000e+00   0.000000e+00
     1880000   1.879999e-07   1.025573e-01   1.684503e+00   7.385730e+00   1.478240e+04  -1.367487e+05  -5.307522e+04   1.248721e+10   1.217191e+09   3.418094e+08   1.474304e+05   1.220019e-30   0.000000e+00   0.000000e+00
     1888000   1.887999e-07   1.025692e-01   1.684393e+00   7.385687e+00   1.479239e+04  -1.367478e+05  -5.307495e+04   1.248647e+10   1.218023e+09   3.418317e+08   1.474304e+05   1.219891e-30   0.000000e+00   0.000000e+00
     1896000   1.895999e-07   1.025810e-01   1.684284e+00   7.385645e+00   1.480238e+04  -1.367468e+05  -5.307468e+04   1.248572e+10   1.218856e+09   3.418541e+08   1.474304e+05   1.219764e-30   0.000000e+00   0.000000e+00
     1904000   1.903999e-07   1.025928e-01   1.684175e+00   7.385603e+00   1.481237e+04  -1.367458e+05  -5.307440e+04   1.248498e+10   1.219688e+09   3.418765e+08   1.474304e+05   1.219636e-30   0.000000e+00   0.000000e+00
     1912000   1.911999e-07   1.026047e-01   1.684065e+00   7.385560e+00   1.482236e+04  -1.367448e+05  -5.307413e+04   1.248424e+10   1.220521e+09   3.418989e+08   1.474304e+05   1.219509e-30   0.000000e+00   0.000000e+00
     1920000   1.919999e-07   1.026166e-01   1.683956e+00   7.385518e+00   1.483234e+04  -1.367439e+05  -5.307386e+04   1.248350e+10   1.221353e+09   3.419213e+08   1.474304e+05   1.219381e-30   0.000000e+00   0.000000e+00
     1928000   1.927999e-07   1.026284e-01   1.683846e+00   7.385475e+00   1.484233e+04  -1.367429e+05  -5.307358e+04   1.248276e+10   1.222185e+09   3.419437e+08   1.474304e+05   1.219254e-30   0.000000e+00   0.000000e+00
     1936000   1.935999e-07   1.026403e-01   1.683737e+00   7.385433e+00   1.485231e+04  -1.367419e+05  -5.307331e+04   1.248202e+10   1.223016e+09   3.419662e+08   1.474304e+05   1.219126e-30   0.000000e+00   0.000000e+00
     1944000   1.943999e-07   1.026522e-01   1.683628e+00   7.385390e+00   1.486230e+04  -1.367409e+05  -5.307304e+04   1.248128e+10   1.223848e+09   3.419886e+08   1.474304e+05   1.218999e-30   0.000000e+00   0.000000e+00
     1952000   1.951999e-07   1.026641e-01   1.683518e+00   7.385348e+00   1.487228e+04  -1.367399e+05  -5.307276e+04   1.248054e+10   1.224680e+09   3.420111e+08   1.474304e+05   1.218872e-30   0.000000e+00   0.000000e+00
     1960000   1.959999e-07   1.026760e-01   1.683409e+00   7.385305e+00   1.488227e+04  -1.367390e+05  -5.307249e+04   1.247980e+10   1.225511e+09   3.420335e+08   1.474304e+05   1.218744e-30   0.000000e+00   0.000000e+00
     1968000   1.967999e-07   1.026879e-01   1.683300e+00   7.385263e+00   1.489225e+04  -1.367380e+05  -5.307222e+04   1.247905e+10   1.226342e+09   3.420560e+08   1.474304e+05   1.218617e-30   0.000000e+00   0.000000e+00
     1976000   1.975999e-07   1.026998e-01   1.683190e+00   7.385220e+00   1.490224e+04  -1.367370e+05  -5.307194e+04   1.247831e+10   1.227173e+09   3.420785e+08   1.474304e+05   1.218489e-30   0.000000e+00   0.000000e+00
     1984000   1.983999e-07   1.027117e-01   1.683081e+00   7.385178e+00   1.491222e+04  -1.367360e+05  -5.307167e+04   1.247757e+10   1.228004e+09   3.421010e+08   1.474304e+05   1.218362e-30   0.000000e+00   0.000000e+00
     1992000   1.991999e-07   1.027237e-01   1.682971e+00   7.385135e+00   1.492220e+04  -1.367350e+05  -5.307139e+04   1.247683e+10   1.228835e+09   3.421235e+08   1.474304e+05   1.218235e-30   0.000000e+00   0.000000e+00
     2000000   1.999999e-07   1.027356e-01   1.682862e+00   7.385093e+00   1.493218e+04  -1.367340e+05  -5.307112e+04   1.247609e+10   1.229665e+09   3.421460e+08   1.474304e+05   1.218107e-30   0.000000e+00   0.000000e+00
     2008000   2.007999e-07   1.027476e-01   1.682753e+00   7.385051e+00   1.494216e+04  -1.367331e+05  -5.307085e+04   1.247535e+10   1.230496e+09   3.421685e+08   1.474304e+05   1.217980e-30   0.000000e+00   0.000000e+00
     2016000   2.015999e-07   1.027595e-01   1.682643e+00   7.385008e+00   1.495214e+04  -1.367321e+05  -5.307057e+04   1.247461e+10   1.231326e+09   3.421910e+08   1.474304e+05   1.217853e-30   0.000000e+00   0.000000e+00
     2024000   2.023999e-07   1.027715e-01   1.682534e+00   7.384966e+00   1.496212e+04  -1.367311e+05  -5.307030e+04   1.247387e+10   1.232156e+09   3.422135e+08   1.474304e+05   1.217726e-30   0.000000e+00   0.000000e+00
     2032000   2.031999e-07   1.027835e-01   1.682424e+00   7.384923e+00   1.497210e+04  -1.367301e+05  -5.307003e+04   1.247312e+10   1.232986e+09   3.422361e+08   1.474304e+05   1.217598e-30   0.000000e+00   0.000000e+00
     2040000   2.039999e-07   1.027954e-01   1.682315e+00   7.384881e+00   1.498208e+04  -1.367291e+05  -5.306975e+04   1.247238e+10   1.233816e+09   3.422587e+08   1.474304e+05   1.217471e-30   0.000000e+00   0.000000e+00
     2048000   2.047999e-07   1.028074e-01   1.682206e+00   7.384838e+00   1.499206e+04  -1.367281e+05  -5.306948e+04   1.247164e+10   1.234646e+09   3.422812e+08   1.474304e+05   1.217344e-30   0.000000e+00   0.000000e+00
     2056000   2.055999e-07   1.028194e-01   1.682096e+00   7.384796e+00   1.500203e+04  -1.367271e+05  -5.306920e+04   1.247090e+10   1.235476e+09   3.423038e+08   1.474304e+05   1.217217e-30   0.000000e+00   0.000000e+00
     2064000   2.063999e-07   1.028314e-01   1.681987e+00   7.384753e+00   1.501201e+04  -1.367262e+05  -5.306893e+04   1.247016e+10   1.236305e+09   3.423264e+08   1.474304e+05   1.217090e-30   0.000000e+00   0.000000e+00
     2072000   2.071999e-07   1.028435e-01   1.681878e+00   7.384711e+00   1.502198e+04  -1.367252e+05  -5.306866e+04   1.246942e+10   1.237134e+09   3.423490e+08   1.474304e+05   1.216963e-30   0.000000e+00   0.000000e+00
     2080000   2.079999e-07   1.028555e-01   1.681768e+00   7.384668e+00   1.503196e+04  -1.367242e+05  -5.306838e+04   1.246868e+10   1.237964e+09   3.423716e+08   1.474304e+05   1.216835e-30   0.000000e+00   0.000000e+00
     2088000   2.087999e-07   1.028675e-01   1.681659e+00   7.384626e+00   1.504193e+04  -1.367232e+05  -5.306811e+04   1.246794e+10   1.238793e+09   3.423942e+08   1.474304e+05   1.216708e-30   0.000000e+00   0.000000e+00
     2096000   2.095999e-07   1.028795e-01   1.681549e+00   7.384584e+00   1.505191e+04  -1.367222e+05  -5.306783e+04   1.246720e+10   1.239621e+09   3.424169e+08   1.474304e+05   1.216581e-30   0.000000e+00   0.000000e+00
     2104000   2.103999e-07   1.028916e-01   1.681440e+00   7.384541e+00   1.506188e+04  -1.367212e+05  -5.306756e+04   1.246645e+10   1.240450e+09   3.424395e+08   1.474304e+05   1.216454e-30   0.000000e+00   0.000000e+00
     2112000   2.111999e-07   1.029036e-01   1.681331e+00   7.384499e+00   1.507185e+04  -1.367202e+05  -5.306729e+04   1.246571e+10   1.241279e+09   3.424621e+08   1.474304e+05   1.216327e-30   0.000000e+00   0.000000e+00
     2120000   2.119999e-07   1.029157e-01   1.681221e+00   7.384456e+00   1.508183e+04  -1.367192e+05  -5.306701e+04   1.246497e+10   1.242107e+09   3.424848e+08   1.474304e+05   1.216200e-30   0.000000e+00   0.000000e+00
     2128000   2.127999e-07   1.029278e-01   1.681112e+00   7.384414e+00   1.509180e+04  -1.367182e+05  -5.306674e+04   1.246423e+10   1.242935e+09   3.425075e+08   1.474304e+05   1.216073e-30   0.000000e+00   0.000000e+00
     2136000   2.135999e-07   1.029399e-01   1.681003e+00   7.384371e+00   1.510177e+04  -1.367172e+05  -5.306646e+04   1.246349e+10   1.243763e+09   3.425302e+08   1.474304e+05   1.215946e-30   0.000000e+00   0.000000e+00
     2144000   2.143999e-07   1.029519e-01   1.680893e+00   7.384329e+00   1.511174e+04  -1.367162e+05  -5.306619e+04   1.246275e+10   1.244591e+09   3.425528e+08   1.474304e+05   1.215819e-30   0.000000e+00   0.000000e+00
     2152000   2.151999e-07   1.029640e-01   1.680784e+00   7.384286e+00   1.512171e+04  -1.367152e+05  -5.306592e+04   1.246201e+10   1.245419e+09   3.425755e+08   1.474304e+05   1.215692e-30   0.000000e+00   0.000000e+00
     2160000   2.159999e-07   1.029761e-01   1.680674e+00   7.384244e+00   1.513168e+04  -1.367142e+05  -5.306564e+04   1.246127e+10   1.246247e+09   3.425983e+08   1.474304e+05   1.215565e-30   0.000000e+00   0.000000e+00
     2168000   2.167999e-07   1.029882e-01   1.680565e+00   7.384201e+00   1.514165e+04  -1.367132e+05  -5.306537e+04   1.246053e+10   1.247074e+09   3.426210e+08   1.474304e+05   1.215438e-30   0.000000e+00   0.000000e+00
     2176000   2.175999e-07   1.030004e-01   1.680456e+00   7.384159e+00   1.515162e+04  -1.367122e+05  -5.306509e+04   1.245979e+10   1.247902e+09   3.426437e+08   1.474304e+05   1.215311e-30   0.000000e+00   0.000000e+00
     2184000   2.183999e-07   1.030125e-01   1.680346e+00   7.384117e+00   1.516158e+04  -1.367112e+05  -5.306482e+04   1.245904e+10   1.248729e+09   3.426664e+08   1.474304e+05   1.215184e-30   0.000000e+00   0.000000e+00
     2192000   2.191999e-07   1.030246e-01   1.680237e+00   7.384074e+00   1.517155e+04  -1.367102e+05  -5.306455e+04   1.245830e+10   1.249556e+09   3.426892e+08   1.474304e+05   1.215058e-30   0.000000e+00   0.000000e+00
     2200000   2.199999e-07   1.030368e-01   1.680128e+00   7.384032e+00   1.518152e+04  -1.367092e+05  -5.306427e+04   1.245756e+10   1.250383e+09   3.427119e+08   1.474304e+05   1.214931e-30   0.000000e+00   0.000000e+00
     2208000   2.207999e-07   1.030489e-01   1.680018e+00   7.383989e+00   1.519148e+04  -1.367082e+05  -5.306400e+04   1.245682e+10   1.251210e+09   3.427347e+08   1.474304e+05   1.214804e-30   0.000000e+00   0.000000e+00
     2216000   2.215999e-07   1.030611e-01   1.679909e+00   7.383947e+00   1.520145e+04  -1.367072e+05  -5.306372e+04   1.245608e+10   1.252036e+09   3.427575e+08   1.474304e+05   1.214677e-30   0.000000e+00   0.000000e+00
     2224000   2.223999e-07   1.030732e-01   1.679799e+00   7.383904e+00   1.521141e+04  -1.367062e+05  -5.306345e+04   1.245534e+10   1.252863e+09   3.427803e+08   1.474304e+05   1.214550e-30   0.000000e+00   0.000000e+00
     2232000   2.231999e-07   1.030854e-01   1.679690e+00   7.383862e+00   1.522138e+04  -1.367052e+05  -5.306318e+04   1.245460e+10   1.253689e+09   3.428031e+08   1.474304e+05   1.214423e-30   0.000000e+00   0.000000e+00
     2240000   2.239999e-07   1.030976e-01   1.679581e+00   7.383819e+00   1.523134e+04  -1.367042e+05  -5.306290e+04   1.245386e+10   1.254515e+09   3.428259e+08   1.474304e+05   1.214297e-30   0.000000e+00   0.000000e+00
     2248000   2.247999e-07   1.031098e-01   1.679471e+00   7.383777e+00   1.524130e+04  -1.367032e+05  -5.306263e+04   1.245312e+10   1.255342e+09   3.428487e+08   1.474304e+05   1.214170e-30   0.000000e+00   0.000000e+00
     2256000   2.255999e-07   1.031220e-01   1.679362e+00   7.383734e+00   1.525127e+04  -1.367022e+05  -5.306235e+04   1.245238e+10   1.256167e+09   3.428715e+08   1.474304e+05   1.214043e-30   0.000000e+00   0.000000e+00
     2264000   2.263999e-07   1.031342e-01   1.679253e+00   7.383692e+00   1.526123e+04  -1.367012e+05  -5.306208e+04   1.245163e+10   1.256993e+09   3.428944e+08   1.474304e+05   1.213916e-30   0.000000e+00   0.000000e+00
     2272000   2.271999e-07   1.031464e-01   1.679143e+00   7.383650e+00   1.527119e+04  -1.367002e+05  -5.306180e+04   1.245089e+10   1.257819e+09   3.429172e+08   1.474304e+05   1.213790e-30   0.000000e+00   0.000000e+00
     2280000   2.279999e-07   1.031586e-01   1.679034e+00   7.383607e+00   1.528115e+04  -1.366992e+05  -5.306153e+04   1.245015e+10   1.258644e+09   3.429401e+08   1.474304e+05   1.213663e-30   0.000000e+00   0.000000e+00
     2288000   2.287999e-07   1.031708e-01   1.678925e+00   7.383565e+00   1.529111e+04  -1.366982e+05  -5.306126e+04   1.244941e+10   1.259470e+09   3.429630e+08   1.474304e+05   1.213536e-30   0.000000e+00   0.000000e+00
     2296000   2.295999e-07   1.031831e-01   1.678815e+00   7.383522e+00   1.530107e+04  -1.366972e+05  -5.306098e+04   1.244867e+10   1.260295e+09   3.429858e+08   1.474304e+05   1.213410e-30   0.000000e+00   0.000000e+00
     2304000   2.303999e-07   1.031953e-01   1.678706e+00   7.383480e+00   1.531103e+04  -1.366962e+05  -5.306071e+04   1.244793e+10   1.261120e+09   3.430087e+08   1.474304e+05   1.213283e-30   0.000000e+00   0.000000e+00
     2312000   2.311999e-07   1.032076e-01   1.678596e+00   7.383437e+00   1.532098e+04  -1.366952e+05  -5.306043e+04   1.244719e+10   1.261945e+09   3.430316e+08   1.474304e+05   1.213157e-30   0.000000e+00   0.000000e+00
     2320000   2.319999e-07   1.032198e-01   1.678487e+00   7.383395e+00   1.533094e+04  -1.366942e+05  -5.306016e+04   1.244645e+10   1.262769e+09   3.430545e+08   1.474304e+05   1.213030e-30   0.000000e+00   0.000000e+00
     2328000   2.327999e-07   1.032321e-01   1.678378e+00   7.383352e+00   1.534090e+04  -1.366932e+05  -5.305988e+04   1.244571e+10   1.263594e+09   3.430775e+08   1.474304e+05   1.212903e-30   0.000000e+00   0.000000e+00
     2336000   2.335999e-07   1.032444e-01   1.678268e+00   7.383310e+00   1.535085e+04  -1.366921e+05  -5.305961e+04   1.244497e+10   1.264418e+09   3.431004e+08   1.474304e+05   1.212777e-30   0.000000e+00   0.000000e+00
     2344000   2.343999e-07   1.032567e-01   1.678159e+00   7.383268e+00   1.536081e+04  -1.366911e+05  -5.305933e+04   1.244423e+10   1.265243e+09   3.431233e+08   1.474304e+05   1.212650e-30   0.000000e+00   0.000000e+00
     2352000   2.351999e-07   1.032690e-01   1.678050e+00   7.383225e+00   1.537077e+04  -1.366901e+05  -5.305906e+04   1.244348e+10   1.266067e+09   3.431463e+08   1.474304e+05   1.212524e-30   0.000000e+00   0.000000e+00
     2360000   2.359999e-07   1.032813e-01   1.677940e+00   7.383183e+00   1.538072e+04  -1.366891e+05  -5.305879e+04   1.244274e+10   1.266891e+09   3.431692e+08   1.474304e+05   1.212397e-30   0.000000e+00   0.000000e+00
     2368000   2.367999e-07   1.032936e-01   1.677831e+00   7.383140e+00   1.539067e+04  -1.366881e+05  -5.305851e+04   1.244200e+10   1.267715e+09   3.431922e+08   1.474304e+05   1.212271e-30   0.000000e+00   0.000000e+00
     2376000   2.375999e-07   1.033059e-01   1.677722e+00   7.383098e+00   1.540063e+04  -1.366871e+05  -5.305824e+04   1.244126e+10   1.268538e+09   3.432152e+08   1.474304e+05   1.212144e-30   0.000000e+00   0.000000e+00
     2384000   2.383999e-07   1.033182e-01   1.677612e+00   7.383055e+00   1.541058e+04  -1.366861e+05  -5.305796e+04   1.244052e+10   1.269362e+09   3.432382e+08   1.474304e+05   1.212018e-30   0.000000e+00   0.000000e+00
     2392000   2.391999e-07   1.033305e-01   1.677503e+00   7.383013e+00   1.542053e+04  -1.366851e+05  -5.305769e+04   1.243978e+10   1.270185e+09   3.432612e+08   1.474304e+05   1.211891e-30   0.000000e+00   0.000000e+00
     2400000   2.399999e-07   1.033429e-01   1.677394e+00   7.382970e+00   1.543048e+04  -1.366840e+05  -5.305741e+04   1.243904e+10   1.271009e+09   3.432842e+08   1.474304e+05   1.211765e-30   0.000000e+00   0.000000e+00
     2408000   2.407999e-07   1.033552e-01   1.677284e+00   7.382928e+00   1.544043e+04  -1.366830e+05  -5.305714e+04   1.243830e+10   1.271832e+09   3.433072e+08   1.474304e+05   1.211639e-30   0.000000e+00   0.000000e+00
     2416000   2.415999e-07   1.033676e-01   1.677175e+00   7.382886e+00   1.545038e+04  -1.366820e+05  -5.305686e+04   1.243756e+10   1.272655e+09   3.433302e+08   1.474304e+05   1.211512e-30   0.000000e+00   0.000000e+00
     2424000   2.423999e-07   1.033799e-01   1.677066e+00   7.382843e+00   1.546033e+04  -1.366810e+05  -5.305659e+04   1.243682e+10   1.273478e+09   3.433533e+08   1.474304e+05   1.211386e-30   0.000000e+00   0.000000e+00
     2432000   2.431999e-07   1.033923e-01   1.676956e+00   7.382801e+00   1.547028e+04  -1.366800e+05  -5.305631e+04   1.243608e+10   1.274300e+09   3.433763e+08   1.474304e+05   1.211259e-30   0.000000e+00   0.000000e+00
     2440000   2.439999e-07   1.034047e-01   1.676847e+00   7.382758e+00   1.548023e+04  -1.366789e+05  -5.305604e+04   1.243534e+10   1.275123e+09   3.433994e+08   1.474304e+05   1.211133e-30   0.000000e+00   0.000000e+00
     2448000   2.447999e-07   1.034171e-01   1.676738e+00   7.382716e+00   1.549018e+04  -1.366779e+05  -5.305576e+04   1.243459e+10   1.275945e+09   3.434225e+08   1.474304e+05   1.211007e-30   0.000000e+00   0.000000e+00
     2456000   2.455999e-07   1.034295e-01   1.676628e+00   7.382673e+00   1.550013e+04  -1.366769e+05  -5.305549e+04   1.243385e+10   1.276768e+09   3.434455e+08   1.474304e+05   1.210881e-30   0.000000e+00   0.000000e+00
     2464000   2.463999e-07   1.034419e-01   1.676519e+00   7.382631e+00   1.551007e+04  -1.366759e+05  -5.305521e+04   1.243311e+10   1.277590e+09   3.434686e+08   1.474304e+05   1.210754e-30   0.000000e+00   0.000000e+00
     2472000   2.471999e-07   1.034543e-01   1.676410e+00   7.382588e+00   1.552002e+04  -1.366749e+05  -5.305494e+04   1.243237e+10   1.278412e+09   3.434917e+08   1.474304e+05   1.210628e-30   0.000000e+00   0.000000e+00
     2480000   2.479999e-07   1.034667e-01   1.676300e+00   7.382546e+00   1.552997e+04  -1.366738e+05  -5.305467e+04   1.243163e+10   1.279233e+09   3.435148e+08   1.474304e+05   1.210502e-30   0.000000e+00   0.000000e+00
     2488000   2.487999e-07   1.034791e-01   1.676191e+00   7.382504e+00   1.553991e+04  -1.366728e+05  -5.305439e+04   1.243089e+10   1.280055e+09   3.435380e+08   1.474304e+05   1.210376e-30   0.000000e+00   0.000000e+00
     2496000   2.495999e-07   1.034916e-01   1.676082e+00   7.382461e+00   1.554986e+04  -1.366718e+05  -5.305412e+04   1.243015e+10   1.280877e+09   3.435611e+08   1.474304e+05   1.210249e-30   0.000000e+00   0.000000e+00
     2504000   2.503999e-07   1.035040e-01   1.675972e+00   7.382419e+00   1.555980e+04  -1.366708e+05  -5.305384e+04   1.242941e+10   1.281698e+09   3.435842e+08   1.474304e+05   1.210123e-30   0.000000e+00   0.000000e+00
     2512000   2.511999e-07   1.035165e-01   1.675863e+00   7.382376e+00   1.556974e+04  -1.366697e+05  -5.305357e+04   1.242867e+10   1.282519e+09   3.436074e+08   1.474304e+05   1.209997e-30   0.000000e+00   0.000000e+00
     2520000   2.519999e-07   1.035289e-01   1.675753e+00   7.382334e+00   1.557969e+04  -1.366687e+05  -5.305329e+04   1.242793e+10   1.283340e+09   3.436306e+08   1.474304e+05   1.209871e-30   0.000000e+00   0.000000e+00
     2528000   2.527999e-07   1.035414e-01   1.675644e+00   7.382291e+00   1.558963e+04  -1.366677e+05  -5.305302e+04   1.242719e+10   1.284161e+09   3.436537e+08   1.474304e+05   1.209745e-30   0.000000e+00   0.000000e+00
     2536000   2.535999e-07   1.035539e-01   1.675535e+00   7.382249e+00   1.559957e+04  -1.366667e+05  -5.305274e+04   1.242645e+10   1.284982e+09   3.436769e+08   1.474304e+05   1.209619e-30   0.000000e+00   0.000000e+00
     2544000   2.543999e-07   1.035664e-01   1.675425e+00   7.382206e+00   1.560951e+04  -1.366656e+05  -5.305247e+04   1.242571e+10   1.285803e+09   3.437001e+08   1.474304e+05   1.209492e-30   0.000000e+00   0.000000e+00
     2552000   2.551999e-07   1.035789e-01   1.675316e+00   7.382164e+00   1.561945e+04  -1.366646e+05  -5.305219e+04   1.242496e+10   1.286623e+09   3.437233e+08   1.474304e+05   1.209366e-30   0.000000e+00   0.000000e+00
     2560000   2.559999e-07   1.035914e-01   1.675207e+00   7.382122e+00   1.562939e+04  -1.366636e+05  -5.305192e+04   1.242422e+10   1.287443e+09   3.437465e+08   1.474304e+05   1.209240e-30   0.000000e+00   0.000000e+00
     2568000   2.567999e-07   1.036039e-01   1.675097e+00   7.382079e+00   1.563933e+04  -1.366625e+05  -5.305164e+04   1.242348e+10   1.288264e+09   3.437697e+08   1.474304e+05   1.209114e-30   0.000000e+00   0.000000e+00
     2576000   2.575999e-07   1.036164e-01   1.674988e+00   7.382037e+00   1.564927e+04  -1.366615e+05  -5.305137e+04   1.242274e+10   1.289084e+09   3.437930e+08   1.474304e+05   1.208988e-30   0.000000e+00   0.000000e+00
     2584000   2.583999e-07   1.036289e-01   1.674879e+00   7.381994e+00   1.565920e+04  -1.366605e+05  -5.305109e+04   1.242200e+10   1.289904e+09   3.438162e+08   1.474304e+05   1.208862e-30   0.000000e+00   0.000000e+00
     2592000   2.591999e-07   1.036414e-01   1.674770e+00   7.381952e+00   1.566914e+04  -1.366594e+05  -5.305082e+04   1.242126e+10   1.290723e+09   3.438395e+08   1.474304e+05   1.208736e-30   0.000000e+00   0.000000e+00
     2600000   2.599999e-07   1.036540e-01   1.674660e+00   7.381909e+00   1.567908e+04  -1.366584e+05  -5.305054e+04   1.242052e+10   1.291543e+09   3.438627e+08   1.474304e+05   1.208610e-30   0.000000e+00   0.000000e+00
     2608000   2.607999e-07   1.036665e-01   1.674551e+00   7.381867e+00   1.568902e+04  -1.366574e+05  -5.305027e+04   1.241978e+10   1.292362e+09   3.438860e+08   1.474304e+05   1.208484e-30   0.000000e+00   0.000000e+00
     2616000   2.615999e-07   1.036791e-01   1.674442e+00   7.381824e+00   1.569895e+04  -1.366563e+05  -5.304999e+04   1.241904e+10   1.293182e+09   3.439093e+08   1.474304e+05   1.208358e-30   0.000000e+00   0.000000e+00
     2624000   2.623999e-07   1.036916e-01   1.674332e+00   7.381782e+00   1.570889e+04  -1.366553e+05  -5.304972e+04   1.241830e+10   1.294001e+09   3.439326e+08   1.474304e+05   1.208232e-30   0.000000e+00   0.000000e+00
     2632000   2.631999e-07   1.037042e-01   1.674223e+00   7.381740e+00   1.571882e+04  -1.366543e+05  -5.304944e+04   1.241756e+10   1.294820e+09   3.439559e+08   1.474304e+05   1.208106e-30   0.000000e+00   0.000000e+00
     2640000   2.639999e-07   1.037168e-01   1.674114e+00   7.381697e+00   1.572875e+04  -1.366532e+05  -5.304917e+04   1.241682e+10   1.295639e+09   3.439792e+08   1.474304e+05   1.207981e-30   0.000000e+00   0.000000e+00
     2648000   2.647999e-07   1.037294e-01   1.674004e+00   7.381655e+00   1.573869e+04  -1.366522e+05  -5.304889e+04   1.241608e+10   1.296458e+09   3.440025e+08   1.474304e+05   1.207855e-30   0.000000e+00   0.000000e+00
     2656000   2.655999e-07   1.037420e-01   1.673895e+00   7.381612e+00   1.574862e+04  -1.366512e+05  -5.304861e+04   1.241534e+10   1.297276e+09   3.440258e+08   1.474304e+05   1.207729e-30   0.000000e+00   0.000000e+00
     2664000   2.663999e-07   1.037546e-01   1.673786e+00   7.381570e+00   1.575855e+04  -1.366501e+05  -5.304834e+04   1.241460e+10   1.298095e+09   3.440492e+08   1.474304e+05   1.207603e-30   0.000000e+00   0.000000e+00
     2672000   2.671999e-07   1.037672e-01   1.673676e+00   7.381527e+00   1.576848e+04  -1.366491e+05  -5.304806e+04   1.241386e+10   1.298913e+09   3.440725e+08   1.474304e+05   1.207477e-30   0.000000e+00   0.000000e+00
     2680000   2.679999e-07   1.037798e-01   1.673567e+00   7.381485e+00   1.577841e+04  -1.366480e+05  -5.304779e+04   1.241311e+10   1.299731e+09   3.440959e+08   1.474304e+05   1.207351e-30   0.000000e+00   0.000000e+00
     2688000   2.687999e-07   1.037924e-01   1.673458e+00   7.381443e+00   1.578834e+04  -1.366470e+05  -5.304751e+04   1.241237e+10   1.300549e+09   3.441193e+08   1.474304e+05   1.207226e-30   0.000000e+00   0.000000e+00
     2696000   2.695999e-07   1.038051e-01   1.673348e+00   7.381400e+00   1.579827e+04  -1.366460e+05  -5.304724e+04   1.241163e+10   1.301367e+09   3.441427e+08   1.474304e+05   1.207100e-30   0.000000e+00   0.000000e+00
     2704000   2.703999e-07   1.038177e-01   1.673239e+00   7.381358e+00   1.580820e+04  -1.366449e+05  -5.304696e+04   1.241089e+10   1.302185e+09   3.441660e+08   1.474304e+05   1.206974e-30   0.000000e+00   0.000000e+00
     2712000   2.711999e-07   1.038304e-01   1.673130e+00   7.381315e+00   1.581813e+04  -1.366439e+05  -5.304669e+04   1.241015e+10   1.303002e+09   3.441894e+08   1.474304e+05   1.206848e-30   0.000000e+00   0.000000e+00
     2720000   2.719999e-07   1.038430e-01   1.673020e+00   7.381273e+00   1.582806e+04  -1.366428e+05  -5.304641e+04   1.240941e+10   1.303820e+09   3.442129e+08   1.474304e+05   1.206723e-30   0.000000e+00   0.000000e+00
     2728000   2.727999e-07   1.038557e-01   1.672911e+00   7.381230e+00   1.583799e+04  -1.366418e+05  -5.304614e+04   1.240867e+10   1.304637e+09   3.442363e+08   1.474304e+05   1.206597e-30   0.000000e+00   0.000000e+00
     2736000   2.735999e-07   1.038684e-01   1.672802e+00   7.381188e+00   1.584791e+04  -1.366407e+05  -5.304586e+04   1.240793e+10   1.305454e+09   3.442597e+08   1.474304e+05   1.206471e-30   0.000000e+00   0.000000e+00
     2744000   2.743999e-07   1.038810e-01   1.672692e+00   7.381145e+00   1.585784e+04  -1.366397e+05  -5.304559e+04   1.240719e+10   1.306271e+09   3.442832e+08   1.474304e+05   1.206346e-30   0.000000e+00   0.000000e+00
     2752000   2.751999e-07   1.038937e-01   1.672583e+00   7.381103e+00   1.586776e+04  -1.366387e+05  -5.304531e+04   1.240645e+10   1.307088e+09   3.443066e+08   1.474304e+05   1.206220e-30   0.000000e+00   0.000000e+00
     2760000   2.759999e-07   1.039064e-01   1.672474e+00   7.381061e+00   1.587769e+04  -1.366376e+05  -5.304504e+04   1.240571e+10   1.307905e+09   3.443301e+08   1.474304e+05   1.206094e-30   0.000000e+00   0.000000e+00
     2768000   2.767999e-07   1.039191e-01   1.672365e+00   7.381018e+00   1.588761e+04  -1.366366e+05  -5.304476e+04   1.240497e+10   1.308721e+09   3.443536e+08   1.474304e+05   1.205969e-30   0.000000e+00   0.000000e+00
     2776000   2.775999e-07   1.039318e-01   1.672255e+00   7.380976e+00   1.589754e+04  -1.366355e+05  -5.304448e+04   1.240423e+10   1.309538e+09   3.443770e+08   1.474304e+05   1.205843e-30   0.000000e+00   0.000000e+00
     2784000   2.783999e-07   1.039446e-01   1.672146e+00   7.380933e+00   1.590746e+04  -1.366345e+05  -5.304421e+04   1.240349e+10   1.310354e+09   3.444005e+08   1.474304e+05   1.205717e-30   0.000000e+00   0.000000e+00
     2792000   2.791999e-07   1.039573e-01   1.672037e+00   7.380891e+00   1.591738e+04  -1.366334e+05  -5.304393e+04   1.240275e+10   1.311170e+09   3.444240e+08   1.474304e+05   1.205592e-30   0.000000e+00   0.000000e+00
     2800000   2.799999e-07   1.039700e-01   1.671927e+00   7.380848e+00   1.592730e+04  -1.366324e+05  -5.304366e+04   1.240201e+10   1.311986e+09   3.444476e+08   1.474304e+05   1.205466e-30   0.000000e+00   0.000000e+00
     2808000   2.807999e-07   1.039828e-01   1.671818e+00   7.380806e+00   1.593723e+04  -1.366313e+05  -5.304338e+04   1.240127e+10   1.312802e+09   3.444711e+08   1.474304e+05   1.205341e-30   0.000000e+00   0.000000e+00
     2816000   2.815999e-07   1.039955e-01   1.671709e+00   7.380764e+00   1.594715e+04  -1.366303e+05  -5.304311e+04   1.240053e+10   1.313618e+09   3.444946e+08   1.474304e+05   1.205215e-30   0.000000e+00   0.000000e+00
     2824000   2.823999e-07   1.040083e-01   1.671599e+00   7.380721e+00   1.595707e+04  -1.366292e+05  -5.304283e+04   1.239979e+10   1.314433e+09   3.445182e+08   1.474304e+05   1.205090e-30   0.000000e+00   0.000000e+00
     2832000   2.831999e-07   1.040211e-01   1.671490e+00   7.380679e+00   1.596699e+04  -1.366282e+05  -5.304256e+04   1.239905e+10   1.315248e+09   3.445417e+08   1.474304e+05   1.204964e-30   0.000000e+00   0.000000e+00
     2840000   2.839999e-07   1.040338e-01   1.671381e+00   7.380636e+00   1.597690e+04  -1.366271e+05  -5.304228e+04   1.239830e+10   1.316064e+09   3.445653e+08   1.474304e+05   1.204839e-30   0.000000e+00   0.000000e+00
     2848000   2.847999e-07   1.040466e-01   1.671271e+00   7.380594e+00   1.598682e+04  -1.366261e+05  -5.304200e+04   1.239756e+10   1.316879e+09   3.445889e+08   1.474304e+05   1.204713e-30   0.000000e+00   0.000000e+00
     2856000   2.855999e-07   1.040594e-01   1.671162e+00   7.380551e+00   1.599674e+04  -1.366250e+05  -5.304173e+04   1.239682e+10   1.317694e+09   3.446124e+08   1.474304e+05   1.204588e-30   0.000000e+00   0.000000e+00
     2864000   2.863999e-07   1.040722e-01   1.671053e+00   7.380509e+00   1.600666e+04  -1.366240e+05  -5.304145e+04   1.239608e+10   1.318509e+09   3.446360e+08   1.474304e+05   1.204463e-30   0.000000e+00   0.000000e+00
     2872000   2.871999e-07   1.040850e-01   1.670944e+00   7.380467e+00   1.601657e+04  -1.366229e+05  -5.304118e+04   1.239534e+10   1.319323e+09   3.446596e+08   1.474304e+05   1.204337e-30   0.000000e+00   0.000000e+00
     2880000   2.879999e-07   1.040979e-01   1.670834e+00   7.380424e+00   1.602649e+04  -1.366218e+05  -5.304090e+04   1.239460e+10   1.320138e+09   3.446833e+08   1.474304e+05   1.204212e-30   0.000000e+00   0.000000e+00
     2888000   2.887999e-07   1.041107e-01   1.670725e+00   7.380382e+00   1.603641e+04  -1.366208e+05  -5.304063e+04   1.239386e+10   1.320952e+09   3.447069e+08   1.474304e+05   1.204087e-30   0.000000e+00   0.000000e+00
     2896000   2.895999e-07   1.041235e-01   1.670616e+00   7.380339e+00   1.604632e+04  -1.366197e+05  -5.304035e+04   1.239312e+10   1.321766e+09   3.447305e+08   1.474304e+05   1.203961e-30   0.000000e+00   0.000000e+00
     2904000   2.903999e-07   1.041364e-01   1.670506e+00   7.380297e+00   1.605624e+04  -1.366187e+05  -5.304007e+04   1.239238e+10   1.322580e+09   3.447542e+08   1.474304e+05   1.203836e-30   0.000000e+00   0.000000e+00
     2912000   2.911999e-07   1.041492e-01   1.670397e+00   7.380254e+00   1.606615e+04  -1.366176e+05  -5.303980e+04   1.239164e+10   1.323394e+09   3.447778e+08   1.474304e+05   1.203711e-30   0.000000e+00   0.000000e+00
     2920000   2.919999e-07   1.041621e-01   1.670288e+00   7.380212e+00   1.607606e+04  -1.366166e+05  -5.303952e+04   1.239090e+10   1.324208e+09   3.448015e+08   1.474304e+05   1.203585e-30   0.000000e+00   0.000000e+00
     2928000   2.927999e-07   1.041749e-01   1.670178e+00   7.380169e+00   1.608597e+04  -1.366155e+05  -5.303925e+04   1.239016e+10   1.325022e+09   3.448252e+08   1.474304e+05   1.203460e-30   0.000000e+00   0.000000e+00
     2936000   2.935999e-07   1.041878e-01   1.670069e+00   7.380127e+00   1.609589e+04  -1.366144e+05  -5.303897e+04   1.238942e+10   1.325835e+09   3.448489e+08   1.474304e+05   1.203335e-30   0.000000e+00   0.000000e+00
     2944000   2.943999e-07   1.042007e-01   1.669960e+00   7.380085e+00   1.610580e+04  -1.366134e+05  -5.303869e+04   1.238868e+10   1.326649e+09   3.448726e+08   1.474304e+05   1.203210e-30   0.000000e+00   0.000000e+00
     2952000   2.951999e-07   1.042136e-01   1.669851e+00   7.380042e+00   1.611571e+04  -1.366123e+05  -5.303842e+04   1.238794e+10   1.327462e+09   3.448963e+08   1.474304e+05   1.203084e-30   0.000000e+00   0.000000e+00
     2960000   2.959999e-07   1.042265e-01   1.669741e+00   7.380000e+00   1.612562e+04  -1.366113e+05  -5.303814e+04   1.238720e+10   1.328275e+09   3.449200e+08   1.474304e+05   1.202959e-30   0.000000e+00   0.000000e+00
     2968000   2.967999e-07   1.042394e-01   1.669632e+00   7.379957e+00   1.613553e+04  -1.366102e+05  -5.303787e+04   1.238646e+10   1.329088e+09   3.449437e+08   1.474304e+05   1.202834e-30   0.000000e+00   0.000000e+00
     2976000   2.975999e-07   1.042523e-01   1.669523e+00   7.379915e+00   1.614544e+04  -1.366091e+05  -5.303759e+04   1.238572e+10   1.329901e+09   3.449675e+08   1.474304e+05   1.202709e-30   0.000000e+00   0.000000e+00
     2984000   2.983999e-07   1.042652e-01   1.669413e+00   7.379872e+00   1.615534e+04  -1.366081e+05  -5.303731e+04   1.238498e+10   1.330713e+09   3.449912e+08   1.474304e+05   1.202584e-30   0.000000e+00   0.000000e+00
     2992000   2.991999e-07   1.042781e-01   1.669304e+00   7.379830e+00   1.616525e+04  -1.366070e+05  -5.303704e+04   1.238424e+10   1.331526e+09   3.450150e+08   1.474304e+05   1.202459e-30   0.000000e+00   0.000000e+00
     3000000   2.999999e-07   1.042911e-01   1.669195e+00   7.379788e+00   1.617516e+04  -1.366059e+05  -5.303676e+04   1.238350e+10   1.332338e+09   3.450387e+08   1.474304e+05   1.202333e-30   0.000000e+00   0.000000e+00
     3008000   3.007999e-07   1.043040e-01   1.669086e+00   7.379745e+00   1.618507e+04  -1.366049e+05  -5.303649e+04   1.238276e+10   1.333150e+09   3.450625e+08   1.474304e+05   1.202208e-30   0.000000e+00   0.000000e+00
     3016000   3.015999e-07   1.043170e-01   1.668976e+00   7.379703e+00   1.619497e+04  -1.366038e+05  -5.303621e+04   1.238202e+10   1.333963e+09   3.450863e+08   1.474304e+05   1.202083e-30   0.000000e+00   0.000000e+00
     3024000   3.023999e-07   1.043299e-01   1.668867e+00   7.379660e+00   1.620488e+04  -1.366027e+05  -5.303593e+04   1.238128e+10   1.334774e+09   3.451101e+08   1.474304e+05   1.201958e-30   0.000000e+00   0.000000e+00
     3032000   3.031999e-07   1.043429e-01   1.668758e+00   7.379618e+00   1.621478e+04  -1.366017e+05  -5.303566e+04   1.238054e+10   1.335586e+09   3.451339e+08   1.474304e+05   1.201833e-30   0.000000e+00   0.000000e+00
     3040000   3.039999e-07   1.043559e-01   1.668648e+00   7.379575e+00   1.622469e+04  -1.366006e+05  -5.303538e+04   1.237980e+10   1.336398e+09   3.451577e+08   1.474304e+05   1.201708e-30   0.000000e+00   0.000000e+00
     3048000   3.047999e-07   1.043688e-01   1.668539e+00   7.379533e+00   1.623459e+04  -1.365995e+05  -5.303511e+04   1.237906e+10   1.337209e+09   3.451816e+08   1.474304e+05   1.201583e-30   0.000000e+00   0.000000e+00
     3056000   3.055999e-07   1.043818e-01   1.668430e+00   7.379491e+00   1.624449e+04  -1.365985e+05  -5.303483e+04   1.237832e+10   1.338021e+09   3.452054e+08   1.474304e+05   1.201458e-30   0.000000e+00   0.000000e+00
     3064000   3.063999e-07   1.043948e-01   1.668321e+00   7.379448e+00   1.625439e+04  -1.365974e+05  -5.303455e+04   1.237758e+10   1.338832e+09   3.452292e+08   1.474304e+05   1.201333e-30   0.000000e+00   0.000000e+00
     3072000   3.071999e-07   1.044078e-01   1.668211e+00   7.379406e+00   1.626430e+04  -1.365963e+05  -5.303428e+04   1.237684e+10   1.339643e+09   3.452531e+08   1.474304e+05   1.201208e-30   0.000000e+00   0.000000e+00
     3080000   3.079999e-07   1.044209e-01   1.668102e+00   7.379363e+00   1.627420e+04  -1.365952e+05  -5.303400e+04   1.237610e+10   1.340454e+09   3.452770e+08   1.474304e+05   1.201083e-30   0.000000e+00   0.000000e+00
     3088000   3.087999e-07   1.044339e-01   1.667993e+00   7.379321e+00   1.628410e+04  -1.365942e+05  -5.303373e+04   1.237536e+10   1.341265e+09   3.453009e+08   1.474304e+05   1.200958e-30   0.000000e+00   0.000000e+00
     3096000   3.095999e-07   1.044469e-01   1.667884e+00   7.379278e+00   1.629400e+04  -1.365931e+05  -5.303345e+04   1.237462e+10   1.342075e+09   3.453248e+08   1.474304e+05   1.200834e-30   0.000000e+00   0.000000e+00
     3104000   3.103999e-07   1.044600e-01   1.667774e+00   7.379236e+00   1.630390e+04  -1.365920e+05  -5.303317e+04   1.237388e+10   1.342886e+09   3.453487e+08   1.474304e+05   1.200709e-30   0.000000e+00   0.000000e+00
     3112000   3.111999e-07   1.044730e-01   1.667665e+00   7.379194e+00   1.631380e+04  -1.365909e+05  -5.303290e+04   1.237314e+10   1.343696e+09   3.453726e+08   1.474304e+05   1.200584e-30   0.000000e+00   0.000000e+00
     3120000   3.119999e-07   1.044861e-01   1.667556e+00   7.379151e+00   1.632369e+04  -1.365899e+05  -5.303262e+04   1.237240e+10   1.344506e+09   3.453965e+08   1.474304e+05   1.200459e-30   0.000000e+00   0.000000e+00
     3128000   3.127999e-07   1.044991e-01   1.667446e+00   7.379109e+00   1.633359e+04  -1.365888e+05  -5.303234e+04   1.237166e+10   1.345316e+09   3.454204e+08   1.474304e+05   1.200334e-30   0.000000e+00   0.000000e+00
     3136000   3.135999e-07   1.045122e-01   1.667337e+00   7.379066e+00   1.634349e+04  -1.365877e+05  -5.303207e+04   1.237092e+10   1.346126e+09   3.454444e+08   1.474304e+05   1.200209e-30   0.000000e+00   0.000000e+00
     3144000   3.143999e-07   1.045253e-01   1.667228e+00   7.379024e+00   1.635339e+04  -1.365866e+05  -5.303179e+04   1.237018e+10   1.346936e+09   3.454683e+08   1.474304e+05   1.200085e-30   0.000000e+00   0.000000e+00
     3152000   3.151999e-07   1.045384e-01   1.667119e+00   7.378981e+00   1.636328e+04  -1.365856e+05  -5.303151e+04   1.236944e+10   1.347745e+09   3.454923e+08   1.474304e+05   1.199960e-30   0.000000e+00   0.000000e+00
     3160000   3.159999e-07   1.045515e-01   1.667009e+00   7.378939e+00   1.637318e+04  -1.365845e+05  -5.303124e+04   1.236870e+10   1.348555e+09   3.455163e+08   1.474304e+05   1.199835e-30   0.000000e+00   0.000000e+00
     3168000   3.167999e-07   1.045646e-01   1.666900e+00   7.378897e+00   1.638307e+04  -1.365834e+05  -5.303096e+04   1.236796e+10   1.349364e+09   3.455402e+08   1.474304e+05   1.199710e-30   0.000000e+00   0.000000e+00
     3176000   3.175999e-07   1.045777e-01   1.666791e+00   7.378854e+00   1.639297e+04  -1.365823e+05  -5.303069e+04   1.236722e+10   1.350173e+09   3.455642e+08   1.474304e+05   1.199586e-30   0.000000e+00   0.000000e+00
     3184000   3.183999e-07   1.045908e-01   1.666682e+00   7.378812e+00   1.640286e+04  -1.365812e+05  -5.303041e+04   1.236648e+10   1.350982e+09   3.455882e+08   1.474304e+05   1.199461e-30   0.000000e+00   0.000000e+00
     3192000   3.191999e-07   1.046039e-01   1.666572e+00   7.378769e+00   1.641275e+04  -1.365802e+05  -5.303013e+04   1.236574e+10   1.351791e+09   3.456122e+08   1.474304e+05   1.199336e-30   0.000000e+00   0.000000e+00
     3200000   3.199999e-07   1.046170e-01   1.666463e+00   7.378727e+00   1.642264e+04  -1.365791e+05  -5.302986e+04   1.236500e+10   1.352600e+09   3.456363e+08   1.474304e+05   1.199211e-30   0.000000e+00   0.000000e+00
     3208000   3.207999e-07   1.046302e-01   1.666354e+00   7.378685e+00   1.643254e+04  -1.365780e+05  -5.302958e+04   1.236426e+10   1.353409e+09   3.456603e+08   1.474304e+05   1.199087e-30   0.000000e+00   0.000000e+00
     3216000   3.215999e-07   1.046433e-01   1.666245e+00   7.378642e+00   1.644243e+04  -1.365769e+05  -5.302930e+04   1.236352e+10   1.354217e+09   3.456843e+08   1.474304e+05   1.198962e-30   0.000000e+00   0.000000e+00
     3224000   3.223999e-07   1.046565e-01   1.666135e+00   7.378600e+00   1.645232e+04  -1.365758e+05  -5.302903e+04   1.236278e+10   1.355025e+09   3.457084e+08   1.474304e+05   1.198838e-30   0.000000e+00   0.000000e+00
     3232000   3.231999e-07   1.046697e-01   1.666026e+00   7.378557e+00   1.646221e+04  -1.365747e+05  -5.302875e+04   1.236204e+10   1.355833e+09   3.457325e+08   1.474304e+05   1.198713e-30   0.000000e+00   0.000000e+00
     3240000   3.239999e-07   1.046828e-01   1.665917e+00   7.378515e+00   1.647210e+04  -1.365737e+05  -5.302847e+04   1.236130e+10   1.356641e+09   3.457565e+08   1.474304e+05   1.198588e-30   0.000000e+00   0.000000e+00
     3248000   3.247999e-07   1.046960e-01   1.665807e+00   7.378472e+00   1.648199e+04  -1.365726e+05  -5.302820e+04   1.236056e+10   1.357449e+09   3.457806e+08   1.474304e+05   1.198464e-30   0.000000e+00   0.000000e+00
     3256000   3.255999e-07   1.047092e-01   1.665698e+00   7.378430e+00   1.649187e+04  -1.365715e+05  -5.302792e+04   1.235982e+10   1.358257e+09   3.458047e+08   1.474304e+05   1.198339e-30   0.000000e+00   0.000000e+00
     3264000   3.263999e-07   1.047224e-01   1.665589e+00   7.378388e+00   1.650176e+04  -1.365704e+05  -5.302764e+04   1.235908e+10   1.359065e+09   3.458288e+08   1.474304e+05   1.198215e-30   0.000000e+00   0.000000e+00
     3272000   3.271999e-07   1.047356e-01   1.665480e+00   7.378345e+00   1.651165e+04  -1.365693e+05  -5.302737e+04   1.235834e+10   1.359872e+09   3.458529e+08   1.474304e+05   1.198090e-30   0.000000e+00   0.000000e+00
     3280000   3.279999e-07   1.047488e-01   1.665370e+00   7.378303e+00   1.652153e+04  -1.365682e+05  -5.302709e+04   1.235760e+10   1.360679e+09   3.458771e+08   1.474304e+05   1.197966e-30   0.000000e+00   0.000000e+00
     3288000   3.287999e-07   1.047620e-01   1.665261e+00   7.378260e+00   1.653142e+04  -1.365671e+05  -5.302681e+04   1.235686e+10   1.361486e+09   3.459012e+08   1.474304e+05   1.197841e-30   0.000000e+00   0.000000e+00
     3296000   3.295999e-07   1.047753e-01   1.665152e+00   7.378218e+00   1.654131e+04  -1.365660e+05  -5.302654e+04   1.235612e+10   1.362294e+09   3.459254e+08   1.474304e+05   1.197717e-30   0.000000e+00   0.000000e+00
     3304000   3.303999e-07   1.047885e-01   1.665043e+00   7.378175e+00   1.655119e+04  -1.365650e+05  -5.302626e+04   1.235538e+10   1.363100e+09   3.459495e+08   1.474304e+05   1.197592e-30   0.000000e+00   0.000000e+00
     3312000   3.311999e-07   1.048018e-01   1.664933e+00   7.378133e+00   1.656107e+04  -1.365639e+05  -5.302598e+04   1.235464e+10   1.363907e+09   3.459737e+08   1.474304e+05   1.197468e-30   0.000000e+00   0.000000e+00
     3320000   3.319999e-07   1.048150e-01   1.664824e+00   7.378091e+00   1.657096e+04  -1.365628e+05  -5.302571e+04   1.235390e+10   1.364714e+09   3.459979e+08   1.474304e+05   1.197343e-30   0.000000e+00   0.000000e+00
     3328000   3.327999e-07   1.048283e-01   1.664715e+00   7.378048e+00   1.658084e+04  -1.365617e+05  -5.302543e+04   1.235316e+10   1.365520e+09   3.460220e+08   1.474304e+05   1.197219e-30   0.000000e+00   0.000000e+00
     3336000   3.335999e-07   1.048415e-01   1.664606e+00   7.378006e+00   1.659072e+04  -1.365606e+05  -5.302515e+04   1.235242e+10   1.366326e+09   3.460462e+08   1.474304e+05   1.197095e-30   0.000000e+00   0.000000e+00
     3344000   3.343999e-07   1.048548e-01   1.664496e+00   7.377963e+00   1.660060e+04  -1.365595e+05  -5.302488e+04   1.235168e+10   1.367132e+09   3.460705e+08   1.474304e+05   1.196970e-30   0.000000e+00   0.000000e+00
     3352000   3.351999e-07   1.048681e-01   1.664387e+00   7.377921e+00   1.661049e+04  -1.365584e+05  -5.302460e+04   1.235094e+10   1.367938e+09   3.460947e+08   1.474304e+05   1.196846e-30   0.000000e+00   0.000000e+00
     3360000   3.359999e-07   1.048814e-01   1.664278e+00   7.377879e+00   1.662037e+04  -1.365573e+05  -5.302432e+04   1.235020e+10   1.368744e+09   3.461189e+08   1.474304e+05   1.196722e-30   0.000000e+00   0.000000e+00
     3368000   3.367999e-07   1.048947e-01   1.664169e+00   7.377836e+00   1.663025e+04  -1.365562e+05  -5.302405e+04   1.234946e+10   1.369550e+09   3.461431e+08   1.474304e+05   1.196597e-30   0.000000e+00   0.000000e+00
     3376000   3.375999e-07   1.049080e-01   1.664059e+00   7.377794e+00   1.664012e+04  -1.365551e+05  -5.302377e+04   1.234872e+10   1.370356e+09   3.461674e+08   1.474304e+05   1.196473e-30   0.000000e+00   0.000000e+00
     3384000   3.383999e-07   1.049213e-01   1.663950e+00   7.377751e+00   1.665000e+04  -1.365540e+05  -5.302349e+04   1.234798e+10   1.371161e+09   3.461916e+08   1.474304e+05   1.196349e-30   0.000000e+00   0.000000e+00
     3392000   3.391999e-07   1.049346e-01   1.663841e+00   7.377709e+00   1.665988e+04  -1.365529e+05  -5.302321e+04   1.234724e+10   1.371966e+09   3.462159e+08   1.474304e+05   1.196225e-30   0.000000e+00   0.000000e+00
     3400000   3.399999e-07   1.049480e-01   1.663732e+00   7.377666e+00   1.666976e+04  -1.365518e+05  -5.302294e+04   1.234650e+10   1.372771e+09   3.462402e+08   1.474304e+05   1.196100e-30   0.000000e+00   0.000000e+00
     3408000   3.407999e-07   1.049613e-01   1.663622e+00   7.377624e+00   1.667964e+04  -1.365507e+05  -5.302266e+04   1.234576e+10   1.373576e+09   3.462645e+08   1.474304e+05   1.195976e-30   0.000000e+00   0.000000e+00
     3416000   3.415999e-07   1.049747e-01   1.663513e+00   7.377582e+00   1.668951e+04  -1.365496e+05  -5.302238e+04   1.234502e+10   1.374381e+09   3.462888e+08   1.474304e+05   1.195852e-30   0.000000e+00   0.000000e+00
     3424000   3.423999e-07   1.049880e-01   1.663404e+00   7.377539e+00   1.669939e+04  -1.365485e+05  -5.302211e+04   1.234428e+10   1.375186e+09   3.463131e+08   1.474304e+05   1.195728e-30   0.000000e+00   0.000000e+00
     3432000   3.431999e-07   1.050014e-01   1.663295e+00   7.377497e+00   1.670926e+04  -1.365474e+05  -5.302183e+04   1.234354e+10   1.375991e+09   3.463374e+08   1.474304e+05   1.195604e-30   0.000000e+00   0.000000e+00
     3440000   3.439999e-07   1.050147e-01   1.663186e+00   7.377454e+00   1.671914e+04  -1.365463e+05  -5.302155e+04   1.234280e+10   1.376795e+09   3.463618e+08   1.474304e+05   1.195479e-30   0.000000e+00   0.000000e+00
     3448000   3.447999e-07   1.050281e-01   1.663076e+00   7.377412e+00   1.672901e+04  -1.365452e+05  -5.302128e+04   1.234206e+10   1.377599e+09   3.463861e+08   1.474304e+05   1.195355e-30   0.000000e+00   0.000000e+00
     3456000   3.455999e-07   1.050415e-01   1.662967e+00   7.377369e+00   1.673888e+04  -1.365441e+05  -5.302100e+04   1.234132e+10   1.378403e+09   3.464104e+08   1.474304e+05   1.195231e-30   0.000000e+00   0.000000e+00
     3464000   3.463999e-07   1.050549e-01   1.662858e+00   7.377327e+00   1.674876e+04  -1.365430e+05  -5.302072e+04   1.234058e+10   1.379207e+09   3.464348e+08   1.474304e+05   1.195107e-30   0.000000e+00   0.000000e+00
     3472000   3.471999e-07   1.050683e-01   1.662749e+00   7.377285e+00   1.675863e+04  -1.365419e+05  -5.302044e+04   1.233984e+10   1.380011e+09   3.464592e+08   1.474304e+05   1.194983e-30   0.000000e+00   0.000000e+00
     3480000   3.479999e-07   1.050817e-01   1.662639e+00   7.377242e+00   1.676850e+04  -1.365408e+05  -5.302017e+04   1.233910e+10   1.380815e+09   3.464836e+08   1.474304e+05   1.194859e-30   0.000000e+00   0.000000e+00
     3488000   3.487999e-07   1.050951e-01   1.662530e+00   7.377200e+00   1.677837e+04  -1.365397e+05  -5.301989e+04   1.233836e+10   1.381618e+09   3.465080e+08   1.474304e+05   1.194735e-30   0.000000e+00   0.000000e+00
     3496000   3.495999e-07   1.051086e-01   1.662421e+00   7.377157e+00   1.678824e+04  -1.365386e+05  -5.301961e+04   1.233762e+10   1.382422e+09   3.465324e+08   1.474304e+05   1.194611e-30   0.000000e+00   0.000000e+00
     3504000   3.503999e-07   1.051220e-01   1.662312e+00   7.377115e+00   1.679811e+04  -1.365375e+05  -5.301933e+04   1.233688e+10   1.383225e+09   3.465568e+08   1.474304e+05   1.194487e-30   0.000000e+00   0.000000e+00
     3512000   3.511999e-07   1.051354e-01   1.662202e+00   7.377073e+00   1.680798e+04  -1.365364e+05  -5.301906e+04   1.233614e+10   1.384028e+09   3.465812e+08   1.474304e+05   1.194363e-30   0.000000e+00   0.000000e+00
     3520000   3.519999e-07   1.051489e-01   1.662093e+00   7.377030e+00   1.681785e+04  -1.365353e+05  -5.301878e+04   1.233540e+10   1.384831e+09   3.466056e+08   1.474304e+05   1.194239e-30   0.000000e+00   0.000000e+00
     3528000   3.527999e-07   1.051624e-01   1.661984e+00   7.376988e+00   1.682772e+04  -1.365342e+05  -5.301850e+04   1.233466e+10   1.385634e+09   3.466301e+08   1.474304e+05   1.194115e-30   0.000000e+00   0.000000e+00
     3536000   3.535999e-07   1.051758e-01   1.661875e+00   7.376945e+00   1.683759e+04  -1.365331e+05  -5.301823e+04   1.233392e+10   1.386437e+09   3.466545e+08   1.474304e+05   1.193991e-30   0.000000e+00   0.000000e+00
     3544000   3.543999e-07   1.051893e-01   1.661766e+00   7.376903e+00   1.684745e+04  -1.365320e+05  -5.301795e+04   1.233318e+10   1.387239e+09   3.466790e+08   1.474304e+05   1.193867e-30   0.000000e+00   0.000000e+00
     3552000   3.551999e-07   1.052028e-01   1.661656e+00   7.376861e+00   1.685732e+04  -1.365308e+05  -5.301767e+04   1.233244e+10   1.388042e+09   3.467035e+08   1.474304e+05   1.193743e-30   0.000000e+00   0.000000e+00
     3560000   3.559999e-07   1.052163e-01   1.661547e+00   7.376818e+00   1.686718e+04  -1.365297e+05  -5.301739e+04   1.233170e+10   1.388844e+09   3.467280e+08   1.474304e+05   1.193619e-30   0.000000e+00   0.000000e+00
     3568000   3.567999e-07   1.052298e-01   1.661438e+00   7.376776e+00   1.687705e+04  -1.365286e+05  -5.301712e+04   1.233096e+10   1.389646e+09   3.467525e+08   1.474304e+05   1.193495e-30   0.000000e+00   0.000000e+00
     3576000   3.575999e-07   1.052433e-01   1.661329e+00   7.376733e+00   1.688691e+04  -1.365275e+05  -5.301684e+04   1.233022e+10   1.390448e+09   3.467770e+08   1.474304e+05   1.193371e-30   0.000000e+00   0.000000e+00
     3584000   3.583999e-07   1.052568e-01   1.661219e+00   7.376691e+00   1.689678e+04  -1.365264e+05  -5.301656e+04   1.232948e+10   1.391250e+09   3.468015e+08   1.474304e+05   1.193248e-30   0.000000e+00   0.000000e+00
     3592000   3.591999e-07   1.052703e-01   1.661110e+00   7.376648e+00   1.690664e+04  -1.365253e+05  -5.301628e+04   1.232875e+10   1.392052e+09   3.468260e+08   1.474304e+05   1.193124e-30   0.000000e+00   0.000000e+00
     3600000   3.599999e-07   1.052838e-01   1.661001e+00   7.376606e+00   1.691650e+04  -1.365242e+05  -5.301601e+04   1.232801e+10   1.392853e+09   3.468505e+08   1.474304e+05   1.193000e-30   0.000000e+00   0.000000e+00
     3608000   3.607999e-07   1.052974e-01   1.660892e+00   7.376564e+00   1.692637e+04  -1.365231e+05  -5.301573e+04   1.232727e+10   1.393654e+09   3.468751e+08   1.474304e+05   1.192876e-30   0.000000e+00   0.000000e+00
     3616000   3.615999e-07   1.053109e-01   1.660783e+00   7.376521e+00   1.693623e+04  -1.365219e+05  -5.301545e+04   1.232653e+10   1.394456e+09   3.468996e+08   1.474304e+05   1.192752e-30   0.000000e+00   0.000000e+00
     3624000   3.623999e-07   1.053245e-01   1.660673e+00   7.376479e+00   1.694609e+04  -1.365208e+05  -5.301517e+04   1.232579e+10   1.395257e+09   3.469242e+08   1.474304e+05   1.192629e-30   0.000000e+00   0.000000e+00
     3632000   3.631999e-07   1.053380e-01   1.660564e+00   7.376436e+00   1.695595e+04  -1.365197e+05  -5.301490e+04   1.232505e+10   1.396058e+09   3.469488e+08   1.474304e+05   1.192505e-30   0.000000e+00   0.000000e+00
     3640000   3.639999e-07   1.053516e-01   1.660455e+00   7.376394e+00   1.696581e+04  -1.365186e+05  -5.301462e+04   1.232431e+10   1.396859e+09   3.469734e+08   1.474304e+05   1.192381e-30   0.000000e+00   0.000000e+00
     3648000   3.647999e-07   1.053652e-01   1.660346e+00   7.376352e+00   1.697567e+04  -1.365175e+05  -5.301434e+04   1.232357e+10   1.397659e+09   3.469980e+08   1.474304e+05   1.192258e-30   0.000000e+00   0.000000e+00
     3656000   3.655999e-07   1.053788e-01   1.660236e+00   7.376309e+00   1.698553e+04  -1.365164e+05  -5.301406e+04   1.232283e+10   1.398460e+09   3.470226e+08   1.474304e+05   1.192134e-30   0.000000e+00   0.000000e+00
     3664000   3.663999e-07   1.053923e-01   1.660127e+00   7.376267e+00   1.699538e+04  -1.365152e+05  -5.301379e+04   1.232209e+10   1.399260e+09   3.470472e+08   1.474304e+05   1.192010e-30   0.000000e+00   0.000000e+00
     3672000   3.671999e-07   1.054059e-01   1.660018e+00   7.376224e+00   1.700524e+04  -1.365141e+05  -5.301351e+04   1.232135e+10   1.400061e+09   3.470718e+08   1.474304e+05   1.191886e-30   0.000000e+00   0.000000e+00
     3680000   3.679999e-07   1.054196e-01   1.659909e+00   7.376182e+00   1.701510e+04  -1.365130e+05  -5.301323e+04   1.232061e+10   1.400861e+09   3.470965e+08   1.474304e+05   1.191763e-30   0.000000e+00   0.000000e+00
     3688000   3.687999e-07   1.054332e-01   1.659800e+00   7.376139e+00   1.702495e+04  -1.365119e+05  -5.301295e+04   1.231987e+10   1.401661e+09   3.471211e+08   1.474304e+05   1.191639e-30   0.000000e+00   0.000000e+00
     3696000   3.695999e-07   1.054468e-01   1.659690e+00   7.376097e+00   1.703481e+04  -1.365108e+05  -5.301268e+04   1.231913e+10   1.402460e+09   3.471458e+08   1.474304e+05   1.191516e-30   0.000000e+00   0.000000e+00
     3704000   3.703999e-07   1.054604e-01   1.659581e+00   7.376055e+00   1.704467e+04  -1.365096e+05  -5.301240e+04   1.231839e+10   1.403260e+09   3.471705e+08   1.474304e+05   1.191392e-30   0.000000e+00   0.000000e+00
     3712000   3.711999e-07   1.054741e-01   1.659472e+00   7.376012e+00   1.705452e+04  -1.365085e+05  -5.301212e+04   1.231765e+10   1.404060e+09   3.471951e+08   1.474304e+05   1.191269e-30   0.000000e+00   0.000000e+00
     3720000   3.719999e-07   1.054877e-01   1.659363e+00   7.375970e+00   1.706437e+04  -1.365074e+05  -5.301184e+04   1.231691e+10   1.404859e+09   3.472198e+08   1.474304e+05   1.191145e-30   0.000000e+00   0.000000e+00
     3728000   3.727999e-07   1.055014e-01   1.659254e+00   7.375927e+00   1.707423e+04  -1.365063e+05  -5.301156e+04   1.231617e+10   1.405658e+09   3.472445e+08   1.474304e+05   1.191021e-30   0.000000e+00   0.000000e+00
     3736000   3.735999e-07   1.055150e-01   1.659144e+00   7.375885e+00   1.708408e+04  -1.365051e+05  -5.301129e+04   1.231543e+10   1.406457e+09   3.472693e+08   1.474304e+05   1.190898e-30   0.000000e+00   0.000000e+00
     3744000   3.743999e-07   1.055287e-01   1.659035e+00   7.375843e+00   1.709393e+04  -1.365040e+05  -5.301101e+04   1.231470e+10   1.407256e+09   3.472940e+08   1.474304e+05   1.190774e-30   0.000000e+00   0.000000e+00
     3752000   3.751999e-07   1.055424e-01   1.658926e+00   7.375800e+00   1.710378e+04  -1.365029e+05  -5.301073e+04   1.231396e+10   1.408055e+09   3.473187e+08   1.474304e+05   1.190651e-30   0.000000e+00   0.000000e+00
     3760000   3.759999e-07   1.055561e-01   1.658817e+00   7.375758e+00   1.711363e+04  -1.365018e+05  -5.301045e+04   1.231322e+10   1.408854e+09   3.473435e+08   1.474304e+05   1.190527e-30   0.000000e+00   0.000000e+00
     3768000   3.767999e-07   1.055698e-01   1.658708e+00   7.375715e+00   1.712348e+04  -1.365006e+05  -5.301017e+04   1.231248e+10   1.409652e+09   3.473682e+08   1.474304e+05   1.190404e-30   0.000000e+00   0.000000e+00
     3776000   3.775999e-07   1.055835e-01   1.658598e+00   7.375673e+00   1.713333e+04  -1.364995e+05  -5.300990e+04   1.231174e+10   1.410451e+09   3.473930e+08   1.474304e+05   1.190281e-30   0.000000e+00   0.000000e+00
     3784000   3.783999e-07   1.055972e-01   1.658489e+00   7.375631e+00   1.714318e+04  -1.364984e+05  -5.300962e+04   1.231100e+10   1.411249e+09   3.474177e+08   1.474304e+05   1.190157e-30   0.000000e+00   0.000000e+00
     3792000   3.791999e-07   1.056109e-01   1.658380e+00   7.375588e+00   1.715303e+04  -1.364972e+05  -5.300934e+04   1.231026e+10   1.412047e+09   3.474425e+08   1.474304e+05   1.190034e-30   0.000000e+00   0.000000e+00
     3800000   3.799999e-07   1.056246e-01   1.658271e+00   7.375546e+00   1.716288e+04  -1.364961e+05  -5.300906e+04   1.230952e+10   1.412845e+09   3.474673e+08   1.474304e+05   1.189910e-30   0.000000e+00   0.000000e+00
     3808000   3.807999e-07   1.056384e-01   1.658162e+00   7.375503e+00   1.717273e+04  -1.364950e+05  -5.300879e+04   1.230878e+10   1.413643e+09   3.474921e+08   1.474304e+05   1.189787e-30   0.000000e+00   0.000000e+00
     3816000   3.815999e-07   1.056521e-01   1.658052e+00   7.375461e+00   1.718257e+04  -1.364939e+05  -5.300851e+04   1.230804e+10   1.414441e+09   3.475169e+08   1.474304e+05   1.189664e-30   0.000000e+00   0.000000e+00
     3824000   3.823999e-07   1.056659e-01   1.657943e+00   7.375419e+00   1.719242e+04  -1.364927e+05  -5.300823e+04   1.230730e+10   1.415238e+09   3.475418e+08   1.474304e+05   1.189540e-30   0.000000e+00   0.000000e+00
     3832000   3.831999e-07   1.056796e-01   1.657834e+00   7.375376e+00   1.720227e+04  -1.364916e+05  -5.300795e+04   1.230656e+10   1.416036e+09   3.475666e+08   1.474304e+05   1.189417e-30   0.000000e+00   0.000000e+00
     3840000   3.839999e-07   1.056934e-01   1.657725e+00   7.375334e+00   1.721211e+04  -1.364905e+05  -5.300767e+04   1.230582e+10   1.416833e+09   3.475915e+08   1.474304e+05   1.189294e-30   0.000000e+00   0.000000e+00
     3848000   3.847999e-07   1.057071e-01   1.657616e+00   7.375291e+00   1.722195e+04  -1.364893e+05  -5.300740e+04   1.230508e+10   1.417630e+09   3.476163e+08   1.474304e+05   1.189171e-30   0.000000e+00   0.000000e+00
     3856000   3.855999e-07   1.057209e-01   1.657506e+00   7.375249e+00   1.723180e+04  -1.364882e+05  -5.300712e+04   1.230435e+10   1.418427e+09   3.476412e+08   1.474304e+05   1.189047e-30   0.000000e+00   0.000000e+00
     3864000   3.863999e-07   1.057347e-01   1.657397e+00   7.375207e+00   1.724164e+04  -1.364871e+05  -5.300684e+04   1.230361e+10   1.419224e+09   3.476661e+08   1.474304e+05   1.188924e-30   0.000000e+00   0.000000e+00
     3872000   3.871999e-07   1.057485e-01   1.657288e+00   7.375164e+00   1.725148e+04  -1.364859e+05  -5.300656e+04   1.230287e+10   1.420020e+09   3.476909e+08   1.474304e+05   1.188801e-30   0.000000e+00   0.000000e+00
     3880000   3.879999e-07   1.057623e-01   1.657179e+00   7.375122e+00   1.726133e+04  -1.364848e+05  -5.300628e+04   1.230213e+10   1.420817e+09   3.477158e+08   1.474304e+05   1.188678e-30   0.000000e+00   0.000000e+00
     3888000   3.887999e-07   1.057761e-01   1.657070e+00   7.375079e+00   1.727117e+04  -1.364836e+05  -5.300600e+04   1.230139e+10   1.421613e+09   3.477408e+08   1.474304e+05   1.188554e-30   0.000000e+00   0.000000e+00
     3896000   3.895999e-07   1.057900e-01   1.656960e+00   7.375037e+00   1.728101e+04  -1.364825e+05  -5.300573e+04   1.230065e+10   1.422410e+09   3.477657e+08   1.474304e+05   1.188431e-30   0.000000e+00   0.000000e+00
     3904000   3.903999e-07   1.058038e-01   1.656851e+00   7.374994e+00   1.729085e+04  -1.364814e+05  -5.300545e+04   1.229991e+10   1.423206e+09   3.477906e+08   1.474304e+05   1.188308e-30   0.000000e+00   0.000000e+00
     3912000   3.911999e-07   1.058176e-01   1.656742e+00   7.374952e+00   1.730069e+04  -1.364802e+05  -5.300517e+04   1.229917e+10   1.424002e+09   3.478155e+08   1.474304e+05   1.188185e-30   0.000000e+00   0.000000e+00
     3920000   3.919999e-07   1.058315e-01   1.656633e+00   7.374910e+00   1.731053e+04  -1.364791e+05  -5.300489e+04   1.229843e+10   1.424798e+09   3.478405e+08   1.474304e+05   1.188062e-30   0.000000e+00   0.000000e+00
     3928000   3.927999e-07   1.058453e-01   1.656524e+00   7.374867e+00   1.732037e+04  -1.364779e+05  -5.300461e+04   1.229769e+10   1.425593e+09   3.478655e+08   1.474304e+05   1.187939e-30   0.000000e+00   0.000000e+00
     3936000   3.935999e-07   1.058592e-01   1.656415e+00   7.374825e+00   1.733020e+04  -1.364768e+05  -5.300433e+04   1.229695e+10   1.426389e+09   3.478904e+08   1.474304e+05   1.187816e-30   0.000000e+00   0.000000e+00
     3944000   3.943999e-07   1.058730e-01   1.656305e+00   7.374782e+00   1.734004e+04  -1.364757e+05  -5.300406e+04   1.229621e+10   1.427184e+09   3.479154e+08   1.474304e+05   1.187693e-30   0.000000e+00   0.000000e+00
     3952000   3.951999e-07   1.058869e-01   1.656196e+00   7.374740e+00   1.734988e+04  -1.364745e+05  -5.300378e+04   1.229548e+10   1.427979e+09   3.479404e+08   1.474304e+05   1.187570e-30   0.000000e+00   0.000000e+00
     3960000   3.959999e-07   1.059008e-01   1.656087e+00   7.374698e+00   1.735971e+04  -1.364734e+05  -5.300350e+04   1.229474e+10   1.428775e+09   3.479654e+08   1.474304e+05   1.187447e-30   0.000000e+00   0.000000e+00
     3968000   3.967999e-07   1.059147e-01   1.655978e+00   7.374655e+00   1.736955e+04  -1.364722e+05  -5.300322e+04   1.229400e+10   1.429570e+09   3.479904e+08   1.474304e+05   1.187324e-30   0.000000e+00   0.000000e+00
     3976000   3.975999e-07   1.059286e-01   1.655869e+00   7.374613e+00   1.737938e+04  -1.364711e+05  -5.300294e+04   1.229326e+10   1.430364e+09   3.480154e+08   1.474304e+05   1.187201e-30   0.000000e+00   0.000000e+00
     3984000   3.983999e-07   1.059425e-01   1.655759e+00   7.374570e+00   1.738922e+04  -1.364699e+05  -5.300266e+04   1.229252e+10   1.431159e+09   3.480405e+08   1.474304e+05   1.187078e-30   0.000000e+00   0.000000e+00
     3992000   3.991999e-07   1.059564e-01   1.655650e+00   7.374528e+00   1.739905e+04  -1.364688e+05  -5.300239e+04   1.229178e+10   1.431954e+09   3.480655e+08   1.474304e+05   1.186955e-30   0.000000e+00   0.000000e+00
     4000000   3.999999e-07   1.059703e-01   1.655541e+00   7.374486e+00   1.740888e+04  -1.364677e+05  -5.300211e+04   1.229104e+10   1.432748e+09   3.480906e+08   1.474304e+05   1.186832e-30   0.000000e+00   0.000000e+00
     4008000   4.007999e-07   1.059843e-01   1.655432e+00   7.374443e+00   1.741872e+04  -1.364665e+05  -5.300183e+04   1.229030e+10   1.433542e+09   3.481156e+08   1.474304e+05   1.186709e-30   0.000000e+00   0.000000e+00
     4016000   4.015999e-07   1.059982e-01   1.655323e+00   7.374401e+00   1.742855e+04  -1.364654e+05  -5.300155e+04   1.228956e+10   1.434336e+09   3.481407e+08   1.474304e+05   1.186586e-30   0.000000e+00   0.000000e+00
     4024000   4.023999e-07   1.060122e-01   1.655214e+00   7.374358e+00   1.743838e+04  -1.364642e+05  -5.300127e+04   1.228882e+10   1.435130e+09   3.481658e+08   1.474304e+05   1.186463e-30   0.000000e+00   0.000000e+00
     4032000   4.031999e-07   1.060261e-01   1.655104e+00   7.374316e+00   1.744821e+04  -1.364631e+05  -5.300099e+04   1.228808e+10   1.435924e+09   3.481909e+08   1.474304e+05   1.186340e-30   0.000000e+00   0.000000e+00
     4040000   4.039999e-07   1.060401e-01   1.654995e+00   7.374274e+00   1.745804e+04  -1.364619e+05  -5.300072e+04   1.228735e+10   1.436718e+09   3.482160e+08   1.474304e+05   1.186217e-30   0.000000e+00   0.000000e+00
     4048000   4.047999e-07   1.060540e-01   1.654886e+00   7.374231e+00   1.746787e+04  -1.364608e+05  -5.300044e+04   1.228661e+10   1.437511e+09   3.482411e+08   1.474304e+05   1.186094e-30   0.000000e+00   0.000000e+00
     4056000   4.055999e-07   1.060680e-01   1.654777e+00   7.374189e+00   1.747770e+04  -1.364596e+05  -5.300016e+04   1.228587e+10   1.438305e+09   3.482662e+08   1.474304e+05   1.185972e-30   0.000000e+00   0.000000e+00
     4064000   4.063999e-07   1.060820e-01   1.654668e+00   7.374146e+00   1.748753e+04  -1.364585e+05  -5.299988e+04   1.228513e+10   1.439098e+09   3.482914e+08   1.474304e+05   1.185849e-30   0.000000e+00   0.000000e+00
     4072000   4.071999e-07   1.060960e-01   1.654559e+00   7.374104e+00   1.749736e+04  -1.364573e+05  -5.299960e+04   1.228439e+10   1.439891e+09   3.483165e+08   1.474304e+05   1.185726e-30   0.000000e+00   0.000000e+00
     4080000   4.079999e-07   1.061100e-01   1.654449e+00   7.374062e+00   1.750718e+04  -1.364562e+05  -5.299932e+04   1.228365e+10   1.440684e+09   3.483417e+08   1.474304e+05   1.185603e-30   0.000000e+00   0.000000e+00
     4088000   4.087999e-07   1.061240e-01   1.654340e+00   7.374019e+00   1.751701e+04  -1.364550e+05  -5.299904e+04   1.228291e+10   1.441477e+09   3.483669e+08   1.474304e+05   1.185480e-30   0.000000e+00   0.000000e+00
     4096000   4.095999e-07   1.061380e-01   1.654231e+00   7.373977e+00   1.752684e+04  -1.364539e+05  -5.299876e+04   1.228217e+10   1.442270e+09   3.483920e+08   1.474304e+05   1.185358e-30   0.000000e+00   0.000000e+00
     4104000   4.103999e-07   1.061521e-01   1.654122e+00   7.373934e+00   1.753666e+04  -1.364527e+05  -5.299849e+04   1.228143e+10   1.443062e+09   3.484172e+08   1.474304e+05   1.185235e-30   0.000000e+00   0.000000e+00
     4112000   4.111999e-07   1.061661e-01   1.654013e+00   7.373892e+00   1.754649e+04  -1.364515e+05  -5.299821e+04   1.228070e+10   1.443855e+09   3.484424e+08   1.474304e+05   1.185112e-30   0.000000e+00   0.000000e+00
     4120000   4.119999e-07   1.061801e-01   1.653904e+00   7.373850e+00   1.755631e+04  -1.364504e+05  -5.299793e+04   1.227996e+10   1.444647e+09   3.484676e+08   1.474304e+05   1.184990e-30   0.000000e+00   0.000000e+00
     4128000   4.127999e-07   1.061942e-01   1.653794e+00   7.373807e+00   1.756613e+04  -1.364492e+05  -5.299765e+04   1.227922e+10   1.445439e+09   3.484929e+08   1.474304e+05   1.184867e-30   0.000000e+00   0.000000e+00
     4136000   4.135999e-07   1.062082e-01   1.653685e+00   7.373765e+00   1.757596e+04  -1.364481e+05  -5.299737e+04   1.227848e+10   1.446231e+09   3.485181e+08   1.474304e+05   1.184744e-30   0.000000e+00   0.000000e+00
     4144000   4.143999e-07   1.062223e-01   1.653576e+00   7.373722e+00   1.758578e+04  -1.364469e+05  -5.299709e+04   1.227774e+10   1.447023e+09   3.485433e+08   1.474304e+05   1.184622e-30   0.000000e+00   0.000000e+00
     4152000   4.151999e-07   1.062364e-01   1.653467e+00   7.373680e+00   1.759560e+04  -1.364458e+05  -5.299681e+04   1.227700e+10   1.447815e+09   3.485686e+08   1.474304e+05   1.184499e-30   0.000000e+00   0.000000e+00
     4160000   4.159999e-07   1.062505e-01   1.653358e+00   7.373638e+00   1.760542e+04  -1.364446e+05  -5.299653e+04   1.227626e+10   1.448606e+09   3.485939e+08   1.474304e+05   1.184376e-30   0.000000e+00   0.000000e+00
     4168000   4.167999e-07   1.062645e-01   1.653249e+00   7.373595e+00   1.761524e+04  -1.364434e+05  -5.299626e+04   1.227552e+10   1.449398e+09   3.486191e+08   1.474304e+05   1.184254e-30   0.000000e+00   0.000000e+00
     4176000   4.175999e-07   1.062786e-01   1.653140e+00   7.373553e+00   1.762506e+04  -1.364423e+05  -5.299598e+04   1.227478e+10   1.450189e+09   3.486444e+08   1.474304e+05   1.184131e-30   0.000000e+00   0.000000e+00
     4184000   4.183999e-07   1.062927e-01   1.653030e+00   7.373510e+00   1.763488e+04  -1.364411e+05  -5.299570e+04   1.227405e+10   1.450980e+09   3.486697e+08   1.474304e+05   1.184009e-30   0.000000e+00   0.000000e+00
     4192000   4.191999e-07   1.063069e-01   1.652921e+00   7.373468e+00   1.764470e+04  -1.364400e+05  -5.299542e+04   1.227331e+10   1.451771e+09   3.486950e+08   1.474304e+05   1.183886e-30   0.000000e+00   0.000000e+00
     4200000   4.199999e-07   1.063210e-01   1.652812e+00   7.373426e+00   1.765452e+04  -1.364388e+05  -5.299514e+04   1.227257e+10   1.452562e+09   3.487203e+08   1.474304e+05   1.183764e-30   0.000000e+00   0.000000e+00
     4208000   4.207999e-07   1.063351e-01   1.652703e+00   7.373383e+00   1.766434e+04  -1.364376e+05  -5.299486e+04   1.227183e+10   1.453353e+09   3.487456e+08   1.474304e+05   1.183641e-30   0.000000e+00   0.000000e+00
     4216000   4.215999e-07   1.063492e-01   1.652594e+00   7.373341e+00   1.767416e+04  -1.364365e+05  -5.299458e+04   1.227109e+10   1.454143e+09   3.487710e+08   1.474304e+05   1.183519e-30   0.000000e+00   0.000000e+00
     4224000   4.223999e-07   1.063634e-01   1.652485e+00   7.373299e+00   1.768397e+04  -1.364353e+05  -5.299430e+04   1.227035e+10   1.454934e+09   3.487963e+08   1.474304e+05   1.183396e-30   0.000000e+00   0.000000e+00
     4232000   4.231999e-07   1.063775e-01   1.652375e+00   7.373256e+00   1.769379e+04  -1.364342e+05  -5.299402e+04   1.226961e+10   1.455724e+09   3.488217e+08   1.474304e+05   1.183274e-30   0.000000e+00   0.000000e+00
     4240000   4.239999e-07   1.063917e-01   1.652266e+00   7.373214e+00   1.770360e+04  -1.364330e+05  -5.299374e+04   1.226887e+10   1.456514e+09   3.488471e+08   1.474304e+05   1.183151e-30   0.000000e+00   0.000000e+00
     4248000   4.247999e-07   1.064059e-01   1.652157e+00   7.373171e+00   1.771342e+04  -1.364318e+05  -5.299347e+04   1.226814e+10   1.457304e+09   3.488724e+08   1.474304e+05   1.183029e-30   0.000000e+00   0.000000e+00
     4256000   4.255999e-07   1.064200e-01   1.652048e+00   7.373129e+00   1.772323e+04  -1.364307e+05  -5.299319e+04   1.226740e+10   1.458094e+09   3.488978e+08   1.474304e+05   1.182907e-30   0.000000e+00   0.000000e+00
     4264000   4.263999e-07   1.064342e-01   1.651939e+00   7.373087e+00   1.773305e+04  -1.364295e+05  -5.299291e+04   1.226666e+10   1.458884e+09   3.489232e+08   1.474304e+05   1.182784e-30   0.000000e+00   0.000000e+00
     4272000   4.271999e-07   1.064484e-01   1.651830e+00   7.373044e+00   1.774286e+04  -1.364283e+05  -5.299263e+04   1.226592e+10   1.459673e+09   3.489486e+08   1.474304e+05   1.182662e-30   0.000000e+00   0.000000e+00
     4280000   4.279999e-07   1.064626e-01   1.651721e+00   7.373002e+00   1.775267e+04  -1.364272e+05  -5.299235e+04   1.226518e+10   1.460463e+09   3.489740e+08   1.474304e+05   1.182540e-30   0.000000e+00   0.000000e+00
     4288000   4.287999e-07   1.064768e-01   1.651611e+00   7.372959e+00   1.776248e+04  -1.364260e+05  -5.299207e+04   1.226444e+10   1.461252e+09   3.489995e+08   1.474304e+05   1.182417e-30   0.000000e+00   0.000000e+00
