     timestep     time              x             y              z              vx             vy             vz             ax             ay             az         v_magnitude      ELoss        Electronic      Nuclear
           0   0.000000e+00   1.000000e-01   6.323393e+00   1.451309e+01   2.687192e+06  -1.549380e+06   1.163903e+06   0.000000e+00   0.000000e+00   0.000000e+00   3.313042e+06   0.000000e+00   0.000000e+00   0.000000e+00
        8000   7.999000e-08   3.167915e-01   6.202839e+00   1.460643e+01   2.732058e+06  -1.463809e+06   1.170201e+06   5.401154e+11   1.094098e+12   1.076212e+11   3.313042e+06   3.756338e-18   0.000000e+00   0.000000e+00
       16000   1.599900e-07   5.370379e-01   6.089288e+00   1.470045e+01   2.773501e+06  -1.374334e+06   1.181164e+06   4.950434e+11   1.142628e+12   1.670938e+11   3.313042e+06   3.952195e-18   0.000000e+00   0.000000e+00
       24000   2.399900e-07   7.604505e-01   5.983048e+00   1.479554e+01   2.811149e+06  -1.281038e+06   1.196927e+06   4.453989e+11   1.189446e+12   2.269647e+11   3.313043e+06   4.167728e-18   0.000000e+00   0.000000e+00
       32000   3.199900e-07   9.867103e-01   5.884420e+00   1.489209e+01   2.844623e+06  -1.184066e+06   1.217524e+06   3.910284e+11   1.234575e+12   2.870641e+11   3.313043e+06   4.405096e-18   0.000000e+00   0.000000e+00
       40000   3.999900e-07   1.215468e+00   5.793690e+00   1.499048e+01   2.873526e+06  -1.083604e+06   1.242943e+06   3.310247e+11   1.276743e+12   3.477988e+11   3.313043e+06   4.658285e-18   0.000000e+00   0.000000e+00
       48000   4.799900e-07   1.446342e+00   5.711131e+00   1.509109e+01   2.897485e+06  -9.798615e+05   1.273070e+06   2.671969e+11   1.315997e+12   4.047818e+11   3.313043e+06   4.924866e-18   0.000000e+00   0.000000e+00
       56000   5.599900e-07   1.678924e+00   5.636992e+00   1.519429e+01   2.916145e+06  -8.731348e+05   1.307666e+06   1.988966e+11   1.351745e+12   4.590354e+11   3.313044e+06   5.201257e-18   0.000000e+00   0.000000e+00
       64000   6.399900e-07   1.912776e+00   5.571501e+00   1.530042e+01   2.929186e+06  -7.637145e+05   1.346428e+06   1.267312e+11   1.382837e+12   5.086754e+11   3.313044e+06   5.475561e-18   0.000000e+00   0.000000e+00
       72000   7.199900e-07   2.147437e+00   5.514859e+00   1.540981e+01   2.936335e+06  -6.519627e+05   1.388935e+06   5.145991e+10   1.409728e+12   5.529484e+11   3.313044e+06   5.747670e-18   0.000000e+00   0.000000e+00
       80000   7.999900e-07   2.382426e+00   5.467239e+00   1.552274e+01   2.937362e+06  -5.382343e+05   1.434736e+06  -2.607698e+10   1.432694e+12   5.908727e+11   3.313044e+06   6.014784e-18   0.000000e+00   0.000000e+00
       88000   8.799900e-07   2.617247e+00   5.428786e+00   1.563945e+01   2.932112e+06  -4.228750e+05   1.483294e+06  -1.054142e+11   1.450037e+12   6.217887e+11   3.313045e+06   6.259945e-18   0.000000e+00   0.000000e+00
       96000   9.599900e-07   2.851394e+00   5.399611e+00   1.576013e+01   2.920487e+06  -3.063169e+05   1.534013e+06  -1.851993e+11   1.463432e+12   6.448264e+11   3.313045e+06   6.488760e-18   0.000000e+00   0.000000e+00
      104000   1.039990e-06   3.084355e+00   5.379798e+00   1.588493e+01   2.902473e+06  -1.889235e+05   1.586262e+06  -2.651598e+11   1.471505e+12   6.604507e+11   3.313045e+06   6.689301e-18   0.000000e+00   0.000000e+00
      112000   1.119990e-06   3.315620e+00   5.369395e+00   1.601395e+01   2.878094e+06  -7.111623e+04   1.639448e+06  -3.441505e+11   1.473110e+12   6.680827e+11   3.313046e+06   6.847028e-18   0.000000e+00   0.000000e+00
      120000   1.199990e-06   3.544683e+00   5.368419e+00   1.614725e+01   2.847461e+06   4.667232e+04   1.692945e+06  -4.212055e+11   1.470479e+12   6.679268e+11   3.313046e+06   6.974771e-18   0.000000e+00   0.000000e+00
      128000   1.279990e-06   3.771052e+00   5.376851e+00   1.628482e+01   2.810769e+06   1.640273e+05   1.746123e+06  -4.957184e+11   1.463031e+12   6.605498e+11   3.313046e+06   7.066594e-18   0.000000e+00   0.000000e+00
      136000   1.359990e-06   3.994251e+00   5.394641e+00   1.642660e+01   2.768271e+06   2.805457e+05   1.798401e+06  -5.660211e+11   1.449375e+12   6.451911e+11   3.313047e+06   7.103705e-18   0.000000e+00   0.000000e+00
      144000   1.439990e-06   4.213829e+00   5.421706e+00   1.657252e+01   2.720302e+06   3.958400e+05   1.849202e+06  -6.321948e+11   1.431922e+12   6.234999e+11   3.313047e+06   7.107422e-18   0.000000e+00   0.000000e+00
      152000   1.519990e-06   4.429363e+00   5.457933e+00   1.672242e+01   2.667233e+06   5.095445e+05   1.898029e+06  -6.934734e+11   1.409642e+12   5.960967e+11   3.313047e+06   7.068631e-18   0.000000e+00   0.000000e+00
      160000   1.599990e-06   4.640462e+00   5.503179e+00   1.687614e+01   2.609501e+06   6.212484e+05   1.944438e+06  -7.486402e+11   1.381985e+12   5.631702e+11   3.313048e+06   6.978954e-18   0.000000e+00   0.000000e+00
      168000   1.679990e-06   4.846772e+00   5.557269e+00   1.703346e+01   2.547606e+06   7.305669e+05   1.988030e+06  -7.973750e+11   1.350209e+12   5.256492e+11   3.313048e+06   6.847958e-18   0.000000e+00   0.000000e+00
      176000   1.759990e-06   5.047983e+00   5.619998e+00   1.719414e+01   2.482113e+06   8.371645e+05   2.028437e+06  -8.387012e+11   1.313979e+12   4.839990e+11   3.313048e+06   6.670292e-18   0.000000e+00   0.000000e+00
      184000   1.839990e-06   5.243831e+00   5.691133e+00   1.735792e+01   2.413627e+06   9.406716e+05   2.065389e+06  -8.722195e+11   1.273449e+12   4.393074e+11   3.313049e+06   6.448015e-18   0.000000e+00   0.000000e+00
      192000   1.919990e-06   5.434101e+00   5.770415e+00   1.752450e+01   2.342790e+06   1.040807e+06   2.098654e+06  -8.975040e+11   1.229499e+12   3.921647e+11   3.313049e+06   6.186496e-18   0.000000e+00   0.000000e+00
      200000   1.999990e-06   5.618632e+00   5.857565e+00   1.769360e+01   2.270258e+06   1.137302e+06   2.128090e+06  -9.140607e+11   1.181972e+12   3.434619e+11   3.313049e+06   5.884958e-18   0.000000e+00   0.000000e+00
      208000   2.079990e-06   5.797316e+00   5.952279e+00   1.786489e+01   2.196749e+06   1.229895e+06   2.153589e+06  -9.224605e+11   1.132650e+12   2.941118e+11   3.313049e+06   5.558982e-18   0.000000e+00   0.000000e+00
      216000   2.159990e-06   5.970103e+00   6.054240e+00   1.803807e+01   2.122934e+06   1.318419e+06   2.175136e+06  -9.214981e+11   1.080249e+12   2.446188e+11   3.313050e+06   5.197473e-18   0.000000e+00   0.000000e+00
      224000   2.239990e-06   6.136996e+00   6.163113e+00   1.821281e+01   2.049521e+06   1.402694e+06   2.192763e+06  -9.123581e+11   1.026318e+12   1.962395e+11   3.313050e+06   4.817671e-18   0.000000e+00   0.000000e+00
      232000   2.319990e-06   6.298055e+00   6.278554e+00   1.838881e+01   1.977180e+06   1.482592e+06   2.206577e+06  -8.951164e+11   9.712711e+11   1.494736e+11   3.313050e+06   4.423866e-18   0.000000e+00   0.000000e+00
      240000   2.399990e-06   6.453391e+00   6.400208e+00   1.856577e+01   1.906556e+06   1.558015e+06   2.216740e+06  -8.692438e+11   9.143349e+11   1.049879e+11   3.313050e+06   4.012450e-18   0.000000e+00   0.000000e+00
      248000   2.479990e-06   6.603167e+00   6.527715e+00   1.874340e+01   1.838263e+06   1.628910e+06   2.223454e+06  -8.370581e+11   8.581188e+11   6.339194e+10   3.313051e+06   3.607950e-18   0.000000e+00   0.000000e+00
      256000   2.559990e-06   6.747588e+00   6.660715e+00   1.892143e+01   1.772791e+06   1.695314e+06   2.226977e+06  -7.982625e+11   8.015676e+11   2.526131e+10   3.313051e+06   3.205662e-18   0.000000e+00   0.000000e+00
      264000   2.639990e-06   6.886903e+00   6.798844e+00   1.909963e+01   1.710686e+06   1.757180e+06   2.227595e+06  -7.535074e+11   7.452198e+11  -9.184641e+09   3.313051e+06   2.812182e-18   0.000000e+00   0.000000e+00
      272000   2.719990e-06   7.021398e+00   6.941744e+00   1.927778e+01   1.652350e+06   1.814572e+06   2.225617e+06  -7.041348e+11   6.897146e+11  -3.956192e+10   3.313051e+06   2.436297e-18   0.000000e+00   0.000000e+00
      280000   2.799990e-06   7.151390e+00   7.089058e+00   1.945567e+01   1.598158e+06   1.867551e+06   2.221363e+06  -6.498952e+11   6.347812e+11  -6.610455e+10   3.313051e+06   2.077280e-18   0.000000e+00   0.000000e+00
      288000   2.879990e-06   7.277222e+00   7.240436e+00   1.963315e+01   1.548433e+06   1.916166e+06   2.215168e+06  -5.924787e+11   5.807125e+11  -8.817445e+10   3.313051e+06   1.742668e-18   0.000000e+00   0.000000e+00
      296000   2.959990e-06   7.399265e+00   7.395530e+00   1.981006e+01   1.503527e+06   1.960403e+06   2.207382e+06  -4.924326e+11   4.880810e+11  -9.805508e+10   3.313051e+06   1.228080e-18   0.000000e+00   0.000000e+00
      304000   3.039990e-06   7.518708e+00   7.553196e+00   1.998647e+01   1.491001e+06   1.972750e+06   2.204877e+06   1.446308e+11  -1.488577e+11   3.538284e+10   3.313051e+06   1.108727e-19   0.000000e+00   0.000000e+00
      312000   3.119990e-06   7.638500e+00   7.710476e+00   2.016300e+01   1.502977e+06   1.959945e+06   2.208163e+06   1.163735e+11  -1.317208e+11   3.770507e+10   3.313051e+06   8.091534e-20   0.000000e+00   0.000000e+00
      320000   3.199990e-06   7.759041e+00   7.866911e+00   2.033977e+01   1.509690e+06   1.951675e+06   2.210907e+06   5.157610e+10  -7.519316e+10   3.115859e+10   3.313051e+06   2.325124e-20   0.000000e+00   0.000000e+00
      328000   3.279990e-06   7.879908e+00   8.022867e+00   2.051673e+01   1.511074e+06   1.948046e+06   2.213161e+06  -1.670094e+10  -1.574981e+10   2.526600e+10   3.313051e+06   2.917597e-21   0.000000e+00   0.000000e+00
      336000   3.359990e-06   8.000671e+00   8.178723e+00   2.069386e+01   1.507132e+06   1.949081e+06   2.214937e+06  -8.701764e+10   4.477382e+10   1.981068e+10   3.313051e+06   2.495350e-20   0.000000e+00   0.000000e+00
      344000   3.439990e-06   8.120894e+00   8.334852e+00   2.087111e+01   1.497514e+06   1.954947e+06   2.216290e+06  -1.538133e+11   1.017234e+11   1.420123e+10   3.313051e+06   8.563545e-20   0.000000e+00   0.000000e+00
      352000   3.519990e-06   8.240129e+00   8.491635e+00   2.104845e+01   1.482428e+06   1.965394e+06   2.217192e+06  -2.248648e+11   1.603721e+11   8.187153e+09   3.313051e+06   1.911385e-19   0.000000e+00   0.000000e+00
      360000   3.599990e-06   8.357932e+00   8.649437e+00   2.122585e+01   1.461647e+06   1.980445e+06   2.217597e+06  -2.971983e+11   2.175330e+11   1.618207e+09   3.313051e+06   3.395989e-19   0.000000e+00   0.000000e+00
      368000   3.679990e-06   8.473831e+00   8.808631e+00   2.140325e+01   1.434788e+06   2.000176e+06   2.217428e+06  -3.743118e+11   2.751358e+11  -5.979736e+09   3.313051e+06   5.403747e-19   0.000000e+00   0.000000e+00
      376000   3.759990e-06   8.587336e+00   8.969584e+00   2.158062e+01   1.401857e+06   2.024331e+06   2.216571e+06  -4.492103e+11   3.281420e+11  -1.558101e+10   3.313051e+06   7.753742e-19   0.000000e+00   0.000000e+00
      384000   3.839990e-06   8.697965e+00   9.132635e+00   2.175788e+01   1.362908e+06   2.052571e+06   2.214891e+06  -5.192165e+11   3.740624e+11  -2.715311e+10   3.313051e+06   1.027086e-18   0.000000e+00   0.000000e+00
      392000   3.919990e-06   8.805236e+00   9.298095e+00   2.193498e+01   1.317746e+06   2.084609e+06   2.212297e+06  -6.064354e+11   4.244021e+11  -3.868350e+10   3.313051e+06   1.375412e-18   0.000000e+00   0.000000e+00
      400000   3.999990e-06   8.908636e+00   9.466263e+00   2.211182e+01   1.266113e+06   2.120180e+06   2.208643e+06  -6.901457e+11   4.672521e+11  -5.290555e+10   3.313052e+06   1.746060e-18   0.000000e+00   0.000000e+00
      408000   4.079990e-06   9.007627e+00   9.637413e+00   2.228833e+01   1.207587e+06   2.159023e+06   2.203784e+06  -7.737691e+11   5.032782e+11  -6.905729e+10   3.313052e+06   2.145020e-18   0.000000e+00   0.000000e+00
      416000   4.159990e-06   9.101668e+00   9.811777e+00   2.246439e+01   1.142351e+06   2.200441e+06   2.197591e+06  -8.547040e+11   5.300597e+11  -8.645070e+10   3.313052e+06   2.551065e-18   0.000000e+00   0.000000e+00
      424000   4.239990e-06   9.190231e+00   9.989534e+00   2.263990e+01   1.070561e+06   2.243759e+06   2.189921e+06  -9.445598e+11   5.530587e+11  -1.048940e+11   3.313052e+06   3.027029e-18   0.000000e+00   0.000000e+00
      432000   4.319990e-06   9.272771e+00   1.017082e+01   2.281474e+01   9.917991e+05   2.288482e+06   2.180711e+06  -1.027114e+12   5.643508e+11  -1.250979e+11   3.313052e+06   3.477777e-18   0.000000e+00   0.000000e+00
      440000   4.399990e-06   9.348712e+00   1.035572e+01   2.298877e+01   9.053806e+05   2.334110e+06   2.169915e+06  -1.128436e+12   5.721186e+11  -1.445716e+11   3.313052e+06   4.059838e-18   0.000000e+00   0.000000e+00
      448000   4.479990e-06   9.417447e+00   1.054427e+01   2.316188e+01   8.116545e+05   2.379592e+06   2.157563e+06  -1.222111e+12   5.653361e+11  -1.637582e+11   3.313052e+06   4.606606e-18   0.000000e+00   0.000000e+00
      456000   4.559990e-06   9.478386e+00   1.073642e+01   2.333395e+01   7.108208e+05   2.423885e+06   2.143790e+06  -1.303688e+12   5.415606e+11  -1.800417e+11   3.313053e+06   5.070634e-18   0.000000e+00   0.000000e+00
      464000   4.639990e-06   9.530982e+00   1.093203e+01   2.350486e+01   6.026676e+05   2.466027e+06   2.128808e+06  -1.401082e+12   5.097477e+11  -1.938373e+11   3.313053e+06   5.659345e-18   0.000000e+00   0.000000e+00
      472000   4.719990e-06   9.574634e+00   1.113089e+01   2.367453e+01   4.875801e+05   2.504829e+06   2.112917e+06  -1.482582e+12   4.601825e+11  -2.034044e+11   3.313053e+06   6.136881e-18   0.000000e+00   0.000000e+00
      480000   4.799990e-06   9.608807e+00   1.133269e+01   2.384291e+01   3.656574e+05   2.539151e+06   2.096504e+06  -1.563344e+12   3.950575e+11  -2.057882e+11   3.313054e+06   6.615774e-18   0.000000e+00   0.000000e+00
      488000   4.879990e-06   9.632974e+00   1.153700e+01   2.400997e+01   2.375511e+05   2.567665e+06   2.080142e+06  -1.635952e+12   3.147821e+11  -2.017191e+11   3.313054e+06   7.050554e-18   0.000000e+00   0.000000e+00
      496000   4.959990e-06   9.646663e+00   1.174332e+01   2.417575e+01   1.035772e+05   2.589128e+06   2.064465e+06  -1.718697e+12   2.194050e+11  -1.889203e+11   3.313054e+06   7.605423e-18   0.000000e+00   0.000000e+00
      504000   5.039990e-06   9.649402e+00   1.195104e+01   2.434033e+01  -3.571960e+04   2.602212e+06   2.050255e+06  -1.764870e+12   1.054622e+11  -1.645863e+11   3.313055e+06   7.893978e-18   0.000000e+00   0.000000e+00
      512000   5.119990e-06   9.640833e+00   1.215942e+01   2.450385e+01  -1.792939e+05   2.605640e+06   2.038339e+06  -1.813714e+12  -2.238719e+10  -1.309016e+11   3.313055e+06   8.280065e-18   0.000000e+00   0.000000e+00
      520000   5.199990e-06   9.620658e+00   1.236765e+01   2.466655e+01  -3.253055e+05   2.598302e+06   2.029616e+06  -1.833821e+12  -1.628005e+11  -8.549062e+10   3.313055e+06   8.504193e-18   0.000000e+00   0.000000e+00
      528000   5.279990e-06   9.588743e+00   1.257484e+01   2.482870e+01  -4.726585e+05   2.579240e+06   2.024958e+06  -1.832579e+12  -3.124877e+11  -2.971359e+10   3.313056e+06   8.654876e-18   0.000000e+00   0.000000e+00
      536000   5.359990e-06   9.545028e+00   1.278000e+01   2.499067e+01  -6.201076e+05   2.547594e+06   2.025234e+06  -1.833706e+12  -4.758134e+11   3.709214e+10   3.313056e+06   8.988773e-18   0.000000e+00   0.000000e+00
      544000   5.439990e-06   9.489550e+00   1.298209e+01   2.515289e+01  -7.663909e+05   2.502586e+06   2.031269e+06  -1.814226e+12  -6.473054e+11   1.130170e+11   3.313057e+06   9.321578e-18   0.000000e+00   0.000000e+00
      552000   5.519990e-06   9.422498e+00   1.318005e+01   2.531584e+01  -9.091731e+05   2.444051e+06   2.043615e+06  -1.757244e+12  -8.181644e+11   1.967273e+11   3.313057e+06   9.503901e-18   0.000000e+00   0.000000e+00
      560000   5.599990e-06   9.344207e+00   1.337277e+01   2.548005e+01  -1.047026e+06   2.371710e+06   2.062784e+06  -1.681923e+12  -9.883604e+11   2.826888e+11   3.313058e+06   9.728296e-18   0.000000e+00   0.000000e+00
      568000   5.679990e-06   9.255176e+00   1.355917e+01   2.564607e+01  -1.177322e+06   2.286177e+06   2.088939e+06  -1.574199e+12  -1.148652e+12   3.699114e+11   3.313058e+06   9.850263e-18   0.000000e+00   0.000000e+00
      576000   5.759990e-06   9.156081e+00   1.373823e+01   2.581446e+01  -1.298380e+06   2.188194e+06   2.121880e+06  -1.451800e+12  -1.301779e+12   4.541250e+11   3.313059e+06   1.003613e-17   0.000000e+00   0.000000e+00
      584000   5.839990e-06   9.047712e+00   1.390897e+01   2.598575e+01  -1.408890e+06   2.078502e+06   2.161300e+06  -1.310032e+12  -1.439374e+12   5.302790e+11   3.313059e+06   1.018785e-17   0.000000e+00   0.000000e+00
      592000   5.919990e-06   8.930977e+00   1.407051e+01   2.616042e+01  -1.507302e+06   1.958513e+06   2.206497e+06  -1.146585e+12  -1.556481e+12   5.983139e+11   3.313060e+06   1.025320e-17   0.000000e+00   0.000000e+00
      600000   5.999990e-06   8.806904e+00   1.422210e+01   2.633892e+01  -1.592257e+06   1.829930e+06   2.256643e+06  -9.736927e+11  -1.653347e+12   6.537057e+11   3.313060e+06   1.028751e-17   0.000000e+00   0.000000e+00
      608000   6.079990e-06   8.676590e+00   1.436311e+01   2.652159e+01  -1.663180e+06   1.694498e+06   2.310602e+06  -7.963275e+11  -1.727074e+12   6.933814e+11   3.313061e+06   1.025930e-17   0.000000e+00   0.000000e+00
      616000   6.159990e-06   8.541174e+00   1.449308e+01   2.670869e+01  -1.719841e+06   1.554082e+06   2.367140e+06  -6.161028e+11  -1.776924e+12   7.189804e+11   3.313061e+06   1.014985e-17   0.000000e+00   0.000000e+00
      624000   6.239990e-06   8.401796e+00   1.461168e+01   2.690037e+01  -1.762371e+06   1.410473e+06   2.425076e+06  -4.461420e+11  -1.808566e+12   7.276906e+11   3.313061e+06   1.001343e-17   0.000000e+00   0.000000e+00
      632000   6.319990e-06   8.259559e+00   1.471873e+01   2.709670e+01  -1.791357e+06   1.265608e+06   2.483074e+06  -2.824127e+11  -1.812516e+12   7.201040e+11   3.313062e+06   9.723109e-18   0.000000e+00   0.000000e+00
      640000   6.399990e-06   8.115516e+00   1.481419e+01   2.729763e+01  -1.807667e+06   1.121308e+06   2.539958e+06  -1.282806e+11  -1.792258e+12   6.999414e+11   3.313062e+06   9.310123e-18   0.000000e+00   0.000000e+00
      648000   6.479990e-06   7.970644e+00   1.489821e+01   2.750304e+01  -1.812307e+06   9.795564e+05   2.594687e+06   9.598404e+09  -1.749660e+12   6.672563e+11   3.313063e+06   8.779545e-18   0.000000e+00   0.000000e+00
      656000   6.559990e-06   7.825820e+00   1.497103e+01   2.771270e+01  -1.806708e+06   8.418009e+05   2.646425e+06   1.277420e+11  -1.692233e+12   6.255036e+11   3.313063e+06   8.190173e-18   0.000000e+00   0.000000e+00
      664000   6.639990e-06   7.681804e+00   1.503304e+01   2.792637e+01  -1.792371e+06   7.095314e+05   2.694506e+06   2.279826e+11  -1.611709e+12   5.760674e+11   3.313064e+06   7.464645e-18   0.000000e+00   0.000000e+00
      672000   6.719990e-06   7.539234e+00   1.508474e+01   2.814371e+01  -1.770801e+06   5.842314e+05   2.738491e+06   3.075140e+11  -1.519477e+12   5.230249e+11   3.313064e+06   6.702268e-18   0.000000e+00   0.000000e+00
      680000   6.799990e-06   7.398625e+00   1.512673e+01   2.836441e+01  -1.743610e+06   4.669579e+05   2.778160e+06   3.679421e+11  -1.411082e+12   4.681108e+11   3.313064e+06   5.872881e-18   0.000000e+00   0.000000e+00
      688000   6.879990e-06   7.260365e+00   1.515969e+01   2.858810e+01  -1.712366e+06   3.587269e+05   2.813453e+06   4.090295e+11  -1.293251e+12   4.138518e+11   3.313065e+06   5.035193e-18   0.000000e+00   0.000000e+00
      696000   6.959990e-06   7.124716e+00   1.518439e+01   2.881445e+01  -1.678535e+06   2.602653e+05   2.844500e+06   4.332319e+11  -1.167319e+12   3.624624e+11   3.313065e+06   4.210544e-18   0.000000e+00   0.000000e+00
      704000   7.039990e-06   6.991832e+00   1.520162e+01   2.904312e+01  -1.643477e+06   1.722523e+05   2.871535e+06   4.404933e+11  -1.035178e+12   3.142103e+11   3.313065e+06   3.416005e-18   0.000000e+00   0.000000e+00
      712000   7.119990e-06   6.861760e+00   1.521223e+01   2.927380e+01  -1.608410e+06   9.492965e+04   2.894893e+06   4.338698e+11  -8.975400e+11   2.704950e+11   3.313065e+06   2.671484e-18   0.000000e+00   0.000000e+00
      720000   7.199990e-06   6.734459e+00   1.521710e+01   2.950621e+01  -1.574339e+06   2.862214e+04   2.914968e+06   4.159894e+11  -7.587470e+11   2.321237e+11   3.313065e+06   2.009593e-18   0.000000e+00   0.000000e+00
      728000   7.279990e-06   6.609815e+00   1.521711e+01   2.974011e+01  -1.542136e+06  -2.652194e+04   2.932152e+06   3.878724e+11  -6.193647e+11   1.983973e+11   3.313065e+06   1.435723e-18   0.000000e+00   0.000000e+00
      736000   7.359990e-06   6.487458e+00   1.521334e+01   2.997519e+01  -1.522017e+06  -6.167167e+04   2.942119e+06   5.256070e+10  -2.465266e+11   2.202332e+10   3.313065e+06   1.603471e-19   0.000000e+00   0.000000e+00
      744000   7.439990e-06   6.365721e+00   1.520771e+01   3.021056e+01  -1.521315e+06  -8.030048e+04   2.942032e+06   1.934618e+10  -2.837139e+11   2.260373e+09   3.313065e+06   2.024599e-19   0.000000e+00   0.000000e+00
      752000   7.519990e-06   6.244111e+00   1.520025e+01   3.044594e+01  -1.518522e+06  -1.074775e+05   2.942608e+06   5.088750e+10  -3.962588e+11   1.178768e+10   3.313065e+06   3.999324e-19   0.000000e+00   0.000000e+00
      760000   7.599990e-06   6.122830e+00   1.519027e+01   3.068140e+01  -1.513028e+06  -1.437583e+05   2.943889e+06   8.699207e+10  -5.098651e+11   1.981283e+10   3.313065e+06   6.707549e-19   0.000000e+00   0.000000e+00
      768000   7.679990e-06   6.002106e+00   1.517702e+01   3.091698e+01  -1.504572e+06  -1.888542e+05   2.945675e+06   1.253082e+11  -6.161297e+11   2.450392e+10   3.313065e+06   9.912101e-19   0.000000e+00   0.000000e+00
      776000   7.759990e-06   5.882183e+00   1.515983e+01   3.115271e+01  -1.492947e+06  -2.422626e+05   2.947680e+06   1.668892e+11  -7.185505e+11   2.547233e+10   3.313065e+06   1.363993e-18   0.000000e+00   0.000000e+00
      784000   7.839990e-06   5.763328e+00   1.513804e+01   3.138860e+01  -1.477791e+06  -3.035668e+05   2.949641e+06   2.134253e+11  -8.132216e+11   2.323607e+10   3.313066e+06   1.771098e-18   0.000000e+00   0.000000e+00
      792000   7.919990e-06   5.645844e+00   1.511106e+01   3.162465e+01  -1.458617e+06  -3.722707e+05   2.951314e+06   2.665544e+11  -9.026673e+11   1.788117e+10   3.313066e+06   2.218654e-18   0.000000e+00   0.000000e+00
      800000   7.999990e-06   5.530066e+00   1.507830e+01   3.186080e+01  -1.435100e+06  -4.476525e+05   2.952372e+06   3.216566e+11  -9.794746e+11   7.843096e+09   3.313066e+06   2.661094e-18   0.000000e+00   0.000000e+00
      808000   8.079990e-06   5.416353e+00   1.503928e+01   3.209700e+01  -1.406908e+06  -5.287381e+05   2.952533e+06   3.835255e+11  -1.044888e+12  -4.360517e+09   3.313066e+06   3.101759e-18   0.000000e+00   0.000000e+00
      816000   8.159990e-06   5.305096e+00   1.499357e+01   3.233317e+01  -1.373655e+06  -6.147266e+05   2.951540e+06   4.477804e+11  -1.100851e+12  -2.087474e+10   3.313066e+06   3.537189e-18   0.000000e+00   0.000000e+00
      824000   8.239990e-06   5.196708e+00   1.494082e+01   3.256921e+01  -1.335130e+06  -7.045602e+05   2.949141e+06   5.158017e+11  -1.141808e+12  -3.926376e+10   3.313066e+06   3.934032e-18   0.000000e+00   0.000000e+00
      832000   8.319990e-06   5.091626e+00   1.488076e+01   3.280499e+01  -1.290968e+06  -7.972554e+05   2.945198e+06   5.871715e+11  -1.170945e+12  -5.959034e+10   3.313066e+06   4.304879e-18   0.000000e+00   0.000000e+00
      840000   8.399990e-06   4.990305e+00   1.481322e+01   3.304040e+01  -1.241074e+06  -8.915814e+05   2.939596e+06   6.604945e+11  -1.185799e+12  -8.079157e+10   3.313067e+06   4.629018e-18   0.000000e+00   0.000000e+00
      848000   8.479990e-06   4.893210e+00   1.473809e+01   3.327528e+01  -1.185345e+06  -9.865728e+05   2.932242e+06   7.302685e+11  -1.183950e+12  -1.031340e+11   3.313067e+06   4.871308e-18   0.000000e+00   0.000000e+00
      856000   8.559990e-06   4.800803e+00   1.465538e+01   3.350951e+01  -1.123933e+06  -1.080937e+06   2.923143e+06   8.028885e+11  -1.171657e+12  -1.245488e+11   3.313067e+06   5.089755e-18   0.000000e+00   0.000000e+00
      864000   8.639990e-06   4.713538e+00   1.456518e+01   3.374294e+01  -1.056723e+06  -1.173958e+06   2.912314e+06   8.733090e+11  -1.148422e+12  -1.460464e+11   3.313067e+06   5.264907e-18   0.000000e+00   0.000000e+00
      872000   8.719990e-06   4.631864e+00   1.446762e+01   3.397544e+01  -9.842352e+05  -1.264432e+06   2.899812e+06   9.398343e+11  -1.113380e+12  -1.664776e+11   3.313068e+06   5.384454e-18   0.000000e+00   0.000000e+00
      880000   8.799990e-06   4.556193e+00   1.436296e+01   3.420687e+01  -9.067048e+05  -1.351603e+06   2.885737e+06   1.000462e+12  -1.067014e+12  -1.854061e+11   3.313068e+06   5.442545e-18   0.000000e+00   0.000000e+00
      888000   8.879990e-06   4.486921e+00   1.425147e+01   3.443711e+01  -8.243211e+05  -1.434937e+06   2.870169e+06   1.060230e+12  -1.016218e+12  -2.035480e+11   3.313068e+06   5.503635e-18   0.000000e+00   0.000000e+00
      896000   8.959990e-06   4.424424e+00   1.413348e+01   3.466606e+01  -7.374977e+05  -1.513827e+06   2.853217e+06   1.107987e+12  -9.544324e+11  -2.199922e+11   3.313068e+06   5.475487e-18   0.000000e+00   0.000000e+00
      904000   9.039990e-06   4.369026e+00   1.400939e+01   3.489359e+01  -6.468173e+05  -1.587752e+06   2.834977e+06   1.153270e+12  -8.907691e+11  -2.357492e+11   3.313069e+06   5.455737e-18   0.000000e+00   0.000000e+00
      912000   9.119990e-06   4.321016e+00   1.387959e+01   3.511962e+01  -5.529357e+05  -1.656353e+06   2.815525e+06   1.188983e+12  -8.224934e+11  -2.503572e+11   3.313069e+06   5.390072e-18   0.000000e+00   0.000000e+00
      920000   9.199990e-06   4.280629e+00   1.374452e+01   3.534405e+01  -4.562287e+05  -1.719389e+06   2.794993e+06   1.227460e+12  -7.532143e+11  -2.629861e+11   3.313069e+06   5.365783e-18   0.000000e+00   0.000000e+00
      928000   9.279990e-06   4.248081e+00   1.360464e+01   3.556679e+01  -3.571013e+05  -1.776751e+06   2.773457e+06   1.256036e+12  -6.825272e+11  -2.755144e+11   3.313069e+06   5.306255e-18   0.000000e+00   0.000000e+00
      936000   9.359990e-06   4.223558e+00   1.346039e+01   3.578778e+01  -2.558415e+05  -1.828492e+06   2.750926e+06   1.273038e+12  -6.108374e+11  -2.876104e+11   3.313070e+06   5.198832e-18   0.000000e+00   0.000000e+00
      944000   9.439990e-06   4.207181e+00   1.331223e+01   3.600692e+01  -1.534682e+05  -1.874548e+06   2.727444e+06   1.286279e+12  -5.403921e+11  -2.990227e+11   3.313070e+06   5.097394e-18   0.000000e+00   0.000000e+00
      952000   9.519990e-06   4.199035e+00   1.316061e+01   3.622414e+01  -4.999804e+04  -1.915006e+06   2.703089e+06   1.302686e+12  -4.716405e+11  -3.100314e+11   3.313070e+06   5.046325e-18   0.000000e+00   0.000000e+00
      960000   9.599990e-06   4.199212e+00   1.300597e+01   3.643939e+01   5.450772e+04  -1.949980e+06   2.677880e+06   1.310987e+12  -4.035435e+11  -3.205300e+11   3.313070e+06   4.968006e-18   0.000000e+00   0.000000e+00
      968000   9.679990e-06   4.207766e+00   1.284875e+01   3.665258e+01   1.593631e+05  -1.979621e+06   2.651819e+06   1.310036e+12  -3.382184e+11  -3.312051e+11   3.313071e+06   4.857878e-18   0.000000e+00   0.000000e+00
      976000   9.759990e-06   4.224695e+00   1.268937e+01   3.686366e+01   2.637823e+05  -2.004182e+06   2.624903e+06   1.302736e+12  -2.758632e+11  -3.415364e+11   3.313071e+06   4.731650e-18   0.000000e+00   0.000000e+00
      984000   9.839990e-06   4.249969e+00   1.252822e+01   3.707254e+01   3.679840e+05  -2.023774e+06   2.597184e+06   1.297896e+12  -2.150911e+11  -3.514893e+11   3.313071e+06   4.642714e-18   0.000000e+00   0.000000e+00
      992000   9.919990e-06   4.283547e+00   1.236569e+01   3.727918e+01   4.712659e+05  -2.038774e+06   2.568609e+06   1.282256e+12  -1.607711e+11  -3.628585e+11   3.313071e+06   4.510897e-18   0.000000e+00   0.000000e+00
     1000000   9.999990e-06   4.325363e+00   1.220213e+01   3.748350e+01   5.739632e+05  -2.049372e+06   2.539111e+06   1.274304e+12  -1.070434e+11  -3.744451e+11   3.313072e+06   4.445363e-18   0.000000e+00   0.000000e+00
     1008000   1.007999e-05   4.375345e+00   1.203790e+01   3.768542e+01   6.753969e+05  -2.055867e+06   2.508724e+06   1.260878e+12  -5.613062e+10  -3.854441e+11   3.313072e+06   4.360262e-18   0.000000e+00   0.000000e+00
     1016000   1.015999e-05   4.433406e+00   1.187330e+01   3.788487e+01   7.759548e+05  -2.058323e+06   2.477427e+06   1.249520e+12  -6.081156e+09  -3.964075e+11   3.313072e+06   4.302544e-18   0.000000e+00   0.000000e+00
     1024000   1.023999e-05   4.499455e+00   1.170866e+01   3.808178e+01   8.750509e+05  -2.057062e+06   2.445246e+06   1.230453e+12   3.782819e+10  -4.084975e+11   3.313072e+06   4.212003e-18   0.000000e+00   0.000000e+00
     1032000   1.031999e-05   4.573377e+00   1.154426e+01   3.827608e+01   9.727163e+05  -2.052361e+06   2.412071e+06   1.210965e+12   8.055690e+10  -4.197958e+11   3.313072e+06   4.128982e-18   0.000000e+00   0.000000e+00
     1040000   1.039999e-05   4.655053e+00   1.138038e+01   3.846769e+01   1.068877e+06  -2.044319e+06   2.377964e+06   1.189496e+12   1.195888e+11  -4.318533e+11   3.313073e+06   4.045221e-18   0.000000e+00   0.000000e+00
     1048000   1.047999e-05   4.744348e+00   1.121725e+01   3.865653e+01   1.163258e+06  -2.033351e+06   2.342812e+06   1.172892e+12   1.581452e+11  -4.451046e+11   3.313073e+06   4.002914e-18   0.000000e+00   0.000000e+00
     1056000   1.055999e-05   4.841135e+00   1.105512e+01   3.884251e+01   1.256095e+06  -2.019352e+06   2.306707e+06   1.148225e+12   1.911966e+11  -4.578697e+11   3.313073e+06   3.917332e-18   0.000000e+00   0.000000e+00
     1064000   1.063999e-05   4.945282e+00   1.089423e+01   3.902557e+01   1.347329e+06  -2.002636e+06   2.269496e+06   1.129243e+12   2.237828e+11  -4.729203e+11   3.313073e+06   3.878034e-18   0.000000e+00   0.000000e+00
     1072000   1.071999e-05   5.056656e+00   1.073476e+01   3.920560e+01   1.436727e+06  -1.983512e+06   2.231133e+06   1.105076e+12   2.526315e+11  -4.870082e+11   3.313073e+06   3.811109e-18   0.000000e+00   0.000000e+00
     1080000   1.079999e-05   5.175107e+00   1.057692e+01   3.938252e+01   1.524276e+06  -1.962122e+06   2.191601e+06   1.082476e+12   2.810651e+11  -5.012289e+11   3.313074e+06   3.760514e-18   0.000000e+00   0.000000e+00
     1088000   1.087999e-05   5.300487e+00   1.042088e+01   3.955623e+01   1.609955e+06  -1.938558e+06   2.150929e+06   1.061134e+12   3.088830e+11  -5.158590e+11   3.313074e+06   3.724305e-18   0.000000e+00   0.000000e+00
     1096000   1.095999e-05   5.432655e+00   1.026681e+01   3.972664e+01   1.693942e+06  -1.912760e+06   2.109116e+06   1.039806e+12   3.368160e+11  -5.296577e+11   3.313074e+06   3.693400e-18   0.000000e+00   0.000000e+00
     1104000   1.103999e-05   5.571475e+00   1.011490e+01   3.989365e+01   1.776348e+06  -1.884719e+06   2.066127e+06   1.022776e+12   3.664555e+11  -5.450419e+11   3.313074e+06   3.699028e-18   0.000000e+00   0.000000e+00
     1112000   1.111999e-05   5.716820e+00   9.965306e+00   4.005718e+01   1.856962e+06  -1.854725e+06   2.021917e+06   9.960974e+11   3.863562e+11  -5.604167e+11   3.313074e+06   3.644248e-18   0.000000e+00   0.000000e+00
     1120000   1.119999e-05   5.868540e+00   9.818190e+00   4.021713e+01   1.935736e+06  -1.822899e+06   1.976469e+06   9.760665e+11   4.119016e+11  -5.760460e+11   3.313074e+06   3.640855e-18   0.000000e+00   0.000000e+00
     1128000   1.127999e-05   6.026498e+00   9.673699e+00   4.037339e+01   2.012873e+06  -1.789092e+06   1.929755e+06   9.516331e+11   4.324749e+11  -5.916633e+11   3.313075e+06   3.612094e-18   0.000000e+00   0.000000e+00
     1136000   1.135999e-05   6.190549e+00   9.531980e+00   4.052586e+01   2.088106e+06  -1.753577e+06   1.881819e+06   9.275294e+11   4.533629e+11  -6.067314e+11   3.313075e+06   3.590234e-18   0.000000e+00   0.000000e+00
     1144000   1.143999e-05   6.360539e+00   9.393165e+00   4.067444e+01   2.161342e+06  -1.716514e+06   1.832662e+06   9.010907e+11   4.707099e+11  -6.218117e+11   3.313075e+06   3.555709e-18   0.000000e+00   0.000000e+00
     1152000   1.151999e-05   6.536309e+00   9.257378e+00   4.081905e+01   2.232621e+06  -1.677889e+06   1.782291e+06   8.786971e+11   4.918479e+11  -6.376719e+11   3.313075e+06   3.556866e-18   0.000000e+00   0.000000e+00
     1160000   1.159999e-05   6.717708e+00   9.124744e+00   4.095958e+01   2.302042e+06  -1.637677e+06   1.730632e+06   8.560838e+11   5.123466e+11  -6.539047e+11   3.313075e+06   3.562683e-18   0.000000e+00   0.000000e+00
     1168000   1.167999e-05   6.904587e+00   8.995392e+00   4.109592e+01   2.369709e+06  -1.595747e+06   1.677659e+06   8.372571e+11   5.384959e+11  -6.704206e+11   3.313075e+06   3.606422e-18   0.000000e+00   0.000000e+00
     1176000   1.175999e-05   7.096810e+00   8.869463e+00   4.122797e+01   2.435566e+06  -1.552161e+06   1.623357e+06   8.118707e+11   5.562313e+11  -6.862261e+11   3.313076e+06   3.603902e-18   0.000000e+00   0.000000e+00
     1184000   1.183999e-05   7.294233e+00   8.747098e+00   4.135562e+01   2.499713e+06  -1.506704e+06   1.567721e+06   7.897866e+11   5.778804e+11  -7.039076e+11   3.313076e+06   3.638353e-18   0.000000e+00   0.000000e+00
     1192000   1.191999e-05   7.496709e+00   8.628427e+00   4.147876e+01   2.561875e+06  -1.459753e+06   1.510758e+06   7.657935e+11   5.990905e+11  -7.197238e+11   3.313076e+06   3.663782e-18   0.000000e+00   0.000000e+00
     1200000   1.199999e-05   7.704092e+00   8.513599e+00   4.159730e+01   2.622361e+06  -1.410671e+06   1.452483e+06   7.456328e+11   6.277240e+11  -7.365257e+11   3.313076e+06   3.736697e-18   0.000000e+00   0.000000e+00
     1208000   1.207999e-05   7.916234e+00   8.402766e+00   4.171113e+01   2.680755e+06  -1.360058e+06   1.392935e+06   7.184143e+11   6.455236e+11  -7.523168e+11   3.313076e+06   3.752536e-18   0.000000e+00   0.000000e+00
     1216000   1.215999e-05   8.132966e+00   8.296051e+00   4.182014e+01   2.737157e+06  -1.307608e+06   1.332145e+06   6.908863e+11   6.643749e+11  -7.674141e+11   3.313077e+06   3.774668e-18   0.000000e+00   0.000000e+00
     1224000   1.223999e-05   8.354127e+00   8.193605e+00   4.192424e+01   2.791558e+06  -1.253174e+06   1.270132e+06   6.661302e+11   6.907581e+11  -7.825055e+11   3.313077e+06   3.838640e-18   0.000000e+00   0.000000e+00
     1232000   1.231999e-05   8.579558e+00   8.095590e+00   4.202333e+01   2.843822e+06  -1.196915e+06   1.206877e+06   6.387787e+11   7.135486e+11  -7.975128e+11   3.313077e+06   3.888779e-18   0.000000e+00   0.000000e+00
     1240000   1.239999e-05   8.809076e+00   8.002136e+00   4.211730e+01   2.893823e+06  -1.138976e+06   1.142366e+06   6.144953e+11   7.446451e+11  -8.141806e+11   3.313077e+06   3.993367e-18   0.000000e+00   0.000000e+00
     1248000   1.247999e-05   9.042519e+00   7.913430e+00   4.220607e+01   2.941843e+06  -1.078402e+06   1.076611e+06   5.854424e+11   7.687574e+11  -8.296719e+11   3.313077e+06   4.061202e-18   0.000000e+00   0.000000e+00
     1256000   1.255999e-05   9.279708e+00   7.829646e+00   4.228953e+01   2.987536e+06  -1.015730e+06   1.009655e+06   5.581434e+11   8.017521e+11  -8.449351e+11   3.313078e+06   4.176761e-18   0.000000e+00   0.000000e+00
     1264000   1.263999e-05   9.520463e+00   7.750977e+00   4.236758e+01   3.030926e+06  -9.506190e+05   9.414320e+05   5.274108e+11   8.297857e+11  -8.600899e+11   3.313078e+06   4.272450e-18   0.000000e+00   0.000000e+00
     1272000   1.271999e-05   9.764590e+00   7.677612e+00   4.244013e+01   3.071826e+06  -8.831656e+05   8.720019e+05   4.957983e+11   8.601990e+11  -8.753312e+11   3.313078e+06   4.386362e-18   0.000000e+00   0.000000e+00
     1280000   1.279999e-05   1.001189e+01   7.609737e+00   4.250707e+01   3.110113e+06  -8.133168e+05   8.013753e+05   4.620136e+11   8.888583e+11  -8.909344e+11   3.313078e+06   4.499869e-18   0.000000e+00   0.000000e+00
     1288000   1.287999e-05   1.026213e+01   7.547542e+00   4.256831e+01   3.145627e+06  -7.411662e+05   7.295134e+05   4.261094e+11   9.174304e+11  -9.052537e+11   3.313078e+06   4.613631e-18   0.000000e+00   0.000000e+00
     1296000   1.295999e-05   1.051511e+01   7.491223e+00   4.262376e+01   3.178248e+06  -6.665136e+05   6.564958e+05   3.875444e+11   9.421984e+11  -9.195878e+11   3.313079e+06   4.715865e-18   0.000000e+00   0.000000e+00
     1304000   1.303999e-05   1.077057e+01   7.440960e+00   4.267332e+01   3.207776e+06  -5.895570e+05   5.823097e+05   3.506334e+11   9.847391e+11  -9.345096e+11   3.313079e+06   4.922151e-18   0.000000e+00   0.000000e+00
     1312000   1.311999e-05   1.102827e+01   7.396982e+00   4.271690e+01   3.234156e+06  -5.096215e+05   5.069681e+05   3.078333e+11   1.009993e+12  -9.484744e+11   3.313079e+06   5.043549e-18   0.000000e+00   0.000000e+00
     1320000   1.319999e-05   1.128794e+01   7.359482e+00   4.275441e+01   3.257054e+06  -4.274825e+05   4.305238e+05   2.639555e+11   1.041826e+12  -9.623951e+11   3.313079e+06   5.210879e-18   0.000000e+00   0.000000e+00
     1328000   1.327999e-05   1.154930e+01   7.328653e+00   4.278576e+01   3.276340e+06  -3.427589e+05   3.530018e+05   2.171643e+11   1.070911e+12  -9.756843e+11   3.313080e+06   5.372863e-18   0.000000e+00   0.000000e+00
     1336000   1.335999e-05   1.181206e+01   7.304694e+00   4.281086e+01   3.291773e+06  -2.557879e+05   2.744138e+05   1.681830e+11   1.104006e+12  -9.883125e+11   3.313080e+06   5.567886e-18   0.000000e+00   0.000000e+00
     1344000   1.343999e-05   1.207588e+01   7.287801e+00   4.282964e+01   3.303172e+06  -1.660815e+05   1.948692e+05   1.162754e+11   1.138231e+12  -1.000749e+12   3.313080e+06   5.784998e-18   0.000000e+00   0.000000e+00
     1352000   1.351999e-05   1.234045e+01   7.278216e+00   4.284201e+01   3.310305e+06  -7.278207e+04   1.143944e+05   6.105992e+10   1.186962e+12  -1.011528e+12   3.313080e+06   6.098470e-18   0.000000e+00   0.000000e+00
     1360000   1.359999e-05   1.260541e+01   7.276231e+00   4.284792e+01   3.312830e+06   2.382655e+04   3.307989e+04   1.391055e+09   1.225725e+12  -1.021396e+12   3.313081e+06   6.373530e-18   0.000000e+00   0.000000e+00
     1368000   1.367999e-05   1.287037e+01   7.282091e+00   4.284729e+01   3.310434e+06   1.230190e+05  -4.900968e+04  -6.176232e+10   1.251577e+12  -1.030790e+12   3.313081e+06   6.591692e-18   0.000000e+00   0.000000e+00
     1376000   1.375999e-05   1.313494e+01   7.295988e+00   4.284006e+01   3.302810e+06   2.249154e+05  -1.317787e+05  -1.293777e+11   1.291703e+12  -1.038209e+12   3.313081e+06   6.917990e-18   0.000000e+00   0.000000e+00
     1384000   1.383999e-05   1.339867e+01   7.318159e+00   4.282619e+01   3.289602e+06   3.297965e+05  -2.150818e+05  -2.007357e+11   1.321292e+12  -1.044310e+12   3.313082e+06   7.202362e-18   0.000000e+00   0.000000e+00
     1392000   1.391999e-05   1.366111e+01   7.348827e+00   4.280564e+01   3.270459e+06   4.374063e+05  -2.988033e+05  -2.784580e+11   1.365653e+12  -1.048752e+12   3.313082e+06   7.617298e-18   0.000000e+00   0.000000e+00
     1400000   1.399999e-05   1.392177e+01   7.388226e+00   4.277837e+01   3.244919e+06   5.481668e+05  -3.827920e+05  -3.600443e+11   1.397306e+12  -1.051196e+12   3.313082e+06   7.979524e-18   0.000000e+00   0.000000e+00
     1408000   1.407999e-05   1.418012e+01   7.436587e+00   4.274438e+01   3.212646e+06   6.613640e+05  -4.669251e+05  -4.483433e+11   1.435301e+12  -1.051872e+12   3.313083e+06   8.431257e-18   0.000000e+00   0.000000e+00
     1416000   1.415999e-05   1.443561e+01   7.494100e+00   4.270367e+01   3.173227e+06   7.769175e+05  -5.509533e+05  -5.412662e+11   1.467273e+12  -1.048448e+12   3.313083e+06   8.875820e-18   0.000000e+00   0.000000e+00
     1424000   1.423999e-05   1.468763e+01   7.560977e+00   4.265624e+01   3.126081e+06   8.952081e+05  -6.346192e+05  -6.369555e+11   1.485342e+12  -1.042391e+12   3.313084e+06   9.259995e-18   0.000000e+00   0.000000e+00
     1432000   1.431999e-05   1.493556e+01   7.637397e+00   4.260215e+01   3.070841e+06   1.015629e+06  -7.176067e+05  -7.439857e+11   1.520304e+12  -1.032092e+12   3.313084e+06   9.839612e-18   0.000000e+00   0.000000e+00
     1440000   1.439999e-05   1.517873e+01   7.723562e+00   4.254145e+01   3.006675e+06   1.138895e+06  -7.995944e+05  -8.595351e+11   1.555765e+12  -1.016179e+12   3.313085e+06   1.049504e-17   0.000000e+00   0.000000e+00
     1448000   1.447999e-05   1.541639e+01   7.819670e+00   4.247425e+01   2.933248e+06   1.264118e+06  -8.801120e+05  -9.795736e+11   1.580121e+12  -9.952334e+11   3.313085e+06   1.113349e-17   0.000000e+00   0.000000e+00
     1456000   1.455999e-05   1.564778e+01   7.925879e+00   4.240069e+01   2.849845e+06   1.391347e+06  -9.586839e+05  -1.105986e+12   1.598458e+12  -9.679163e+11   3.313086e+06   1.180525e-17   0.000000e+00   0.000000e+00
     1464000   1.463999e-05   1.587208e+01   8.042324e+00   4.232093e+01   2.756023e+06   1.519913e+06  -1.034767e+06  -1.239582e+12   1.612644e+12  -9.328558e+11   3.313086e+06   1.253702e-17   0.000000e+00   0.000000e+00
     1472000   1.471999e-05   1.608845e+01   8.169088e+00   4.223521e+01   2.651225e+06   1.649401e+06  -1.107712e+06  -1.384309e+12   1.627883e+12  -8.893433e+11   3.313087e+06   1.341287e-17   0.000000e+00   0.000000e+00
     1480000   1.479999e-05   1.629597e+01   8.306244e+00   4.214380e+01   2.534797e+06   1.779520e+06  -1.176718e+06  -1.527541e+12   1.624602e+12  -8.337194e+11   3.313088e+06   1.419046e-17   0.000000e+00   0.000000e+00
     1488000   1.487999e-05   1.649371e+01   8.453796e+00   4.204706e+01   2.406667e+06   1.909112e+06  -1.240886e+06  -1.673948e+12   1.611344e+12  -7.675639e+11   3.313088e+06   1.499136e-17   0.000000e+00   0.000000e+00
     1496000   1.495999e-05   1.668070e+01   8.611691e+00   4.194541e+01   2.265902e+06   2.038137e+06  -1.299325e+06  -1.838454e+12   1.603906e+12  -6.902341e+11   3.313089e+06   1.609589e-17   0.000000e+00   0.000000e+00
     1504000   1.503999e-05   1.685591e+01   8.779856e+00   4.183935e+01   2.112132e+06   2.165768e+06  -1.350893e+06  -2.008144e+12   1.586232e+12  -5.967340e+11   3.313090e+06   1.728765e-17   0.000000e+00   0.000000e+00
     1512000   1.511999e-05   1.701827e+01   8.958165e+00   4.172948e+01   1.944586e+06   2.291516e+06  -1.394313e+06  -2.179321e+12   1.553605e+12  -4.861462e+11   3.313091e+06   1.852603e-17   0.000000e+00   0.000000e+00
     1520000   1.519999e-05   1.716668e+01   9.146411e+00   4.161652e+01   1.763301e+06   2.414053e+06  -1.428178e+06  -2.355472e+12   1.509233e+12  -3.571794e+11   3.313092e+06   1.991343e-17   0.000000e+00   0.000000e+00
     1528000   1.527999e-05   1.730002e+01   9.344305e+00   4.150127e+01   1.567901e+06   2.532442e+06  -1.450863e+06  -2.528314e+12   1.447174e+12  -2.063222e+11   3.313093e+06   2.135468e-17   0.000000e+00   0.000000e+00
     1536000   1.535999e-05   1.741717e+01   9.551453e+00   4.138472e+01   1.358555e+06   2.645289e+06  -1.460605e+06  -2.703571e+12   1.370378e+12  -3.285945e+10   3.313094e+06   2.300479e-17   0.000000e+00   0.000000e+00
     1544000   1.543999e-05   1.751703e+01   9.767361e+00   4.126797e+01   1.135687e+06   2.751109e+06  -1.455407e+06  -2.871343e+12   1.273688e+12   1.669707e+11   3.313095e+06   2.477353e-17   0.000000e+00   0.000000e+00
     1552000   1.551999e-05   1.759852e+01   9.991406e+00   4.115231e+01   8.995784e+05   2.848438e+06  -1.433097e+06  -3.029169e+12   1.155719e+12   3.955860e+11   3.313096e+06   2.670960e-17   0.000000e+00   0.000000e+00
     1560000   1.559999e-05   1.766065e+01   1.022283e+01   4.103919e+01   6.518699e+05   2.935195e+06  -1.391513e+06  -3.156900e+12   1.009066e+12   6.495124e+11   3.313097e+06   2.855748e-17   0.000000e+00   0.000000e+00
     1568000   1.567999e-05   1.770255e+01   1.046070e+01   4.093024e+01   3.939427e+05   3.009464e+06  -1.328368e+06  -3.274531e+12   8.407203e+11   9.334887e+11   3.313099e+06   3.079753e-17   0.000000e+00   0.000000e+00
     1576000   1.575999e-05   1.772349e+01   1.070395e+01   4.082729e+01   1.282441e+05   3.069065e+06  -1.241382e+06  -3.363685e+12   6.444952e+11   1.245782e+12   3.313100e+06   3.325359e-17   0.000000e+00   0.000000e+00
     1584000   1.583999e-05   1.772293e+01   1.095130e+01   4.073232e+01  -1.425980e+05   3.111790e+06  -1.128306e+06  -3.402054e+12   4.187546e+11   1.584730e+12   3.313102e+06   3.570468e-17   0.000000e+00   0.000000e+00
     1592000   1.591999e-05   1.770063e+01   1.120132e+01   4.064751e+01  -4.149634e+05   3.135255e+06  -9.872375e+05  -3.399829e+12   1.624251e+11   1.944714e+12   3.313104e+06   3.847492e-17   0.000000e+00   0.000000e+00
     1600000   1.599999e-05   1.765660e+01   1.145236e+01   4.057515e+01  -6.848233e+05   3.136985e+06  -8.167080e+05  -3.330381e+12  -1.230778e+11   2.319634e+12   3.313106e+06   4.127953e-17   0.000000e+00   0.000000e+00
     1608000   1.607999e-05   1.759128e+01   1.170260e+01   4.051764e+01  -9.464234e+05   3.114732e+06  -6.159629e+05  -3.195397e+12  -4.371427e+11   2.698928e+12   3.313108e+06   4.428055e-17   0.000000e+00   0.000000e+00
     1616000   1.615999e-05   1.750557e+01   1.195003e+01   4.047740e+01  -1.193190e+06   3.066688e+06  -3.852510e+05  -2.966248e+12  -7.689809e+11   3.065237e+12   3.313110e+06   4.703411e-17   0.000000e+00   0.000000e+00
     1624000   1.623999e-05   1.740091e+01   1.219253e+01   4.045676e+01  -1.419437e+06   2.990984e+06  -1.262095e+05  -2.673875e+12  -1.125168e+12   3.405754e+12   3.313112e+06   5.011162e-17   0.000000e+00   0.000000e+00
     1632000   1.631999e-05   1.727919e+01   1.242783e+01   4.045788e+01  -1.618293e+06   2.886659e+06   1.582973e+05  -2.288027e+12  -1.485390e+12   3.697632e+12   3.313115e+06   5.286372e-17   0.000000e+00   0.000000e+00
     1640000   1.639999e-05   1.714288e+01   1.265362e+01   4.048264e+01  -1.783465e+06   2.753342e+06   4.637983e+05  -1.823011e+12  -1.842390e+12   3.927731e+12   3.313117e+06   5.544500e-17   0.000000e+00   0.000000e+00
     1648000   1.647999e-05   1.699490e+01   1.286761e+01   4.053249e+01  -1.908951e+06   2.591793e+06   7.843999e+05  -1.304791e+12  -2.193269e+12   4.071837e+12   3.313120e+06   5.781854e-17   0.000000e+00   0.000000e+00
     1656000   1.655999e-05   1.683862e+01   1.306759e+01   4.060836e+01  -1.990458e+06   2.403374e+06   1.112949e+06  -7.287177e+11  -2.512739e+12   4.123108e+12   3.313123e+06   5.970189e-17   0.000000e+00   0.000000e+00
     1664000   1.663999e-05   1.667770e+01   1.325152e+01   4.071056e+01  -2.024459e+06   2.191089e+06   1.441353e+06  -1.212258e+11  -2.788383e+12   4.068692e+12   3.313126e+06   6.095173e-17   0.000000e+00   0.000000e+00
     1672000   1.671999e-05   1.651600e+01   1.341761e+01   4.083875e+01  -2.009942e+06   1.958289e+06   1.761266e+06   4.826090e+11  -3.022343e+12   3.911325e+12   3.313129e+06   6.175789e-17   0.000000e+00   0.000000e+00
     1680000   1.679999e-05   1.635737e+01   1.356439e+01   4.099192e+01  -1.948105e+06   1.708692e+06   2.064486e+06   1.056849e+12  -3.208964e+12   3.653322e+12   3.313132e+06   6.199643e-17   0.000000e+00   0.000000e+00
     1688000   1.687999e-05   1.620549e+01   1.369067e+01   4.116843e+01  -1.841662e+06   1.446449e+06   2.343700e+06   1.594939e+12  -3.338189e+12   3.313608e+12   3.313135e+06   6.176173e-17   0.000000e+00   0.000000e+00
     1696000   1.695999e-05   1.606379e+01   1.379561e+01   4.136610e+01  -1.694507e+06   1.176087e+06   2.592749e+06   2.075194e+12  -3.409660e+12   2.902993e+12   3.313138e+06   6.099135e-17   0.000000e+00   0.000000e+00
     1704000   1.703999e-05   1.593532e+01   1.387874e+01   4.158234e+01  -1.511615e+06   9.019057e+05   2.806864e+06   2.485266e+12  -3.433814e+12   2.441864e+12   3.313141e+06   5.991672e-17   0.000000e+00   0.000000e+00
     1712000   1.711999e-05   1.582272e+01   1.393991e+01   4.181418e+01  -1.298997e+06   6.279309e+05   2.982487e+06   2.816852e+12  -3.407140e+12   1.944272e+12   3.313144e+06   5.839742e-17   0.000000e+00   0.000000e+00
     1720000   1.719999e-05   1.572811e+01   1.397931e+01   4.205845e+01  -1.062932e+06   3.580716e+05   3.117515e+06   3.074047e+12  -3.332901e+12   1.430994e+12   3.313146e+06   5.660050e-17   0.000000e+00   0.000000e+00
     1728000   1.727999e-05   1.565312e+01   1.399741e+01   4.231188e+01  -8.092229e+05   9.572892e+04   3.211378e+06   3.257975e+12  -3.219658e+12   9.170084e+11   3.313149e+06   5.463703e-17   0.000000e+00   0.000000e+00
     1736000   1.735999e-05   1.559896e+01   1.399490e+01   4.257119e+01  -5.432089e+05  -1.566218e+05   3.264562e+06   3.381905e+12  -3.085334e+12   4.147758e+11   3.313152e+06   5.290222e-17   0.000000e+00   0.000000e+00
     1744000   1.743999e-05   1.556640e+01   1.397267e+01   4.283315e+01  -2.699014e+05  -3.967806e+05   3.278217e+06   3.441615e+12  -2.915733e+12  -6.949072e+10   3.313154e+06   5.095544e-17   0.000000e+00   0.000000e+00
     1752000   1.751999e-05   1.555585e+01   1.393180e+01   4.309469e+01   6.044382e+03  -6.226092e+05   3.254125e+06   3.448331e+12  -2.726944e+12  -5.280889e+11   3.313157e+06   4.909028e-17   0.000000e+00   0.000000e+00
     1760000   1.759999e-05   1.556733e+01   1.387348e+01   4.335287e+01   2.804303e+05  -8.324879e+05   3.194580e+06   3.405123e+12  -2.520180e+12  -9.555966e+11   3.313159e+06   4.722060e-17   0.000000e+00   0.000000e+00
     1768000   1.767999e-05   1.560058e+01   1.379905e+01   4.360495e+01   5.498169e+05  -1.025393e+06   3.102146e+06   3.323029e+12  -2.301263e+12  -1.349574e+12   3.313161e+06   4.546884e-17   0.000000e+00   0.000000e+00
     1776000   1.775999e-05   1.565509e+01   1.370989e+01   4.384841e+01   8.112997e+05  -1.200597e+06   2.979498e+06   3.208578e+12  -2.077652e+12  -1.710814e+12   3.313163e+06   4.391355e-17   0.000000e+00   0.000000e+00
     1784000   1.783999e-05   1.573012e+01   1.360744e+01   4.408093e+01   1.062581e+06  -1.357628e+06   2.829281e+06   3.069103e+12  -1.847025e+12  -2.038883e+12   3.313165e+06   4.253507e-17   0.000000e+00   0.000000e+00
     1792000   1.791999e-05   1.582477e+01   1.349316e+01   4.430043e+01   1.301531e+06  -1.496140e+06   2.654178e+06   2.901348e+12  -1.616601e+12  -2.333941e+12   3.313167e+06   4.125957e-17   0.000000e+00   0.000000e+00
     1800000   1.799999e-05   1.593798e+01   1.336855e+01   4.450501e+01   1.526289e+06  -1.616089e+06   2.456784e+06   2.711340e+12  -1.384427e+12  -2.595053e+12   3.313169e+06   4.006728e-17   0.000000e+00   0.000000e+00
     1808000   1.807999e-05   1.606854e+01   1.323508e+01   4.469299e+01   1.735026e+06  -1.717672e+06   2.239731e+06   2.503836e+12  -1.155659e+12  -2.825834e+12   3.313171e+06   3.903518e-17   0.000000e+00   0.000000e+00
     1816000   1.815999e-05   1.621514e+01   1.309423e+01   4.486291e+01   1.927076e+06  -1.800376e+06   2.005528e+06   2.290098e+12  -9.179841e+11  -3.024519e+12   3.313173e+06   3.814604e-17   0.000000e+00   0.000000e+00
     1824000   1.823999e-05   1.637638e+01   1.294749e+01   4.501348e+01   2.100746e+06  -1.865015e+06   1.756620e+06   2.058355e+12  -6.894043e+11  -3.193450e+12   3.313175e+06   3.733298e-17   0.000000e+00   0.000000e+00
     1832000   1.831999e-05   1.655078e+01   1.279633e+01   4.514364e+01   2.255757e+06  -1.911159e+06   1.495384e+06   1.812964e+12  -4.679241e+11  -3.332748e+12   3.313177e+06   3.658881e-17   0.000000e+00   0.000000e+00
     1840000   1.839999e-05   1.673676e+01   1.264216e+01   4.525248e+01   2.390291e+06  -1.940394e+06   1.224145e+06   1.549787e+12  -2.638363e+11  -3.444237e+12   3.313178e+06   3.589081e-17   0.000000e+00   0.000000e+00
     1848000   1.847999e-05   1.693266e+01   1.248631e+01   4.533929e+01   2.503881e+06  -1.953095e+06   9.450747e+05   1.292214e+12  -5.071387e+10  -3.528247e+12   3.313180e+06   3.535674e-17   0.000000e+00   0.000000e+00
     1856000   1.855999e-05   1.713682e+01   1.233011e+01   4.540354e+01   2.596478e+06  -1.949216e+06   6.603269e+05   1.017553e+12   1.407668e+11  -3.585392e+12   3.313182e+06   3.482935e-17   0.000000e+00   0.000000e+00
     1864000   1.863999e-05   1.734750e+01   1.217483e+01   4.544485e+01   2.666912e+06  -1.930367e+06   3.720876e+05   7.440306e+11   3.308050e+11  -3.616222e+12   3.313184e+06   3.440325e-17   0.000000e+00   0.000000e+00
     1872000   1.871999e-05   1.756294e+01   1.202165e+01   4.546303e+01   2.715302e+06  -1.896716e+06   8.245476e+04   4.666049e+11   5.105336e+11  -3.620170e+12   3.313185e+06   3.401246e-17   0.000000e+00   0.000000e+00
     1880000   1.879999e-05   1.778135e+01   1.187171e+01   4.545806e+01   2.741088e+06  -1.849595e+06  -2.064954e+05   1.800193e+11   6.685974e+11  -3.599692e+12   3.313187e+06   3.364498e-17   0.000000e+00   0.000000e+00
     1888000   1.887999e-05   1.800091e+01   1.172606e+01   4.543006e+01   2.744293e+06  -1.789743e+06  -4.928415e+05  -1.002362e+11   8.252410e+11  -3.555261e+12   3.313188e+06   3.337893e-17   0.000000e+00   0.000000e+00
     1896000   1.895999e-05   1.821984e+01   1.158568e+01   4.537932e+01   2.725120e+06  -1.717761e+06  -7.747566e+05  -3.813495e+11   9.685533e+11  -3.488965e+12   3.313190e+06   3.319230e-17   0.000000e+00   0.000000e+00
     1904000   1.903999e-05   1.843633e+01   1.145149e+01   4.530627e+01   2.683296e+06  -1.635216e+06  -1.050347e+06  -6.603879e+11   1.098384e+12  -3.397204e+12   3.313192e+06   3.300992e-17   0.000000e+00   0.000000e+00
     1912000   1.911999e-05   1.864859e+01   1.132433e+01   4.521149e+01   2.619461e+06  -1.542481e+06  -1.317735e+06  -9.372578e+11   1.214204e+12  -3.284521e+12   3.313193e+06   3.290294e-17   0.000000e+00   0.000000e+00
     1920000   1.919999e-05   1.885485e+01   1.120492e+01   4.509570e+01   2.533411e+06  -1.441392e+06  -1.575271e+06  -1.208908e+12   1.318678e+12  -3.150901e+12   3.313195e+06   3.287225e-17   0.000000e+00   0.000000e+00
     1928000   1.927999e-05   1.905335e+01   1.109390e+01   4.495975e+01   2.425616e+06  -1.332897e+06  -1.821276e+06  -1.480488e+12   1.399086e+12  -2.995737e+12   3.313196e+06   3.286019e-17   0.000000e+00   0.000000e+00
     1936000   1.935999e-05   1.924239e+01   1.099183e+01   4.480465e+01   2.296735e+06  -1.217957e+06  -2.053989e+06  -1.740874e+12   1.471369e+12  -2.819159e+12   3.313198e+06   3.290906e-17   0.000000e+00   0.000000e+00
     1944000   1.943999e-05   1.942028e+01   1.089916e+01   4.463151e+01   2.147303e+06  -1.097745e+06  -2.271858e+06  -1.992710e+12   1.531684e+12  -2.623616e+12   3.313200e+06   3.305201e-17   0.000000e+00   0.000000e+00
     1952000   1.951999e-05   1.958542e+01   1.081629e+01   4.444159e+01   1.978013e+06  -9.735976e+05  -2.473232e+06  -2.237571e+12   1.569609e+12  -2.407475e+12   3.313201e+06   3.321733e-17   0.000000e+00   0.000000e+00
     1960000   1.959999e-05   1.973625e+01   1.074346e+01   4.423627e+01   1.789634e+06  -8.468680e+05  -2.656565e+06  -2.469468e+12   1.595788e+12  -2.172354e+12   3.313203e+06   3.346176e-17   0.000000e+00   0.000000e+00
     1968000   1.967999e-05   1.987128e+01   1.068082e+01   4.401706e+01   1.583229e+06  -7.187933e+05  -2.820291e+06  -2.686323e+12   1.608244e+12  -1.917956e+12   3.313204e+06   3.375573e-17   0.000000e+00   0.000000e+00
     1976000   1.975999e-05   1.998912e+01   1.062846e+01   4.378559e+01   1.359985e+06  -5.904640e+05  -2.962959e+06  -2.890182e+12   1.600646e+12  -1.645606e+12   3.313206e+06   3.411107e-17   0.000000e+00   0.000000e+00
     1984000   1.983999e-05   2.008846e+01   1.058630e+01   4.354359e+01   1.120900e+06  -4.639809e+05  -3.083123e+06  -3.081410e+12   1.563549e+12  -1.355621e+12   3.313208e+06   3.449731e-17   0.000000e+00   0.000000e+00
     1992000   1.991999e-05   2.016808e+01   1.055413e+01   4.329292e+01   8.673028e+05  -3.410278e+05  -3.179441e+06  -3.253195e+12   1.509641e+12  -1.049390e+12   3.313209e+06   3.496313e-17   0.000000e+00   0.000000e+00
     2000000   1.999999e-05   2.022688e+01   1.053160e+01   4.303555e+01   6.009137e+05  -2.231870e+05  -3.250609e+06  -3.402031e+12   1.432322e+12  -7.272927e+11   3.313211e+06   3.544092e-17   0.000000e+00   0.000000e+00
     2008000   2.007999e-05   2.026393e+01   1.051823e+01   4.277353e+01   3.237294e+05  -1.124835e+05  -3.295440e+06  -3.522515e+12   1.330732e+12  -3.915017e+11   3.313213e+06   3.588645e-17   0.000000e+00   0.000000e+00
     2016000   2.015999e-05   2.027846e+01   1.051335e+01   4.250901e+01   3.820805e+04  -1.114431e+04  -3.312975e+06  -3.609249e+12   1.198242e+12  -4.569927e+10   3.313214e+06   3.621780e-17   0.000000e+00   0.000000e+00
     2024000   2.023999e-05   2.026990e+01   1.051613e+01   4.224420e+01  -2.528931e+05   7.848975e+04  -3.302618e+06  -3.661388e+12   1.038272e+12   3.049967e+11   3.313216e+06   3.649892e-17   0.000000e+00   0.000000e+00
     2032000   2.031999e-05   2.023792e+01   1.052554e+01   4.198134e+01  -5.466080e+05   1.541726e+05  -3.264179e+06  -3.676234e+12   8.486205e+11   6.556462e+11   3.313218e+06   3.671914e-17   0.000000e+00   0.000000e+00
     2040000   2.039999e-05   2.018245e+01   1.054037e+01   4.172267e+01  -8.398006e+05   2.136642e+05  -3.197891e+06  -3.647796e+12   6.335978e+11   1.000238e+12   3.313220e+06   3.682838e-17   0.000000e+00   0.000000e+00
     2048000   2.047999e-05   2.010366e+01   1.055923e+01   4.147040e+01  -1.128975e+06   2.546342e+05  -3.104515e+06  -3.571958e+12   3.875531e+11   1.330703e+12   3.313222e+06   3.675713e-17   0.000000e+00   0.000000e+00
     2056000   2.055999e-05   2.000203e+01   1.058055e+01   4.122663e+01  -1.410031e+06   2.746908e+05  -2.985600e+06  -3.445736e+12   1.104416e+11   1.637455e+12   3.313223e+06   3.647350e-17   0.000000e+00   0.000000e+00
     2064000   2.063999e-05   1.987838e+01   1.060257e+01   4.099332e+01  -1.678835e+06   2.717328e+05  -2.843437e+06  -3.266744e+12  -1.862377e+11   1.910918e+12   3.313225e+06   3.595114e-17   0.000000e+00   0.000000e+00
     2072000   2.071999e-05   1.973385e+01   1.062339e+01   4.077222e+01  -1.931396e+06   2.447357e+05  -2.680911e+06  -3.040144e+12  -4.916224e+11   2.145265e+12   3.313227e+06   3.527119e-17   0.000000e+00   0.000000e+00
     2080000   2.079999e-05   1.956989e+01   1.064106e+01   4.056483e+01  -2.163977e+06   1.927599e+05  -2.501505e+06  -2.766985e+12  -8.070292e+11   2.331394e+12   3.313228e+06   3.441131e-17   0.000000e+00   0.000000e+00
     2088000   2.087999e-05   1.938825e+01   1.065356e+01   4.037232e+01  -2.372976e+06   1.156978e+05  -2.309349e+06  -2.451300e+12  -1.124741e+12   2.462430e+12   3.313230e+06   3.339625e-17   0.000000e+00   0.000000e+00
     2096000   2.095999e-05   1.919093e+01   1.065891e+01   4.019555e+01  -2.555146e+06   1.390892e+04  -2.109156e+06  -2.098015e+12  -1.409816e+12   2.532290e+12   3.313232e+06   3.205482e-17   0.000000e+00   0.000000e+00
     2104000   2.103999e-05   1.898020e+01   1.065521e+01   4.003495e+01  -2.708180e+06  -1.100732e+05  -1.905560e+06  -1.723354e+12  -1.688664e+12   2.546709e+12   3.313233e+06   3.081672e-17   0.000000e+00   0.000000e+00
     2112000   2.111999e-05   1.875844e+01   1.064073e+01   3.989062e+01  -2.830514e+06  -2.551327e+05  -1.703122e+06  -1.332629e+12  -1.939149e+12   2.505192e+12   3.313235e+06   2.957712e-17   0.000000e+00   0.000000e+00
     2120000   2.119999e-05   1.852816e+01   1.061389e+01   3.976231e+01  -2.921364e+06  -4.182562e+05  -1.506064e+06  -9.388941e+11  -2.131696e+12   2.413134e+12   3.313236e+06   2.816662e-17   0.000000e+00   0.000000e+00
     2128000   2.127999e-05   1.829187e+01   1.057342e+01   3.964941e+01  -2.980777e+06  -5.957652e+05  -1.318170e+06  -5.511612e+11  -2.280612e+12   2.277013e+12   3.313237e+06   2.676664e-17   0.000000e+00   0.000000e+00
     2136000   2.135999e-05   1.805204e+01   1.051832e+01   3.955107e+01  -3.009846e+06  -7.830339e+05  -1.142469e+06  -1.799805e+11  -2.387101e+12   2.110159e+12   3.313239e+06   2.549886e-17   0.000000e+00   0.000000e+00
     2144000   2.143999e-05   1.781106e+01   1.044797e+01   3.946623e+01  -3.010088e+06  -9.767633e+05  -9.812541e+05   1.680633e+11  -2.444409e+12   1.917573e+12   3.313240e+06   2.423953e-17   0.000000e+00   0.000000e+00
     2152000   2.151999e-05   1.757114e+01   1.036198e+01   3.939365e+01  -2.983667e+06  -1.173193e+06  -8.360100e+05   4.882558e+11  -2.461770e+12   1.711998e+12   3.313241e+06   2.311067e-17   0.000000e+00   0.000000e+00
     2160000   2.159999e-05   1.733432e+01   1.026027e+01   3.933202e+01  -2.933015e+06  -1.369091e+06  -7.075210e+05   7.735082e+11  -2.432550e+12   1.500426e+12   3.313242e+06   2.195197e-17   0.000000e+00   0.000000e+00
     2168000   2.167999e-05   1.710243e+01   1.014302e+01   3.928000e+01  -2.860846e+06  -1.561449e+06  -5.958347e+05   1.021185e+12  -2.364074e+12   1.292047e+12   3.313243e+06   2.078558e-17   0.000000e+00   0.000000e+00
     2176000   2.175999e-05   1.687707e+01   1.001062e+01   3.923625e+01  -2.770276e+06  -1.747161e+06  -5.005841e+05   1.236201e+12  -2.272871e+12   1.091476e+12   3.313244e+06   1.974491e-17   0.000000e+00   0.000000e+00
     2184000   2.183999e-05   1.665961e+01   9.863691e+00   3.919948e+01  -2.663911e+06  -1.924565e+06  -4.209743e+05   1.420002e+12  -2.162929e+12   9.023431e+11   3.313245e+06   1.880203e-17   0.000000e+00   0.000000e+00
     2192000   2.191999e-05   1.645120e+01   9.702954e+00   3.916850e+01  -2.544538e+06  -2.091953e+06  -3.558866e+05   1.560451e+12  -2.021903e+12   7.278384e+11   3.313246e+06   1.766012e-17   0.000000e+00   0.000000e+00
     2200000   2.199999e-05   1.625276e+01   9.529271e+00   3.914219e+01  -2.414693e+06  -2.248197e+06  -3.040934e+05   1.680087e+12  -1.881588e+12   5.696223e+11   3.313247e+06   1.674536e-17   0.000000e+00   0.000000e+00
     2208000   2.207999e-05   1.606508e+01   9.343546e+00   3.911953e+01  -2.276393e+06  -2.392857e+06  -2.643464e+05   1.770140e+12  -1.731154e+12   4.267310e+11   3.313247e+06   1.580599e-17   0.000000e+00   0.000000e+00
     2216000   2.215999e-05   1.588873e+01   9.146721e+00   3.909960e+01  -2.131271e+06  -2.525840e+06  -2.354352e+05   1.852859e+12  -1.591310e+12   2.989779e+11   3.313248e+06   1.516091e-17   0.000000e+00   0.000000e+00
     2224000   2.223999e-05   1.572421e+01   8.939728e+00   3.908160e+01  -1.981050e+06  -2.646949e+06  -2.161414e+05   1.902214e+12  -1.438864e+12   1.858019e+11   3.313249e+06   1.433091e-17   0.000000e+00   0.000000e+00
     2232000   2.231999e-05   1.557186e+01   8.723522e+00   3.906480e+01  -1.827316e+06  -2.756155e+06  -2.053042e+05   1.932858e+12  -1.288000e+12   8.734155e+10   3.313250e+06   1.352776e-17   0.000000e+00   0.000000e+00
     2240000   2.239999e-05   1.543188e+01   8.499064e+00   3.904856e+01  -1.671879e+06  -2.853368e+06  -2.018340e+05   1.949871e+12  -1.142557e+12   6.725946e+08   3.313250e+06   1.278886e-17   0.000000e+00   0.000000e+00
     2248000   2.247999e-05   1.530440e+01   8.267279e+00   3.903233e+01  -1.515020e+06  -2.939454e+06  -2.048270e+05   1.967297e+12  -1.008801e+12  -7.430002e+10   3.313251e+06   1.225309e-17   0.000000e+00   0.000000e+00
     2256000   2.255999e-05   1.518950e+01   8.029035e+00   3.901563e+01  -1.357414e+06  -3.014881e+06  -2.134324e+05   1.969484e+12  -8.768835e+11  -1.393956e+11   3.313251e+06   1.168660e-17   0.000000e+00   0.000000e+00
     2264000   2.263999e-05   1.508721e+01   7.785174e+00   3.899805e+01  -1.200091e+06  -3.079925e+06  -2.268962e+05   1.965368e+12  -7.514996e+11  -1.943734e+11   3.313252e+06   1.118079e-17   0.000000e+00   0.000000e+00
     2272000   2.271999e-05   1.499746e+01   7.536513e+00   3.897922e+01  -1.043899e+06  -3.134986e+06  -2.444999e+05   1.942009e+12  -6.276414e+11  -2.439904e+11   3.313253e+06   1.057892e-17   0.000000e+00   0.000000e+00
     2280000   2.279999e-05   1.492016e+01   7.283823e+00   3.895884e+01  -8.887446e+05  -3.180755e+06  -2.656606e+05   1.926019e+12  -5.144634e+11  -2.838114e+11   3.313253e+06   1.015303e-17   0.000000e+00   0.000000e+00
     2288000   2.287999e-05   1.485522e+01   7.027828e+00   3.893664e+01  -7.348276e+05  -3.217715e+06  -2.898099e+05   1.919025e+12  -4.095245e+11  -3.190328e+11   3.313253e+06   9.896062e-18   0.000000e+00   0.000000e+00
     2296000   2.295999e-05   1.480255e+01   6.769213e+00   3.891240e+01  -5.821762e+05  -3.246310e+06  -3.165358e+05   1.900601e+12  -3.069012e+11  -3.482288e+11   3.313254e+06   9.584553e-18   0.000000e+00   0.000000e+00
     2304000   2.303999e-05   1.476202e+01   6.508633e+00   3.888593e+01  -4.312395e+05  -3.266862e+06  -3.453949e+05   1.873633e+12  -2.079565e+11  -3.724909e+11   3.313254e+06   9.245920e-18   0.000000e+00   0.000000e+00
     2312000   2.311999e-05   1.473349e+01   6.246720e+00   3.885709e+01  -2.822637e+05  -3.279725e+06  -3.760196e+05   1.851385e+12  -1.143322e+11  -3.926296e+11   3.313255e+06   9.001413e-18   0.000000e+00   0.000000e+00
     2320000   2.319999e-05   1.471681e+01   5.984073e+00   3.882573e+01  -1.350493e+05  -3.285255e+06  -4.080677e+05   1.832046e+12  -2.463660e+10  -4.080554e+11   3.313255e+06   8.822783e-18   0.000000e+00   0.000000e+00
     2328000   2.327999e-05   1.471184e+01   5.721268e+00   3.879177e+01   1.060323e+04  -3.283725e+06  -4.412487e+05   1.812429e+12   6.238022e+10  -4.207526e+11   3.313256e+06   8.678330e-18   0.000000e+00   0.000000e+00
     2336000   2.335999e-05   1.471846e+01   5.458860e+00   3.875511e+01   1.545834e+05  -3.275345e+06  -4.752713e+05   1.790318e+12   1.468448e+11  -4.297504e+11   3.313256e+06   8.542246e-18   0.000000e+00   0.000000e+00
     2344000   2.343999e-05   1.473655e+01   5.197391e+00   3.871571e+01   2.971819e+05  -3.260272e+06  -5.098816e+05   1.766666e+12   2.292249e+11  -4.360777e+11   3.313257e+06   8.422881e-18   0.000000e+00   0.000000e+00
     2352000   2.351999e-05   1.476597e+01   4.937391e+00   3.867352e+01   4.382880e+05  -3.238621e+06  -5.448946e+05   1.758494e+12   3.118812e+11  -4.392997e+11   3.313257e+06   8.469863e-18   0.000000e+00   0.000000e+00
     2360000   2.359999e-05   1.480659e+01   4.679379e+00   3.862852e+01   5.769540e+05  -3.210649e+06  -5.801143e+05   1.724534e+12   3.894300e+11  -4.402219e+11   3.313257e+06   8.311834e-18   0.000000e+00   0.000000e+00
     2368000   2.367999e-05   1.485826e+01   4.423860e+00   3.858070e+01   7.143975e+05  -3.176276e+06  -6.152931e+05   1.709337e+12   4.694834e+11  -4.389719e+11   3.313258e+06   8.350586e-18   0.000000e+00   0.000000e+00
     2376000   2.375999e-05   1.492086e+01   4.171345e+00   3.853008e+01   8.503342e+05  -3.135572e+06  -6.502280e+05   1.685832e+12   5.473358e+11  -4.348076e+11   3.313258e+06   8.339866e-18   0.000000e+00   0.000000e+00
     2384000   2.383999e-05   1.499426e+01   3.922335e+00   3.847668e+01   9.844581e+05  -3.088630e+06  -6.847565e+05   1.665587e+12   6.257872e+11  -4.281201e+11   3.313259e+06   8.385991e-18   0.000000e+00   0.000000e+00
     2392000   2.391999e-05   1.507833e+01   3.677330e+00   3.842053e+01   1.116879e+06  -3.035402e+06  -7.187489e+05   1.646397e+12   7.052697e+11  -4.201527e+11   3.313259e+06   8.474828e-18   0.000000e+00   0.000000e+00
     2400000   2.399999e-05   1.517292e+01   3.436840e+00   3.836170e+01   1.247711e+06  -2.975799e+06  -7.520143e+05   1.625308e+12   7.852041e+11  -4.105358e+11   3.313259e+06   8.580364e-18   0.000000e+00   0.000000e+00
     2408000   2.407999e-05   1.527792e+01   3.201375e+00   3.830024e+01   1.377005e+06  -2.909698e+06  -7.843492e+05   1.608332e+12   8.682595e+11  -3.974350e+11   3.313260e+06   8.760272e-18   0.000000e+00   0.000000e+00
     2416000   2.415999e-05   1.539319e+01   2.971459e+00   3.823623e+01   1.504310e+06  -2.837151e+06  -8.156713e+05   1.580603e+12   9.485030e+11  -3.841810e+11   3.313260e+06   8.877940e-18   0.000000e+00   0.000000e+00
     2424000   2.423999e-05   1.551858e+01   2.747621e+00   3.816976e+01   1.630222e+06  -2.757638e+06  -8.458751e+05   1.557947e+12   1.034646e+12  -3.705203e+11   3.313261e+06   9.101857e-18   0.000000e+00   0.000000e+00
     2432000   2.431999e-05   1.565396e+01   2.530415e+00   3.810092e+01   1.753980e+06  -2.671322e+06  -8.748091e+05   1.536184e+12   1.124368e+12  -3.533930e+11   3.313261e+06   9.387235e-18   0.000000e+00   0.000000e+00
     2440000   2.439999e-05   1.579917e+01   2.320406e+00   3.802982e+01   1.875936e+06  -2.577634e+06  -9.024240e+05   1.512827e+12   1.218878e+12  -3.367517e+11   3.313262e+06   9.734694e-18   0.000000e+00   0.000000e+00
     2448000   2.447999e-05   1.595405e+01   2.118194e+00   3.795657e+01   1.995605e+06  -2.476476e+06  -9.286182e+05   1.476975e+12   1.309448e+12  -3.181047e+11   3.313262e+06   1.000911e-17   0.000000e+00   0.000000e+00
     2456000   2.455999e-05   1.611839e+01   1.924373e+00   3.788128e+01   2.112453e+06  -2.367786e+06  -9.533294e+05   1.443238e+12   1.407971e+12  -2.989977e+11   3.313263e+06   1.040328e-17   0.000000e+00   0.000000e+00
     2464000   2.463999e-05   1.629195e+01   1.739551e+00   3.780408e+01   2.225964e+06  -2.251489e+06  -9.765208e+05   1.397662e+12   1.503312e+12  -2.801653e+11   3.313263e+06   1.074676e-17   0.000000e+00   0.000000e+00
     2472000   2.471999e-05   1.647445e+01   1.564350e+00   3.772508e+01   2.335920e+06  -2.127164e+06  -9.981800e+05   1.349432e+12   1.604166e+12  -2.606782e+11   3.313264e+06   1.117339e-17   0.000000e+00   0.000000e+00
     2480000   2.479999e-05   1.666558e+01   1.399409e+00   3.764441e+01   2.441465e+06  -1.995035e+06  -1.018235e+06   1.287105e+12   1.697547e+12  -2.399155e+11   3.313264e+06   1.150788e-17   0.000000e+00   0.000000e+00
     2488000   2.487999e-05   1.686496e+01   1.245364e+00   3.756221e+01   2.542278e+06  -1.854686e+06  -1.036671e+06   1.226946e+12   1.805174e+12  -2.207460e+11   3.313265e+06   1.205104e-17   0.000000e+00   0.000000e+00
     2496000   2.495999e-05   1.707220e+01   1.102877e+00   3.747859e+01   2.637590e+06  -1.706110e+06  -1.053582e+06   1.153066e+12   1.907260e+12  -2.019119e+11   3.313265e+06   1.253981e-17   0.000000e+00   0.000000e+00
     2504000   2.503999e-05   1.728681e+01   9.725996e-01   3.739367e+01   2.726566e+06  -1.549465e+06  -1.068986e+06   1.071915e+12   2.012115e+12  -1.825163e+11   3.313266e+06   1.309805e-17   0.000000e+00   0.000000e+00
     2512000   2.511999e-05   1.750826e+01   8.551805e-01   3.730759e+01   2.808499e+06  -1.384674e+06  -1.082934e+06   9.779658e+11   2.113136e+12  -1.657000e+11   3.313267e+06   1.364469e-17   0.000000e+00   0.000000e+00
     2520000   2.519999e-05   1.773596e+01   7.512760e-01   3.722044e+01   2.882628e+06  -1.211628e+06  -1.095514e+06   8.717475e+11   2.209002e+12  -1.493559e+11   3.313267e+06   1.417733e-17   0.000000e+00   0.000000e+00
     2528000   2.527999e-05   1.796924e+01   6.615169e-01   3.713234e+01   2.947795e+06  -1.031062e+06  -1.106870e+06   7.567799e+11   2.308221e+12  -1.347448e+11   3.313268e+06   1.482039e-17   0.000000e+00   0.000000e+00
     2536000   2.535999e-05   1.820735e+01   5.865255e-01   3.704337e+01   3.003334e+06  -8.423796e+05  -1.117197e+06   6.286452e+11   2.405738e+12  -1.240384e+11   3.313269e+06   1.552005e-17   0.000000e+00   0.000000e+00
     2544000   2.543999e-05   1.844948e+01   5.269124e-01   3.695361e+01   3.047933e+06  -6.468890e+05  -1.126675e+06   4.859424e+11   2.487130e+12  -1.134682e+11   3.313269e+06   1.611265e-17   0.000000e+00   0.000000e+00
     2552000   2.551999e-05   1.869471e+01   4.832065e-01   3.686312e+01   3.080729e+06  -4.447259e+05  -1.135378e+06   3.316218e+11   2.564353e+12  -1.046911e+11   3.313270e+06   1.676873e-17   0.000000e+00   0.000000e+00
     2560000   2.559999e-05   1.894205e+01   4.558972e-01   3.677196e+01   3.100618e+06  -2.372501e+05  -1.143524e+06   1.639835e+11   2.620280e+12  -9.906272e+10   3.313271e+06   1.728390e-17   0.000000e+00   0.000000e+00
     2568000   2.567999e-05   1.919044e+01   4.453572e-01   3.668017e+01   3.106681e+06  -2.560650e+04  -1.151367e+06  -1.400687e+10   2.668348e+12  -9.720030e+10   3.313272e+06   1.785269e-17   0.000000e+00   0.000000e+00
     2576000   2.575999e-05   1.943873e+01   4.518963e-01   3.658775e+01   3.098100e+06   1.894123e+05  -1.159171e+06  -2.013491e+11   2.693904e+12  -9.801343e+10   3.313273e+06   1.829730e-17   0.000000e+00   0.000000e+00
     2584000   2.583999e-05   1.968573e+01   4.757004e-01   3.649469e+01   3.074182e+06   4.061125e+05  -1.167159e+06  -3.993659e+11   2.729275e+12  -1.023054e+11   3.313274e+06   1.907757e-17   0.000000e+00   0.000000e+00
     2592000   2.591999e-05   1.993017e+01   5.169188e-01   3.640099e+01   3.034135e+06   6.244527e+05  -1.175531e+06  -6.032145e+11   2.728280e+12  -1.077218e+11   3.313275e+06   1.957866e-17   0.000000e+00   0.000000e+00
     2600000   2.599999e-05   2.017075e+01   5.755831e-01   3.630660e+01   2.977596e+06   8.419316e+05  -1.184427e+06  -8.122458e+11   2.711022e+12  -1.149291e+11   3.313275e+06   2.008846e-17   0.000000e+00   0.000000e+00
     2608000   2.607999e-05   2.040613e+01   6.515821e-01   3.621146e+01   2.904051e+06   1.057608e+06  -1.194050e+06  -1.024973e+12   2.672982e+12  -1.253633e+11   3.313276e+06   2.056061e-17   0.000000e+00   0.000000e+00
     2616000   2.615999e-05   2.063495e+01   7.446849e-01   3.611552e+01   2.813641e+06   1.268999e+06  -1.204522e+06  -1.234074e+12   2.607116e+12  -1.360682e+11   3.313277e+06   2.087956e-17   0.000000e+00   0.000000e+00
     2624000   2.623999e-05   2.085586e+01   8.544728e-01   3.601871e+01   2.706405e+06   1.474732e+06  -1.215876e+06  -1.446232e+12   2.532430e+12  -1.476472e+11   3.313278e+06   2.135054e-17   0.000000e+00   0.000000e+00
     2632000   2.631999e-05   2.106753e+01   9.804528e-01   3.592096e+01   2.582471e+06   1.673425e+06  -1.228134e+06  -1.649741e+12   2.429364e+12  -1.588883e+11   3.313280e+06   2.165634e-17   0.000000e+00   0.000000e+00
     2640000   2.639999e-05   2.126863e+01   1.121973e+00   3.582219e+01   2.442585e+06   1.863025e+06  -1.241268e+06  -1.847237e+12   2.309229e+12  -1.691579e+11   3.313281e+06   2.196871e-17   0.000000e+00   0.000000e+00
     2648000   2.647999e-05   2.145793e+01   1.278258e+00   3.572234e+01   2.287324e+06   2.042187e+06  -1.255173e+06  -2.032541e+12   2.167300e+12  -1.777728e+11   3.313282e+06   2.218550e-17   0.000000e+00   0.000000e+00
     2656000   2.655999e-05   2.163423e+01   1.448399e+00   3.562135e+01   2.117798e+06   2.209239e+06  -1.269660e+06  -2.205795e+12   2.009337e+12  -1.830499e+11   3.313283e+06   2.237698e-17   0.000000e+00   0.000000e+00
     2664000   2.663999e-05   2.179642e+01   1.631389e+00   3.551919e+01   1.934926e+06   2.363118e+06  -1.284361e+06  -2.359458e+12   1.832107e+12  -1.837356e+11   3.313284e+06   2.242944e-17   0.000000e+00   0.000000e+00
     2672000   2.671999e-05   2.194351e+01   1.826107e+00   3.541585e+01   1.740428e+06   2.502329e+06  -1.298891e+06  -2.498802e+12   1.645411e+12  -1.783941e+11   3.313285e+06   2.249407e-17   0.000000e+00   0.000000e+00
     2680000   2.679999e-05   2.207462e+01   2.031343e+00   3.531138e+01   1.535900e+06   2.625933e+06  -1.312764e+06  -2.613869e+12   1.445297e+12  -1.671881e+11   3.313286e+06   2.240877e-17   0.000000e+00   0.000000e+00
     2688000   2.687999e-05   2.218903e+01   2.245821e+00   3.520584e+01   1.323107e+06   2.733192e+06  -1.325488e+06  -2.702797e+12   1.235812e+12  -1.497298e+11   3.313287e+06   2.217249e-17   0.000000e+00   0.000000e+00
     2696000   2.695999e-05   2.228615e+01   2.468205e+00   3.509935e+01   1.103916e+06   2.823625e+06  -1.336559e+06  -2.768652e+12   1.022880e+12  -1.258575e+11   3.313288e+06   2.185399e-17   0.000000e+00   0.000000e+00
     2704000   2.703999e-05   2.236553e+01   2.697149e+00   3.499205e+01   8.798997e+05   2.897133e+06  -1.345467e+06  -2.825318e+12   8.138084e+11  -9.541075e+10   3.313289e+06   2.166934e-17   0.000000e+00   0.000000e+00
     2712000   2.711999e-05   2.242686e+01   2.931291e+00   3.488414e+01   6.531542e+05   2.953619e+06  -1.351819e+06  -2.843722e+12   6.008346e+11  -6.127795e+10   3.313290e+06   2.116284e-17   0.000000e+00   0.000000e+00
     2720000   2.719999e-05   2.247001e+01   3.169279e+00   3.477584e+01   4.255622e+05   2.993329e+06  -1.355277e+06  -2.841472e+12   3.929060e+11  -2.450278e+10   3.313291e+06   2.060551e-17   0.000000e+00   0.000000e+00
     2728000   2.727999e-05   2.249498e+01   3.409787e+00   3.466738e+01   1.988827e+05   3.016688e+06  -1.355709e+06  -2.824567e+12   1.925537e+11   1.404170e+10   3.313292e+06   2.007095e-17   0.000000e+00   0.000000e+00
     2736000   2.735999e-05   2.250190e+01   3.651530e+00   3.455900e+01  -2.512921e+04   3.024306e+06  -1.353091e+06  -2.772245e+12  -6.595264e+07   5.128109e+10   3.313293e+06   1.925093e-17   0.000000e+00   0.000000e+00
     2744000   2.743999e-05   2.249107e+01   3.893276e+00   3.445096e+01  -2.448245e+05   3.016934e+06  -1.347624e+06  -2.712607e+12  -1.822184e+11   8.481432e+10   3.313294e+06   1.852647e-17   0.000000e+00   0.000000e+00
     2752000   2.751999e-05   2.246287e+01   4.133861e+00   3.434345e+01  -4.591760e+05   2.995396e+06  -1.339657e+06  -2.639445e+12  -3.539668e+11   1.131841e+11   3.313295e+06   1.779068e-17   0.000000e+00   0.000000e+00
     2760000   2.759999e-05   2.241778e+01   4.372186e+00   3.423667e+01  -6.668899e+05   2.960567e+06  -1.329749e+06  -2.556791e+12  -5.161859e+11   1.329780e+11   3.313296e+06   1.708083e-17   0.000000e+00   0.000000e+00
     2768000   2.767999e-05   2.235635e+01   4.607214e+00   3.413073e+01  -8.677287e+05   2.913119e+06  -1.318605e+06  -2.455901e+12  -6.664326e+11   1.437836e+11   3.313297e+06   1.626689e-17   0.000000e+00   0.000000e+00
     2776000   2.775999e-05   2.227916e+01   4.837973e+00   3.402570e+01  -1.060550e+06   2.853912e+06  -1.307041e+06  -2.359704e+12  -8.111975e+11   1.434036e+11   3.313297e+06   1.564228e-17   0.000000e+00   0.000000e+00
     2784000   2.783999e-05   2.218688e+01   5.063543e+00   3.392159e+01  -1.245041e+06   2.783559e+06  -1.295999e+06  -2.249555e+12  -9.451975e+11   1.309535e+11   3.313298e+06   1.495175e-17   0.000000e+00   0.000000e+00
     2792000   2.791999e-05   2.208020e+01   5.283064e+00   3.381830e+01  -1.420668e+06   2.702722e+06  -1.286446e+06  -2.142262e+12  -1.075675e+12   1.058214e+11   3.313299e+06   1.441719e-17   0.000000e+00   0.000000e+00
     2800000   2.799999e-05   2.195983e+01   5.495720e+00   3.371569e+01  -1.586783e+06   2.612133e+06  -1.279388e+06  -2.017137e+12  -1.191566e+12   6.892081e+10   3.313299e+06   1.375577e-17   0.000000e+00   0.000000e+00
     2808000   2.807999e-05   2.182658e+01   5.700767e+00   3.361351e+01  -1.742797e+06   2.512593e+06  -1.275733e+06  -1.883824e+12  -1.295946e+12   2.107410e+10   3.313300e+06   1.309294e-17   0.000000e+00   0.000000e+00
     2816000   2.815999e-05   2.168128e+01   5.897523e+00   3.351145e+01  -1.887945e+06   2.405081e+06  -1.276405e+06  -1.743280e+12  -1.389026e+12  -3.882149e+10   3.313301e+06   1.244492e-17   0.000000e+00   0.000000e+00
     2824000   2.823999e-05   2.152480e+01   6.085381e+00   3.340915e+01  -2.022202e+06   2.290103e+06  -1.282223e+06  -1.612837e+12  -1.484363e+12  -1.075565e+11   3.313301e+06   1.205984e-17   0.000000e+00   0.000000e+00
     2832000   2.831999e-05   2.135800e+01   6.263743e+00   3.330614e+01  -2.145725e+06   2.167926e+06  -1.293805e+06  -1.470459e+12  -1.564745e+12  -1.832552e+11   3.313302e+06   1.162945e-17   0.000000e+00   0.000000e+00
     2840000   2.839999e-05   2.118180e+01   6.432097e+00   3.320196e+01  -2.257307e+06   2.040008e+06  -1.311833e+06  -1.321425e+12  -1.633620e+12  -2.666340e+11   3.313302e+06   1.123308e-17   0.000000e+00   0.000000e+00
     2848000   2.847999e-05   2.099716e+01   6.590013e+00   3.309607e+01  -2.356828e+06   1.907080e+06  -1.336557e+06  -1.164824e+12  -1.687214e+12  -3.534506e+11   3.313303e+06   1.083861e-17   0.000000e+00   0.000000e+00
     2856000   2.855999e-05   2.080504e+01   6.737124e+00   3.298793e+01  -2.443935e+06   1.770142e+06  -1.368122e+06  -1.009800e+12  -1.732210e+12  -4.373978e+11   3.313303e+06   1.054596e-17   0.000000e+00   0.000000e+00
     2864000   2.863999e-05   2.060647e+01   6.873157e+00   3.287699e+01  -2.518366e+06   1.630202e+06  -1.406505e+06  -8.505597e+11  -1.765090e+12  -5.229086e+11   3.313304e+06   1.029773e-17   0.000000e+00   0.000000e+00
     2872000   2.871999e-05   2.040245e+01   6.997908e+00   3.276271e+01  -2.579863e+06   1.488312e+06  -1.451628e+06  -6.880046e+11  -1.782289e+12  -6.046210e+11   3.313304e+06   1.005493e-17   0.000000e+00   0.000000e+00
     2880000   2.879999e-05   2.019404e+01   7.111267e+00   3.264457e+01  -2.628355e+06   1.345644e+06  -1.502992e+06  -5.233235e+11  -1.779574e+12  -6.781353e+11   3.313305e+06   9.767339e-18   0.000000e+00   0.000000e+00
     2888000   2.887999e-05   1.998226e+01   7.213231e+00   3.252208e+01  -2.663868e+06   1.203590e+06  -1.559862e+06  -3.648762e+11  -1.768164e+12  -7.412202e+11   3.313305e+06   9.537794e-18   0.000000e+00   0.000000e+00
     2896000   2.895999e-05   1.976816e+01   7.303889e+00   3.239486e+01  -2.686683e+06   1.063311e+06  -1.621450e+06  -2.068371e+11  -1.736890e+12  -7.963151e+11   3.313306e+06   9.249198e-18   0.000000e+00   0.000000e+00
     2904000   2.903999e-05   1.955273e+01   7.383446e+00   3.226255e+01  -2.697086e+06   9.262344e+05  -1.686954e+06  -5.485436e+10  -1.688514e+12  -8.394116e+11   3.313306e+06   8.911188e-18   0.000000e+00   0.000000e+00
     2912000   2.911999e-05   1.933694e+01   7.452205e+00   3.212487e+01  -2.695767e+06   7.935875e+05  -1.755295e+06   8.599279e+10  -1.626182e+12  -8.673004e+11   3.313307e+06   8.524000e-18   0.000000e+00   0.000000e+00
     2920000   2.919999e-05   1.912169e+01   7.510561e+00   3.198165e+01  -2.683642e+06   6.662538e+05  -1.825425e+06   2.146322e+11  -1.555110e+12  -8.831509e+11   3.313307e+06   8.124154e-18   0.000000e+00   0.000000e+00
     2928000   2.927999e-05   1.890782e+01   7.558974e+00   3.183278e+01  -2.661710e+06   5.452073e+05  -1.896327e+06   3.309183e+11  -1.470633e+12  -8.873143e+11   3.313308e+06   7.661416e-18   0.000000e+00   0.000000e+00
     2936000   2.935999e-05   1.869605e+01   7.597972e+00   3.167824e+01  -2.631094e+06   4.309947e+05  -1.967129e+06   4.319978e+11  -1.382035e+12  -8.806265e+11   3.313308e+06   7.192056e-18   0.000000e+00   0.000000e+00
     2944000   2.943999e-05   1.848704e+01   7.628137e+00   3.151807e+01  -2.593093e+06   3.244475e+05  -2.036814e+06   5.151457e+11  -1.282057e+12  -8.600721e+11   3.313308e+06   6.632717e-18   0.000000e+00   0.000000e+00
     2952000   2.951999e-05   1.828131e+01   7.650107e+00   3.135241e+01  -2.549071e+06   2.262173e+05  -2.104537e+06   5.824941e+11  -1.174290e+12  -8.317684e+11   3.313309e+06   6.035065e-18   0.000000e+00   0.000000e+00
     2960000   2.959999e-05   1.807931e+01   7.664562e+00   3.118142e+01  -2.500357e+06   1.366190e+05  -2.169692e+06   6.324195e+11  -1.065591e+12  -7.959084e+11   3.313309e+06   5.431126e-18   0.000000e+00   0.000000e+00
     2968000   2.967999e-05   1.788134e+01   7.672197e+00   3.100534e+01  -2.448386e+06   5.571360e+04  -2.231663e+06   6.636077e+11  -9.559331e+11  -7.519258e+11   3.313309e+06   4.806786e-18   0.000000e+00   0.000000e+00
     2976000   2.975999e-05   1.768762e+01   7.673713e+00   3.082445e+01  -2.394473e+06  -1.634600e+04  -2.290033e+06   6.805538e+11  -8.471259e+11  -7.055519e+11   3.313309e+06   4.203318e-18   0.000000e+00   0.000000e+00
     2984000   2.983999e-05   1.749825e+01   7.669816e+00   3.063904e+01  -2.339822e+06  -7.959742e+04  -2.344550e+06   6.824306e+11  -7.357750e+11  -6.560811e+11   3.313309e+06   3.599691e-18   0.000000e+00   0.000000e+00
     2992000   2.991999e-05   1.731324e+01   7.661216e+00   3.044943e+01  -2.285655e+06  -1.339140e+05  -2.394967e+06   6.700485e+11  -6.242058e+11  -6.045685e+11   3.313310e+06   3.015194e-18   0.000000e+00   0.000000e+00
     3000000   2.999999e-05   1.713250e+01   7.648616e+00   3.025595e+01  -2.232935e+06  -1.796816e+05  -2.441257e+06   6.466223e+11  -5.199021e+11  -5.531816e+11   3.313310e+06   2.490161e-18   0.000000e+00   0.000000e+00
     3008000   3.007999e-05   1.695591e+01   7.632691e+00   3.005894e+01  -2.182489e+06  -2.170577e+05  -2.483475e+06   6.127918e+11  -4.151725e+11  -5.022409e+11   3.313310e+06   2.003617e-18   0.000000e+00   0.000000e+00
     3016000   3.015999e-05   1.678245e+01   7.614508e+00   2.985933e+01  -2.175465e+06  -2.254070e+05  -2.488889e+06  -8.242673e+11   3.804560e+11   6.860066e+11   3.313310e+06   3.240367e-18   0.000000e+00   0.000000e+00
     3024000   3.023999e-05   1.660458e+01   7.598231e+00   2.966351e+01  -2.275063e+06  -1.808358e+05  -2.401960e+06  -1.267484e+12   5.184007e+11   1.161480e+12   3.313310e+06   8.073929e-18   0.000000e+00   0.000000e+00
     3032000   3.031999e-05   1.641865e+01   7.585242e+00   2.947507e+01  -2.371668e+06  -1.461342e+05  -2.309083e+06  -1.149413e+12   3.500441e+11   1.158401e+12   3.313311e+06   6.975341e-18   0.000000e+00   0.000000e+00
     3040000   3.039999e-05   1.622536e+01   7.574496e+00   2.929404e+01  -2.459070e+06  -1.247103e+05  -2.217082e+06  -1.036767e+12   1.857230e+11   1.139470e+12   3.313311e+06   6.029288e-18   0.000000e+00   0.000000e+00
     3048000   3.047999e-05   1.602543e+01   7.564944e+00   2.912028e+01  -2.537645e+06  -1.161677e+05  -2.127180e+06  -9.290711e+11   2.938395e+10   1.106732e+12   3.313311e+06   5.230780e-18   0.000000e+00   0.000000e+00
     3056000   3.055999e-05   1.581956e+01   7.555575e+00   2.895361e+01  -2.607755e+06  -1.200457e+05  -2.040401e+06  -8.247617e+11  -1.223514e+11   1.061284e+12   3.313311e+06   4.561268e-18   0.000000e+00   0.000000e+00
     3064000   3.063999e-05   1.560841e+01   7.545433e+00   2.879371e+01  -2.669691e+06  -1.353148e+05  -1.957671e+06  -7.241060e+11  -2.607251e+11   1.005482e+12   3.313312e+06   4.014809e-18   0.000000e+00   0.000000e+00
     3072000   3.071999e-05   1.539262e+01   7.533643e+00   2.864025e+01  -2.723751e+06  -1.611375e+05  -1.879694e+06  -6.274837e+11  -3.822296e+11   9.420082e+11   3.313312e+06   3.573862e-18   0.000000e+00   0.000000e+00
     3080000   3.079999e-05   1.517281e+01   7.519397e+00   2.849282e+01  -2.770179e+06  -1.966010e+05  -1.807067e+06  -5.329446e+11  -5.037132e+11   8.717826e+11   3.313312e+06   3.249702e-18   0.000000e+00   0.000000e+00
     3088000   3.087999e-05   1.494959e+01   7.501953e+00   2.835096e+01  -2.809182e+06  -2.407589e+05  -1.740279e+06  -4.427462e+11  -5.984741e+11   7.974762e+11   3.313312e+06   2.980259e-18   0.000000e+00   0.000000e+00
     3096000   3.095999e-05   1.472353e+01   7.480676e+00   2.821421e+01  -2.841030e+06  -2.923330e+05  -1.679621e+06  -3.548689e+11  -6.867215e+11   7.197654e+11   3.313312e+06   2.793489e-18   0.000000e+00   0.000000e+00
     3104000   3.103999e-05   1.449521e+01   7.455005e+00   2.808206e+01  -2.866013e+06  -3.504481e+05  -1.625176e+06  -2.701067e+11  -7.635864e+11   6.409866e+11   3.313312e+06   2.671548e-18   0.000000e+00   0.000000e+00
     3112000   3.111999e-05   1.426515e+01   7.424455e+00   2.795402e+01  -2.884402e+06  -4.141072e+05  -1.576953e+06  -1.898984e+11  -8.249656e+11   5.639718e+11   3.313313e+06   2.590929e-18   0.000000e+00   0.000000e+00
     3120000   3.119999e-05   1.403387e+01   7.388620e+00   2.782958e+01  -2.896454e+06  -4.825233e+05  -1.534851e+06  -1.125152e+11  -8.802074e+11   4.890411e+11   3.313313e+06   2.570634e-18   0.000000e+00   0.000000e+00
     3128000   3.127999e-05   1.380187e+01   7.347156e+00   2.770828e+01  -2.902464e+06  -5.546828e+05  -1.498690e+06  -3.874740e+10  -9.223580e+11   4.164095e+11   3.313313e+06   2.568262e-18   0.000000e+00   0.000000e+00
     3136000   3.135999e-05   1.356963e+01   7.299784e+00   2.758964e+01  -2.902684e+06  -6.300344e+05  -1.468171e+06   2.962331e+10  -9.474680e+11   3.480113e+11   3.313313e+06   2.553335e-18   0.000000e+00   0.000000e+00
     3144000   3.143999e-05   1.333759e+01   7.246303e+00   2.747323e+01  -2.897485e+06  -7.074968e+05  -1.442939e+06   9.909365e+10  -9.851537e+11   2.840453e+11   3.313313e+06   2.656863e-18   0.000000e+00   0.000000e+00
     3152000   3.151999e-05   1.310617e+01   7.186528e+00   2.735864e+01  -2.887001e+06  -7.871470e+05  -1.422558e+06   1.636556e+11  -1.008051e+12   2.256498e+11   3.313313e+06   2.739099e-18   0.000000e+00   0.000000e+00
     3160000   3.159999e-05   1.287580e+01   7.120334e+00   2.724550e+01  -2.871610e+06  -8.678882e+05  -1.406652e+06   2.215237e+11  -1.012930e+12   1.727287e+11   3.313313e+06   2.766807e-18   0.000000e+00   0.000000e+00
     3168000   3.167999e-05   1.264684e+01   7.047652e+00   2.713347e+01  -2.851604e+06  -9.492862e+05  -1.394725e+06   2.786850e+11  -1.023199e+12   1.266183e+11   3.313313e+06   2.856203e-18   0.000000e+00   0.000000e+00
     3176000   3.175999e-05   1.241966e+01   6.968434e+00   2.702226e+01  -2.827173e+06  -1.031216e+06  -1.386267e+06   3.323837e+11  -1.026272e+12   8.554635e+10   3.313314e+06   2.932310e-18   0.000000e+00   0.000000e+00
     3184000   3.183999e-05   1.219461e+01   6.882648e+00   2.691159e+01  -2.798478e+06  -1.113435e+06  -1.380880e+06   3.874146e+11  -1.034998e+12   4.940294e+10   3.313314e+06   3.064366e-18   0.000000e+00   0.000000e+00
     3192000   3.191999e-05   1.197200e+01   6.790309e+00   2.680125e+01  -2.765985e+06  -1.195094e+06  -1.378088e+06   4.347222e+11  -1.029562e+12   2.030088e+10   3.313314e+06   3.128550e-18   0.000000e+00   0.000000e+00
     3200000   3.199999e-05   1.175216e+01   6.691421e+00   2.669104e+01  -2.729493e+06  -1.276963e+06  -1.377418e+06   4.788894e+11  -1.019171e+12  -4.133667e+09   3.313314e+06   3.175286e-18   0.000000e+00   0.000000e+00
     3208000   3.207999e-05   1.153538e+01   6.586006e+00   2.658081e+01  -2.689358e+06  -1.358367e+06  -1.378494e+06   5.243091e+11  -1.014939e+12  -2.278506e+10   3.313314e+06   3.269097e-18   0.000000e+00   0.000000e+00
     3216000   3.215999e-05   1.132195e+01   6.474111e+00   2.647044e+01  -2.645918e+06  -1.438869e+06  -1.380879e+06   5.664445e+11  -1.006329e+12  -3.679039e+10   3.313314e+06   3.342681e-18   0.000000e+00   0.000000e+00
     3224000   3.223999e-05   1.111212e+01   6.355800e+00   2.635985e+01  -2.599154e+06  -1.518707e+06  -1.384190e+06   6.030919e+11  -9.903933e+11  -4.582103e+10   3.313314e+06   3.372201e-18   0.000000e+00   0.000000e+00
     3232000   3.231999e-05   1.090616e+01   6.231143e+00   2.624896e+01  -2.549209e+06  -1.597746e+06  -1.388091e+06   6.431660e+11  -9.813673e+11  -5.158362e+10   3.313315e+06   3.454114e-18   0.000000e+00   0.000000e+00
     3240000   3.239999e-05   1.070432e+01   6.100206e+00   2.613774e+01  -2.496396e+06  -1.675520e+06  -1.392369e+06   6.786945e+11  -9.657601e+11  -5.469380e+10   3.313315e+06   3.496433e-18   0.000000e+00   0.000000e+00
     3248000   3.247999e-05   1.050681e+01   5.963096e+00   2.602618e+01  -2.440783e+06  -1.752092e+06  -1.396714e+06   7.158163e+11  -9.543072e+11  -5.379203e+10   3.313315e+06   3.570733e-18   0.000000e+00   0.000000e+00
     3256000   3.255999e-05   1.031388e+01   5.819880e+00   2.591427e+01  -2.381912e+06  -1.828116e+06  -1.400908e+06   7.500323e+11  -9.382265e+11  -5.092271e+10   3.313315e+06   3.619404e-18   0.000000e+00   0.000000e+00
     3264000   3.263999e-05   1.012577e+01   5.670640e+00   2.580204e+01  -2.320399e+06  -1.902715e+06  -1.404806e+06   7.879108e+11  -9.267496e+11  -4.622860e+10   3.313315e+06   3.710489e-18   0.000000e+00   0.000000e+00
     3272000   3.271999e-05   9.942710e+00   5.515461e+00   2.568952e+01  -2.255676e+06  -1.976564e+06  -1.408254e+06   8.243897e+11  -9.127414e+11  -3.939591e+10   3.313316e+06   3.791811e-18   0.000000e+00   0.000000e+00
     3280000   3.279999e-05   9.764924e+00   5.354441e+00   2.557674e+01  -2.188542e+06  -2.048660e+06  -1.411149e+06   8.590387e+11  -8.949721e+11  -3.299729e+10   3.313316e+06   3.856266e-18   0.000000e+00   0.000000e+00
     3288000   3.287999e-05   9.592633e+00   5.187697e+00   2.546375e+01  -2.118209e+06  -2.119755e+06  -1.413468e+06   8.941016e+11  -8.769163e+11  -2.480612e+10   3.313316e+06   3.928890e-18   0.000000e+00   0.000000e+00
     3296000   3.295999e-05   9.426081e+00   5.015326e+00   2.535060e+01  -2.045066e+06  -2.189298e+06  -1.415182e+06   9.321785e+11  -8.594056e+11  -1.758599e+10   3.313316e+06   4.026130e-18   0.000000e+00   0.000000e+00
     3304000   3.303999e-05   9.265505e+00   4.837448e+00   2.523733e+01  -1.968887e+06  -2.257341e+06  -1.416319e+06   9.702001e+11  -8.393602e+11  -1.094947e+10   3.313316e+06   4.121462e-18   0.000000e+00   0.000000e+00
     3312000   3.311999e-05   9.111157e+00   4.654183e+00   2.512400e+01  -1.889424e+06  -2.323853e+06  -1.416987e+06   1.008382e+12  -8.163489e+11  -5.788684e+09   3.313316e+06   4.215035e-18   0.000000e+00   0.000000e+00
     3320000   3.319999e-05   8.963278e+00   4.465684e+00   2.501063e+01  -1.807017e+06  -2.388316e+06  -1.417288e+06   1.045536e+12  -7.898166e+11  -2.106964e+09   3.313317e+06   4.299367e-18   0.000000e+00   0.000000e+00
     3328000   3.327999e-05   8.822109e+00   4.272116e+00   2.489724e+01  -1.721641e+06  -2.450543e+06  -1.417343e+06   1.093886e+12  -7.682742e+11  -4.284960e+08   3.313317e+06   4.474380e-18   0.000000e+00   0.000000e+00
     3336000   3.335999e-05   8.687886e+00   4.073669e+00   2.478385e+01  -1.633226e+06  -2.510333e+06  -1.417346e+06   1.135195e+12  -7.383239e+11  -4.298032e+08   3.313317e+06   4.591932e-18   0.000000e+00   0.000000e+00
     3344000   3.343999e-05   8.560880e+00   3.870532e+00   2.467046e+01  -1.541511e+06  -2.567568e+06  -1.417537e+06   1.162843e+12  -6.955402e+11  -4.730895e+09   3.313317e+06   4.597435e-18   0.000000e+00   0.000000e+00
     3352000   3.351999e-05   8.441341e+00   3.662930e+00   2.455703e+01  -1.446169e+06  -2.622112e+06  -1.418167e+06   1.215992e+12  -6.641184e+11  -1.209838e+10   3.313318e+06   4.807377e-18   0.000000e+00   0.000000e+00
     3360000   3.359999e-05   8.329577e+00   3.451083e+00   2.444353e+01  -1.347441e+06  -2.673459e+06  -1.419541e+06   1.255723e+12  -6.206526e+11  -2.306555e+10   3.313318e+06   4.914398e-18   0.000000e+00   0.000000e+00
     3368000   3.367999e-05   8.225848e+00   3.235267e+00   2.432988e+01  -1.245164e+06  -2.721338e+06  -1.421957e+06   1.303397e+12  -5.764742e+11  -3.810366e+10   3.313318e+06   5.089785e-18   0.000000e+00   0.000000e+00
     3376000   3.375999e-05   8.130454e+00   3.015768e+00   2.421598e+01  -1.139198e+06  -2.765424e+06  -1.425740e+06   1.345281e+12  -5.247688e+11  -5.706050e+10   3.313318e+06   5.229497e-18   0.000000e+00   0.000000e+00
     3384000   3.383999e-05   8.043689e+00   2.792905e+00   2.410172e+01  -1.029229e+06  -2.805434e+06  -1.431190e+06   1.399782e+12  -4.729855e+11  -7.950630e+10   3.313319e+06   5.482448e-18   0.000000e+00   0.000000e+00
     3392000   3.391999e-05   7.965860e+00   2.567027e+00   2.398694e+01  -9.158012e+05  -2.840742e+06  -1.438601e+06   1.442307e+12  -4.115251e+11  -1.055559e+11   3.313319e+06   5.660994e-18   0.000000e+00   0.000000e+00
     3400000   3.399999e-05   7.897289e+00   2.338511e+00   2.387148e+01  -7.977923e+05  -2.871291e+06  -1.448205e+06   1.509300e+12  -3.514883e+11  -1.345852e+11   3.313319e+06   6.058904e-18   0.000000e+00   0.000000e+00
     3408000   3.407999e-05   7.838349e+00   2.107758e+00   2.375516e+01  -6.749896e+05  -2.896586e+06  -1.460227e+06   1.559782e+12  -2.797187e+11  -1.661609e+11   3.313319e+06   6.357219e-18   0.000000e+00   0.000000e+00
     3416000   3.415999e-05   7.789401e+00   1.875216e+00   2.363778e+01  -5.476713e+05  -2.916004e+06  -1.474809e+06   1.626323e+12  -2.050240e+11  -1.985797e+11   3.313320e+06   6.827015e-18   0.000000e+00   0.000000e+00
     3424000   3.423999e-05   7.750849e+00   1.641367e+00   2.351913e+01  -4.152846e+05  -2.929147e+06  -1.491887e+06   1.692648e+12  -1.237433e+11  -2.282328e+11   3.313320e+06   7.342970e-18   0.000000e+00   0.000000e+00
     3432000   3.431999e-05   7.723137e+00   1.406730e+00   2.339902e+01  -2.763680e+05  -2.935612e+06  -1.511255e+06   1.781329e+12  -3.654947e+10  -2.547814e+11   3.313320e+06   8.111534e-18   0.000000e+00   0.000000e+00
     3440000   3.439999e-05   7.706799e+00   1.171867e+00   2.327727e+01  -1.309617e+05  -2.934670e+06  -1.532533e+06   1.857143e+12   6.079419e+10  -2.751398e+11   3.313321e+06   8.835146e-18   0.000000e+00   0.000000e+00
     3448000   3.447999e-05   7.702389e+00   9.373957e-01   2.315378e+01   2.211250e+04  -2.925726e+06  -1.554907e+06   1.965327e+12   1.648970e+11  -2.823479e+11   3.313321e+06   9.939529e-18   0.000000e+00   0.000000e+00
     3456000   3.455999e-05   7.710559e+00   7.039850e-01   2.302849e+01   1.835129e+05  -2.908016e+06  -1.577298e+06   2.075525e+12   2.793227e+11  -2.735271e+11   3.313322e+06   1.116954e-17   0.000000e+00   0.000000e+00
     3464000   3.463999e-05   7.732011e+00   4.723683e-01   2.290146e+01   3.544192e+05  -2.880739e+06  -1.598072e+06   2.199816e+12   4.040379e+11  -2.404906e+11   3.313322e+06   1.267107e-17   0.000000e+00   0.000000e+00
     3472000   3.471999e-05   7.767532e+00   2.433445e-01   2.277289e+01   5.354492e+05  -2.843036e+06  -1.615101e+06   2.333510e+12   5.406852e+11  -1.781739e+11   3.313323e+06   1.444661e-17   0.000000e+00   0.000000e+00
     3480000   3.479999e-05   7.817985e+00   1.778572e-02   2.264322e+01   7.275765e+05  -2.794003e+06  -1.625514e+06   2.468057e+12   6.858769e+11  -7.425798e+10   3.313324e+06   1.644455e-17   0.000000e+00   0.000000e+00
