     timestep     time              x             y              z              vx             vy             vz             ax             ay             az         v_magnitude      ELoss        Electronic      Nuclear
           0   0.000000e+00   1.000000e-01   8.890512e+00   2.063403e+01  -6.269494e+05  -7.996281e+05   3.651900e+06   0.000000e+00   0.000000e+00   0.000000e+00   3.790626e+06   0.000000e+00   0.000000e+00   0.000000e+00
        8000   7.999000e-08   6.167799e-02   8.815171e+00   2.092513e+01  -3.459343e+05  -1.047610e+06   3.626528e+06   3.003569e+12  -1.927917e+12  -2.703795e+11   3.790628e+06   4.199596e-17   0.000000e+00   0.000000e+00
       16000   1.599900e-07   4.290268e-02   8.726529e+00   2.121448e+01  -1.317380e+05  -1.154126e+06   3.608256e+06   2.384103e+12  -8.488022e+11  -1.844335e+11   3.790629e+06   2.110470e-17   0.000000e+00   0.000000e+00
       24000   2.399900e-07   3.954406e-02   8.632093e+00   2.150260e+01   4.246371e+04  -1.200009e+06   3.595421e+06   1.984810e+12  -3.361525e+11  -1.356247e+11   3.790630e+06   1.334377e-17   0.000000e+00   0.000000e+00
       32000   3.199900e-07   4.898639e-02   8.535333e+00   2.178982e+01   1.898987e+05  -1.215355e+06   3.585488e+06   1.713202e+12  -7.088061e+10  -1.147543e+11   3.790630e+06   9.680317e-18   0.000000e+00   0.000000e+00
       40000   3.999900e-07   6.941776e-02   8.438093e+00   2.207632e+01   3.181758e+05  -1.213445e+06   3.577037e+06   1.508958e+12   9.724273e+10  -1.012268e+11   3.790630e+06   7.528031e-18   0.000000e+00   0.000000e+00
       48000   4.799900e-07   9.951488e-02   8.341465e+00   2.236217e+01   4.321691e+05  -1.200773e+06   3.569349e+06   1.350528e+12   2.090674e+11  -9.318098e+10   3.790631e+06   6.150212e-18   0.000000e+00   0.000000e+00
       56000   5.599900e-07   1.382530e-01   8.246179e+00   2.264743e+01   5.345603e+05  -1.180364e+06   3.562284e+06   1.218044e+12   2.920205e+11  -8.601550e+10   3.790631e+06   5.166818e-18   0.000000e+00   0.000000e+00
       64000   6.399900e-07   1.847960e-01   8.152749e+00   2.293214e+01   6.275781e+05  -1.154583e+06   3.555554e+06   1.110081e+12   3.518108e+11  -8.169026e+10   3.790631e+06   4.466722e-18   0.000000e+00   0.000000e+00
       72000   7.199900e-07   2.384511e-01   8.061564e+00   2.321633e+01   7.125139e+05  -1.124335e+06   3.549236e+06   1.017876e+12   4.051186e+11  -7.600222e+10   3.790631e+06   3.952899e-18   0.000000e+00   0.000000e+00
       80000   7.999900e-07   2.986191e-01   7.972962e+00   2.350003e+01   7.905301e+05  -1.090157e+06   3.543375e+06   9.342985e+11   4.468547e+11  -7.096016e+10   3.790631e+06   3.532226e-18   0.000000e+00   0.000000e+00
       88000   8.799900e-07   3.647757e-01   7.887250e+00   2.378329e+01   8.624286e+05  -1.052026e+06   3.538127e+06   8.630358e+11   4.991601e+11  -6.194451e+10   3.790631e+06   3.270654e-18   0.000000e+00   0.000000e+00
       96000   9.599900e-07   4.364479e-01   7.804738e+00   2.406615e+01   9.284499e+05  -1.010042e+06   3.533650e+06   7.904629e+11   5.513799e+11  -5.008394e+10   3.790631e+06   3.052780e-18   0.000000e+00   0.000000e+00
      104000   1.039990e-06   5.131779e-01   7.725754e+00   2.434870e+01   9.888810e+05  -9.638230e+05   3.530162e+06   7.207690e+11   6.063727e+11  -3.634675e+10   3.790632e+06   2.912348e-18   0.000000e+00   0.000000e+00
      112000   1.119990e-06   5.945192e-01   7.650650e+00   2.463101e+01   1.043720e+06  -9.129603e+05   3.527894e+06   6.467574e+11   6.636782e+11  -1.959057e+10   3.790632e+06   2.816071e-18   0.000000e+00   0.000000e+00
      120000   1.199990e-06   6.800154e-01   7.579818e+00   2.491320e+01   1.092676e+06  -8.569281e+05   3.527127e+06   5.781427e+11   7.410624e+11   9.421968e+08   3.790632e+06   2.895623e-18   0.000000e+00   0.000000e+00
      128000   1.279990e-06   7.691893e-01   7.513709e+00   2.519540e+01   1.135522e+06  -7.948429e+05   3.528130e+06   4.917834e+11   8.118610e+11   2.462502e+10   3.790632e+06   2.955121e-18   0.000000e+00   0.000000e+00
      136000   1.359990e-06   8.615094e-01   7.452818e+00   2.547776e+01   1.171204e+06  -7.262886e+05   3.531243e+06   3.976308e+11   9.001501e+11   5.325930e+10   3.790632e+06   3.183363e-18   0.000000e+00   0.000000e+00
      144000   1.439990e-06   9.563653e-01   7.397701e+00   2.576046e+01   1.198750e+06  -6.502628e+05   3.536813e+06   2.892446e+11   1.002175e+12   8.622341e+10   3.790632e+06   3.590543e-18   0.000000e+00   0.000000e+00
      152000   1.519990e-06   1.053062e+00   7.349006e+00   2.604372e+01   1.217016e+06  -5.655250e+05   3.545130e+06   1.644734e+11   1.119461e+12   1.221195e+11   3.790632e+06   4.245096e-18   0.000000e+00   0.000000e+00
      160000   1.599990e-06   1.150800e+00   7.307485e+00   2.632776e+01   1.224470e+06  -4.707134e+05   3.556402e+06   1.729102e+10   1.253252e+12   1.599274e+11   3.790632e+06   5.232818e-18   0.000000e+00   0.000000e+00
      168000   1.679990e-06   1.248634e+00   7.273993e+00   2.661283e+01   1.219037e+06  -3.645485e+05   3.570707e+06  -1.585266e+11   1.403028e+12   1.973675e+11   3.790632e+06   6.662034e-18   0.000000e+00   0.000000e+00
      176000   1.759990e-06   1.345438e+00   7.249496e+00   2.689915e+01   1.198309e+06  -2.455742e+05   3.587847e+06  -3.653181e+11   1.574665e+12   2.298001e+11   3.790633e+06   8.737627e-18   0.000000e+00   0.000000e+00
      184000   1.839990e-06   1.439880e+00   7.235086e+00   2.718694e+01   1.159477e+06  -1.121567e+05   3.607206e+06  -6.109262e+11   1.763839e+12   2.512240e+11   3.790633e+06   1.162729e-17   0.000000e+00   0.000000e+00
      192000   1.919990e-06   1.530390e+00   7.231967e+00   2.747633e+01   1.099460e+06   3.690024e+04   3.627496e+06  -8.954819e+11   1.966649e+12   2.514197e+11   3.790633e+06   1.551237e-17   0.000000e+00   0.000000e+00
      200000   1.999990e-06   1.615147e+00   7.241443e+00   2.776731e+01   1.015202e+06   2.029498e+05   3.646517e+06  -1.215779e+12   2.185964e+12   2.168325e+11   3.790634e+06   2.066078e-17   0.000000e+00   0.000000e+00
      208000   2.079990e-06   1.692106e+00   7.264919e+00   2.805965e+01   9.041185e+05   3.870499e+05   3.660830e+06  -1.565465e+12   2.419057e+12   1.308866e+11   3.790635e+06   2.726874e-17   0.000000e+00   0.000000e+00
      216000   2.159990e-06   1.759050e+00   7.303859e+00   2.835279e+01   7.647153e+05   5.894655e+05   3.665605e+06  -1.919827e+12   2.644840e+12  -2.477449e+10   3.790636e+06   3.501026e-17   0.000000e+00   0.000000e+00
      224000   2.239990e-06   1.813719e+00   7.359714e+00   2.864572e+01   5.976469e+05   8.096752e+05   3.654610e+06  -2.247154e+12   2.854472e+12  -2.648869e+11   3.790637e+06   4.348767e-17   0.000000e+00   0.000000e+00
      232000   2.319990e-06   1.854034e+00   7.433832e+00   2.893692e+01   4.067579e+05   1.045772e+06   3.620753e+06  -2.507556e+12   3.040632e+12  -5.964729e+11   3.790639e+06   5.207932e-17   0.000000e+00   0.000000e+00
      240000   2.399990e-06   1.878360e+00   7.527391e+00   2.922425e+01   1.995429e+05   1.295062e+06   3.556958e+06  -2.645282e+12   3.177941e+12  -1.008615e+12   3.790640e+06   5.937283e-17   0.000000e+00   0.000000e+00
      248000   2.479990e-06   1.885836e+00   7.641274e+00   2.950509e+01  -1.224142e+04   1.553057e+06   3.457865e+06  -2.616228e+12   3.253600e+12  -1.470519e+12   3.790642e+06   6.422073e-17   0.000000e+00   0.000000e+00
      256000   2.559990e-06   1.876673e+00   7.775963e+00   2.977650e+01  -2.138581e+05   1.814240e+06   3.321413e+06  -2.390719e+12   3.262856e+12  -1.936128e+12   3.790645e+06   6.591691e-17   0.000000e+00   0.000000e+00
      264000   2.639990e-06   1.857172e+00   7.924280e+00   3.004027e+01  -1.987535e+05   1.784776e+06   3.338273e+06   2.289581e+12  -3.537506e+12   2.027676e+12   3.790646e+06   7.167756e-17   0.000000e+00   0.000000e+00
      272000   2.719990e-06   1.848396e+00   8.055642e+00   3.031333e+01  -2.324005e+04   1.498908e+06   3.481630e+06   2.095286e+12  -3.566347e+12   1.549423e+12   3.790648e+06   6.394995e-17   0.000000e+00   0.000000e+00
      280000   2.799990e-06   1.853002e+00   8.164323e+00   3.059629e+01   1.354012e+05   1.221072e+06   3.586039e+06   1.868282e+12  -3.343284e+12   1.067914e+12   3.790650e+06   5.181822e-17   0.000000e+00   0.000000e+00
      288000   2.879990e-06   1.869594e+00   8.251676e+00   3.088613e+01   2.765352e+05   9.678524e+05   3.654562e+06   1.656005e+12  -2.962676e+12   6.593426e+11   3.790651e+06   3.918588e-17   0.000000e+00   0.000000e+00
      296000   2.959990e-06   1.896818e+00   8.320077e+00   3.118025e+01   4.015241e+05   7.481406e+05   3.694335e+06   1.467367e+12  -2.518916e+12   3.506467e+11   3.790652e+06   2.825923e-17   0.000000e+00   0.000000e+00
      304000   3.039990e-06   1.933467e+00   8.372314e+00   3.147667e+01   5.125177e+05   5.635424e+05   3.713327e+06   1.306768e+12  -2.092276e+12   1.371831e+11   3.790653e+06   2.000875e-17   0.000000e+00   0.000000e+00
      312000   3.119990e-06   1.978499e+00   8.411128e+00   3.177401e+01   6.114926e+05   4.119429e+05   3.718257e+06   1.171531e+12  -1.707107e+12  -3.525532e+09   3.790654e+06   1.405154e-17   0.000000e+00   0.000000e+00
      320000   3.199990e-06   2.031040e+00   8.438983e+00   3.207136e+01   7.004828e+05   2.887881e+05   3.714160e+06   1.055379e+12  -1.379709e+12  -9.175722e+10   3.790654e+06   9.918480e-18   0.000000e+00   0.000000e+00
      328000   3.279990e-06   2.090349e+00   8.457974e+00   3.236813e+01   7.809895e+05   1.895692e+05   3.704481e+06   9.607644e+11  -1.111240e+12  -1.456799e+11   3.790654e+06   7.143048e-18   0.000000e+00   0.000000e+00
      336000   3.359990e-06   2.155813e+00   8.469837e+00   3.266398e+01   8.544837e+05   1.100215e+05   3.691451e+06   8.788743e+11  -8.868229e+11  -1.770031e+11   3.790654e+06   5.212540e-18   0.000000e+00   0.000000e+00
      344000   3.439990e-06   2.226907e+00   8.476009e+00   3.295871e+01   9.219775e+05   4.670490e+04   3.676525e+06   8.106909e+11  -7.030656e+11  -1.943656e+11   3.790655e+06   3.898398e-18   0.000000e+00   0.000000e+00
      352000   3.519990e-06   2.303191e+00   8.477663e+00   3.325220e+01   9.843121e+05  -3.352545e+03   3.660626e+06   7.498186e+11  -5.523762e+11  -2.021235e+11   3.790655e+06   2.976983e-18   0.000000e+00   0.000000e+00
      360000   3.599990e-06   2.384279e+00   8.475763e+00   3.354440e+01   1.042221e+06  -4.248727e+04   3.644315e+06   6.985553e+11  -4.295714e+11  -2.047829e+11   3.790655e+06   2.341868e-18   0.000000e+00   0.000000e+00
      368000   3.679990e-06   2.469843e+00   8.471104e+00   3.383529e+01   1.096296e+06  -7.265635e+04   3.627936e+06   6.551368e+11  -3.269350e+11  -2.045162e+11   3.790655e+06   1.894335e-18   0.000000e+00   0.000000e+00
      376000   3.759990e-06   2.559597e+00   8.464340e+00   3.412488e+01   1.147013e+06  -9.529219e+04   3.611696e+06   6.140649e+11  -2.393453e+11  -2.013302e+11   3.790655e+06   1.556639e-18   0.000000e+00   0.000000e+00
      384000   3.839990e-06   2.653287e+00   8.456028e+00   3.441317e+01   1.194786e+06  -1.115839e+05   3.595706e+06   5.806048e+11  -1.695446e+11  -1.981844e+11   3.790655e+06   1.327935e-18   0.000000e+00   0.000000e+00
      392000   3.919990e-06   2.750693e+00   8.446627e+00   3.470020e+01   1.239949e+06  -1.226262e+05   3.580022e+06   5.494583e+11  -1.082417e+11  -1.940128e+11   3.790655e+06   1.151377e-18   0.000000e+00   0.000000e+00
      400000   3.999990e-06   2.851617e+00   8.436526e+00   3.498598e+01   1.282793e+06  -1.291744e+05   3.564663e+06   5.221071e+11  -5.566929e+10  -1.899039e+11   3.790655e+06   1.021890e-18   0.000000e+00   0.000000e+00
      408000   4.079990e-06   2.955884e+00   8.426068e+00   3.527055e+01   1.323546e+06  -1.316352e+05   3.549643e+06   4.970285e+11  -6.115133e+09  -1.855518e+11   3.790655e+06   9.227198e-19   0.000000e+00   0.000000e+00
      416000   4.159990e-06   3.063333e+00   8.415557e+00   3.555393e+01   1.362383e+06  -1.306267e+05   3.534956e+06   4.748349e+11   3.189934e+10  -1.818234e+11   3.790655e+06   8.507409e-19   0.000000e+00   0.000000e+00
      424000   4.239990e-06   3.173820e+00   8.405245e+00   3.583615e+01   1.399496e+06  -1.267284e+05   3.520570e+06   4.531818e+11   6.477265e+10  -1.778164e+11   3.790655e+06   7.905678e-19   0.000000e+00   0.000000e+00
      432000   4.319990e-06   3.287210e+00   8.395344e+00   3.611723e+01   1.435030e+06  -1.204256e+05   3.506459e+06   4.349852e+11   9.073589e+10  -1.749023e+11   3.790655e+06   7.474571e-19   0.000000e+00   0.000000e+00
      440000   4.399990e-06   3.403391e+00   8.386031e+00   3.639719e+01   1.469325e+06  -1.121132e+05   3.492503e+06   4.209181e+11   1.160735e+11  -1.733570e+11   3.790655e+06   7.234023e-19   0.000000e+00   0.000000e+00
      448000   4.479990e-06   3.522269e+00   8.377455e+00   3.667604e+01   1.502401e+06  -1.019563e+05   3.478715e+06   4.061900e+11   1.381524e+11  -1.713773e+11   3.790655e+06   6.996331e-19   0.000000e+00   0.000000e+00
      456000   4.559990e-06   3.643745e+00   8.369765e+00   3.695379e+01   1.534332e+06  -9.007425e+04   3.465080e+06   3.928920e+11   1.551706e+11  -1.699378e+11   3.790655e+06   6.795559e-19   0.000000e+00   0.000000e+00
      464000   4.639990e-06   3.767739e+00   8.363076e+00   3.723045e+01   1.565405e+06  -7.697446e+04   3.451471e+06   3.839073e+11   1.685872e+11  -1.703596e+11   3.790655e+06   6.713871e-19   0.000000e+00   0.000000e+00
      472000   4.719990e-06   3.894191e+00   8.357471e+00   3.750602e+01   1.595785e+06  -6.298396e+04   3.437815e+06   3.761794e+11   1.829275e+11  -1.712651e+11   3.790655e+06   6.696674e-19   0.000000e+00   0.000000e+00
      480000   4.799990e-06   4.023046e+00   8.353021e+00   3.778050e+01   1.625475e+06  -4.816606e+04   3.424117e+06   3.674667e+11   1.882472e+11  -1.717928e+11   3.790655e+06   6.554965e-19   0.000000e+00   0.000000e+00
      488000   4.879990e-06   4.154251e+00   8.349782e+00   3.805388e+01   1.654576e+06  -3.273368e+04   3.410334e+06   3.608486e+11   1.955415e+11  -1.731937e+11   3.790655e+06   6.504578e-19   0.000000e+00   0.000000e+00
      496000   4.959990e-06   4.287764e+00   8.347801e+00   3.832615e+01   1.683162e+06  -1.663649e+04   3.396433e+06   3.544712e+11   2.097296e+11  -1.746365e+11   3.790655e+06   6.559936e-19   0.000000e+00   0.000000e+00
      504000   5.039990e-06   4.423546e+00   8.347137e+00   3.859730e+01   1.711330e+06   6.628454e-01   3.382368e+06   3.507957e+11   2.042815e+11  -1.774868e+11   3.790655e+06   6.433977e-19   0.000000e+00   0.000000e+00
      512000   5.119990e-06   4.561572e+00   8.347803e+00   3.886732e+01   1.739296e+06   1.667396e+04   3.368032e+06   3.475306e+11   2.112533e+11  -1.805146e+11   3.790655e+06   6.489713e-19   0.000000e+00   0.000000e+00
      520000   5.199990e-06   4.701828e+00   8.349807e+00   3.913618e+01   1.767073e+06   3.341491e+04   3.353417e+06   3.464863e+11   2.086678e+11  -1.846586e+11   3.790655e+06   6.479989e-19   0.000000e+00   0.000000e+00
      528000   5.279990e-06   4.844301e+00   8.353146e+00   3.940386e+01   1.794739e+06   5.003408e+04   3.338484e+06   3.450313e+11   2.080754e+11  -1.886036e+11   3.790655e+06   6.487152e-19   0.000000e+00   0.000000e+00
      536000   5.359990e-06   4.988984e+00   8.357815e+00   3.967033e+01   1.822357e+06   6.664816e+04   3.323197e+06   3.462816e+11   2.057102e+11  -1.940171e+11   3.790655e+06   6.551304e-19   0.000000e+00   0.000000e+00
      544000   5.439990e-06   5.135883e+00   8.363806e+00   3.993556e+01   1.850163e+06   8.305737e+04   3.307426e+06   3.495822e+11   2.016588e+11  -2.006185e+11   3.790655e+06   6.657878e-19   0.000000e+00   0.000000e+00
      552000   5.519990e-06   5.285018e+00   8.371090e+00   4.019950e+01   1.878250e+06   9.890918e+04   3.291118e+06   3.529993e+11   1.926201e+11  -2.072460e+11   3.790655e+06   6.708365e-19   0.000000e+00   0.000000e+00
      560000   5.599990e-06   5.436412e+00   8.379621e+00   4.046212e+01   1.906642e+06   1.143193e+05   3.274251e+06   3.564736e+11   1.899063e+11  -2.142094e+11   3.790655e+06   6.851328e-19   0.000000e+00   0.000000e+00
      568000   5.679990e-06   5.590090e+00   8.389369e+00   4.072337e+01   1.935408e+06   1.292343e+05   3.256772e+06   3.619787e+11   1.896600e+11  -2.226391e+11   3.790655e+06   7.098570e-19   0.000000e+00   0.000000e+00
      576000   5.759990e-06   5.746089e+00   8.400291e+00   4.098319e+01   1.964658e+06   1.436794e+05   3.238602e+06   3.692673e+11   1.722503e+11  -2.316526e+11   3.790656e+06   7.200980e-19   0.000000e+00   0.000000e+00
      584000   5.839990e-06   5.904454e+00   8.412324e+00   4.124152e+01   1.994563e+06   1.569693e+05   3.219650e+06   3.780293e+11   1.605104e+11  -2.420127e+11   3.790656e+06   7.448396e-19   0.000000e+00   0.000000e+00
      592000   5.919990e-06   6.065238e+00   8.425379e+00   4.149831e+01   2.025180e+06   1.692154e+05   3.199857e+06   3.874665e+11   1.458372e+11  -2.529378e+11   3.790656e+06   7.715088e-19   0.000000e+00   0.000000e+00
      600000   5.999990e-06   6.228501e+00   8.439383e+00   4.175348e+01   2.056533e+06   1.807468e+05   3.179163e+06   3.965085e+11   1.405611e+11  -2.644835e+11   3.790656e+06   8.093701e-19   0.000000e+00   0.000000e+00
      608000   6.079990e-06   6.394304e+00   8.454274e+00   4.200695e+01   2.088688e+06   1.913026e+05   3.157508e+06   4.067253e+11   1.276959e+11  -2.767843e+11   3.790656e+06   8.467807e-19   0.000000e+00   0.000000e+00
      616000   6.159990e-06   6.562713e+00   8.469965e+00   4.225865e+01   2.121676e+06   2.007796e+05   3.134844e+06   4.187304e+11   1.092856e+11  -2.903972e+11   3.790656e+06   8.902685e-19   0.000000e+00   0.000000e+00
      624000   6.239990e-06   6.733801e+00   8.486362e+00   4.250849e+01   2.155701e+06   2.089167e+05   3.111009e+06   4.320009e+11   8.858194e+10  -3.052926e+11   3.790656e+06   9.429297e-19   0.000000e+00   0.000000e+00
      632000   6.319990e-06   6.907655e+00   8.503338e+00   4.275638e+01   2.190838e+06   2.154275e+05   3.085918e+06   4.463307e+11   8.113016e+10  -3.225337e+11   3.790656e+06   1.015517e-18   0.000000e+00   0.000000e+00
      640000   6.399990e-06   7.084364e+00   8.520819e+00   4.300220e+01   2.227091e+06   2.213291e+05   3.059436e+06   4.602986e+11   6.720372e+10  -3.399311e+11   3.790656e+06   1.088030e-18   0.000000e+00   0.000000e+00
      648000   6.479990e-06   7.264020e+00   8.538725e+00   4.324585e+01   2.264482e+06   2.261153e+05   3.031512e+06   4.751917e+11   4.771393e+10  -3.585170e+11   3.790656e+06   1.168906e-18   0.000000e+00   0.000000e+00
      656000   6.559990e-06   7.446715e+00   8.556948e+00   4.348720e+01   2.303109e+06   2.292769e+05   3.002031e+06   4.904501e+11   3.271402e+10  -3.787625e+11   3.790656e+06   1.262172e-18   0.000000e+00   0.000000e+00
      664000   6.639990e-06   7.632548e+00   8.575388e+00   4.372613e+01   2.342917e+06   2.316435e+05   2.970884e+06   5.057721e+11   1.876413e+10  -4.003267e+11   3.790656e+06   1.364915e-18   0.000000e+00   0.000000e+00
      672000   6.719990e-06   7.821618e+00   8.593955e+00   4.396250e+01   2.384000e+06   2.325259e+05   2.937949e+06   5.195112e+11   1.508438e+10  -4.227500e+11   3.790656e+06   1.471178e-18   0.000000e+00   0.000000e+00
      680000   6.799990e-06   8.014018e+00   8.612577e+00   4.419615e+01   2.426261e+06   2.325932e+05   2.903142e+06   5.370055e+11  -1.325009e+10  -4.477317e+11   3.790656e+06   1.602865e-18   0.000000e+00   0.000000e+00
      688000   6.879990e-06   8.209856e+00   8.631118e+00   4.442694e+01   2.469899e+06   2.307552e+05   2.866256e+06   5.534360e+11  -2.946731e+10  -4.745305e+11   3.790656e+06   1.744875e-18   0.000000e+00   0.000000e+00
      696000   6.959990e-06   8.409235e+00   8.649480e+00   4.465470e+01   2.514782e+06   2.280042e+05   2.827182e+06   5.689484e+11  -4.686593e+10  -5.022987e+11   3.790656e+06   1.895201e-18   0.000000e+00   0.000000e+00
      704000   7.039990e-06   8.612256e+00   8.667558e+00   4.487923e+01   2.560947e+06   2.239468e+05   2.785762e+06   5.836136e+11  -4.152738e+10  -5.331746e+11   3.790656e+06   2.053857e-18   0.000000e+00   0.000000e+00
      712000   7.119990e-06   8.819018e+00   8.685302e+00   4.510035e+01   2.608343e+06   2.192733e+05   2.741814e+06   6.011081e+11  -7.678801e+10  -5.657028e+11   3.790656e+06   2.252625e-18   0.000000e+00   0.000000e+00
      720000   7.199990e-06   9.029623e+00   8.702593e+00   4.531785e+01   2.656976e+06   2.128361e+05   2.695228e+06   6.152588e+11  -8.843569e+10  -5.995402e+11   3.790656e+06   2.444582e-18   0.000000e+00   0.000000e+00
      728000   7.279990e-06   9.244168e+00   8.719306e+00   4.553151e+01   2.706852e+06   2.047315e+05   2.645772e+06   6.301097e+11  -1.029197e+11  -6.366893e+11   3.790656e+06   2.664830e-18   0.000000e+00   0.000000e+00
      736000   7.359990e-06   9.462747e+00   8.735348e+00   4.574110e+01   2.757797e+06   1.960895e+05   2.593296e+06   6.439539e+11  -1.168854e+11  -6.759604e+11   3.790656e+06   2.901664e-18   0.000000e+00   0.000000e+00
      744000   7.439990e-06   9.685443e+00   8.750655e+00   4.594635e+01   2.809763e+06   1.865100e+05   2.537621e+06   6.550778e+11  -1.248087e+11  -7.161532e+11   3.790657e+06   3.138708e-18   0.000000e+00   0.000000e+00
      752000   7.519990e-06   9.912334e+00   8.765154e+00   4.614703e+01   2.862647e+06   1.757939e+05   2.478594e+06   6.662290e+11  -1.373500e+11  -7.597142e+11   3.790657e+06   3.408504e-18   0.000000e+00   0.000000e+00
      760000   7.599990e-06   1.014349e+01   8.778767e+00   4.634283e+01   2.916344e+06   1.643824e+05   2.415988e+06   6.760926e+11  -1.507233e+11  -8.058530e+11   3.790657e+06   3.701294e-18   0.000000e+00   0.000000e+00
      768000   7.679990e-06   1.037897e+01   8.791421e+00   4.653348e+01   2.970754e+06   1.519909e+05   2.349595e+06   6.837800e+11  -1.540888e+11  -8.545770e+11   3.790657e+06   4.004101e-18   0.000000e+00   0.000000e+00
      776000   7.759990e-06   1.061882e+01   8.803070e+00   4.671866e+01   3.025687e+06   1.390675e+05   2.279246e+06   6.895956e+11  -1.647583e+11  -9.053760e+11   3.790657e+06   4.334481e-18   0.000000e+00   0.000000e+00
      784000   7.839990e-06   1.086309e+01   8.813665e+00   4.689805e+01   3.080972e+06   1.257065e+05   2.204743e+06   6.921877e+11  -1.728042e+11  -9.574239e+11   3.790657e+06   4.672917e-18   0.000000e+00   0.000000e+00
      792000   7.919990e-06   1.111178e+01   8.823177e+00   4.707131e+01   3.136401e+06   1.119692e+05   2.125919e+06   6.929590e+11  -1.721609e+11  -1.013258e+12   3.790657e+06   5.036351e-18   0.000000e+00   0.000000e+00
      800000   7.999990e-06   1.136491e+01   8.831578e+00   4.723808e+01   3.191769e+06   9.817554e+04   2.042561e+06   6.904124e+11  -1.681029e+11  -1.070772e+12   3.790657e+06   5.413148e-18   0.000000e+00   0.000000e+00
      808000   8.079990e-06   1.162246e+01   8.838885e+00   4.739799e+01   3.246836e+06   8.436719e+04   1.954488e+06   6.858289e+11  -1.739292e+11  -1.131796e+12   3.790658e+06   5.839564e-18   0.000000e+00   0.000000e+00
      816000   8.159990e-06   1.188439e+01   8.845094e+00   4.755067e+01   3.301339e+06   7.090042e+04   1.861511e+06   6.764081e+11  -1.677825e+11  -1.193191e+12   3.790658e+06   6.258494e-18   0.000000e+00   0.000000e+00
      824000   8.239990e-06   1.215065e+01   8.850239e+00   4.769570e+01   3.354969e+06   5.775826e+04   1.763500e+06   6.635177e+11  -1.593986e+11  -1.257077e+12   3.790658e+06   6.705986e-18   0.000000e+00   0.000000e+00
      832000   8.319990e-06   1.242115e+01   8.854352e+00   4.783269e+01   3.407413e+06   4.523307e+04   1.660295e+06   6.466078e+11  -1.509683e+11  -1.322903e+12   3.790658e+06   7.181458e-18   0.000000e+00   0.000000e+00
      840000   8.399990e-06   1.269579e+01   8.857506e+00   4.796121e+01   3.458323e+06   3.378310e+04   1.551759e+06   6.253577e+11  -1.354399e+11  -1.390738e+12   3.790659e+06   7.681654e-18   0.000000e+00   0.000000e+00
      848000   8.479990e-06   1.297443e+01   8.859798e+00   4.808082e+01   3.507315e+06   2.373340e+04   1.437800e+06   5.984628e+11  -1.171397e+11  -1.457916e+12   3.790659e+06   8.185883e-18   0.000000e+00   0.000000e+00
      856000   8.559990e-06   1.325690e+01   8.861337e+00   4.819111e+01   3.553977e+06   1.497413e+04   1.318377e+06   5.669924e+11  -1.007225e+11  -1.527289e+12   3.790659e+06   8.732741e-18   0.000000e+00   0.000000e+00
      864000   8.639990e-06   1.354300e+01   8.862236e+00   4.829162e+01   3.597904e+06   7.761260e+03   1.193368e+06   5.302449e+11  -7.992645e+10  -1.598100e+12   3.790659e+06   9.313674e-18   0.000000e+00   0.000000e+00
      872000   8.719990e-06   1.383248e+01   8.862635e+00   4.838190e+01   3.638630e+06   2.570979e+03   1.062762e+06   4.872092e+11  -5.317684e+10  -1.667925e+12   3.790660e+06   9.905977e-18   0.000000e+00   0.000000e+00
      880000   8.799990e-06   1.412508e+01   8.862707e+00   4.846151e+01   3.675660e+06  -2.772203e+02   9.266222e+05   4.376072e+11  -1.668171e+10  -1.735840e+12   3.790660e+06   1.050497e-17   0.000000e+00   0.000000e+00
      888000   8.879990e-06   1.442047e+01   8.862671e+00   4.853001e+01   3.708480e+06  -1.332173e+02   7.850339e+05   3.818450e+11   1.985840e+10  -1.803780e+12   3.790660e+06   1.114382e-17   0.000000e+00   0.000000e+00
      896000   8.959990e-06   1.471831e+01   8.862764e+00   4.858697e+01   3.736568e+06   2.963458e+03   6.380886e+05   3.192546e+11   6.048093e+10  -1.869740e+12   3.790661e+06   1.180491e-17   0.000000e+00   0.000000e+00
      904000   9.039990e-06   1.501818e+01   8.863238e+00   4.863197e+01   3.759375e+06   9.424248e+03   4.859235e+05   2.497560e+11   1.018003e+11  -1.934148e+12   3.790661e+06   1.250033e-17   0.000000e+00   0.000000e+00
      912000   9.119990e-06   1.531965e+01   8.864364e+00   4.866458e+01   3.776331e+06   1.943634e+04   3.287209e+05   1.729864e+11   1.479166e+11  -1.995884e+12   3.790661e+06   1.322696e-17   0.000000e+00   0.000000e+00
      920000   9.199990e-06   1.562222e+01   8.866448e+00   4.868443e+01   3.786847e+06   3.336598e+04   1.667167e+05   8.862918e+10   1.999452e+11  -2.052907e+12   3.790662e+06   1.397072e-17   0.000000e+00   0.000000e+00
      928000   9.279990e-06   1.592536e+01   8.869817e+00   4.869114e+01   3.790311e+06   5.164792e+04   3.154624e+02  -3.257781e+09   2.528184e+11  -2.106529e+12   3.790662e+06   1.475454e-17   0.000000e+00   0.000000e+00
      936000   9.359990e-06   1.622847e+01   8.874824e+00   4.868437e+01   3.786113e+06   7.430345e+04  -1.701558e+05  -1.029089e+11   3.118954e+11  -2.153891e+12   3.790663e+06   1.555998e-17   0.000000e+00   0.000000e+00
      944000   9.439990e-06   1.653092e+01   8.881820e+00   4.866382e+01   3.773644e+06   1.013386e+05  -3.441968e+05  -2.101296e+11   3.665792e+11  -2.195999e+12   3.790663e+06   1.639197e-17   0.000000e+00   0.000000e+00
      952000   9.519990e-06   1.683202e+01   8.891171e+00   4.862922e+01   3.752282e+06   1.332770e+05  -5.212982e+05  -3.251305e+11   4.304368e+11  -2.230329e+12   3.790664e+06   1.725864e-17   0.000000e+00   0.000000e+00
      960000   9.599990e-06   1.713103e+01   8.903276e+00   4.858035e+01   3.721414e+06   1.701461e+05  -7.009029e+05  -4.478132e+11   4.909353e+11  -2.258548e+12   3.790665e+06   1.816738e-17   0.000000e+00   0.000000e+00
      968000   9.679990e-06   1.742717e+01   8.918530e+00   4.851703e+01   3.680424e+06   2.120342e+05  -8.824167e+05  -5.781857e+11   5.553549e+11  -2.278145e+12   3.790665e+06   1.911816e-17   0.000000e+00   0.000000e+00
      976000   9.759990e-06   1.771961e+01   8.937334e+00   4.843913e+01   3.628706e+06   2.589266e+05  -1.065176e+06  -7.159562e+11   6.187189e+11  -2.288686e+12   3.790666e+06   2.010422e-17   0.000000e+00   0.000000e+00
      984000   9.839990e-06   1.800746e+01   8.960096e+00   4.834659e+01   3.565673e+06   3.109521e+05  -1.248373e+06  -8.610124e+11   6.826931e+11  -2.289274e+12   3.790666e+06   2.113575e-17   0.000000e+00   0.000000e+00
      992000   9.919990e-06   1.828980e+01   8.987219e+00   4.823940e+01   3.490756e+06   3.679288e+05  -1.431226e+06  -1.013013e+12   7.436371e+11  -2.279614e+12   3.790667e+06   2.220970e-17   0.000000e+00   0.000000e+00
     1000000   9.999990e-06   1.856565e+01   9.019097e+00   4.811762e+01   3.403380e+06   4.297779e+05  -1.612904e+06  -1.172033e+12   8.012798e+11  -2.259633e+12   3.790668e+06   2.334324e-17   0.000000e+00   0.000000e+00
     1008000   1.007999e-05   1.883400e+01   9.056105e+00   4.798139e+01   3.303049e+06   4.961815e+05  -1.792440e+06  -1.337466e+12   8.586578e+11  -2.226987e+12   3.790669e+06   2.453611e-17   0.000000e+00   0.000000e+00
     1016000   1.015999e-05   1.909378e+01   9.098599e+00   4.783091e+01   3.189276e+06   5.667740e+05  -1.968872e+06  -1.507584e+12   9.043392e+11  -2.181769e+12   3.790669e+06   2.573309e-17   0.000000e+00   0.000000e+00
     1024000   1.023999e-05   1.934391e+01   9.146900e+00   4.766648e+01   3.061554e+06   6.414237e+05  -2.141179e+06  -1.685592e+12   9.579204e+11  -2.123214e+12   3.790670e+06   2.709704e-17   0.000000e+00   0.000000e+00
     1032000   1.031999e-05   1.958324e+01   9.201328e+00   4.748846e+01   2.919412e+06   7.198890e+05  -2.308242e+06  -1.869232e+12   1.003632e+12  -2.051190e+12   3.790671e+06   2.854523e-17   0.000000e+00   0.000000e+00
     1040000   1.039999e-05   1.981062e+01   9.262171e+00   4.729733e+01   2.762455e+06   8.017402e+05  -2.468856e+06  -2.056968e+12   1.045870e+12  -1.961985e+12   3.790672e+06   3.007159e-17   0.000000e+00   0.000000e+00
     1048000   1.047999e-05   2.002483e+01   9.329686e+00   4.709365e+01   2.590306e+06   8.865520e+05  -2.621744e+06  -2.248645e+12   1.076854e+12  -1.857577e+12   3.790673e+06   3.168514e-17   0.000000e+00   0.000000e+00
     1056000   1.055999e-05   2.022465e+01   9.404085e+00   4.687810e+01   2.402654e+06   9.737649e+05  -2.765546e+06  -2.442851e+12   1.100092e+12  -1.734990e+12   3.790674e+06   3.339387e-17   0.000000e+00   0.000000e+00
     1064000   1.063999e-05   2.040884e+01   9.485532e+00   4.665145e+01   2.199314e+06   1.062694e+06  -2.898779e+06  -2.642249e+12   1.123023e+12  -1.593020e+12   3.790675e+06   3.533583e-17   0.000000e+00   0.000000e+00
     1072000   1.071999e-05   2.057612e+01   9.574156e+00   4.641462e+01   1.979985e+06   1.153015e+06  -3.019842e+06  -2.839453e+12   1.132091e+12  -1.429502e+12   3.790676e+06   3.732623e-17   0.000000e+00   0.000000e+00
     1080000   1.079999e-05   2.072521e+01   9.670033e+00   4.616864e+01   1.744643e+06   1.243936e+06  -3.126992e+06  -3.040238e+12   1.134824e+12  -1.244839e+12   3.790678e+06   3.959741e-17   0.000000e+00   0.000000e+00
     1088000   1.087999e-05   2.085484e+01   9.773180e+00   4.591472e+01   1.493394e+06   1.334747e+06  -3.218303e+06  -3.240434e+12   1.133279e+12  -1.033691e+12   3.790679e+06   4.213035e-17   0.000000e+00   0.000000e+00
     1096000   1.095999e-05   2.096374e+01   9.883568e+00   4.565419e+01   1.226537e+06   1.424705e+06  -3.291668e+06  -3.429597e+12   1.113954e+12  -7.958297e+11   3.790680e+06   4.469732e-17   0.000000e+00   0.000000e+00
     1104000   1.103999e-05   2.105068e+01   1.000109e+01   4.538859e+01   9.447166e+05   1.512894e+06  -3.344837e+06  -3.616148e+12   1.089288e+12  -5.286964e+11   3.790682e+06   4.766772e-17   0.000000e+00   0.000000e+00
     1112000   1.111999e-05   2.111450e+01   1.012557e+01   4.511962e+01   6.483822e+05   1.598641e+06  -3.375385e+06  -3.792160e+12   1.053123e+12  -2.297098e+11   3.790683e+06   5.094462e-17   0.000000e+00   0.000000e+00
     1120000   1.119999e-05   2.115406e+01   1.025678e+01   4.484920e+01   3.384167e+05   1.681049e+06  -3.380657e+06  -3.950753e+12   1.003862e+12   1.036408e+11   3.790685e+06   5.449985e-17   0.000000e+00   0.000000e+00
     1128000   1.127999e-05   2.116834e+01   1.039442e+01   4.457947e+01   1.681188e+04   1.758952e+06  -3.357843e+06  -4.089364e+12   9.402454e+11   4.720049e+11   3.790687e+06   5.844250e-17   0.000000e+00   0.000000e+00
     1136000   1.135999e-05   2.115648e+01   1.053806e+01   4.431277e+01  -3.147768e+05   1.831114e+06  -3.304128e+06  -4.193882e+12   8.606816e+11   8.764647e+11   3.790689e+06   6.259840e-17   0.000000e+00   0.000000e+00
     1144000   1.143999e-05   2.111780e+01   1.068721e+01   4.405171e+01  -6.530665e+05   1.896262e+06  -3.216680e+06  -4.258443e+12   7.650875e+11   1.315533e+12   3.790691e+06   6.703236e-17   0.000000e+00   0.000000e+00
     1152000   1.151999e-05   2.105189e+01   1.084123e+01   4.379907e+01  -9.949379e+05   1.952884e+06  -3.092846e+06  -4.281011e+12   6.469379e+11   1.785577e+12   3.790693e+06   7.189525e-17   0.000000e+00   0.000000e+00
     1160000   1.159999e-05   2.095862e+01   1.099940e+01   4.355788e+01  -1.336211e+06   1.999374e+06  -2.930259e+06  -4.239333e+12   5.127224e+11   2.282915e+12   3.790696e+06   7.685356e-17   0.000000e+00   0.000000e+00
     1168000   1.167999e-05   2.083823e+01   1.116081e+01   4.333132e+01  -1.672290e+06   2.033883e+06  -2.726932e+06  -4.143784e+12   3.495199e+11   2.801772e+12   3.790698e+06   8.241462e-17   0.000000e+00   0.000000e+00
     1176000   1.175999e-05   2.069135e+01   1.132445e+01   4.312269e+01  -1.997253e+06   2.054552e+06  -2.481776e+06  -3.964178e+12   1.662208e+11   3.327741e+12   3.790701e+06   8.789909e-17   0.000000e+00   0.000000e+00
     1184000   1.183999e-05   2.051914e+01   1.148912e+01   4.293535e+01  -2.304650e+06   2.059216e+06  -2.194915e+06  -3.710087e+12  -5.788538e+10   3.841135e+12   3.790704e+06   9.349196e-17   0.000000e+00   0.000000e+00
     1192000   1.191999e-05   2.032325e+01   1.165342e+01   4.277258e+01  -2.587884e+06   2.045301e+06  -1.867903e+06  -3.355576e+12  -2.939362e+11   4.326965e+12   3.790707e+06   9.856142e-17   0.000000e+00   0.000000e+00
     1200000   1.199999e-05   2.010592e+01   1.181583e+01   4.263747e+01  -2.839482e+06   2.011164e+06  -1.504010e+06  -2.917336e+12  -5.591178e+11   4.759895e+12   3.790710e+06   1.031872e-16   0.000000e+00   0.000000e+00
     1208000   1.207999e-05   1.986996e+01   1.197463e+01   4.253279e+01  -3.052576e+06   1.955251e+06  -1.108279e+06  -2.397253e+12  -8.414578e+11   5.118035e+12   3.790714e+06   1.070197e-16   0.000000e+00   0.000000e+00
     1216000   1.215999e-05   1.961868e+01   1.212803e+01   4.246082e+01  -3.221623e+06   1.875676e+06  -6.874017e+05  -1.817937e+12  -1.148318e+12   5.386226e+12   3.790717e+06   1.102513e-16   0.000000e+00   0.000000e+00
     1224000   1.223999e-05   1.935581e+01   1.227410e+01   4.242325e+01  -3.341718e+06   1.772059e+06  -2.495758e+05  -1.178851e+12  -1.442332e+12   5.541994e+12   3.790721e+06   1.120504e-16   0.000000e+00   0.000000e+00
     1232000   1.231999e-05   1.908539e+01   1.241091e+01   4.242109e+01  -3.409895e+06   1.644335e+06   1.958800e+05  -5.199584e+11  -1.742083e+12   5.574371e+12   3.790724e+06   1.126903e-16   0.000000e+00   0.000000e+00
     1240000   1.239999e-05   1.881165e+01   1.253659e+01   4.245454e+01  -3.424877e+06   1.493720e+06   6.392460e+05   1.406934e+11  -2.025580e+12   5.487478e+12   3.790728e+06   1.122199e-16   0.000000e+00   0.000000e+00
     1248000   1.247999e-05   1.853880e+01   1.264933e+01   4.252305e+01  -3.387816e+06   1.321380e+06   1.070655e+06   7.802152e+11  -2.277040e+12   5.279384e+12   3.790731e+06   1.103530e-16   0.000000e+00   0.000000e+00
     1256000   1.255999e-05   1.827092e+01   1.274752e+01   4.262529e+01  -3.301146e+06   1.130485e+06   1.481254e+06   1.374150e+12  -2.496423e+12   4.967932e+12   3.790735e+06   1.075186e-16   0.000000e+00   0.000000e+00
     1264000   1.263999e-05   1.801181e+01   1.282975e+01   4.275928e+01  -3.169685e+06   9.227536e+05   1.863148e+06   1.904609e+12  -2.679996e+12   4.567700e+12   3.790738e+06   1.038249e-16   0.000000e+00   0.000000e+00
     1272000   1.271999e-05   1.776484e+01   1.289484e+01   4.292246e+01  -2.998439e+06   7.030027e+05   2.210175e+06   2.364345e+12  -2.802204e+12   4.099042e+12   3.790742e+06   9.914035e-17   0.000000e+00   0.000000e+00
     1280000   1.279999e-05   1.753295e+01   1.294200e+01   4.311186e+01  -2.793671e+06   4.747117e+05   2.517896e+06   2.741780e+12  -2.894867e+12   3.587975e+12   3.790745e+06   9.431072e-17   0.000000e+00   0.000000e+00
     1288000   1.287999e-05   1.731857e+01   1.297066e+01   4.332420e+01  -2.561837e+06   2.410534e+05   2.783640e+06   3.039493e+12  -2.937733e+12   3.051799e+12   3.790748e+06   8.910258e-17   0.000000e+00   0.000000e+00
     1296000   1.295999e-05   1.712361e+01   1.298054e+01   4.355609e+01  -2.309213e+06   5.960279e+03   3.006209e+06   3.262538e+12  -2.934983e+12   2.512016e+12   3.790751e+06   8.381281e-17   0.000000e+00   0.000000e+00
     1304000   1.303999e-05   1.694950e+01   1.297164e+01   4.380405e+01  -2.041540e+06  -2.279489e+05   3.185901e+06   3.418968e+12  -2.906781e+12   1.982988e+12   3.790753e+06   7.890405e-17   0.000000e+00   0.000000e+00
     1312000   1.311999e-05   1.679723e+01   1.294418e+01   4.406472e+01  -1.763835e+06  -4.575681e+05   3.324056e+06   3.513625e+12  -2.832635e+12   1.474571e+12   3.790756e+06   7.389792e-17   0.000000e+00   0.000000e+00
     1320000   1.319999e-05   1.666743e+01   1.289860e+01   4.433485e+01  -1.480536e+06  -6.806310e+05   3.422660e+06   3.558154e+12  -2.736426e+12   9.950426e+11   3.790758e+06   6.929199e-17   0.000000e+00   0.000000e+00
     1328000   1.327999e-05   1.656039e+01   1.283550e+01   4.461136e+01  -1.195376e+06  -8.955645e+05   3.484093e+06   3.562254e+12  -2.629809e+12   5.462742e+11   3.790760e+06   6.524494e-17   0.000000e+00   0.000000e+00
     1336000   1.335999e-05   1.647614e+01   1.275557e+01   4.489138e+01  -9.115602e+05  -1.100877e+06   3.510983e+06   3.527357e+12  -2.500309e+12   1.318867e+11   3.790762e+06   6.133511e-17   0.000000e+00   0.000000e+00
     1344000   1.343999e-05   1.641443e+01   1.265966e+01   4.517227e+01  -6.320498e+05  -1.295085e+06   3.506160e+06   3.459439e+12  -2.356270e+12  -2.466677e+11   3.790764e+06   5.762901e-17   0.000000e+00   0.000000e+00
     1352000   1.351999e-05   1.637484e+01   1.254867e+01   4.545160e+01  -3.588606e+05  -1.477642e+06   3.472420e+06   3.373438e+12  -2.208488e+12  -5.911138e+11   3.790766e+06   5.443741e-17   0.000000e+00   0.000000e+00
     1360000   1.359999e-05   1.635681e+01   1.242356e+01   4.572716e+01  -9.343424e+04  -1.648054e+06   3.412493e+06   3.264342e+12  -2.052840e+12  -9.019895e+11   3.790768e+06   5.141100e-17   0.000000e+00   0.000000e+00
     1368000   1.367999e-05   1.635965e+01   1.228531e+01   4.599697e+01   1.627616e+05  -1.805925e+06   3.328975e+06   3.143056e+12  -1.893100e+12  -1.180609e+12   3.790769e+06   4.869948e-17   0.000000e+00   0.000000e+00
     1376000   1.375999e-05   1.638256e+01   1.213495e+01   4.625923e+01   4.082565e+05  -1.951169e+06   3.224315e+06   2.996663e+12  -1.736930e+12  -1.430478e+12   3.790771e+06   4.603362e-17   0.000000e+00   0.000000e+00
     1384000   1.383999e-05   1.642466e+01   1.197346e+01   4.651235e+01   6.423844e+05  -2.083783e+06   3.100830e+06   2.853808e+12  -1.579179e+12  -1.652388e+12   3.790772e+06   4.382171e-17   0.000000e+00   0.000000e+00
     1392000   1.391999e-05   1.648502e+01   1.180187e+01   4.675492e+01   8.643693e+05  -2.203949e+06   2.960648e+06   2.697211e+12  -1.424812e+12  -1.848066e+12   3.790773e+06   4.169749e-17   0.000000e+00   0.000000e+00
     1400000   1.399999e-05   1.656263e+01   1.162116e+01   4.698566e+01   1.073848e+06  -2.311873e+06   2.805720e+06   2.533081e+12  -1.275123e+12  -2.020139e+12   3.790775e+06   3.974063e-17   0.000000e+00   0.000000e+00
     1408000   1.407999e-05   1.665647e+01   1.143229e+01   4.720349e+01   1.269776e+06  -2.407953e+06   2.638070e+06   2.368919e+12  -1.126157e+12  -2.168106e+12   3.790776e+06   3.796159e-17   0.000000e+00   0.000000e+00
     1416000   1.415999e-05   1.676544e+01   1.123620e+01   4.740746e+01   1.452296e+06  -2.492383e+06   2.459442e+06   2.197447e+12  -9.833350e+11  -2.294049e+12   3.790777e+06   3.624948e-17   0.000000e+00   0.000000e+00
     1424000   1.423999e-05   1.688847e+01   1.103381e+01   4.759676e+01   1.621116e+06  -2.565557e+06   2.271542e+06   2.021519e+12  -8.482852e+11  -2.400719e+12   3.790778e+06   3.464722e-17   0.000000e+00   0.000000e+00
     1432000   1.431999e-05   1.702445e+01   1.082600e+01   4.777070e+01   1.775888e+06  -2.628015e+06   2.075997e+06   1.842331e+12  -7.184057e+11  -2.485386e+12   3.790779e+06   3.306676e-17   0.000000e+00   0.000000e+00
     1440000   1.439999e-05   1.717223e+01   1.061359e+01   4.792875e+01   1.916345e+06  -2.680380e+06   1.874353e+06   1.666343e+12  -5.933476e+11  -2.552129e+12   3.790781e+06   3.160704e-17   0.000000e+00   0.000000e+00
     1448000   1.447999e-05   1.733069e+01   1.039739e+01   4.807048e+01   2.042639e+06  -2.723045e+06   1.668136e+06   1.486653e+12  -4.779077e+11  -2.600487e+12   3.790781e+06   3.016128e-17   0.000000e+00   0.000000e+00
     1456000   1.455999e-05   1.749866e+01   1.017814e+01   4.819557e+01   2.154458e+06  -2.756917e+06   1.458681e+06   1.313980e+12  -3.658944e+11  -2.632218e+12   3.790782e+06   2.881050e-17   0.000000e+00   0.000000e+00
     1464000   1.463999e-05   1.767502e+01   9.956510e+00   4.830382e+01   2.252237e+06  -2.782395e+06   1.247294e+06   1.136843e+12  -2.669629e+11  -2.648255e+12   3.790783e+06   2.745978e-17   0.000000e+00   0.000000e+00
     1472000   1.471999e-05   1.785866e+01   9.733164e+00   4.839512e+01   2.336266e+06  -2.800030e+06   1.035247e+06   9.646918e+11  -1.749594e+11  -2.650177e+12   3.790784e+06   2.617398e-17   0.000000e+00   0.000000e+00
     1480000   1.479999e-05   1.804847e+01   9.508700e+00   4.846947e+01   2.406795e+06  -2.810479e+06   8.237716e+05   7.959408e+11  -9.096838e+10  -2.635749e+12   3.790785e+06   2.487684e-17   0.000000e+00   0.000000e+00
     1488000   1.487999e-05   1.824339e+01   9.283660e+00   4.852696e+01   2.464207e+06  -2.814411e+06   6.138646e+05   6.399827e+11  -8.725105e+09  -2.608937e+12   3.790786e+06   2.365494e-17   0.000000e+00   0.000000e+00
     1496000   1.495999e-05   1.844241e+01   9.058556e+00   4.856776e+01   2.509194e+06  -2.812235e+06   4.066210e+05   4.870427e+11   6.283238e+10  -2.570740e+12   3.790787e+06   2.245406e-17   0.000000e+00   0.000000e+00
     1504000   1.503999e-05   1.864455e+01   8.833850e+00   4.859212e+01   2.542342e+06  -2.804530e+06   2.029228e+05   3.429757e+11   1.285576e+11  -2.519938e+12   3.790787e+06   2.125557e-17   0.000000e+00   0.000000e+00
     1512000   1.511999e-05   1.884889e+01   8.609966e+00   4.860034e+01   2.564314e+06  -2.791837e+06   3.543506e+03   2.060624e+11   1.861228e+11  -2.461593e+12   3.790788e+06   2.011581e-17   0.000000e+00   0.000000e+00
     1520000   1.519999e-05   1.905455e+01   8.387271e+00   4.859282e+01   2.575593e+06  -2.774888e+06  -1.907757e+05   7.825753e+10   2.372269e+11  -2.394311e+12   3.790789e+06   1.899663e-17   0.000000e+00   0.000000e+00
     1528000   1.527999e-05   1.926073e+01   8.166093e+00   4.856997e+01   2.577238e+06  -2.753910e+06  -3.793554e+05  -3.585452e+10   2.860366e+11  -2.320197e+12   3.790789e+06   1.791911e-17   0.000000e+00   0.000000e+00
     1536000   1.535999e-05   1.946667e+01   7.946739e+00   4.853228e+01   2.569959e+06  -2.729420e+06  -5.618375e+05  -1.438924e+11   3.257113e+11  -2.240598e+12   3.790790e+06   1.687231e-17   0.000000e+00   0.000000e+00
     1544000   1.543999e-05   1.967171e+01   7.729473e+00   4.848026e+01   2.554755e+06  -2.701690e+06  -7.376894e+05  -2.355781e+11   3.657358e+11  -2.155375e+12   3.790790e+06   1.584901e-17   0.000000e+00   0.000000e+00
     1552000   1.551999e-05   1.987525e+01   7.514546e+00   4.841444e+01   2.532527e+06  -2.671041e+06  -9.066113e+05  -3.190745e+11   3.993312e+11  -2.067854e+12   3.790791e+06   1.487344e-17   0.000000e+00   0.000000e+00
     1560000   1.559999e-05   2.007675e+01   7.302176e+00   4.833539e+01   2.504085e+06  -2.637824e+06  -1.068431e+06  -3.908651e+11   4.301250e+11  -1.978038e+12   3.790791e+06   1.393305e-17   0.000000e+00   0.000000e+00
     1568000   1.567999e-05   2.027575e+01   7.092550e+00   4.824368e+01   2.470098e+06  -2.602494e+06  -1.223005e+06  -4.568240e+11   4.531770e+11  -1.887016e+12   3.790792e+06   1.302986e-17   0.000000e+00   0.000000e+00
     1576000   1.575999e-05   2.047184e+01   6.885829e+00   4.813990e+01   2.431450e+06  -2.565257e+06  -1.370261e+06  -5.086760e+11   4.765781e+11  -1.794842e+12   3.790792e+06   1.215282e-17   0.000000e+00   0.000000e+00
     1584000   1.583999e-05   2.066468e+01   6.682154e+00   4.802464e+01   2.388931e+06  -2.526353e+06  -1.510183e+06  -5.533245e+11   4.946911e+11  -1.702875e+12   3.790792e+06   1.131147e-17   0.000000e+00   0.000000e+00
     1592000   1.591999e-05   2.085399e+01   6.481650e+00   4.789847e+01   2.343328e+06  -2.485964e+06  -1.642835e+06  -5.801511e+11   5.183947e+11  -1.611986e+12   3.790793e+06   1.050224e-17   0.000000e+00   0.000000e+00
     1600000   1.599999e-05   2.103956e+01   6.284446e+00   4.776198e+01   2.295659e+06  -2.444014e+06  -1.768292e+06  -6.110100e+11   5.292053e+11  -1.524684e+12   3.790793e+06   9.762209e-18   0.000000e+00   0.000000e+00
     1608000   1.607999e-05   2.122124e+01   6.090634e+00   4.761573e+01   2.246146e+06  -2.401049e+06  -1.886772e+06  -6.235780e+11   5.464120e+11  -1.437713e+12   3.790793e+06   9.029184e-18   0.000000e+00   0.000000e+00
     1616000   1.615999e-05   2.139892e+01   5.900306e+00   4.746028e+01   2.195764e+06  -2.356911e+06  -1.998427e+06  -6.299571e+11   5.614276e+11  -1.354314e+12   3.790794e+06   8.346620e-18   0.000000e+00   0.000000e+00
     1624000   1.623999e-05   2.157256e+01   5.713557e+00   4.729615e+01   2.145050e+06  -2.311706e+06  -2.103543e+06  -6.395594e+11   5.661239e+11  -1.274337e+12   3.790794e+06   7.714796e-18   0.000000e+00   0.000000e+00
     1632000   1.631999e-05   2.174212e+01   5.530444e+00   4.712388e+01   2.094123e+06  -2.265931e+06  -2.202346e+06  -6.313536e+11   5.791926e+11  -1.196254e+12   3.790794e+06   7.097303e-18   0.000000e+00   0.000000e+00
     1640000   1.639999e-05   2.190764e+01   5.351041e+00   4.694394e+01   2.044169e+06  -2.218996e+06  -2.295114e+06  -6.195140e+11   5.914780e+11  -1.123647e+12   3.790794e+06   6.543744e-18   0.000000e+00   0.000000e+00
     1648000   1.647999e-05   2.206921e+01   5.175423e+00   4.675681e+01   1.995189e+06  -2.171299e+06  -2.382185e+06  -6.032780e+11   6.016683e+11  -1.053685e+12   3.790795e+06   6.019176e-18   0.000000e+00   0.000000e+00
     1656000   1.655999e-05   2.222692e+01   5.003662e+00   4.656294e+01   1.947939e+06  -2.122544e+06  -2.463831e+06  -5.795182e+11   6.153530e+11  -9.882971e+11   3.790795e+06   5.543954e-18   0.000000e+00   0.000000e+00
     1664000   1.663999e-05   2.238092e+01   4.835831e+00   4.636273e+01   1.902341e+06  -2.073100e+06  -2.540370e+06  -5.564286e+11   6.233299e+11  -9.253606e+11   3.790795e+06   5.095561e-18   0.000000e+00   0.000000e+00
     1672000   1.671999e-05   2.253135e+01   4.671983e+00   4.615661e+01   1.858683e+06  -2.023033e+06  -2.612042e+06  -5.350110e+11   6.280723e+11  -8.671532e+11   3.790795e+06   4.696365e-18   0.000000e+00   0.000000e+00
     1680000   1.679999e-05   2.267837e+01   4.512161e+00   4.594493e+01   1.817134e+06  -1.972377e+06  -2.679156e+06  -5.037476e+11   6.388787e+11  -8.120094e+11   3.790795e+06   4.331252e-18   0.000000e+00   0.000000e+00
     1688000   1.687999e-05   2.282216e+01   4.356425e+00   4.572805e+01   1.778112e+06  -1.920869e+06  -2.742027e+06  -4.710512e+11   6.487796e+11  -7.599542e+11   3.790795e+06   4.000323e-18   0.000000e+00   0.000000e+00
     1696000   1.695999e-05   2.296294e+01   4.204849e+00   4.550631e+01   1.741827e+06  -1.868398e+06  -2.800938e+06  -4.386804e+11   6.600487e+11  -7.131006e+11   3.790796e+06   3.725894e-18   0.000000e+00   0.000000e+00
     1704000   1.703999e-05   2.310093e+01   4.057508e+00   4.528000e+01   1.708307e+06  -1.815008e+06  -2.856145e+06  -4.037485e+11   6.709458e+11  -6.678614e+11   3.790796e+06   3.472179e-18   0.000000e+00   0.000000e+00
     1712000   1.711999e-05   2.323634e+01   3.914465e+00   4.504942e+01   1.677346e+06  -1.760948e+06  -2.907870e+06  -3.709986e+11   6.799052e+11  -6.257435e+11   3.790796e+06   3.250077e-18   0.000000e+00   0.000000e+00
     1720000   1.719999e-05   2.336938e+01   3.775784e+00   4.481483e+01   1.649245e+06  -1.705861e+06  -2.956377e+06  -3.326358e+11   6.964446e+11  -5.874234e+11   3.790796e+06   3.083818e-18   0.000000e+00   0.000000e+00
     1728000   1.727999e-05   2.350028e+01   3.641544e+00   4.457648e+01   1.623713e+06  -1.649980e+06  -3.001875e+06  -3.041596e+11   7.031355e+11  -5.510009e+11   3.790796e+06   2.919144e-18   0.000000e+00   0.000000e+00
     1736000   1.735999e-05   2.362924e+01   3.511816e+00   4.433460e+01   1.600872e+06  -1.593017e+06  -3.044608e+06  -2.692855e+11   7.190704e+11  -5.178309e+11   3.790796e+06   2.811658e-18   0.000000e+00   0.000000e+00
     1744000   1.743999e-05   2.375649e+01   3.386694e+00   4.408941e+01   1.580576e+06  -1.534860e+06  -3.084821e+06  -2.387817e+11   7.322634e+11  -4.866871e+11   3.790796e+06   2.721066e-18   0.000000e+00   0.000000e+00
     1752000   1.751999e-05   2.388220e+01   3.266268e+00   4.384110e+01   1.562722e+06  -1.475511e+06  -3.122643e+06  -2.078981e+11   7.519891e+11  -4.593747e+11   3.790796e+06   2.687119e-18   0.000000e+00   0.000000e+00
     1760000   1.759999e-05   2.400658e+01   3.150646e+00   4.358985e+01   1.547156e+06  -1.414853e+06  -3.158265e+06  -1.792186e+11   7.684732e+11  -4.320612e+11   3.790796e+06   2.653062e-18   0.000000e+00   0.000000e+00
     1768000   1.767999e-05   2.412981e+01   3.039938e+00   4.333583e+01   1.533876e+06  -1.352615e+06  -3.191832e+06  -1.543106e+11   7.855257e+11  -4.070437e+11   3.790796e+06   2.643884e-18   0.000000e+00   0.000000e+00
     1776000   1.775999e-05   2.425205e+01   2.934259e+00   4.307920e+01   1.522396e+06  -1.289079e+06  -3.223464e+06  -1.333277e+11   8.039251e+11  -3.844648e+11   3.790796e+06   2.661374e-18   0.000000e+00   0.000000e+00
     1784000   1.783999e-05   2.437344e+01   2.833729e+00   4.282012e+01   1.512690e+06  -1.223916e+06  -3.253296e+06  -1.122643e+11   8.239959e+11  -3.621960e+11   3.790797e+06   2.697020e-18   0.000000e+00   0.000000e+00
     1792000   1.791999e-05   2.449411e+01   2.738472e+00   4.255872e+01   1.504286e+06  -1.157243e+06  -3.281471e+06  -9.852806e+10   8.429190e+11  -3.424331e+11   3.790797e+06   2.745276e-18   0.000000e+00   0.000000e+00
     1800000   1.799999e-05   2.461415e+01   2.648611e+00   4.229513e+01   1.496773e+06  -1.089006e+06  -3.308153e+06  -9.017282e+10   8.635925e+11  -3.250859e+11   3.790797e+06   2.817792e-18   0.000000e+00   0.000000e+00
     1808000   1.807999e-05   2.473361e+01   2.564280e+00   4.202945e+01   1.489800e+06  -1.018945e+06  -3.333525e+06  -8.534111e+10   8.877310e+11  -3.094918e+11   3.790797e+06   2.921153e-18   0.000000e+00   0.000000e+00
     1816000   1.815999e-05   2.485252e+01   2.485627e+00   4.176180e+01   1.483041e+06  -9.470458e+05  -3.357653e+06  -8.435248e+10   9.111114e+11  -2.942447e+11   3.790797e+06   3.028293e-18   0.000000e+00   0.000000e+00
     1824000   1.823999e-05   2.497089e+01   2.412797e+00   4.149226e+01   1.476075e+06  -8.734462e+05  -3.380597e+06  -9.004722e+10   9.292745e+11  -2.794173e+11   3.790797e+06   3.113240e-18   0.000000e+00   0.000000e+00
     1832000   1.831999e-05   2.508869e+01   2.345916e+00   4.122093e+01   1.468690e+06  -7.983487e+05  -3.402313e+06  -9.710991e+10   9.477485e+11  -2.643107e+11   3.790797e+06   3.204320e-18   0.000000e+00   0.000000e+00
     1840000   1.839999e-05   2.520586e+01   2.285099e+00   4.094792e+01   1.460529e+06  -7.218360e+05  -3.422857e+06  -1.090701e+11   9.645218e+11  -2.499481e+11   3.790797e+06   3.293330e-18   0.000000e+00   0.000000e+00
     1848000   1.847999e-05   2.532233e+01   2.230459e+00   4.067330e+01   1.451113e+06  -6.439059e+05  -3.442354e+06  -1.265575e+11   9.830603e+11  -2.372382e+11   3.790797e+06   3.404892e-18   0.000000e+00   0.000000e+00
     1856000   1.855999e-05   2.543799e+01   2.182113e+00   4.039717e+01   1.440032e+06  -5.645120e+05  -3.460893e+06  -1.507580e+11   1.000614e+12  -2.259434e+11   3.790797e+06   3.523888e-18   0.000000e+00   0.000000e+00
     1864000   1.863999e-05   2.555269e+01   2.140173e+00   4.011959e+01   1.426898e+06  -4.837670e+05  -3.478516e+06  -1.793516e+11   1.016655e+12  -2.149628e+11   3.790798e+06   3.645035e-18   0.000000e+00   0.000000e+00
     1872000   1.871999e-05   2.566623e+01   2.104735e+00   3.984063e+01   1.411139e+06  -4.020114e+05  -3.495314e+06  -2.145903e+11   1.027012e+12  -2.047595e+11   3.790798e+06   3.745885e-18   0.000000e+00   0.000000e+00
     1880000   1.879999e-05   2.577839e+01   2.075867e+00   3.956036e+01   1.392271e+06  -3.196390e+05  -3.511347e+06  -2.575941e+11   1.032133e+12  -1.960964e+11   3.790798e+06   3.835634e-18   0.000000e+00   0.000000e+00
     1888000   1.887999e-05   2.588890e+01   2.053598e+00   3.927883e+01   1.369937e+06  -2.370721e+05  -3.526644e+06  -3.009668e+11   1.032536e+12  -1.863253e+11   3.790798e+06   3.905528e-18   0.000000e+00   0.000000e+00
     1896000   1.895999e-05   2.599748e+01   2.037937e+00   3.899611e+01   1.344017e+06  -1.544519e+05  -3.541174e+06  -3.471010e+11   1.034034e+12  -1.768425e+11   3.790798e+06   4.002393e-18   0.000000e+00   0.000000e+00
     1904000   1.903999e-05   2.610383e+01   2.028884e+00   3.871226e+01   1.314100e+06  -7.193468e+04  -3.555013e+06  -4.016429e+11   1.028489e+12  -1.692808e+11   3.790798e+06   4.090193e-18   0.000000e+00   0.000000e+00
     1912000   1.911999e-05   2.620762e+01   2.026411e+00   3.842733e+01   1.279724e+06   9.965345e+03  -3.568243e+06  -4.579944e+11   1.018199e+12  -1.614162e+11   3.790798e+06   4.171423e-18   0.000000e+00   0.000000e+00
     1920000   1.919999e-05   2.630847e+01   2.030451e+00   3.814136e+01   1.240715e+06   9.084523e+04  -3.580856e+06  -5.178303e+11   1.002422e+12  -1.539932e+11   3.790798e+06   4.250653e-18   0.000000e+00   0.000000e+00
     1928000   1.927999e-05   2.640600e+01   2.040901e+00   3.785441e+01   1.196742e+06   1.700680e+05  -3.592915e+06  -5.812574e+11   9.774335e+11  -1.473450e+11   3.790799e+06   4.310426e-18   0.000000e+00   0.000000e+00
     1936000   1.935999e-05   2.649981e+01   2.057607e+00   3.756651e+01   1.147724e+06   2.471799e+05  -3.604412e+06  -6.464806e+11   9.475376e+11  -1.408781e+11   3.790799e+06   4.378167e-18   0.000000e+00   0.000000e+00
     1944000   1.943999e-05   2.658949e+01   2.080380e+00   3.727771e+01   1.093391e+06   3.216809e+05  -3.615408e+06  -7.133705e+11   9.149757e+11  -1.343351e+11   3.790799e+06   4.471626e-18   0.000000e+00   0.000000e+00
     1952000   1.951999e-05   2.667461e+01   2.108995e+00   3.698806e+01   1.033543e+06   3.931287e+05  -3.625934e+06  -7.826546e+11   8.702832e+11  -1.287358e+11   3.790799e+06   4.545021e-18   0.000000e+00   0.000000e+00
     1960000   1.959999e-05   2.675471e+01   2.143182e+00   3.669758e+01   9.681527e+05   4.608834e+05  -3.635990e+06  -8.532290e+11   8.227501e+11  -1.229042e+11   3.790799e+06   4.654867e-18   0.000000e+00   0.000000e+00
     1968000   1.967999e-05   2.682936e+01   2.182626e+00   3.640631e+01   8.971681e+05   5.244307e+05  -3.645576e+06  -9.224842e+11   7.645662e+11  -1.170394e+11   3.790799e+06   4.750628e-18   0.000000e+00   0.000000e+00
     1976000   1.975999e-05   2.689811e+01   2.226960e+00   3.611430e+01   8.204661e+05   5.830410e+05  -3.654731e+06  -9.942759e+11   6.990941e+11  -1.116865e+11   3.790799e+06   4.883560e-18   0.000000e+00   0.000000e+00
     1984000   1.983999e-05   2.696048e+01   2.275765e+00   3.582157e+01   7.380654e+05   6.361271e+05  -3.663436e+06  -1.066153e+12   6.268113e+11  -1.059590e+11   3.790800e+06   5.050772e-18   0.000000e+00   0.000000e+00
     1992000   1.991999e-05   2.701604e+01   2.328577e+00   3.552816e+01   6.499415e+05   6.831296e+05  -3.671658e+06  -1.138625e+12   5.480259e+11  -9.959616e+10   3.790800e+06   5.266844e-18   0.000000e+00   0.000000e+00
     2000000   1.999999e-05   2.706432e+01   2.384890e+00   3.523411e+01   5.559110e+05   7.235384e+05  -3.679350e+06  -1.212729e+12   4.605022e+11  -9.267804e+10   3.790800e+06   5.544302e-18   0.000000e+00   0.000000e+00
     2008000   2.007999e-05   2.710483e+01   2.444149e+00   3.493948e+01   4.560528e+05   7.566758e+05  -3.686411e+06  -1.284727e+12   3.666187e+11  -8.368832e+10   3.790800e+06   5.873972e-18   0.000000e+00   0.000000e+00
     2016000   2.015999e-05   2.713713e+01   2.505751e+00   3.464431e+01   3.501997e+05   7.820235e+05  -3.692691e+06  -1.362067e+12   2.659281e+11  -7.286091e+10   3.790800e+06   6.330651e-18   0.000000e+00   0.000000e+00
     2024000   2.023999e-05   2.716070e+01   2.569051e+00   3.434868e+01   2.382621e+05   7.990281e+05  -3.697966e+06  -1.436929e+12   1.576991e+11  -5.851342e+10   3.790801e+06   6.861044e-18   0.000000e+00   0.000000e+00
     2032000   2.031999e-05   2.717509e+01   2.633354e+00   3.405267e+01   1.204443e+05   8.070222e+05  -3.701943e+06  -1.512060e+12   4.216452e+10  -4.000986e+10   3.790801e+06   7.505640e-18   0.000000e+00   0.000000e+00
     2040000   2.039999e-05   2.717981e+01   2.697922e+00   3.375641e+01  -3.465303e+03   8.055771e+05  -3.704215e+06  -1.584250e+12  -7.774517e+10  -1.543242e+10   3.790801e+06   8.247847e-18   0.000000e+00   0.000000e+00
     2048000   2.047999e-05   2.717438e+01   2.761988e+00   3.346006e+01  -1.333109e+05   7.944408e+05  -3.704223e+06  -1.661693e+12  -2.003451e+11   1.682713e+10   3.790801e+06   9.183751e-18   0.000000e+00   0.000000e+00
     2056000   2.055999e-05   2.715832e+01   2.824770e+00   3.316381e+01  -2.693415e+05   7.734875e+05  -3.701263e+06  -1.737335e+12  -3.221584e+11   5.909325e+10   3.790802e+06   1.024572e-17   0.000000e+00   0.000000e+00
     2064000   2.063999e-05   2.713113e+01   2.885491e+00   3.286796e+01  -4.112214e+05   7.429428e+05  -3.694471e+06  -1.809725e+12  -4.403433e+11   1.128749e+11   3.790802e+06   1.141313e-17   0.000000e+00   0.000000e+00
     2072000   2.071999e-05   2.709236e+01   2.943398e+00   3.257283e+01  -5.590131e+05   7.032861e+05  -3.682808e+06  -1.881625e+12  -5.486996e+11   1.808190e+11   3.790802e+06   1.269986e-17   0.000000e+00   0.000000e+00
     2080000   2.079999e-05   2.704155e+01   2.997797e+00   3.227887e+01  -7.122551e+05   6.554217e+05  -3.665147e+06  -1.947142e+12  -6.445681e+11   2.631150e+11   3.790803e+06   1.401689e-17   0.000000e+00   0.000000e+00
     2088000   2.087999e-05   2.697825e+01   3.048082e+00   3.198660e+01  -8.708729e+05   6.007259e+05  -3.640178e+06  -2.011784e+12  -7.189614e+11   3.626367e+11   3.790803e+06   1.539247e-17   0.000000e+00   0.000000e+00
     2096000   2.095999e-05   2.690209e+01   3.093785e+00   3.169666e+01  -1.033901e+06   5.412206e+05  -3.606705e+06  -2.059593e+12  -7.644987e+11   4.756700e+11   3.790804e+06   1.656260e-17   0.000000e+00   0.000000e+00
     2104000   2.103999e-05   2.681273e+01   3.134611e+00   3.140979e+01  -1.200681e+06   4.792547e+05  -3.563549e+06  -2.102432e+12  -7.776202e+11   6.037850e+11   3.790804e+06   1.766678e-17   0.000000e+00   0.000000e+00
     2112000   2.111999e-05   2.670992e+01   3.170481e+00   3.112678e+01  -1.369697e+06   4.178729e+05  -3.509916e+06  -2.122060e+12  -7.499502e+11   7.388039e+11   3.790805e+06   1.839429e-17   0.000000e+00   0.000000e+00
     2120000   2.119999e-05   2.659355e+01   3.201574e+00   3.084849e+01  -1.539577e+06   3.604089e+05  -3.445289e+06  -2.122490e+12  -6.786872e+11   8.774513e+11   3.790806e+06   1.880119e-17   0.000000e+00   0.000000e+00
     2128000   2.127999e-05   2.646361e+01   3.228347e+00   3.057582e+01  -1.708544e+06   3.104355e+05  -3.369676e+06  -2.097256e+12  -5.632760e+11   1.011473e+12   3.790806e+06   1.881218e-17   0.000000e+00   0.000000e+00
     2136000   2.135999e-05   2.632026e+01   3.251537e+00   3.030962e+01  -1.874557e+06   2.714457e+05  -3.283682e+06  -2.048024e+12  -4.046749e+11   1.135687e+12   3.790807e+06   1.851427e-17   0.000000e+00   0.000000e+00
     2144000   2.143999e-05   2.616382e+01   3.272155e+00   3.005068e+01  -2.035356e+06   2.465536e+05  -3.188535e+06  -1.968045e+12  -2.122705e+11   1.239843e+12   3.790807e+06   1.788337e-17   0.000000e+00   0.000000e+00
     2152000   2.151999e-05   2.599695e+01   3.291491e+00   2.979820e+01  -2.086492e+06   2.396723e+05  -3.155840e+06   1.370112e+12  -4.051617e+10  -9.089389e+11   3.790808e+06   8.867270e-18   0.000000e+00   0.000000e+00
     2160000   2.159999e-05   2.583437e+01   3.310286e+00   2.954291e+01  -1.978663e+06   2.272231e+05  -3.225444e+06   1.322816e+12  -2.649672e+11  -8.301612e+11   3.790808e+06   8.225396e-18   0.000000e+00   0.000000e+00
     2168000   2.167999e-05   2.568025e+01   3.327403e+00   2.928230e+01  -1.875308e+06   1.980984e+05  -3.288496e+06   1.258177e+12  -4.586462e+11  -7.451277e+11   3.790808e+06   7.698821e-18   0.000000e+00   0.000000e+00
     2176000   2.175999e-05   2.553417e+01   3.341601e+00   2.901693e+01  -1.777637e+06   1.546700e+05  -3.344594e+06   1.181537e+12  -6.233038e+11  -6.568128e+11   3.790808e+06   7.264003e-18   0.000000e+00   0.000000e+00
     2184000   2.183999e-05   2.539566e+01   3.351826e+00   2.874736e+01  -1.686298e+06   9.911779e+04  -3.393642e+06   1.101229e+12  -7.613526e+11  -5.694430e+11   3.790809e+06   6.938445e-18   0.000000e+00   0.000000e+00
     2192000   2.191999e-05   2.526419e+01   3.357197e+00   2.847413e+01  -1.601226e+06   3.369515e+04  -3.435866e+06   1.027199e+12  -8.696833e+11  -4.872431e+11   3.790809e+06   6.716398e-18   0.000000e+00   0.000000e+00
     2200000   2.199999e-05   2.513931e+01   3.357012e+00   2.819779e+01  -1.521792e+06  -3.946443e+04  -3.471718e+06   9.632636e+11  -9.538677e+11  -4.113996e+11   3.790809e+06   6.579029e-18   0.000000e+00   0.000000e+00
     2208000   2.207999e-05   2.502058e+01   3.350728e+00   2.791881e+01  -1.447002e+06  -1.184924e+05  -3.501768e+06   9.095461e+11  -1.017781e+12  -3.414091e+11   3.790809e+06   6.489612e-18   0.000000e+00   0.000000e+00
     2216000   2.215999e-05   2.490770e+01   3.337943e+00   2.763764e+01  -1.375658e+06  -2.017071e+05  -3.526630e+06   8.763895e+11  -1.059390e+12  -2.812728e+11   3.790809e+06   6.456061e-18   0.000000e+00   0.000000e+00
     2224000   2.223999e-05   2.480043e+01   3.318386e+00   2.735467e+01  -1.306325e+06  -2.875070e+05  -3.546984e+06   8.590907e+11  -1.082734e+12  -2.286386e+11   3.790810e+06   6.433595e-18   0.000000e+00   0.000000e+00
     2232000   2.231999e-05   2.469866e+01   3.291910e+00   2.707023e+01  -1.237803e+06  -3.744643e+05  -3.563406e+06   8.591348e+11  -1.089125e+12  -1.839872e+11   3.790810e+06   6.418952e-18   0.000000e+00   0.000000e+00
     2240000   2.239999e-05   2.460239e+01   3.258477e+00   2.678461e+01  -1.168820e+06  -4.612510e+05  -3.576499e+06   8.696779e+11  -1.078875e+12  -1.450817e+11   3.790810e+06   6.363877e-18   0.000000e+00   0.000000e+00
     2248000   2.247999e-05   2.451169e+01   3.218147e+00   2.649807e+01  -1.098531e+06  -5.466728e+05  -3.586729e+06   8.901797e+11  -1.054345e+12  -1.119480e+11   3.790810e+06   6.282707e-18   0.000000e+00   0.000000e+00
     2256000   2.255999e-05   2.442668e+01   3.171075e+00   2.621080e+01  -1.026257e+06  -6.295843e+05  -3.594532e+06   9.162452e+11  -1.015094e+12  -8.380350e+10   3.790810e+06   6.152739e-18   0.000000e+00   0.000000e+00
     2264000   2.263999e-05   2.434755e+01   3.117514e+00   2.592300e+01  -9.517414e+05  -7.087265e+05  -3.600297e+06   9.451448e+11  -9.619190e+11  -6.049894e+10   3.790811e+06   5.973438e-18   0.000000e+00   0.000000e+00
     2272000   2.271999e-05   2.427446e+01   3.057799e+00   2.563480e+01  -8.749974e+05  -7.833493e+05  -3.604302e+06   9.727185e+11  -9.021837e+11  -4.006846e+10   3.790811e+06   5.775056e-18   0.000000e+00   0.000000e+00
     2280000   2.279999e-05   2.420759e+01   2.992319e+00   2.534635e+01  -7.964337e+05  -8.527236e+05  -3.606772e+06   9.926025e+11  -8.324518e+11  -2.237667e+10   3.790811e+06   5.503025e-18   0.000000e+00   0.000000e+00
     2288000   2.287999e-05   2.414707e+01   2.921517e+00   2.505775e+01  -7.165308e+05  -9.163010e+05  -3.607939e+06   1.002958e+12  -7.559721e+11  -7.197497e+09   3.790811e+06   5.171081e-18   0.000000e+00   0.000000e+00
     2296000   2.295999e-05   2.409296e+01   2.845882e+00   2.476911e+01  -6.363034e+05  -9.735003e+05  -3.608000e+06   1.002852e+12  -6.751931e+11   5.312629e+09   3.790811e+06   4.791349e-18   0.000000e+00   0.000000e+00
     2304000   2.303999e-05   2.404524e+01   2.765934e+00   2.448050e+01  -5.569649e+05  -1.024070e+06  -3.607121e+06   9.806875e+11  -5.904902e+11   1.621290e+10   3.790811e+06   4.296578e-18   0.000000e+00   0.000000e+00
     2312000   2.311999e-05   2.400378e+01   2.682210e+00   2.419199e+01  -4.800477e+05  -1.067909e+06  -3.605465e+06   9.395392e+11  -5.060447e+11   2.478863e+10   3.790812e+06   3.735182e-18   0.000000e+00   0.000000e+00
     2320000   2.319999e-05   2.396832e+01   2.595243e+00   2.390364e+01  -4.071072e+05  -1.105173e+06  -3.603208e+06   8.789617e+11  -4.256708e+11   3.124951e+10   3.790812e+06   3.129777e-18   0.000000e+00   0.000000e+00
     2328000   2.327999e-05   2.393849e+01   2.505548e+00   2.361549e+01  -3.398710e+05  -1.136201e+06  -3.600526e+06   7.938876e+11  -3.499507e+11   3.549127e+10   3.790812e+06   2.471687e-18   0.000000e+00   0.000000e+00
     2336000   2.335999e-05   2.391373e+01   2.413607e+00   2.332756e+01  -2.807397e+05  -1.161396e+06  -3.597582e+06   6.781455e+11  -2.816598e+11   3.800633e+10   3.790812e+06   1.772391e-18   0.000000e+00   0.000000e+00
     2344000   2.343999e-05   2.389329e+01   2.319859e+00   2.303988e+01  -2.321134e+05  -1.181530e+06  -3.594491e+06   5.294957e+11  -2.231442e+11   3.915578e+10   3.790812e+06   1.087385e-18   0.000000e+00   0.000000e+00
     2352000   2.351999e-05   2.387624e+01   2.224675e+00   2.275245e+01  -1.967017e+05  -1.197452e+06  -3.591333e+06   3.460063e+11  -1.768886e+11   4.002803e+10   3.790812e+06   5.003356e-19   0.000000e+00   0.000000e+00
     2360000   2.359999e-05   2.386138e+01   2.128351e+00   2.246527e+01  -1.778450e+05  -1.210258e+06  -3.588022e+06   1.146467e+11  -1.462605e+11   4.365169e+10   3.790812e+06   1.194843e-19   0.000000e+00   0.000000e+00
     2368000   2.367999e-05   2.384723e+01   2.031078e+00   2.217838e+01  -1.797510e+05  -1.221401e+06  -3.584149e+06  -1.732334e+11  -1.356962e+11   5.493011e+10   3.790812e+06   1.685772e-19   0.000000e+00   0.000000e+00
     2376000   2.375999e-05   2.383193e+01   1.932925e+00   2.189184e+01  -2.073342e+05  -1.232606e+06  -3.578820e+06  -5.284694e+11  -1.485554e+11   8.178032e+10   3.790812e+06   1.009572e-18   0.000000e+00   0.000000e+00
     2384000   2.383999e-05   2.381320e+01   1.833804e+00   2.160585e+01  -2.669102e+05  -1.246000e+06  -3.570224e+06  -9.781124e+11  -1.908871e+11   1.397401e+11   3.790812e+06   3.319168e-18   0.000000e+00   0.000000e+00
     2392000   2.391999e-05   2.378816e+01   1.733444e+00   2.132078e+01  -3.666882e+05  -1.263979e+06  -3.555018e+06  -1.541767e+12  -2.644505e+11   2.530459e+11   3.790812e+06   8.230378e-18   0.000000e+00   0.000000e+00
     2400000   2.399999e-05   2.375318e+01   1.631377e+00   2.103738e+01  -5.170220e+05  -1.289092e+06  -3.527207e+06  -2.247291e+12  -3.674051e+11   4.636710e+11   3.790813e+06   1.770081e-17   0.000000e+00   0.000000e+00
     2408000   2.407999e-05   2.370375e+01   1.526950e+00   2.075703e+01  -7.303139e+05  -1.323094e+06  -3.476540e+06  -3.121010e+12  -4.802453e+11   8.383678e+11   3.790813e+06   3.498762e-17   0.000000e+00   0.000000e+00
     2416000   2.415999e-05   2.363428e+01   1.419468e+00   2.048218e+01  -1.020322e+06  -1.364847e+06  -3.386209e+06  -4.162357e+12  -5.447680e+11   1.473705e+12   3.790815e+06   6.488022e-17   0.000000e+00   0.000000e+00
     2424000   2.423999e-05   2.353815e+01   1.308590e+00   2.021696e+01  -1.398117e+06  -1.405521e+06  -3.231111e+06  -5.298866e+12  -4.181384e+11   2.474626e+12   3.790818e+06   1.126813e-16   0.000000e+00   0.000000e+00
     2432000   2.431999e-05   2.340832e+01   1.195202e+00   1.996774e+01  -1.852215e+06  -1.422416e+06  -2.986028e+06  -4.513104e+12  -1.357168e+10   2.805820e+12   3.790822e+06   9.265893e-17   0.000000e+00   0.000000e+00
     2440000   2.439999e-05   2.326273e+01   1.080691e+00   1.972776e+01  -1.598791e+06  -1.458912e+06  -3.112202e+06   8.118779e+12  -1.118574e+12  -3.646658e+12   3.790826e+06   2.637565e-16   0.000000e+00   0.000000e+00
     2448000   2.447999e-05   2.316272e+01   9.596987e-01   1.946887e+01  -8.809879e+05  -1.571132e+06  -3.335542e+06   9.651424e+12  -1.502237e+12  -1.841849e+12   3.790835e+06   3.238719e-16   0.000000e+00   0.000000e+00
     2456000   2.455999e-05   2.312355e+01   8.297884e-01   1.919828e+01  -9.754897e+04  -1.665129e+06  -3.404166e+06   9.689574e+12  -6.501154e+11   4.006109e+10   3.790846e+06   3.091746e-16   0.000000e+00   0.000000e+00
     2464000   2.463999e-05   2.314557e+01   6.961318e-01   1.892747e+01   6.297843e+05  -1.654783e+06  -3.351961e+06   8.341689e+12   9.478680e+11   1.099127e+12   3.790855e+06   2.350229e-16   0.000000e+00   0.000000e+00
     2472000   2.471999e-05   2.322061e+01   5.684364e-01   1.866321e+01   1.220483e+06  -1.518403e+06  -3.251999e+06   6.416511e+12   2.386454e+12   1.293715e+12   3.790861e+06   1.591307e-16   0.000000e+00   0.000000e+00
     2480000   2.479999e-05   2.333677e+01   4.556833e-01   1.840703e+01   1.659376e+06  -1.288455e+06  -3.155474e+06   4.609632e+12   3.271872e+12   1.087989e+12   3.790865e+06   1.086348e-16   0.000000e+00   0.000000e+00
     2488000   2.487999e-05   2.348264e+01   3.636566e-01   1.815777e+01   1.968059e+06  -1.006389e+06  -3.079709e+06   3.165677e+12   3.714087e+12   8.092258e+11   3.790868e+06   8.022157e-17   0.000000e+00   0.000000e+00
     2496000   2.495999e-05   2.364895e+01   2.952364e-01   1.791373e+01   2.175234e+06  -7.022160e+05  -3.024227e+06   2.061843e+12   3.856439e+12   5.875031e+11   3.790870e+06   6.382232e-17   0.000000e+00   0.000000e+00
     2504000   2.503999e-05   2.382860e+01   2.514168e-01   1.767348e+01   2.304559e+06  -3.936013e+05  -2.984091e+06   1.212431e+12   3.837203e+12   4.301563e+11   3.790872e+06   5.369444e-17   0.000000e+00   0.000000e+00
     2512000   2.511999e-05   2.401610e+01   2.321028e-01   1.743602e+01   2.374482e+06  -9.075513e+04  -2.953697e+06   5.615981e+11   3.723925e+12   3.370001e+11   3.790874e+06   4.686722e-17   0.000000e+00   0.000000e+00
     2520000   2.519999e-05   2.420728e+01   2.365941e-01   1.720073e+01   2.397897e+06   2.008583e+05  -2.929246e+06   4.468743e+10   3.559548e+12   2.806159e+11   3.790875e+06   4.180084e-17   0.000000e+00   0.000000e+00
     2528000   2.527999e-05   2.439878e+01   2.638572e-01   1.696724e+01   2.384139e+06   4.781438e+05  -2.908265e+06  -3.737184e+11   3.368240e+12   2.473609e+11   3.790877e+06   3.784980e-17   0.000000e+00   0.000000e+00
     2536000   2.535999e-05   2.458794e+01   3.126671e-01   1.673536e+01   2.340289e+06   7.393097e+05  -2.889156e+06  -7.103089e+11   3.158460e+12   2.328177e+11   3.790878e+06   3.453460e-17   0.000000e+00   0.000000e+00
     2544000   2.543999e-05   2.477257e+01   3.816876e-01   1.650495e+01   2.271829e+06   9.832915e+05  -2.871009e+06  -9.905097e+11   2.939438e+12   2.229037e+11   3.790879e+06   3.170381e-17   0.000000e+00   0.000000e+00
     2552000   2.551999e-05   2.495089e+01   4.695219e-01   1.627598e+01   2.183004e+06   1.209577e+06  -2.853452e+06  -1.223409e+12   2.717056e+12   2.157720e+11   3.790880e+06   2.926019e-17   0.000000e+00   0.000000e+00
     2560000   2.559999e-05   2.512140e+01   5.747422e-01   1.604839e+01   2.077377e+06   1.417937e+06  -2.836325e+06  -1.412541e+12   2.492594e+12   2.114990e+11   3.790881e+06   2.705511e-17   0.000000e+00   0.000000e+00
     2568000   2.567999e-05   2.528290e+01   6.959145e-01   1.582216e+01   1.957959e+06   1.608411e+06  -2.819609e+06  -1.567831e+12   2.270051e+12   2.061805e+11   3.790882e+06   2.509052e-17   0.000000e+00   0.000000e+00
     2576000   2.575999e-05   2.543438e+01   8.316163e-01   1.559724e+01   1.827278e+06   1.781219e+06  -2.803409e+06  -1.695360e+12   2.051218e+12   1.982242e+11   3.790882e+06   2.334420e-17   0.000000e+00   0.000000e+00
     2584000   2.583999e-05   2.557502e+01   9.804480e-01   1.537359e+01   1.687497e+06   1.936725e+06  -2.787875e+06  -1.795779e+12   1.837686e+12   1.896256e+11   3.790883e+06   2.176029e-17   0.000000e+00   0.000000e+00
     2592000   2.591999e-05   2.570419e+01   1.141043e+00   1.515116e+01   1.540602e+06   2.075400e+06  -2.773096e+06  -1.873912e+12   1.630714e+12   1.793551e+11   3.790884e+06   2.033450e-17   0.000000e+00   0.000000e+00
     2600000   2.599999e-05   2.582137e+01   1.312079e+00   1.492987e+01   1.388219e+06   2.197840e+06  -2.759195e+06  -1.932238e+12   1.431380e+12   1.679900e+11   3.790884e+06   1.904837e-17   0.000000e+00   0.000000e+00
     2608000   2.607999e-05   2.592619e+01   1.492281e+00   1.470966e+01   1.231827e+06   2.304650e+06  -2.746270e+06  -1.974231e+12   1.240316e+12   1.553123e+11   3.790885e+06   1.789931e-17   0.000000e+00   0.000000e+00
     2616000   2.615999e-05   2.601839e+01   1.680425e+00   1.449044e+01   1.072707e+06   2.396512e+06  -2.734382e+06  -2.001490e+12   1.057680e+12   1.417794e+11   3.790886e+06   1.686555e-17   0.000000e+00   0.000000e+00
     2624000   2.623999e-05   2.609779e+01   1.875342e+00   1.427213e+01   9.120091e+05   2.474092e+06  -2.723587e+06  -2.014398e+12   8.833463e+11   1.278765e+11   3.790886e+06   1.591388e-17   0.000000e+00   0.000000e+00
     2632000   2.631999e-05   2.616430e+01   2.075916e+00   1.405464e+01   7.507039e+05   2.538048e+06  -2.713960e+06  -2.015914e+12   7.170260e+11   1.129146e+11   3.790887e+06   1.504954e-17   0.000000e+00   0.000000e+00
     2640000   2.639999e-05   2.621791e+01   2.281084e+00   1.383787e+01   5.897399e+05   2.589029e+06  -2.705543e+06  -2.006748e+12   5.587399e+11   9.724147e+10   3.790887e+06   1.425588e-17   0.000000e+00   0.000000e+00
     2648000   2.647999e-05   2.625868e+01   2.489831e+00   1.362172e+01   4.298965e+05   2.627657e+06  -2.698413e+06  -1.987532e+12   4.081890e+11   8.082785e+10   3.790888e+06   1.351746e-17   0.000000e+00   0.000000e+00
     2656000   2.655999e-05   2.628674e+01   2.701195e+00   1.340608e+01   2.719763e+05   2.654519e+06  -2.692654e+06  -1.959261e+12   2.647290e+11   6.306665e+10   3.790888e+06   1.282684e-17   0.000000e+00   0.000000e+00
     2664000   2.663999e-05   2.630227e+01   2.914256e+00   1.319085e+01   1.166094e+05   2.670170e+06  -2.688388e+06  -1.922614e+12   1.276167e+11   4.334435e+10   3.790888e+06   1.217726e-17   0.000000e+00   0.000000e+00
     2672000   2.671999e-05   2.630549e+01   3.128137e+00   1.297590e+01  -3.541024e+04   2.675137e+06  -2.685745e+06  -1.876965e+12  -2.413635e+09   2.232964e+10   3.790889e+06   1.155077e-17   0.000000e+00   0.000000e+00
     2680000   2.679999e-05   2.629671e+01   3.342006e+00   1.276108e+01  -1.834558e+05   2.669928e+06  -2.684897e+06  -1.822208e+12  -1.268117e+11  -1.607796e+09   3.790889e+06   1.093783e-17   0.000000e+00   0.000000e+00
     2688000   2.687999e-05   2.627627e+01   3.555067e+00   1.254626e+01  -3.266389e+05   2.655029e+06  -2.686070e+06  -1.755581e+12  -2.444132e+11  -2.811335e+10   3.790889e+06   1.030209e-17   0.000000e+00   0.000000e+00
     2696000   2.695999e-05   2.624460e+01   3.766567e+00   1.233125e+01  -4.640900e+05   2.630989e+06  -2.689492e+06  -1.678699e+12  -3.555485e+11  -5.815452e+10   3.790890e+06   9.663608e-18   0.000000e+00   0.000000e+00
     2704000   2.703999e-05   2.620219e+01   3.975795e+00   1.211587e+01  -5.950195e+05   2.598314e+06  -2.695471e+06  -1.592892e+12  -4.601844e+11  -9.197989e+10   3.790890e+06   9.039798e-18   0.000000e+00   0.000000e+00
     2712000   2.711999e-05   2.614959e+01   4.182082e+00   1.189990e+01  -7.186957e+05   2.557554e+06  -2.704301e+06  -1.497699e+12  -5.577999e+11  -1.295120e+11   3.790890e+06   8.428352e-18   0.000000e+00   0.000000e+00
     2720000   2.719999e-05   2.608741e+01   4.384803e+00   1.168310e+01  -8.343522e+05   2.509274e+06  -2.716293e+06  -1.391813e+12  -6.479934e+11  -1.710989e+11   3.790891e+06   7.822864e-18   0.000000e+00   0.000000e+00
     2728000   2.727999e-05   2.601633e+01   4.583381e+00   1.146520e+01  -9.411925e+05   2.454084e+06  -2.731754e+06  -1.276549e+12  -7.303060e+11  -2.162625e+11   3.790891e+06   7.243868e-18   0.000000e+00   0.000000e+00
     2736000   2.735999e-05   2.593708e+01   4.777290e+00   1.124592e+01  -1.038258e+06   2.392666e+06  -2.751004e+06  -1.147799e+12  -8.035084e+11  -2.656615e+11   3.790891e+06   6.666745e-18   0.000000e+00   0.000000e+00
     2744000   2.743999e-05   2.585049e+01   4.966062e+00   1.102493e+01  -1.124606e+06   2.325776e+06  -2.774326e+06  -1.008239e+12  -8.668825e+11  -3.180310e+11   3.790891e+06   6.127573e-18   0.000000e+00   0.000000e+00
     2752000   2.751999e-05   2.575745e+01   5.149291e+00   1.080191e+01  -1.199346e+06   2.254236e+06  -2.801937e+06  -8.592215e+11  -9.199866e+11  -3.723782e+11   3.790891e+06   5.649368e-18   0.000000e+00   0.000000e+00
     2760000   2.759999e-05   2.565892e+01   5.326638e+00   1.057651e+01  -1.261810e+06   2.178898e+06  -2.833919e+06  -7.012351e+11  -9.614398e+11  -4.269951e+11   3.790892e+06   5.239978e-18   0.000000e+00   0.000000e+00
     2768000   2.767999e-05   2.555591e+01   5.497838e+00   1.034837e+01  -1.311240e+06   2.100710e+06  -2.870284e+06  -5.330029e+11  -9.910764e+11  -4.818632e+11   3.790892e+06   4.912458e-18   0.000000e+00   0.000000e+00
     2776000   2.775999e-05   2.544949e+01   5.662702e+00   1.011715e+01  -1.346874e+06   2.020642e+06  -2.910979e+06  -3.564790e+11  -1.008701e+12  -5.352514e+11   3.790892e+06   4.691271e-18   0.000000e+00   0.000000e+00
     2784000   2.783999e-05   2.534080e+01   5.821117e+00   9.882501e+00  -1.368121e+06   1.939687e+06  -2.955795e+06  -1.733075e+11  -1.012880e+12  -5.844719e+11   3.790892e+06   4.581506e-18   0.000000e+00   0.000000e+00
     2792000   2.791999e-05   2.523099e+01   5.973055e+00   9.644119e+00  -1.374504e+06   1.858867e+06  -3.004366e+06   1.506636e+10  -1.005466e+12  -6.290013e+11   3.790892e+06   4.611853e-18   0.000000e+00   0.000000e+00
     2800000   2.799999e-05   2.512128e+01   6.118566e+00   9.401714e+00  -1.365618e+06   1.779175e+06  -3.056221e+06   2.070263e+11  -9.844835e+11  -6.656264e+11   3.790892e+06   4.770156e-18   0.000000e+00   0.000000e+00
     2808000   2.807999e-05   2.501290e+01   6.257780e+00   9.155054e+00  -1.341321e+06   1.701616e+06  -3.110663e+06   4.001492e+11  -9.526398e+11  -6.936692e+11   3.790893e+06   5.077282e-18   0.000000e+00   0.000000e+00
     2816000   2.815999e-05   2.490708e+01   6.390905e+00   8.903961e+00  -1.301671e+06   1.627071e+06  -3.166885e+06   5.915473e+11  -9.092525e+11  -7.102990e+11   3.790893e+06   5.511211e-18   0.000000e+00   0.000000e+00
     2824000   2.823999e-05   2.480505e+01   6.518215e+00   8.648327e+00  -1.246613e+06   1.556380e+06  -3.224051e+06   7.843330e+11  -8.563789e+11  -7.166850e+11   3.790893e+06   6.104570e-18   0.000000e+00   0.000000e+00
     2832000   2.831999e-05   2.470803e+01   6.640048e+00   8.388114e+00  -1.176371e+06   1.490299e+06  -3.281163e+06   9.703726e+11  -7.942731e+11  -7.086644e+11   3.790893e+06   6.801165e-18   0.000000e+00   0.000000e+00
     2840000   2.839999e-05   2.461722e+01   6.756801e+00   8.123372e+00  -1.091487e+06   1.429433e+06  -3.337102e+06   1.149956e+12  -7.260398e+11  -6.871264e+11   3.790893e+06   7.610796e-18   0.000000e+00   0.000000e+00
     2848000   2.847999e-05   2.453376e+01   6.868911e+00   7.854240e+00  -9.925139e+05   1.374317e+06  -3.390729e+06   1.323539e+12  -6.509145e+11  -6.512523e+11   3.790894e+06   8.521795e-18   0.000000e+00   0.000000e+00
     2856000   2.855999e-05   2.445877e+01   6.976856e+00   7.580947e+00  -8.801095e+05   1.325342e+06  -3.440894e+06   1.482584e+12  -5.729979e+11  -5.999263e+11   3.790894e+06   9.461706e-18   0.000000e+00   0.000000e+00
     2864000   2.863999e-05   2.439328e+01   7.081136e+00   7.303821e+00  -7.553008e+05   1.282739e+06  -3.486400e+06   1.636945e+12  -4.919126e+11  -5.356279e+11   3.790894e+06   1.051784e-17   0.000000e+00   0.000000e+00
     2872000   2.871999e-05   2.433824e+01   7.182269e+00   7.023277e+00  -6.187986e+05   1.246680e+06  -3.526154e+06   1.774852e+12  -4.097650e+11  -4.563491e+11   3.790895e+06   1.155964e-17   0.000000e+00   0.000000e+00
     2880000   2.879999e-05   2.429455e+01   7.280779e+00   6.739819e+00  -4.716957e+05   1.217160e+06  -3.559060e+06   1.899089e+12  -3.286935e+11  -3.641138e+11   3.790895e+06   1.261160e-17   0.000000e+00   0.000000e+00
     2888000   2.887999e-05   2.426302e+01   7.377186e+00   6.454037e+00  -3.149766e+05   1.194089e+06  -3.584108e+06   2.015953e+12  -2.484207e+11  -2.599409e+11   3.790895e+06   1.374648e-17   0.000000e+00   0.000000e+00
     2896000   2.895999e-05   2.424438e+01   7.472002e+00   6.166598e+00  -1.497334e+05   1.177336e+06  -3.600327e+06   2.112837e+12  -1.711492e+11  -1.438501e+11   3.790896e+06   1.479788e-17   0.000000e+00   0.000000e+00
     2904000   2.903999e-05   2.423926e+01   7.565721e+00   5.878243e+00   2.273550e+04   1.166619e+06  -3.606852e+06   2.196021e+12  -9.748428e+10  -1.770178e+10   3.790896e+06   1.584119e-17   0.000000e+00   0.000000e+00
     2912000   2.911999e-05   2.424819e+01   7.658814e+00   5.589781e+00   2.014626e+05   1.161627e+06  -3.602906e+06   2.269863e+12  -2.782274e+10   1.179385e+11   3.790897e+06   1.693821e-17   0.000000e+00   0.000000e+00
     2920000   2.919999e-05   2.427163e+01   7.751726e+00   5.302077e+00   3.852600e+05   1.162056e+06  -3.587772e+06   2.323855e+12   3.764824e+10   2.617177e+11   3.790897e+06   1.793234e-17   0.000000e+00   0.000000e+00
     2928000   2.927999e-05   2.430993e+01   7.844877e+00   5.016052e+00   5.729843e+05   1.167525e+06  -3.560826e+06   2.366854e+12   9.788029e+10   4.129351e+11   3.790898e+06   1.895474e-17   0.000000e+00   0.000000e+00
     2936000   2.935999e-05   2.436337e+01   7.938652e+00   4.732673e+00   7.634041e+05   1.177575e+06  -3.521569e+06   2.392813e+12   1.525418e+11   5.697040e+11   3.790899e+06   1.990966e-17   0.000000e+00   0.000000e+00
     2944000   2.943999e-05   2.443213e+01   8.033399e+00   4.452943e+00   9.556065e+05   1.191765e+06  -3.469500e+06   2.408224e+12   2.016229e+11   7.325371e+11   3.790899e+06   2.090435e-17   0.000000e+00   0.000000e+00
     2952000   2.951999e-05   2.451628e+01   8.129434e+00   4.177904e+00   1.148279e+06   1.209697e+06  -3.404264e+06   2.406258e+12   2.462111e+11   8.991166e+11   3.790900e+06   2.182980e-17   0.000000e+00   0.000000e+00
     2960000   2.959999e-05   2.461584e+01   8.227041e+00   3.908622e+00   1.340387e+06   1.230991e+06  -3.325500e+06   2.393111e+12   2.853726e+11   1.070190e+12   3.790901e+06   2.279563e-17   0.000000e+00   0.000000e+00
     2968000   2.967999e-05   2.473070e+01   8.326471e+00   3.646191e+00   1.530749e+06   1.255238e+06  -3.232974e+06   2.363257e+12   3.203667e+11   1.243319e+12   3.790901e+06   2.371267e-17   0.000000e+00   0.000000e+00
     2976000   2.975999e-05   2.486068e+01   8.427950e+00   3.391718e+00   1.718186e+06   1.282123e+06  -3.126489e+06   2.322702e+12   3.505009e+11   1.420169e+12   3.790902e+06   2.470012e-17   0.000000e+00   0.000000e+00
     2984000   2.983999e-05   2.500551e+01   8.531669e+00   3.146333e+00   1.901854e+06   1.311196e+06  -3.005772e+06   2.264544e+12   3.757300e+11   1.596731e+12   3.790903e+06   2.563183e-17   0.000000e+00   0.000000e+00
     2992000   2.991999e-05   2.516483e+01   8.637791e+00   2.911168e+00   2.080167e+06   1.342151e+06  -2.870973e+06   2.192798e+12   3.973018e+11   1.774501e+12   3.790904e+06   2.660278e-17   0.000000e+00   0.000000e+00
     3000000   2.999999e-05   2.533817e+01   8.746453e+00   2.687359e+00   2.252284e+06   1.374632e+06  -2.721868e+06   2.106890e+12   4.141157e+11   1.952515e+12   3.790905e+06   2.761158e-17   0.000000e+00   0.000000e+00
     3008000   3.007999e-05   2.552499e+01   8.857764e+00   2.476044e+00   2.416795e+06   1.408294e+06  -2.558667e+06   2.003514e+12   4.269094e+11   2.127362e+12   3.790906e+06   2.859243e-17   0.000000e+00   0.000000e+00
     3016000   3.015999e-05   2.572463e+01   8.971802e+00   2.278345e+00   2.572544e+06   1.442762e+06  -2.381476e+06   1.887483e+12   4.343709e+11   2.302033e+12   3.790907e+06   2.966979e-17   0.000000e+00   0.000000e+00
     3024000   3.023999e-05   2.593633e+01   9.088618e+00   2.095375e+00   2.718261e+06   1.477684e+06  -2.190546e+06   1.752912e+12   4.377658e+11   2.470461e+12   3.790908e+06   3.070864e-17   0.000000e+00   0.000000e+00
     3032000   3.031999e-05   2.615924e+01   9.208234e+00   1.928211e+00   2.852551e+06   1.512711e+06  -1.986365e+06   1.602454e+12   4.366097e+11   2.633681e+12   3.790909e+06   3.178142e-17   0.000000e+00   0.000000e+00
     3040000   3.039999e-05   2.639240e+01   9.330642e+00   1.777901e+00   2.974262e+06   1.547394e+06  -1.769276e+06   1.437067e+12   4.297002e+11   2.791553e+12   3.790910e+06   3.292163e-17   0.000000e+00   0.000000e+00
     3048000   3.047999e-05   2.663475e+01   9.455797e+00   1.645456e+00   3.082081e+06   1.581304e+06  -1.539890e+06   1.254916e+12   4.173575e+11   2.940222e+12   3.790911e+06   3.407341e-17   0.000000e+00   0.000000e+00
     3056000   3.055999e-05   2.688513e+01   9.583618e+00   1.531822e+00   3.174646e+06   1.613956e+06  -1.299146e+06   1.056441e+12   3.978113e+11   3.075689e+12   3.790912e+06   3.518895e-17   0.000000e+00   0.000000e+00
     3064000   3.063999e-05   2.714226e+01   9.713981e+00   1.437870e+00   3.250758e+06   1.644781e+06  -1.047992e+06   8.439556e+11   3.714293e+11   3.200696e+12   3.790913e+06   3.637073e-17   0.000000e+00   0.000000e+00
     3072000   3.071999e-05   2.740478e+01   9.846718e+00   1.364396e+00   3.309304e+06   1.673187e+06  -7.873889e+05   6.172340e+11   3.375157e+11   3.311232e+12   3.790914e+06   3.756560e-17   0.000000e+00   0.000000e+00
     3080000   3.079999e-05   2.767125e+01   9.981609e+00   1.312105e+00   3.349203e+06   1.698515e+06  -5.185808e+05   3.785135e+11   2.939743e+11   3.407222e+12   3.790915e+06   3.881034e-17   0.000000e+00   0.000000e+00
     3088000   3.087999e-05   2.794013e+01   1.011838e+01   1.281606e+00   3.369517e+06   1.720004e+06  -2.428809e+05   1.278482e+11   2.414224e+11   3.482826e+12   3.790917e+06   4.000974e-17   0.000000e+00   0.000000e+00
     3096000   3.095999e-05   2.820983e+01   1.025669e+01   1.273386e+00   3.369405e+06   1.736869e+06   3.811644e+04  -1.321307e+11   1.787488e+11   3.538220e+12   3.790918e+06   4.120209e-17   0.000000e+00   0.000000e+00
     3104000   3.103999e-05   2.847867e+01   1.039613e+01   1.287799e+00   3.348186e+06   1.748316e+06   3.226623e+05  -3.994324e+11   1.057419e+11   3.572258e+12   3.790919e+06   4.239322e-17   0.000000e+00   0.000000e+00
     3112000   3.111999e-05   2.874496e+01   1.053625e+01   1.325059e+00   3.305357e+06   1.753522e+06   6.089784e+05  -6.719103e+11   2.276844e+10   3.581591e+12   3.790921e+06   4.353416e-17   0.000000e+00   0.000000e+00
     3120000   3.119999e-05   2.900695e+01   1.067651e+01   1.385230e+00   3.240609e+06   1.751672e+06   8.950917e+05  -9.470568e+11  -7.032892e+10   3.566529e+12   3.790922e+06   4.465606e-17   0.000000e+00   0.000000e+00
     3128000   3.127999e-05   2.926287e+01   1.081631e+01   1.468216e+00   3.153825e+06   1.741936e+06   1.179046e+06  -1.222530e+12  -1.744856e+11   3.528048e+12   3.790924e+06   4.580398e-17   0.000000e+00   0.000000e+00
     3136000   3.135999e-05   2.951097e+01   1.095499e+01   1.573767e+00   3.045019e+06   1.723551e+06   1.458885e+06  -1.497297e+12  -2.868483e+11   3.464178e+12   3.790925e+06   4.695981e-17   0.000000e+00   0.000000e+00
     3144000   3.143999e-05   2.974949e+01   1.109183e+01   1.701475e+00   2.914344e+06   1.695781e+06   1.732642e+06  -1.767939e+12  -4.092265e+11   3.374320e+12   3.790927e+06   4.812168e-17   0.000000e+00   0.000000e+00
     3152000   3.151999e-05   2.997669e+01   1.122604e+01   1.850769e+00   2.762241e+06   1.657875e+06   1.998153e+06  -2.033513e+12  -5.397827e+11   3.259057e+12   3.790928e+06   4.933099e-17   0.000000e+00   0.000000e+00
     3160000   3.159999e-05   3.019089e+01   1.135680e+01   2.020902e+00   2.589239e+06   1.609314e+06   2.253242e+06  -2.291800e+12  -6.756888e+11   3.116206e+12   3.790930e+06   5.054936e-17   0.000000e+00   0.000000e+00
     3168000   3.167999e-05   3.039043e+01   1.148324e+01   2.210957e+00   2.395892e+06   1.549634e+06   2.495896e+06  -2.542200e+12  -8.182059e+11   2.948405e+12   3.790931e+06   5.187936e-17   0.000000e+00   0.000000e+00
     3176000   3.175999e-05   3.057371e+01   1.160443e+01   2.419858e+00   2.182915e+06   1.478388e+06   2.724046e+06  -2.780945e+12  -9.636752e+11   2.751574e+12   3.790933e+06   5.321744e-17   0.000000e+00   0.000000e+00
     3184000   3.183999e-05   3.073920e+01   1.171947e+01   2.646356e+00   1.951254e+06   1.395426e+06   2.935401e+06  -3.008669e+12  -1.111022e+12   2.528170e+12   3.790935e+06   5.467506e-17   0.000000e+00   0.000000e+00
     3192000   3.191999e-05   3.088544e+01   1.182739e+01   2.889019e+00   1.701847e+06   1.300606e+06   3.127833e+06  -3.224204e+12  -1.259832e+12   2.278197e+12   3.790937e+06   5.629701e-17   0.000000e+00   0.000000e+00
     3200000   3.199999e-05   3.101104e+01   1.192724e+01   3.146250e+00   1.435614e+06   1.193830e+06   3.299242e+06  -3.426732e+12  -1.408532e+12   2.000820e+12   3.790939e+06   5.812266e-17   0.000000e+00   0.000000e+00
     3208000   3.207999e-05   3.111473e+01   1.201809e+01   3.416271e+00   1.154014e+06   1.075305e+06   3.447202e+06  -3.612183e+12  -1.555027e+12   1.694366e+12   3.790940e+06   6.011293e-17   0.000000e+00   0.000000e+00
     3216000   3.215999e-05   3.119530e+01   1.209898e+01   3.697120e+00   8.580983e+05   9.451520e+05   3.569538e+06  -3.780006e+12  -1.697062e+12   1.358100e+12   3.790942e+06   6.232932e-17   0.000000e+00   0.000000e+00
     3224000   3.223999e-05   3.125170e+01   1.216901e+01   3.986645e+00   5.498412e+05   8.038660e+05   3.663705e+06  -3.924742e+12  -1.834487e+12   9.915820e+11   3.790944e+06   6.475288e-17   0.000000e+00   0.000000e+00
     3232000   3.231999e-05   3.128299e+01   1.222731e+01   4.282500e+00   2.307863e+05   6.517912e+05   3.727356e+06  -4.045965e+12  -1.965406e+12   5.942533e+11   3.790947e+06   6.748575e-17   0.000000e+00   0.000000e+00
     3240000   3.239999e-05   3.128840e+01   1.227303e+01   4.582141e+00  -9.662033e+04   4.896627e+05   3.757950e+06  -4.134735e+12  -2.086053e+12   1.655630e+11   3.790949e+06   7.040109e-17   0.000000e+00   0.000000e+00
     3248000   3.247999e-05   3.126737e+01   1.230541e+01   4.882825e+00  -4.297712e+05   3.183360e+05   3.753035e+06  -4.187483e+12  -2.195515e+12  -2.932356e+11   3.790951e+06   7.356871e-17   0.000000e+00   0.000000e+00
     3256000   3.255999e-05   3.121957e+01   1.232375e+01   5.181617e+00  -7.653148e+05   1.387820e+05   3.710305e+06  -4.194181e+12  -2.290806e+12  -7.793731e+11   3.790954e+06   7.686374e-17   0.000000e+00   0.000000e+00
     3264000   3.263999e-05   3.114495e+01   1.232743e+01   5.475408e+00  -1.099610e+06  -4.783992e+04   3.627660e+06  -4.151987e+12  -2.371035e+12  -1.289743e+12   3.790956e+06   8.039743e-17   0.000000e+00   0.000000e+00
     3272000   3.271999e-05   3.104379e+01   1.231595e+01   5.760936e+00  -1.428065e+06  -2.400593e+05   3.503480e+06  -4.049533e+12  -2.432093e+12  -1.817218e+12   3.790959e+06   8.397690e-17   0.000000e+00   0.000000e+00
     3280000   3.279999e-05   3.091675e+01   1.228891e+01   6.034830e+00  -1.745600e+06  -4.363474e+05   3.336745e+06  -3.877578e+12  -2.472189e+12  -2.351743e+12   3.790961e+06   8.745849e-17   0.000000e+00   0.000000e+00
     3288000   3.287999e-05   3.076494e+01   1.224607e+01   6.293675e+00  -2.046509e+06  -6.349733e+05   3.127302e+06  -3.631834e+12  -2.489555e+12  -2.882070e+12   3.790964e+06   9.079070e-17   0.000000e+00   0.000000e+00
     3296000   3.295999e-05   3.058992e+01   1.218730e+01   6.534085e+00  -2.324546e+06  -8.340445e+05   2.876159e+06  -3.307006e+12  -2.482446e+12  -3.392536e+12   3.790967e+06   9.378631e-17   0.000000e+00   0.000000e+00
     3304000   3.303999e-05   3.039379e+01   1.211266e+01   6.752803e+00  -2.573481e+06  -1.031544e+06   2.585453e+06  -2.902820e+12  -2.450340e+12  -3.866901e+12   3.790970e+06   9.632832e-17   0.000000e+00   0.000000e+00
     3312000   3.311999e-05   3.017912e+01   1.202235e+01   6.946805e+00  -2.786869e+06  -1.225401e+06   2.259034e+06  -2.420687e+12  -2.392426e+12  -4.283919e+12   3.790973e+06   9.813796e-17   0.000000e+00   0.000000e+00
     3320000   3.319999e-05   2.994899e+01   1.191675e+01   7.113433e+00  -2.958912e+06  -1.413623e+06   1.902109e+06  -1.870788e+12  -2.309428e+12  -4.626368e+12   3.790977e+06   9.912569e-17   0.000000e+00   0.000000e+00
     3328000   3.327999e-05   2.970692e+01   1.179638e+01   7.250503e+00  -3.084737e+06  -1.594254e+06   1.521276e+06  -1.266478e+12  -2.202857e+12  -4.876409e+12   3.790980e+06   9.912373e-17   0.000000e+00   0.000000e+00
     3336000   3.335999e-05   2.945676e+01   1.166192e+01   7.356407e+00  -3.160756e+06  -1.765507e+06   1.124348e+06  -6.291617e+11  -2.075111e+12  -5.026869e+12   3.790983e+06   9.825669e-17   0.000000e+00   0.000000e+00
     3344000   3.343999e-05   2.920258e+01   1.151419e+01   7.430197e+00  -3.185084e+06  -1.925778e+06   7.198594e+05   2.111087e+10  -1.929049e+12  -5.066805e+12   3.790986e+06   9.636487e-17   0.000000e+00   0.000000e+00
     3352000   3.351999e-05   2.894853e+01   1.135412e+01   7.471617e+00  -3.157679e+06  -2.073751e+06   3.165790e+05   6.601501e+11  -1.768239e+12  -4.997364e+12   3.790989e+06   9.355205e-17   0.000000e+00   0.000000e+00
     3360000   3.359999e-05   2.869869e+01   1.118274e+01   7.481108e+00  -3.080362e+06  -2.208405e+06  -7.703315e+04   1.265216e+12  -1.596530e+12  -4.826658e+12   3.790992e+06   8.997951e-17   0.000000e+00   0.000000e+00
     3368000   3.367999e-05   2.845691e+01   1.100115e+01   7.459755e+00  -2.956651e+06  -2.329023e+06  -4.533293e+05   1.817177e+12  -1.417911e+12  -4.567702e+12   3.790995e+06   8.581680e-17   0.000000e+00   0.000000e+00
     3376000   3.375999e-05   2.822673e+01   1.081049e+01   7.409210e+00  -2.791437e+06  -2.435183e+06  -8.058695e+05   2.301034e+12  -1.235953e+12  -4.236005e+12   3.790998e+06   8.119307e-17   0.000000e+00   0.000000e+00
     3384000   3.383999e-05   2.801123e+01   1.061191e+01   7.331584e+00  -2.590565e+06  -2.526753e+06  -1.129680e+06   2.707873e+12  -1.053942e+12  -3.852509e+12   3.791000e+06   7.633831e-17   0.000000e+00   0.000000e+00
     3392000   3.391999e-05   2.781302e+01   1.040659e+01   7.229320e+00  -2.360346e+06  -2.603889e+06  -1.421348e+06   3.034798e+12  -8.756481e+11  -3.435685e+12   3.791003e+06   7.140604e-17   0.000000e+00   0.000000e+00
     3400000   3.399999e-05   2.763419e+01   1.019566e+01   7.105077e+00  -2.107161e+06  -2.666957e+06  -1.678967e+06   3.281987e+12  -7.024316e+11  -3.003350e+12   3.791005e+06   6.650253e-17   0.000000e+00   0.000000e+00
     3408000   3.407999e-05   2.747632e+01   9.980239e+00   6.961612e+00  -1.837246e+06  -2.716441e+06  -1.901897e+06   3.454522e+12  -5.361317e+11  -2.571446e+12   3.791007e+06   6.174410e-17   0.000000e+00   0.000000e+00
     3416000   3.415999e-05   2.734053e+01   9.761377e+00   6.801684e+00  -1.556170e+06  -2.753020e+06  -2.090686e+06   3.562092e+12  -3.795184e+11  -2.151721e+12   3.791009e+06   5.724929e-17   0.000000e+00   0.000000e+00
     3424000   3.423999e-05   2.722750e+01   9.540081e+00   6.627977e+00  -1.268945e+06  -2.777423e+06  -2.246655e+06   3.609258e+12  -2.322495e+11  -1.751518e+12   3.791011e+06   5.294171e-17   0.000000e+00   0.000000e+00
     3432000   3.431999e-05   2.713754e+01   9.317292e+00   6.443047e+00  -9.800598e+05  -2.790486e+06  -2.371591e+06   3.605980e+12  -9.603014e+10  -1.377242e+12   3.791012e+06   4.887848e-17   0.000000e+00   0.000000e+00
     3440000   3.439999e-05   2.707064e+01   9.093883e+00   6.249287e+00  -6.930594e+05  -2.793069e+06  -2.467837e+06   3.563607e+12   2.972329e+10  -1.034488e+12   3.791014e+06   4.514516e-17   0.000000e+00   0.000000e+00
     3448000   3.447999e-05   2.702652e+01   8.870658e+00   6.048891e+00  -4.108049e+05  -2.786035e+06  -2.537921e+06   3.488416e+12   1.442097e+11  -7.230165e+11   3.791015e+06   4.167743e-17   0.000000e+00   0.000000e+00
     3456000   3.455999e-05   2.700472e+01   8.648350e+00   5.843850e+00  -1.355878e+05  -2.770278e+06  -2.584372e+06   3.387909e+12   2.479832e+11  -4.436122e+11   3.791016e+06   3.847646e-17   0.000000e+00   0.000000e+00
     3464000   3.463999e-05   2.700459e+01   8.427623e+00   5.635954e+00   1.306242e+05  -2.746652e+06  -2.609723e+06   3.265386e+12   3.409385e+11  -1.954266e+11   3.791018e+06   3.546347e-17   0.000000e+00   0.000000e+00
     3472000   3.471999e-05   2.702535e+01   8.209072e+00   5.426792e+00   3.865583e+05  -2.716023e+06  -2.616413e+06   3.131238e+12   4.231505e+11   2.332196e+10   3.791019e+06   3.273281e-17   0.000000e+00   0.000000e+00
     3480000   3.479999e-05   2.706614e+01   7.993224e+00   5.217764e+00   6.313537e+05  -2.679214e+06  -2.606729e+06   2.987131e+12   4.954699e+11   2.142050e+11   3.791020e+06   3.020866e-17   0.000000e+00   0.000000e+00
     3488000   3.487999e-05   2.712605e+01   7.780543e+00   5.010094e+00   8.643826e+05  -2.636985e+06  -2.582827e+06   2.837293e+12   5.585792e+11   3.792192e+11   3.791021e+06   2.788664e-17   0.000000e+00   0.000000e+00
     3496000   3.495999e-05   2.720412e+01   7.571430e+00   4.804839e+00   1.085186e+06  -2.590114e+06  -2.546669e+06   2.682732e+12   6.118985e+11   5.207973e+11   3.791021e+06   2.571189e-17   0.000000e+00   0.000000e+00
     3504000   3.503999e-05   2.729935e+01   7.366229e+00   4.602906e+00   1.293650e+06  -2.539320e+06  -2.500035e+06   2.528540e+12   6.562363e+11   6.418227e+11   3.791022e+06   2.372319e-17   0.000000e+00   0.000000e+00
     3512000   3.511999e-05   2.741077e+01   7.165225e+00   4.405070e+00   1.489792e+06  -2.485299e+06  -2.444517e+06   2.375687e+12   6.929034e+11   7.433539e+11   3.791023e+06   2.188884e-17   0.000000e+00   0.000000e+00
     3520000   3.519999e-05   2.753739e+01   6.968651e+00   4.211982e+00   1.673812e+06  -2.428678e+06  -2.381540e+06   2.224694e+12   7.212301e+11   8.280449e+11   3.791024e+06   2.017919e-17   0.000000e+00   0.000000e+00
     3528000   3.527999e-05   2.767826e+01   6.776688e+00   4.024187e+00   1.845834e+06  -2.370125e+06  -2.312416e+06   2.077092e+12   7.415007e+11   8.979613e+11   3.791024e+06   1.859037e-17   0.000000e+00   0.000000e+00
     3536000   3.535999e-05   2.783242e+01   6.589469e+00   3.842130e+00   2.006304e+06  -2.310143e+06  -2.238270e+06   1.935368e+12   7.568814e+11   9.535852e+11   3.791025e+06   1.713925e-17   0.000000e+00   0.000000e+00
     3544000   3.543999e-05   2.799897e+01   6.407090e+00   3.666170e+00   2.155620e+06  -2.249208e+06  -2.160148e+06   1.797981e+12   7.654734e+11   9.971579e+11   3.791025e+06   1.577924e-17   0.000000e+00   0.000000e+00
     3552000   3.551999e-05   2.817703e+01   6.229608e+00   3.496586e+00   2.294136e+06  -2.187802e+06  -2.079024e+06   1.666133e+12   7.684189e+11   1.029879e+12   3.791026e+06   1.451412e-17   0.000000e+00   0.000000e+00
     3560000   3.559999e-05   2.836576e+01   6.057043e+00   3.333587e+00   2.422403e+06  -2.126336e+06  -1.995630e+06   1.541525e+12   7.673207e+11   1.053587e+12   3.791026e+06   1.336013e-17   0.000000e+00   0.000000e+00
     3568000   3.567999e-05   2.856435e+01   5.889386e+00   3.177326e+00   2.540903e+06  -2.065183e+06  -1.910684e+06   1.421719e+12   7.607343e+11   1.068391e+12   3.791027e+06   1.226623e-17   0.000000e+00   0.000000e+00
     3576000   3.575999e-05   2.877206e+01   5.726597e+00   3.027902e+00   2.650139e+06  -2.004659e+06  -1.824827e+06   1.309711e+12   7.513035e+11   1.076690e+12   3.791027e+06   1.127483e-17   0.000000e+00   0.000000e+00
     3584000   3.583999e-05   2.898814e+01   5.568614e+00   2.885363e+00   2.750580e+06  -1.945086e+06  -1.738632e+06   1.202903e+12   7.377466e+11   1.077668e+12   3.791028e+06   1.033572e-17   0.000000e+00   0.000000e+00
     3592000   3.591999e-05   2.921193e+01   5.415352e+00   2.749718e+00   2.842772e+06  -1.886703e+06  -1.652541e+06   1.103431e+12   7.216043e+11   1.074298e+12   3.791028e+06   9.482583e-18   0.000000e+00   0.000000e+00
     3600000   3.599999e-05   2.944278e+01   5.266705e+00   2.620944e+00   2.927275e+06  -1.829696e+06  -1.566899e+06   1.010225e+12   7.030846e+11   1.066278e+12   3.791028e+06   8.693933e-18   0.000000e+00   0.000000e+00
     3608000   3.607999e-05   2.968010e+01   5.122558e+00   2.498991e+00   3.004539e+06  -1.774259e+06  -1.482108e+06   9.224213e+11   6.827603e+11   1.052577e+12   3.791028e+06   7.950081e-18   0.000000e+00   0.000000e+00
     3616000   3.615999e-05   2.992333e+01   4.982779e+00   2.383775e+00   3.075051e+06  -1.720494e+06  -1.398520e+06   8.415259e+11   6.613602e+11   1.036700e+12   3.791029e+06   7.279206e-18   0.000000e+00   0.000000e+00
     3624000   3.623999e-05   3.017194e+01   4.847233e+00   2.275192e+00   3.139341e+06  -1.668473e+06  -1.316297e+06   7.665397e+11   6.387796e+11   1.018480e+12   3.791029e+06   6.664871e-18   0.000000e+00   0.000000e+00
     3632000   3.631999e-05   3.042547e+01   4.715774e+00   2.173124e+00   3.197817e+06  -1.618307e+06  -1.235698e+06   6.961413e+11   6.151435e+11   9.958938e+11   3.791029e+06   6.080961e-18   0.000000e+00   0.000000e+00
     3640000   3.639999e-05   3.068345e+01   4.588253e+00   2.077429e+00   3.250872e+06  -1.570056e+06  -1.157004e+06   6.314183e+11   5.913068e+11   9.716979e+11   3.791029e+06   5.548901e-18   0.000000e+00   0.000000e+00
     3648000   3.647999e-05   3.094547e+01   4.464514e+00   1.987948e+00   3.298936e+06  -1.523725e+06  -1.080366e+06   5.714091e+11   5.671467e+11   9.449125e+11   3.791029e+06   5.052193e-18   0.000000e+00   0.000000e+00
     3656000   3.655999e-05   3.121116e+01   4.344406e+00   1.904515e+00   3.342448e+06  -1.479281e+06  -1.005821e+06   5.170503e+11   5.438496e+11   9.183475e+11   3.791030e+06   4.611084e-18   0.000000e+00   0.000000e+00
     3664000   3.663999e-05   3.148015e+01   4.227779e+00   1.826957e+00   3.381771e+06  -1.436711e+06  -9.334845e+05   4.671331e+11   5.206402e+11   8.909786e+11   3.791030e+06   4.206675e-18   0.000000e+00   0.000000e+00
     3672000   3.671999e-05   3.175214e+01   4.114483e+00   1.755098e+00   3.417269e+06  -1.395978e+06  -8.633822e+05   4.208867e+11   4.976231e+11   8.612647e+11   3.791030e+06   3.824502e-18   0.000000e+00   0.000000e+00
     3680000   3.679999e-05   3.202682e+01   4.004373e+00   1.688753e+00   3.449239e+06  -1.357069e+06  -7.956260e+05   3.790730e+11   4.754146e+11   8.324668e+11   3.791030e+06   3.484082e-18   0.000000e+00   0.000000e+00
     3688000   3.687999e-05   3.230393e+01   3.897305e+00   1.627736e+00   3.478009e+06  -1.319920e+06  -7.301882e+05   3.408280e+11   4.536281e+11   8.034097e+11   3.791030e+06   3.171621e-18   0.000000e+00   0.000000e+00
     3696000   3.695999e-05   3.258322e+01   3.793141e+00   1.571861e+00   3.503857e+06  -1.284475e+06  -6.670986e+05   3.060782e+11   4.328806e+11   7.741298e+11   3.791030e+06   2.886189e-18   0.000000e+00   0.000000e+00
     3704000   3.703999e-05   3.286448e+01   3.691746e+00   1.520936e+00   3.527043e+06  -1.250659e+06  -6.064090e+05   2.743522e+11   4.130847e+11   7.437487e+11   3.791030e+06   2.619728e-18   0.000000e+00   0.000000e+00
     3712000   3.711999e-05   3.314749e+01   3.592993e+00   1.474771e+00   3.547809e+06  -1.218413e+06  -5.481160e+05   2.455523e+11   3.939322e+11   7.137057e+11   3.791030e+06   2.376413e-18   0.000000e+00   0.000000e+00
     3720000   3.719999e-05   3.343207e+01   3.496761e+00   1.433174e+00   3.566388e+06  -1.187645e+06  -4.922231e+05   2.194479e+11   3.755107e+11   6.839509e+11   3.791030e+06   2.153805e-18   0.000000e+00   0.000000e+00
     3728000   3.727999e-05   3.371806e+01   3.402933e+00   1.395953e+00   3.582996e+06  -1.158278e+06  -4.386850e+05   1.961332e+11   3.587576e+11   6.546785e+11   3.791030e+06   1.953245e-18   0.000000e+00   0.000000e+00
     3736000   3.735999e-05   3.400530e+01   3.311401e+00   1.362922e+00   3.597829e+06  -1.130224e+06  -3.874731e+05   1.751236e+11   3.428629e+11   6.259720e+11   3.791031e+06   1.770585e-18   0.000000e+00   0.000000e+00
     3744000   3.743999e-05   3.429367e+01   3.222064e+00   1.333897e+00   3.611068e+06  -1.103402e+06  -3.385299e+05   1.562311e+11   3.279868e+11   5.974502e+11   3.791031e+06   1.602944e-18   0.000000e+00   0.000000e+00
     3752000   3.751999e-05   3.458303e+01   3.134826e+00   1.308698e+00   3.622881e+06  -1.077725e+06  -2.918097e+05   1.393672e+11   3.141454e+11   5.700429e+11   3.791031e+06   1.452558e-18   0.000000e+00   0.000000e+00
     3760000   3.759999e-05   3.487329e+01   3.049599e+00   1.287149e+00   3.633414e+06  -1.053126e+06  -2.472714e+05   1.243147e+11   3.012183e+11   5.437829e+11   3.791031e+06   1.317573e-18   0.000000e+00   0.000000e+00
     3768000   3.767999e-05   3.516435e+01   2.966299e+00   1.269078e+00   3.642805e+06  -1.029527e+06  -2.048464e+05   1.107621e+11   2.889332e+11   5.175415e+11   3.791031e+06   1.192052e-18   0.000000e+00   0.000000e+00
     3776000   3.775999e-05   3.545612e+01   2.884850e+00   1.254318e+00   3.651176e+06  -1.006863e+06  -1.644786e+05   9.880459e+10   2.778811e+11   4.922315e+11   3.791031e+06   1.079509e-18   0.000000e+00   0.000000e+00
     3784000   3.783999e-05   3.574851e+01   2.805178e+00   1.242708e+00   3.658640e+06  -9.850716e+05  -1.261146e+05   8.807427e+10   2.672876e+11   4.672861e+11   3.791031e+06   9.755292e-19   0.000000e+00   0.000000e+00
     3792000   3.791999e-05   3.604148e+01   2.727217e+00   1.234088e+00   3.665302e+06  -9.640693e+05  -8.968407e+04   7.866159e+10   2.578115e+11   4.434193e+11   3.791031e+06   8.828111e-19   0.000000e+00   0.000000e+00
     3800000   3.799999e-05   3.633494e+01   2.650907e+00   1.228308e+00   3.671254e+06  -9.438071e+05  -5.512350e+04   7.031794e+10   2.489715e+11   4.203555e+11   3.791031e+06   7.987350e-19   0.000000e+00   0.000000e+00
     3808000   3.807999e-05   3.662886e+01   2.576191e+00   1.225220e+00   3.676584e+06  -9.241991e+05  -2.235252e+04   6.299591e+10   2.409720e+11   3.982284e+11   3.791031e+06   7.233030e-19   0.000000e+00   0.000000e+00
     3816000   3.815999e-05   3.692318e+01   2.503018e+00   1.224685e+00   3.681364e+06  -9.052086e+05   8.674721e+03   5.657345e+10   2.336906e+11   3.773431e+11   3.791031e+06   6.563487e-19   0.000000e+00   0.000000e+00
     3824000   3.823999e-05   3.721787e+01   2.431341e+00   1.226564e+00   3.685654e+06  -8.868046e+05   3.803801e+04   5.085323e+10   2.266638e+11   3.570360e+11   3.791031e+06   5.948365e-19   0.000000e+00   0.000000e+00
     3832000   3.831999e-05   3.751287e+01   2.361115e+00   1.230728e+00   3.689517e+06  -8.689340e+05   6.580721e+04   4.587239e+10   2.203168e+11   3.372796e+11   3.791031e+06   5.389849e-19   0.000000e+00   0.000000e+00
     3840000   3.839999e-05   3.780818e+01   2.292300e+00   1.237052e+00   3.693012e+06  -8.515366e+05   9.201123e+04   4.159180e+10   2.147317e+11   3.179432e+11   3.791031e+06   4.882544e-19   0.000000e+00   0.000000e+00
     3848000   3.847999e-05   3.810375e+01   2.224858e+00   1.245410e+00   3.696184e+06  -8.345795e+05   1.167050e+05   3.780923e+10   2.093362e+11   2.995520e+11   3.791031e+06   4.425365e-19   0.000000e+00   0.000000e+00
     3856000   3.855999e-05   3.839956e+01   2.158756e+00   1.255687e+00   3.699072e+06  -8.180405e+05   1.399727e+05   3.445506e+10   2.040673e+11   2.820889e+11   3.791031e+06   4.013006e-19   0.000000e+00   0.000000e+00
     3864000   3.863999e-05   3.869559e+01   2.093961e+00   1.267769e+00   3.701711e+06  -8.019031e+05   1.618785e+05   3.150477e+10   1.990291e+11   2.655180e+11   3.791031e+06   3.642543e-19   0.000000e+00   0.000000e+00
     3872000   3.871999e-05   3.899183e+01   2.030442e+00   1.281553e+00   3.704133e+06  -7.861346e+05   1.824990e+05   2.905123e+10   1.949799e+11   2.502580e+11   3.791031e+06   3.327325e-19   0.000000e+00   0.000000e+00
     3880000   3.879999e-05   3.928825e+01   1.968171e+00   1.296936e+00   3.706373e+06  -7.706841e+05   2.019000e+05   2.692749e+10   1.912510e+11   2.357193e+11   3.791031e+06   3.044569e-19   0.000000e+00   0.000000e+00
     3888000   3.887999e-05   3.958484e+01   1.907124e+00   1.313825e+00   3.708454e+06  -7.555336e+05   2.201270e+05   2.509789e+10   1.875514e+11   2.209082e+11   3.791031e+06   2.773776e-19   0.000000e+00   0.000000e+00
     3896000   3.895999e-05   3.988160e+01   1.847278e+00   1.332127e+00   3.710397e+06  -7.406676e+05   2.372424e+05   2.347533e+10   1.840881e+11   2.075773e+11   3.791031e+06   2.541724e-19   0.000000e+00   0.000000e+00
     3904000   3.903999e-05   4.017850e+01   1.788610e+00   1.351755e+00   3.712217e+06  -7.260879e+05   2.532971e+05   2.201889e+10   1.805423e+11   1.948359e+11   3.791031e+06   2.329067e-19   0.000000e+00   0.000000e+00
     3912000   3.911999e-05   4.047555e+01   1.731096e+00   1.372627e+00   3.713926e+06  -7.118026e+05   2.683369e+05   2.070381e+10   1.765256e+11   1.817105e+11   3.791031e+06   2.118175e-19   0.000000e+00   0.000000e+00
     3920000   3.919999e-05   4.077273e+01   1.674714e+00   1.394663e+00   3.715543e+06  -6.977826e+05   2.824074e+05   1.965705e+10   1.735150e+11   1.701079e+11   3.791031e+06   1.948411e-19   0.000000e+00   0.000000e+00
     3928000   3.927999e-05   4.107003e+01   1.619444e+00   1.417787e+00   3.717082e+06  -6.840214e+05   2.955221e+05   1.879047e+10   1.704189e+11   1.581102e+11   3.791031e+06   1.783306e-19   0.000000e+00   0.000000e+00
     3936000   3.935999e-05   4.136746e+01   1.565264e+00   1.441923e+00   3.718552e+06  -6.705166e+05   3.077240e+05   1.796391e+10   1.672333e+11   1.473186e+11   3.791031e+06   1.638985e-19   0.000000e+00   0.000000e+00
     3944000   3.943999e-05   4.166500e+01   1.512154e+00   1.467000e+00   3.719959e+06  -6.572786e+05   3.190725e+05   1.720755e+10   1.637311e+11   1.366650e+11   3.791031e+06   1.500925e-19   0.000000e+00   0.000000e+00
     3952000   3.951999e-05   4.196265e+01   1.460092e+00   1.492953e+00   3.721306e+06  -6.443155e+05   3.296337e+05   1.645728e+10   1.599510e+11   1.268584e+11   3.791031e+06   1.375260e-19   0.000000e+00   0.000000e+00
     3960000   3.959999e-05   4.226041e+01   1.409056e+00   1.519721e+00   3.722599e+06  -6.316280e+05   3.394400e+05   1.587471e+10   1.569753e+11   1.180038e+11   3.791031e+06   1.272640e-19   0.000000e+00   0.000000e+00
     3968000   3.967999e-05   4.255827e+01   1.359025e+00   1.547244e+00   3.723846e+06  -6.192040e+05   3.485287e+05   1.533447e+10   1.536430e+11   1.091259e+11   3.791031e+06   1.172044e-19   0.000000e+00   0.000000e+00
     3976000   3.975999e-05   4.285622e+01   1.309976e+00   1.575467e+00   3.725052e+06  -6.070498e+05   3.569233e+05   1.481595e+10   1.501709e+11   1.007818e+11   3.791031e+06   1.079525e-19   0.000000e+00   0.000000e+00
     3984000   3.983999e-05   4.315427e+01   1.261889e+00   1.604335e+00   3.726220e+06  -5.951689e+05   3.646622e+05   1.438679e+10   1.468481e+11   9.266496e+10   3.791031e+06   9.952816e-20   0.000000e+00   0.000000e+00
     3992000   3.991999e-05   4.345242e+01   1.214741e+00   1.633797e+00   3.727348e+06  -5.835840e+05   3.717873e+05   1.385396e+10   1.428564e+11   8.534575e+10   3.791031e+06   9.141610e-20   0.000000e+00   0.000000e+00
     4000000   3.999999e-05   4.375065e+01   1.168507e+00   1.663805e+00   3.728436e+06  -5.723096e+05   3.783418e+05   1.338746e+10   1.388895e+11   7.816676e+10   3.791031e+06   8.386173e-20   0.000000e+00   0.000000e+00
     4008000   4.007999e-05   4.404897e+01   1.123163e+00   1.694317e+00   3.729487e+06  -5.613554e+05   3.843463e+05   1.285451e+10   1.348125e+11   7.216723e+10   3.791031e+06   7.720050e-20   0.000000e+00   0.000000e+00
     4016000   4.015999e-05   4.434737e+01   1.078681e+00   1.725287e+00   3.730500e+06  -5.507368e+05   3.898370e+05   1.241369e+10   1.304661e+11   6.552323e+10   3.791031e+06   7.038476e-20   0.000000e+00   0.000000e+00
     4024000   4.023999e-05   4.464585e+01   1.035035e+00   1.756678e+00   3.731475e+06  -5.404741e+05   3.948390e+05   1.199206e+10   1.261061e+11   5.928809e+10   3.791031e+06   6.413226e-20   0.000000e+00   0.000000e+00
     4032000   4.031999e-05   4.494440e+01   9.921962e-01   1.788449e+00   3.732416e+06  -5.305668e+05   3.993585e+05   1.160966e+10   1.215710e+11   5.300908e+10   3.791031e+06   5.810849e-20   0.000000e+00   0.000000e+00
     4040000   4.039999e-05   4.524303e+01   9.501351e-01   1.820563e+00   3.733323e+06  -5.210217e+05   4.034269e+05   1.114147e+10   1.169950e+11   4.799474e+10   3.791031e+06   5.283410e-20   0.000000e+00   0.000000e+00
     4048000   4.047999e-05   4.554173e+01   9.088228e-01   1.852986e+00   3.734197e+06  -5.118453e+05   4.070720e+05   1.071217e+10   1.124291e+11   4.310070e+10   3.791031e+06   4.790737e-20   0.000000e+00   0.000000e+00
     4056000   4.055999e-05   4.584050e+01   8.682293e-01   1.885684e+00   3.735032e+06  -5.030639e+05   4.103398e+05   1.023549e+10   1.073950e+11   3.849677e+10   3.791031e+06   4.301505e-20   0.000000e+00   0.000000e+00
     4064000   4.063999e-05   4.613934e+01   8.283210e-01   1.918631e+00   3.735824e+06  -4.947245e+05   4.132627e+05   9.613370e+09   1.013951e+11   3.447906e+10   3.791031e+06   3.790642e-20   0.000000e+00   0.000000e+00
     4072000   4.071999e-05   4.643823e+01   7.890612e-01   1.951798e+00   3.736569e+06  -4.868471e+05   4.158699e+05   9.074036e+09   9.577802e+10   3.059511e+10   3.791031e+06   3.341373e-20   0.000000e+00   0.000000e+00
     4080000   4.079999e-05   4.673719e+01   7.504133e-01   1.985161e+00   3.737272e+06  -4.794289e+05   4.181637e+05   8.510193e+09   8.972245e+10   2.680939e+10   3.791031e+06   2.898607e-20   0.000000e+00   0.000000e+00
     4088000   4.087999e-05   4.703619e+01   7.123401e-01   2.018696e+00   3.737934e+06  -4.724824e+05   4.201513e+05   8.026165e+09   8.378957e+10   2.282010e+10   3.791031e+06   2.493582e-20   0.000000e+00   0.000000e+00
     4096000   4.095999e-05   4.733525e+01   6.748030e-01   2.052377e+00   3.738554e+06  -4.660300e+05   4.218339e+05   7.516495e+09   7.757345e+10   1.908521e+10   3.791031e+06   2.110827e-20   0.000000e+00   0.000000e+00
     4104000   4.103999e-05   4.763436e+01   6.377617e-01   2.086182e+00   3.739133e+06  -4.600884e+05   4.232286e+05   6.958330e+09   7.091465e+10   1.561554e+10   3.791031e+06   1.744546e-20   0.000000e+00   0.000000e+00
     4112000   4.111999e-05   4.793351e+01   6.011747e-01   2.120087e+00   3.739666e+06  -4.546773e+05   4.243660e+05   6.345128e+09   6.420510e+10   1.287564e+10   3.791031e+06   1.419054e-20   0.000000e+00   0.000000e+00
     4120000   4.119999e-05   4.823271e+01   5.649982e-01   2.154075e+00   3.740144e+06  -4.498321e+05   4.253098e+05   5.676649e+09   5.696004e+10   1.032424e+10   3.791031e+06   1.109215e-20   0.000000e+00   0.000000e+00
     4128000   4.127999e-05   4.853194e+01   5.291862e-01   2.188132e+00   3.740567e+06  -4.455650e+05   4.260797e+05   4.888725e+09   4.956273e+10   8.911096e+09   3.791031e+06   8.392363e-21   0.000000e+00   0.000000e+00
     4136000   4.135999e-05   4.883120e+01   4.936914e-01   2.222244e+00   3.740930e+06  -4.419097e+05   4.266998e+05   4.192157e+09   4.174555e+10   6.480464e+09   3.791031e+06   5.908871e-21   0.000000e+00   0.000000e+00
     4144000   4.143999e-05   4.913048e+01   4.584644e-01   2.256399e+00   3.741238e+06  -4.388661e+05   4.271449e+05   3.497767e+09   3.427615e+10   4.580816e+09   3.791031e+06   3.960805e-21   0.000000e+00   0.000000e+00
     4152000   4.151999e-05   4.942979e+01   4.234563e-01   2.290583e+00   3.741489e+06  -4.364408e+05   4.274259e+05   2.795978e+09   2.632557e+10   2.406120e+09   3.791031e+06   2.316852e-21   0.000000e+00   0.000000e+00
     4160000   4.159999e-05   4.972912e+01   3.886167e-01   2.324783e+00   3.741683e+06  -4.346597e+05   4.275489e+05   1.993147e+09   1.800828e+10   8.648190e+08   3.791031e+06   1.078799e-21   0.000000e+00   0.000000e+00
