     timestep     time              x             y              z              vx             vy             vz             ax             ay             az         v_magnitude      ELoss        Electronic      Nuclear
           0   0.000000e+00   1.000000e-01   6.148435e+00   1.744226e+01   2.241269e+06  -1.839047e+06   2.442021e+06   0.000000e+00   0.000000e+00   0.000000e+00   3.790626e+06   0.000000e+00   0.000000e+00   0.000000e+00
        8000   7.999000e-08   2.834399e-01   6.007992e+00   1.763864e+01   2.341844e+06  -1.666906e+06   2.471041e+06   1.141560e+12   2.347726e+12   5.018753e+11   3.790627e+06   2.316260e-17   0.000000e+00   0.000000e+00
       16000   1.599900e-07   4.741170e-01   5.882595e+00   1.783827e+01   2.420645e+06  -1.462398e+06   2.524030e+06   8.085834e+11   2.769533e+12   8.292123e+11   3.790627e+06   2.953701e-17   0.000000e+00   0.000000e+00
       24000   2.399900e-07   6.698910e-01   5.774926e+00   1.804322e+01   2.467409e+06  -1.223595e+06   2.604529e+06   3.374470e+11   3.200536e+12   1.183960e+12   3.790628e+06   3.854174e-17   0.000000e+00   0.000000e+00
       32000   3.199900e-07   8.677463e-01   5.687719e+00   1.825574e+01   2.470812e+06  -9.512828e+05   2.712752e+06  -2.728283e+11   3.600287e+12   1.511068e+12   3.790630e+06   5.021268e-17   0.000000e+00   0.000000e+00
       40000   3.999900e-07   1.063801e+00   5.623498e+00   1.847786e+01   2.421117e+06  -6.500727e+05   2.843323e+06  -9.792727e+11   3.916146e+12   1.729282e+12   3.790632e+06   6.321139e-17   0.000000e+00   0.000000e+00
       48000   4.799900e-07   1.253586e+00   5.584241e+00   1.871095e+01   2.314018e+06  -3.290224e+05   2.984287e+06  -1.687131e+12   4.086554e+12   1.758828e+12   3.790634e+06   7.420616e-17   0.000000e+00   0.000000e+00
       56000   5.599900e-07   1.432618e+00   5.571078e+00   1.895519e+01   2.153793e+06   2.467264e+02   3.119311e+06  -2.285792e+12   4.112250e+12   1.578026e+12   3.790636e+06   8.071597e-17   0.000000e+00   0.000000e+00
       64000   6.399900e-07   1.597127e+00   5.584167e+00   1.920944e+01   1.953763e+06   3.253684e+05   3.232010e+06  -2.669370e+12   3.987164e+12   1.212330e+12   3.790639e+06   8.028162e-17   0.000000e+00   0.000000e+00
       72000   7.199900e-07   1.744672e+00   5.622730e+00   1.947140e+01   1.733060e+06   6.355081e+05   3.310830e+06  -2.805801e+12   3.750512e+12   7.488653e+11   3.790642e+06   7.374941e-17   0.000000e+00   0.000000e+00
       80000   7.999900e-07   1.874385e+00   5.685253e+00   1.973815e+01   1.511052e+06   9.234433e+05   3.351560e+06  -2.710641e+12   3.439734e+12   2.744130e+11   3.790644e+06   6.311366e-17   0.000000e+00   0.000000e+00
       88000   8.799900e-07   1.990105e+00   5.765647e+00   2.000666e+01   1.460852e+06   9.865096e+05   3.355845e+06   2.303712e+12  -2.914569e+12  -1.460120e+11   3.790645e+06   4.531060e-17   0.000000e+00   0.000000e+00
       96000   9.599900e-07   2.114032e+00   5.835719e+00   2.027434e+01   1.633471e+06   7.714610e+05   3.332509e+06   2.016542e+12  -2.454623e+12  -4.201680e+11   3.790646e+06   3.365797e-17   0.000000e+00   0.000000e+00
      104000   1.039990e-06   2.250874e+00   5.890096e+00   2.053939e+01   1.784086e+06   5.943762e+05   3.291315e+06   1.754059e+12  -1.974824e+12  -5.941488e+11   3.790647e+06   2.402604e-17   0.000000e+00   0.000000e+00
      112000   1.119990e-06   2.398958e+00   5.931817e+00   2.080067e+01   1.914919e+06   4.545775e+05   3.239669e+06   1.524255e+12  -1.532747e+12  -6.858791e+11   3.790648e+06   1.685869e-17   0.000000e+00   0.000000e+00
      120000   1.199990e-06   2.556807e+00   5.963713e+00   2.105760e+01   2.028676e+06   3.479829e+05   3.183142e+06   1.324443e+12  -1.141934e+12  -7.192442e+11   3.790648e+06   1.172014e-17   0.000000e+00   0.000000e+00
      128000   1.279990e-06   2.723153e+00   5.988256e+00   2.130995e+01   2.127691e+06   2.699138e+05   3.125555e+06   1.155405e+12  -8.191205e+11  -7.157860e+11   3.790648e+06   8.254670e-18   0.000000e+00   0.000000e+00
      136000   1.359990e-06   2.896899e+00   6.007534e+00   2.155773e+01   2.213992e+06   2.156537e+05   3.069324e+06   1.005462e+12  -5.455983e+11  -6.869285e+11   3.790649e+06   5.836335e-18   0.000000e+00   0.000000e+00
      144000   1.439990e-06   3.077096e+00   6.023296e+00   2.180112e+01   2.289187e+06   1.815057e+05   3.015907e+06   8.767464e+11  -3.182082e+11  -6.463287e+11   3.790649e+06   4.220894e-18   0.000000e+00   0.000000e+00
      152000   1.519990e-06   3.262908e+00   6.037019e+00   2.204037e+01   2.354574e+06   1.641784e+05   2.966150e+06   7.599743e+11  -1.195877e+11  -5.966566e+11   3.790649e+06   3.106988e-18   0.000000e+00   0.000000e+00
      160000   1.599990e-06   3.453590e+00   6.049956e+00   2.227581e+01   2.411054e+06   1.614516e+05   2.920577e+06   6.531828e+11   4.462745e+10  -5.416932e+11   3.790649e+06   2.366861e-18   0.000000e+00   0.000000e+00
      168000   1.679990e-06   3.648459e+00   6.063170e+00   2.250779e+01   2.459376e+06   1.707958e+05   2.879465e+06   5.563323e+11   1.855180e+11  -4.861702e+11   3.790649e+06   1.902083e-18   0.000000e+00   0.000000e+00
      176000   1.759990e-06   3.846888e+00   6.077573e+00   2.273665e+01   2.500110e+06   1.910381e+05   2.842881e+06   4.629350e+11   3.188003e+11  -4.285392e+11   3.790649e+06   1.637557e-18   0.000000e+00   0.000000e+00
      184000   1.839990e-06   4.048284e+00   6.093991e+00   2.296277e+01   2.533629e+06   2.207279e+05   2.810876e+06   3.763303e+11   4.211108e+11  -3.722780e+11   3.790649e+06   1.499750e-18   0.000000e+00   0.000000e+00
      192000   1.919990e-06   4.252089e+00   6.113100e+00   2.318651e+01   2.560403e+06   2.583501e+05   2.783274e+06   2.929332e+11   5.194618e+11  -3.176926e+11   3.790649e+06   1.496556e-18   0.000000e+00   0.000000e+00
      200000   1.999990e-06   4.457773e+00   6.135526e+00   2.340821e+01   2.580623e+06   3.033764e+05   2.759958e+06   2.130411e+11   6.006441e+11  -2.652197e+11   3.790649e+06   1.561853e-18   0.000000e+00   0.000000e+00
      208000   2.079990e-06   4.664820e+00   6.161807e+00   2.362821e+01   2.594528e+06   3.546443e+05   2.740743e+06   1.353836e+11   6.769350e+11  -2.157526e+11   3.790649e+06   1.714648e-18   0.000000e+00   0.000000e+00
      216000   2.159990e-06   4.872737e+00   6.192410e+00   2.384683e+01   2.602327e+06   4.114288e+05   2.725370e+06   5.842226e+10   7.456471e+11  -1.683473e+11   3.790649e+06   1.926462e-18   0.000000e+00   0.000000e+00
      224000   2.239990e-06   5.081036e+00   6.227750e+00   2.406436e+01   2.604215e+06   4.726612e+05   2.713610e+06  -1.199348e+10   7.895363e+11  -1.260105e+11   3.790649e+06   2.095746e-18   0.000000e+00   0.000000e+00
      232000   2.319990e-06   5.289260e+00   6.268142e+00   2.428109e+01   2.600444e+06   5.377557e+05   2.705094e+06  -8.187469e+10   8.348648e+11  -8.725601e+10   3.790649e+06   2.331503e-18   0.000000e+00   0.000000e+00
      240000   2.399990e-06   5.496957e+00   6.313889e+00   2.449726e+01   2.591087e+06   6.063586e+05   2.699559e+06  -1.487729e+11   8.667339e+11  -5.188263e+10   3.790649e+06   2.543720e-18   0.000000e+00   0.000000e+00
      248000   2.479990e-06   5.703697e+00   6.365219e+00   2.471309e+01   2.576539e+06   6.773739e+05   2.696597e+06  -2.146502e+11   9.068252e+11  -2.269397e+10   3.790650e+06   2.848084e-18   0.000000e+00   0.000000e+00
      256000   2.559990e-06   5.909066e+00   6.422338e+00   2.492877e+01   2.556912e+06   7.507208e+05   2.695856e+06  -2.746241e+11   9.240718e+11   3.145270e+09   3.790650e+06   3.046133e-18   0.000000e+00   0.000000e+00
      264000   2.639990e-06   6.112683e+00   6.485353e+00   2.514448e+01   2.532829e+06   8.246264e+05   2.696997e+06  -3.275219e+11   9.281470e+11   2.380135e+10   3.790650e+06   3.177100e-18   0.000000e+00   0.000000e+00
      272000   2.719990e-06   6.314200e+00   6.554315e+00   2.536033e+01   2.504428e+06   8.994686e+05   2.699597e+06  -3.797799e+11   9.366656e+11   4.024316e+10   3.790650e+06   3.353760e-18   0.000000e+00   0.000000e+00
      280000   2.799990e-06   6.513294e+00   6.629255e+00   2.557644e+01   2.472304e+06   9.739958e+05   2.703345e+06  -4.237394e+11   9.304671e+11   5.228784e+10   3.790650e+06   3.435321e-18   0.000000e+00   0.000000e+00
      288000   2.879990e-06   6.709681e+00   6.710138e+00   2.579289e+01   2.436846e+06   1.047947e+06   2.707880e+06  -4.620744e+11   9.187676e+11   6.026657e+10   3.790650e+06   3.478624e-18   0.000000e+00   0.000000e+00
      296000   2.959990e-06   6.903107e+00   6.796913e+00   2.600972e+01   2.398302e+06   1.121369e+06   2.712878e+06  -4.922514e+11   8.965318e+11   6.459361e+10   3.790650e+06   3.442506e-18   0.000000e+00   0.000000e+00
      304000   3.039990e-06   7.093364e+00   6.889475e+00   2.622695e+01   2.357732e+06   1.192468e+06   2.718115e+06  -5.232677e+11   8.838651e+11   6.613228e+10   3.790650e+06   3.472470e-18   0.000000e+00   0.000000e+00
      312000   3.119990e-06   7.280293e+00   6.987661e+00   2.644461e+01   2.315299e+06   1.261699e+06   2.723332e+06  -5.384000e+11   8.506494e+11   6.363674e+10   3.790650e+06   3.335236e-18   0.000000e+00   0.000000e+00
      320000   3.199990e-06   7.463775e+00   7.091290e+00   2.666268e+01   2.271628e+06   1.328559e+06   2.728309e+06  -5.466331e+11   8.124360e+11   5.951935e+10   3.790651e+06   3.154567e-18   0.000000e+00   0.000000e+00
      328000   3.279990e-06   7.643751e+00   7.200131e+00   2.688113e+01   2.227749e+06   1.391947e+06   2.732883e+06  -5.503720e+11   7.739352e+11   5.445665e+10   3.790651e+06   2.965912e-18   0.000000e+00   0.000000e+00
      336000   3.359990e-06   7.820227e+00   7.313898e+00   2.709993e+01   2.184339e+06   1.451416e+06   2.736985e+06  -5.362178e+11   7.157938e+11   4.836524e+10   3.790651e+06   2.629561e-18   0.000000e+00   0.000000e+00
      344000   3.439990e-06   7.993267e+00   7.432256e+00   2.731904e+01   2.141911e+06   1.506820e+06   2.740573e+06  -5.171933e+11   6.606847e+11   4.096077e+10   3.790651e+06   2.313084e-18   0.000000e+00   0.000000e+00
      352000   3.519990e-06   8.162988e+00   7.554860e+00   2.753841e+01   2.101460e+06   1.557516e+06   2.743546e+06  -4.912770e+11   6.041004e+11   3.335413e+10   3.790651e+06   1.990982e-18   0.000000e+00   0.000000e+00
      360000   3.599990e-06   8.329575e+00   7.681320e+00   2.775799e+01   2.063719e+06   1.603103e+06   2.745935e+06  -4.558055e+11   5.396144e+11   2.753228e+10   3.790651e+06   1.637937e-18   0.000000e+00   0.000000e+00
      368000   3.679990e-06   8.493266e+00   7.811218e+00   2.797774e+01   2.029246e+06   1.643351e+06   2.747834e+06  -4.081639e+11   4.705797e+11   1.999448e+10   3.790651e+06   1.273263e-18   0.000000e+00   0.000000e+00
      376000   3.759990e-06   8.654353e+00   7.944118e+00   2.819763e+01   1.998665e+06   1.678140e+06   2.749222e+06  -3.512990e+11   3.939950e+11   1.489611e+10   3.790651e+06   9.141045e-19   0.000000e+00   0.000000e+00
      384000   3.839990e-06   8.813182e+00   8.079555e+00   2.841761e+01   1.972861e+06   1.706801e+06   2.750215e+06  -2.884686e+11   3.171336e+11   1.011784e+10   3.790651e+06   6.027895e-19   0.000000e+00   0.000000e+00
      392000   3.919990e-06   8.970158e+00   8.217034e+00   2.863765e+01   1.952398e+06   1.729173e+06   2.750843e+06  -2.229037e+11   2.422305e+11   5.939758e+09   3.790651e+06   3.553280e-19   0.000000e+00   0.000000e+00
      400000   3.999990e-06   9.125719e+00   8.356051e+00   2.885773e+01   1.937682e+06   1.745124e+06   2.751176e+06  -1.448789e+11   1.574186e+11   2.186254e+09   3.790651e+06   1.500606e-19   0.000000e+00   0.000000e+00
      408000   4.079990e-06   9.280362e+00   8.496067e+00   2.907783e+01   1.929544e+06   1.754061e+06   2.751211e+06  -5.951938e+10   6.760775e+10  -1.360404e+09   3.790651e+06   2.660860e-20   0.000000e+00   0.000000e+00
      416000   4.159990e-06   9.434635e+00   8.636507e+00   2.929792e+01   1.928511e+06   1.755698e+06   2.750892e+06   3.223297e+10  -2.498869e+10  -6.648397e+09   3.790651e+06   5.592998e-21   0.000000e+00   0.000000e+00
      424000   4.239990e-06   9.589125e+00   8.776776e+00   2.951796e+01   1.935023e+06   1.749693e+06   2.750144e+06   1.307562e+11  -1.253617e+11  -1.224352e+10   3.790651e+06   1.080230e-19   0.000000e+00   0.000000e+00
      432000   4.319990e-06   9.744455e+00   8.916239e+00   2.973793e+01   1.949616e+06   1.735500e+06   2.748831e+06   2.338818e+11  -2.294765e+11  -2.099888e+10   3.790651e+06   3.533081e-19   0.000000e+00   0.000000e+00
      440000   4.399990e-06   9.901225e+00   9.054300e+00   2.995775e+01   1.968820e+06   1.717049e+06   2.746730e+06   1.670000e+11  -1.477866e+11  -2.731819e+10   3.790651e+06   1.655125e-19   0.000000e+00   0.000000e+00
      448000   4.479990e-06   1.005905e+01   9.191416e+00   3.017741e+01   1.975260e+06   1.712608e+06   2.744879e+06   2.821051e+10  -7.225183e+08  -1.984994e+10   3.790651e+06   3.904033e-21   0.000000e+00   0.000000e+00
      456000   4.559990e-06   1.021706e+01   9.328528e+00   3.039695e+01   1.973711e+06   1.716525e+06   2.743546e+06  -6.888441e+10   1.010372e+11  -1.365926e+10   3.790651e+06   4.961154e-20   0.000000e+00   0.000000e+00
      464000   4.639990e-06   1.037464e+01   9.466280e+00   3.061639e+01   1.964383e+06   1.728628e+06   2.742641e+06  -1.656586e+11   2.009661e+11  -8.013461e+09   3.790651e+06   2.225131e-19   0.000000e+00   0.000000e+00
      472000   4.719990e-06   1.053115e+01   9.605325e+00   3.083578e+01   1.946958e+06   1.748868e+06   2.742235e+06  -2.700522e+11   3.037912e+11  -2.008786e+09   3.790651e+06   5.415074e-19   0.000000e+00   0.000000e+00
      480000   4.799990e-06   1.068593e+01   9.746321e+00   3.105516e+01   1.920969e+06   1.777420e+06   2.742205e+06  -3.793934e+11   4.085251e+11   9.793348e+08   3.790651e+06   1.018774e-18   0.000000e+00   0.000000e+00
      488000   4.879990e-06   1.083828e+01   9.889925e+00   3.127454e+01   1.886289e+06   1.814042e+06   2.742299e+06  -4.917601e+11   5.089408e+11   1.592348e+09   3.790651e+06   1.641586e-18   0.000000e+00   0.000000e+00
      496000   4.959990e-06   1.098748e+01   1.003678e+01   3.149393e+01   1.842283e+06   1.858669e+06   2.742331e+06  -6.106362e+11   6.080593e+11  -1.899421e+09   3.790651e+06   2.434018e-18   0.000000e+00   0.000000e+00
      504000   5.039990e-06   1.113278e+01   1.018752e+01   3.171330e+01   1.788333e+06   1.911170e+06   2.741957e+06  -7.388526e+11   7.029961e+11  -8.103816e+09   3.790651e+06   3.409316e-18   0.000000e+00   0.000000e+00
      512000   5.119990e-06   1.127333e+01   1.034277e+01   3.193262e+01   1.723803e+06   1.971100e+06   2.740859e+06  -8.738056e+11   7.917484e+11  -1.982314e+10   3.790651e+06   4.558559e-18   0.000000e+00   0.000000e+00
      520000   5.199990e-06   1.140829e+01   1.050308e+01   3.215181e+01   1.648221e+06   2.037724e+06   2.738629e+06  -1.017956e+12   8.731492e+11  -3.702728e+10   3.790652e+06   5.899818e-18   0.000000e+00   0.000000e+00
      528000   5.279990e-06   1.153674e+01   1.066896e+01   3.237076e+01   1.560934e+06   2.110309e+06   2.734798e+06  -1.164612e+12   9.387974e+11  -5.969282e+10   3.790652e+06   7.346050e-18   0.000000e+00   0.000000e+00
      536000   5.359990e-06   1.165771e+01   1.084085e+01   3.258932e+01   1.461291e+06   2.187732e+06   2.729011e+06  -1.326139e+12   9.941004e+11  -8.681630e+10   3.790652e+06   9.028132e-18   0.000000e+00   0.000000e+00
      544000   5.439990e-06   1.177020e+01   1.101909e+01   3.280734e+01   1.348717e+06   2.268677e+06   2.720866e+06  -1.495016e+12   1.029996e+12  -1.177346e+11   3.790652e+06   1.084865e-17   0.000000e+00   0.000000e+00
      552000   5.519990e-06   1.187314e+01   1.120389e+01   3.302459e+01   1.222700e+06   2.351456e+06   2.710112e+06  -1.664692e+12   1.039895e+12  -1.512152e+11   3.790653e+06   1.270259e-17   0.000000e+00   0.000000e+00
      560000   5.599990e-06   1.196545e+01   1.139533e+01   3.324088e+01   1.082567e+06   2.434310e+06   2.696522e+06  -1.833678e+12   1.024097e+12  -1.883341e+11   3.790653e+06   1.457484e-17   0.000000e+00   0.000000e+00
      568000   5.679990e-06   1.204598e+01   1.159332e+01   3.345596e+01   9.284194e+05   2.514826e+06   2.680064e+06  -2.016374e+12   9.816450e+11  -2.225972e+11   3.790654e+06   1.664739e-17   0.000000e+00   0.000000e+00
      576000   5.759990e-06   1.211362e+01   1.179757e+01   3.366962e+01   7.602193e+05   2.590432e+06   2.660975e+06  -2.188888e+12   9.027497e+11  -2.534488e+11   3.790654e+06   1.858615e-17   0.000000e+00   0.000000e+00
      584000   5.839990e-06   1.216726e+01   1.200758e+01   3.388166e+01   5.787691e+05   2.658138e+06   2.639772e+06  -2.351888e+12   7.856093e+11  -2.754009e+11   3.790655e+06   2.040199e-17   0.000000e+00   0.000000e+00
      592000   5.919990e-06   1.220587e+01   1.222259e+01   3.409194e+01   3.845975e+05   2.715105e+06   2.617129e+06  -2.504433e+12   6.317238e+11  -2.873110e+11   3.790656e+06   2.213723e-17   0.000000e+00   0.000000e+00
      600000   5.999990e-06   1.222849e+01   1.244162e+01   3.430039e+01   1.789689e+05   2.758095e+06   2.594216e+06  -2.640066e+12   4.365446e+11  -2.819615e+11   3.790656e+06   2.373106e-17   0.000000e+00   0.000000e+00
      608000   6.079990e-06   1.223424e+01   1.266343e+01   3.450705e+01  -3.679961e+04   2.784000e+06   2.572367e+06  -2.748434e+12   2.040387e+11  -2.601140e+11   3.790657e+06   2.511812e-17   0.000000e+00   0.000000e+00
      616000   6.159990e-06   1.222241e+01   1.288653e+01   3.471204e+01  -2.600707e+05   2.789781e+06   2.553150e+06  -2.824337e+12  -6.518471e+10  -2.164369e+11   3.790658e+06   2.631386e-17   0.000000e+00   0.000000e+00
      624000   6.239990e-06   1.219251e+01   1.310919e+01   3.491566e+01  -4.876434e+05   2.772828e+06   2.538251e+06  -2.860761e+12  -3.646155e+11  -1.512583e+11   3.790659e+06   2.733591e-17   0.000000e+00   0.000000e+00
      632000   6.319990e-06   1.214435e+01   1.332951e+01   3.511833e+01  -7.163718e+05   2.730797e+06   2.529558e+06  -2.844529e+12  -6.883466e+11  -6.243000e+10   3.790660e+06   2.808751e-17   0.000000e+00   0.000000e+00
      640000   6.399990e-06   1.207799e+01   1.354542e+01   3.532060e+01  -9.416909e+05   2.662460e+06   2.528564e+06  -2.774544e+12  -1.021012e+12   4.181346e+10   3.790661e+06   2.865547e-17   0.000000e+00   0.000000e+00
      648000   6.479990e-06   1.199388e+01   1.375478e+01   3.552314e+01  -1.159802e+06   2.566980e+06   2.536649e+06  -2.663884e+12  -1.364929e+12   1.633087e+11   3.790662e+06   2.945412e-17   0.000000e+00   0.000000e+00
      656000   6.559990e-06   1.189274e+01   1.395541e+01   3.572673e+01  -1.366337e+06   2.444439e+06   2.554792e+06  -2.487279e+12  -1.693913e+12   2.905513e+11   3.790663e+06   2.996000e-17   0.000000e+00   0.000000e+00
      664000   6.639990e-06   1.177569e+01   1.414520e+01   3.593218e+01  -1.557055e+06   2.295992e+06   2.583240e+06  -2.274029e+12  -2.012542e+12   4.181122e+11   3.790664e+06   3.079921e-17   0.000000e+00   0.000000e+00
      672000   6.719990e-06   1.164412e+01   1.432213e+01   3.614031e+01  -1.728545e+06   2.123431e+06   2.621509e+06  -2.007686e+12  -2.297275e+12   5.370288e+11   3.790665e+06   3.145584e-17   0.000000e+00   0.000000e+00
      680000   6.799990e-06   1.149972e+01   1.448437e+01   3.635187e+01  -1.877423e+06   1.929200e+06   2.668822e+06  -1.706257e+12  -2.549640e+12   6.427920e+11   3.790666e+06   3.220481e-17   0.000000e+00   0.000000e+00
      688000   6.879990e-06   1.134440e+01   1.463030e+01   3.656753e+01  -2.001214e+06   1.716238e+06   2.723752e+06  -1.384481e+12  -2.764881e+12   7.249753e+11   3.790667e+06   3.306294e-17   0.000000e+00   0.000000e+00
      696000   6.959990e-06   1.118024e+01   1.475857e+01   3.678781e+01  -2.098163e+06   1.488327e+06   2.784198e+06  -1.040000e+12  -2.923689e+12   7.791901e+11   3.790668e+06   3.355380e-17   0.000000e+00   0.000000e+00
      704000   7.039990e-06   1.100944e+01   1.486813e+01   3.701309e+01  -2.167473e+06   1.249023e+06   2.848012e+06  -6.941185e+11  -3.050551e+12   8.096282e+11   3.790669e+06   3.423056e-17   0.000000e+00   0.000000e+00
      712000   7.119990e-06   1.083418e+01   1.495819e+01   3.724353e+01  -2.209362e+06   1.001321e+06   2.912946e+06  -3.549784e+11  -3.136978e+12   8.091305e+11   3.790670e+06   3.481464e-17   0.000000e+00   0.000000e+00
      720000   7.199990e-06   1.065665e+01   1.502821e+01   3.747913e+01  -2.224460e+06   7.487310e+05   2.976636e+06  -2.514883e+10  -3.170793e+12   7.788103e+11   3.790671e+06   3.494505e-17   0.000000e+00   0.000000e+00
      728000   7.279990e-06   1.047895e+01   1.507795e+01   3.771970e+01  -2.213935e+06   4.946086e+05   3.036947e+06   2.853747e+11  -3.174341e+12   7.250584e+11   3.790672e+06   3.501880e-17   0.000000e+00   0.000000e+00
      736000   7.359990e-06   1.030306e+01   1.510738e+01   3.796490e+01  -2.179526e+06   2.416108e+05   3.092005e+06   5.707270e+11  -3.143447e+12   6.479652e+11   3.790673e+06   3.483289e-17   0.000000e+00   0.000000e+00
      744000   7.439990e-06   1.013081e+01   1.511670e+01   3.821423e+01  -2.123355e+06  -7.960250e+03   3.140145e+06   8.298199e+11  -3.087704e+12   5.533275e+11   3.790674e+06   3.451116e-17   0.000000e+00   0.000000e+00
      752000   7.519990e-06   9.963848e+00   1.510626e+01   3.846710e+01  -2.047507e+06  -2.519635e+05   3.180165e+06   1.062589e+12  -3.011165e+12   4.455923e+11   3.790675e+06   3.407219e-17   0.000000e+00   0.000000e+00
      760000   7.599990e-06   9.803675e+00   1.507658e+01   3.872282e+01  -1.954115e+06  -4.886389e+05   3.211214e+06   1.268015e+12  -2.909131e+12   3.289827e+11   3.790677e+06   3.336546e-17   0.000000e+00   0.000000e+00
      768000   7.679990e-06   9.651595e+00   1.502831e+01   3.898064e+01  -1.845528e+06  -7.165053e+05   3.232628e+06   1.443184e+12  -2.786961e+12   2.062297e+11   3.790678e+06   3.242581e-17   0.000000e+00   0.000000e+00
      776000   7.759990e-06   9.508739e+00   1.496220e+01   3.923978e+01  -1.723842e+06  -9.344982e+05   3.244122e+06   1.594154e+12  -2.659234e+12   8.110596e+10   3.790679e+06   3.153090e-17   0.000000e+00   0.000000e+00
      784000   7.839990e-06   9.376075e+00   1.487908e+01   3.949943e+01  -1.591109e+06  -1.141831e+06   3.245589e+06   1.719744e+12  -2.522473e+12  -4.431965e+10   3.790680e+06   3.055714e-17   0.000000e+00   0.000000e+00
      792000   7.919990e-06   9.254403e+00   1.477981e+01   3.975881e+01  -1.449277e+06  -1.337859e+06   3.237127e+06   1.824558e+12  -2.379741e+12  -1.666221e+11   3.790681e+06   2.956592e-17   0.000000e+00   0.000000e+00
      800000   7.999990e-06   9.144382e+00   1.466533e+01   4.001711e+01  -1.300271e+06  -1.522033e+06   3.219003e+06   1.899557e+12  -2.226747e+12  -2.855417e+11   3.790682e+06   2.834760e-17   0.000000e+00   0.000000e+00
      808000   8.079990e-06   9.046514e+00   1.453660e+01   4.027360e+01  -1.145625e+06  -1.694213e+06   3.191623e+06   1.960033e+12  -2.075155e+12  -3.979825e+11   3.790682e+06   2.722707e-17   0.000000e+00   0.000000e+00
      816000   8.159990e-06   8.961186e+00   1.439459e+01   4.052754e+01  -9.870124e+05  -1.854220e+06   3.155464e+06   2.003661e+12  -1.926667e+12  -5.053922e+11   3.790683e+06   2.616420e-17   0.000000e+00   0.000000e+00
      824000   8.239990e-06   8.888666e+00   1.424024e+01   4.077825e+01  -8.256504e+05  -2.002387e+06   3.110954e+06   2.028610e+12  -1.778816e+12  -6.065274e+11   3.790684e+06   2.506675e-17   0.000000e+00   0.000000e+00
      832000   8.319990e-06   8.829129e+00   1.407451e+01   4.102508e+01  -6.626350e+05  -2.138952e+06   3.058610e+06   2.040130e+12  -1.634166e+12  -7.007980e+11   3.790685e+06   2.400613e-17   0.000000e+00   0.000000e+00
      840000   8.399990e-06   8.782657e+00   1.389832e+01   4.126743e+01  -4.991146e+05  -2.264090e+06   2.999013e+06   2.042001e+12  -1.492306e+12  -7.867428e+11   3.790686e+06   2.299645e-17   0.000000e+00   0.000000e+00
      848000   8.479990e-06   8.749263e+00   1.371255e+01   4.150475e+01  -3.357639e+05  -2.378153e+06   2.932738e+06   2.035710e+12  -1.358591e+12  -8.685918e+11   3.790686e+06   2.210694e-17   0.000000e+00   0.000000e+00
      856000   8.559990e-06   8.728898e+00   1.351809e+01   4.173651e+01  -1.736475e+05  -2.481613e+06   2.860201e+06   2.015593e+12  -1.229095e+12  -9.440138e+11   3.790687e+06   2.118952e-17   0.000000e+00   0.000000e+00
      864000   8.639990e-06   8.721436e+00   1.331577e+01   4.196223e+01  -1.326102e+04  -2.574947e+06   2.781868e+06   1.992131e+12  -1.106023e+12  -1.014236e+12   3.790688e+06   2.039004e-17   0.000000e+00   0.000000e+00
      872000   8.719990e-06   8.726720e+00   1.310636e+01   4.218146e+01   1.449967e+05  -2.658637e+06   2.698137e+06   1.961817e+12  -9.867935e+11  -1.077752e+12   3.790688e+06   1.961481e-17   0.000000e+00   0.000000e+00
      880000   8.799990e-06   8.744563e+00   1.289064e+01   4.239380e+01   3.005851e+05  -2.732927e+06   2.609613e+06   1.918675e+12  -8.724354e+11  -1.134640e+12   3.790689e+06   1.878167e-17   0.000000e+00   0.000000e+00
      888000   8.879990e-06   8.774727e+00   1.266933e+01   4.259888e+01   4.528907e+05  -2.798249e+06   2.516748e+06   1.881599e+12  -7.637055e+11  -1.187700e+12   3.790690e+06   1.814063e-17   0.000000e+00   0.000000e+00
      896000   8.959990e-06   8.816926e+00   1.244314e+01   4.279638e+01   6.014864e+05  -2.855019e+06   2.420003e+06   1.831077e+12  -6.588180e+11  -1.232334e+12   3.790690e+06   1.739080e-17   0.000000e+00   0.000000e+00
      904000   9.039990e-06   8.870848e+00   1.221274e+01   4.298599e+01   7.459220e+05  -2.903825e+06   2.319642e+06   1.783279e+12  -5.610164e+11  -1.275727e+12   3.790691e+06   1.679016e-17   0.000000e+00   0.000000e+00
      912000   9.119990e-06   8.936183e+00   1.197874e+01   4.316743e+01   8.866368e+05  -2.944950e+06   2.215962e+06   1.725035e+12  -4.708922e+11  -1.315990e+12   3.790691e+06   1.615762e-17   0.000000e+00   0.000000e+00
      920000   9.199990e-06   9.012576e+00   1.174173e+01   4.334046e+01   1.022557e+06  -2.979073e+06   2.109229e+06   1.674203e+12  -3.824493e+11  -1.351804e+12   3.790692e+06   1.565701e-17   0.000000e+00   0.000000e+00
      928000   9.279990e-06   9.099683e+00   1.150227e+01   4.350483e+01   1.154342e+06  -3.006324e+06   1.999715e+06   1.627363e+12  -2.962102e+11  -1.384692e+12   3.790692e+06   1.525324e-17   0.000000e+00   0.000000e+00
      936000   9.359990e-06   9.197176e+00   1.126090e+01   4.366035e+01   1.282136e+06  -3.026847e+06   1.887771e+06   1.563705e+12  -2.194429e+11  -1.413867e+12   3.790693e+06   1.472527e-17   0.000000e+00   0.000000e+00
      944000   9.439990e-06   9.304683e+00   1.101813e+01   4.380682e+01   1.404721e+06  -3.041410e+06   1.773679e+06   1.506326e+12  -1.426445e+11  -1.437557e+12   3.790693e+06   1.427813e-17   0.000000e+00   0.000000e+00
      952000   9.519990e-06   9.421827e+00   1.077445e+01   4.394409e+01   1.523120e+06  -3.049788e+06   1.657787e+06   1.449228e+12  -6.970528e+10  -1.459713e+12   3.790694e+06   1.388463e-17   0.000000e+00   0.000000e+00
      960000   9.599990e-06   9.548246e+00   1.053031e+01   4.407202e+01   1.636353e+06  -3.052777e+06   1.540214e+06   1.381895e+12  -5.627041e+09  -1.479278e+12   3.790694e+06   1.343244e-17   0.000000e+00   0.000000e+00
      968000   9.679990e-06   9.683545e+00   1.028616e+01   4.419049e+01   1.745436e+06  -3.050020e+06   1.421336e+06   1.324209e+12   6.208645e+10  -1.492903e+12   3.790695e+06   1.306602e-17   0.000000e+00   0.000000e+00
      976000   9.759990e-06   9.827371e+00   1.004244e+01   4.429941e+01   1.849272e+06  -3.042371e+06   1.301361e+06   1.255755e+12   1.193755e+11  -1.505354e+12   3.790695e+06   1.264360e-17   0.000000e+00   0.000000e+00
      984000   9.839990e-06   9.979273e+00   9.799497e+00   4.439869e+01   1.947585e+06  -3.030272e+06   1.180564e+06   1.210734e+12   1.880178e+11  -1.514720e+12   3.790695e+06   1.244146e-17   0.000000e+00   0.000000e+00
      992000   9.919990e-06   1.013889e+01   9.557738e+00   4.448828e+01   2.041891e+06  -3.013034e+06   1.059094e+06   1.144444e+12   2.407145e+11  -1.521596e+12   3.790696e+06   1.207220e-17   0.000000e+00   0.000000e+00
     1000000   9.999990e-06   1.030586e+01   9.317536e+00   4.456813e+01   2.131829e+06  -2.991042e+06   9.372050e+05   1.102575e+12   3.080562e+11  -1.524807e+12   3.790696e+06   1.191700e-17   0.000000e+00   0.000000e+00
     1008000   1.007999e-05   1.047989e+01   9.079313e+00   4.463823e+01   2.218171e+06  -2.963885e+06   8.151579e+05   1.053545e+12   3.686867e+11  -1.526284e+12   3.790697e+06   1.171976e-17   0.000000e+00   0.000000e+00
     1016000   1.015999e-05   1.066064e+01   8.843427e+00   4.469856e+01   2.299636e+06  -2.932689e+06   6.931047e+05   9.834445e+11   4.107596e+11  -1.524878e+12   3.790697e+06   1.134514e-17   0.000000e+00   0.000000e+00
     1024000   1.023999e-05   1.084770e+01   8.610179e+00   4.474913e+01   2.376092e+06  -2.897801e+06   5.712497e+05   9.302990e+11   4.628746e+11  -1.521442e+12   3.790697e+06   1.112670e-17   0.000000e+00   0.000000e+00
     1032000   1.031999e-05   1.104070e+01   8.379887e+00   4.478997e+01   2.448441e+06  -2.858705e+06   4.498113e+05   8.862503e+11   5.206333e+11  -1.515214e+12   3.790698e+06   1.098862e-17   0.000000e+00   0.000000e+00
     1040000   1.039999e-05   1.123933e+01   8.152889e+00   4.482111e+01   2.516380e+06  -2.815850e+06   3.289553e+05   8.175892e+11   5.546867e+11  -1.506036e+12   3.790698e+06   1.063429e-17   0.000000e+00   0.000000e+00
     1048000   1.047999e-05   1.144320e+01   7.929440e+00   4.484262e+01   2.579568e+06  -2.769764e+06   2.088705e+05   7.668918e+11   6.014393e+11  -1.495534e+12   3.790698e+06   1.044482e-17   0.000000e+00   0.000000e+00
     1056000   1.055999e-05   1.165197e+01   7.709842e+00   4.485456e+01   2.639267e+06  -2.719487e+06   8.975254e+04   7.234790e+11   6.532273e+11  -1.481630e+12   3.790699e+06   1.031003e-17   0.000000e+00   0.000000e+00
     1064000   1.063999e-05   1.186539e+01   7.494429e+00   4.485701e+01   2.695438e+06  -2.665185e+06  -2.825364e+04   6.766542e+11   6.998904e+11  -1.468437e+12   3.790699e+06   1.017455e-17   0.000000e+00   0.000000e+00
     1072000   1.071999e-05   1.208312e+01   7.283484e+00   4.485007e+01   2.747165e+06  -2.607960e+06  -1.450173e+05   6.233684e+11   7.373587e+11  -1.451807e+12   3.790699e+06   9.964796e-18   0.000000e+00   0.000000e+00
     1080000   1.079999e-05   1.230484e+01   7.077253e+00   4.483385e+01   2.795185e+06  -2.547272e+06  -2.602841e+05   5.800199e+11   7.826485e+11  -1.430689e+12   3.790700e+06   9.819933e-18   0.000000e+00   0.000000e+00
     1088000   1.087999e-05   1.253026e+01   6.876021e+00   4.480847e+01   2.839802e+06  -2.482963e+06  -3.739302e+05   5.354477e+11   8.247779e+11  -1.410309e+12   3.790700e+06   9.689148e-18   0.000000e+00   0.000000e+00
     1096000   1.095999e-05   1.275910e+01   6.680055e+00   4.477407e+01   2.880618e+06  -2.415655e+06  -4.858554e+05   4.928241e+11   8.668452e+11  -1.388047e+12   3.790700e+06   9.574547e-18   0.000000e+00   0.000000e+00
     1104000   1.103999e-05   1.299108e+01   6.489620e+00   4.473078e+01   2.918444e+06  -2.344550e+06  -5.959671e+05   4.652671e+11   9.259417e+11  -1.364321e+12   3.790701e+06   9.621192e-18   0.000000e+00   0.000000e+00
     1112000   1.111999e-05   1.322597e+01   6.305019e+00   4.467876e+01   2.953001e+06  -2.270066e+06  -7.042712e+05   4.121901e+11   9.525109e+11  -1.341947e+12   3.790701e+06   9.433678e-18   0.000000e+00   0.000000e+00
     1120000   1.119999e-05   1.346348e+01   6.126504e+00   4.461815e+01   2.984367e+06  -2.192240e+06  -8.105894e+05   3.712534e+11   9.922086e+11  -1.316611e+12   3.790701e+06   9.360836e-18   0.000000e+00   0.000000e+00
     1128000   1.127999e-05   1.370338e+01   5.954341e+00   4.454912e+01   3.012388e+06  -2.111377e+06  -9.148916e+05   3.294874e+11   1.029147e+12  -1.290209e+12   3.790701e+06   9.284025e-18   0.000000e+00   0.000000e+00
     1136000   1.135999e-05   1.394539e+01   5.788784e+00   4.447183e+01   3.037592e+06  -2.026835e+06  -1.017051e+06   2.951754e+11   1.076610e+12  -1.263965e+12   3.790702e+06   9.321648e-18   0.000000e+00   0.000000e+00
     1144000   1.143999e-05   1.418931e+01   5.630133e+00   4.438645e+01   3.059766e+06  -1.938913e+06  -1.117081e+06   2.554853e+11   1.116074e+12  -1.237398e+12   3.790702e+06   9.315837e-18   0.000000e+00   0.000000e+00
     1152000   1.151999e-05   1.443486e+01   5.478625e+00   4.429315e+01   3.078549e+06  -1.848170e+06  -1.215002e+06   2.220073e+11   1.165535e+12  -1.210430e+12   3.790702e+06   9.416978e-18   0.000000e+00   0.000000e+00
     1160000   1.159999e-05   1.468180e+01   5.334523e+00   4.419211e+01   3.094307e+06  -1.754045e+06  -1.310731e+06   1.737135e+11   1.190696e+12  -1.183339e+12   3.790703e+06   9.336072e-18   0.000000e+00   0.000000e+00
     1168000   1.167999e-05   1.492987e+01   5.198070e+00   4.408349e+01   3.106897e+06  -1.656718e+06  -1.404245e+06   1.394381e+11   1.240971e+12  -1.155602e+12   3.790703e+06   9.488986e-18   0.000000e+00   0.000000e+00
     1176000   1.175999e-05   1.517882e+01   5.069537e+00   4.396748e+01   3.116239e+06  -1.556193e+06  -1.495577e+06   9.436822e+10   1.273611e+12  -1.128621e+12   3.790703e+06   9.521451e-18   0.000000e+00   0.000000e+00
     1184000   1.183999e-05   1.542838e+01   4.949176e+00   4.384426e+01   3.122407e+06  -1.452123e+06  -1.584723e+06   5.351430e+10   1.315418e+12  -1.099931e+12   3.790704e+06   9.646875e-18   0.000000e+00   0.000000e+00
     1192000   1.191999e-05   1.567829e+01   4.837242e+00   4.371399e+01   3.124773e+06  -1.345660e+06  -1.671654e+06   1.081917e+10   1.358254e+12  -1.073170e+12   3.790704e+06   9.822632e-18   0.000000e+00   0.000000e+00
     1200000   1.199999e-05   1.592826e+01   4.733990e+00   4.357685e+01   3.123908e+06  -1.235161e+06  -1.756421e+06  -3.540254e+10   1.398504e+12  -1.046448e+12   3.790704e+06   1.000442e-17   0.000000e+00   0.000000e+00
     1208000   1.207999e-05   1.617801e+01   4.639692e+00   4.343302e+01   3.119096e+06  -1.121748e+06  -1.839119e+06  -8.483276e+10   1.437124e+12  -1.020447e+12   3.790705e+06   1.020671e-17   0.000000e+00   0.000000e+00
     1216000   1.215999e-05   1.642721e+01   4.554589e+00   4.328265e+01   3.110227e+06  -1.005292e+06  -1.919719e+06  -1.372823e+11   1.475310e+12  -9.950040e+11   3.790705e+06   1.044134e-17   0.000000e+00   0.000000e+00
     1224000   1.223999e-05   1.667554e+01   4.478935e+00   4.312592e+01   3.097127e+06  -8.855810e+05  -1.998249e+06  -1.924946e+11   1.513131e+12  -9.689548e+11   3.790705e+06   1.070383e-17   0.000000e+00   0.000000e+00
     1232000   1.231999e-05   1.692263e+01   4.412973e+00   4.296298e+01   3.079469e+06  -7.629713e+05  -2.074655e+06  -2.503961e+11   1.549435e+12  -9.415034e+11   3.790706e+06   1.098044e-17   0.000000e+00   0.000000e+00
     1240000   1.239999e-05   1.716812e+01   4.356926e+00   4.279403e+01   3.056913e+06  -6.377733e+05  -2.148949e+06  -3.139232e+11   1.580980e+12  -9.157860e+11   3.790706e+06   1.126504e-17   0.000000e+00   0.000000e+00
     1248000   1.247999e-05   1.741160e+01   4.310997e+00   4.261921e+01   3.029122e+06  -5.100055e+05  -2.221209e+06  -3.813395e+11   1.613773e+12  -8.905927e+11   3.790706e+06   1.161291e-17   0.000000e+00   0.000000e+00
     1256000   1.255999e-05   1.765263e+01   4.275401e+00   4.243869e+01   2.995755e+06  -3.795036e+05  -2.291481e+06  -4.545869e+11   1.646952e+12  -8.670779e+11   3.790707e+06   1.203277e-17   0.000000e+00   0.000000e+00
     1264000   1.263999e-05   1.789075e+01   4.250344e+00   4.225262e+01   2.956247e+06  -2.464129e+05  -2.359946e+06  -5.339644e+11   1.684278e+12  -8.447638e+11   3.790707e+06   1.257232e-17   0.000000e+00   0.000000e+00
     1272000   1.271999e-05   1.812545e+01   4.236034e+00   4.206115e+01   2.910152e+06  -1.110331e+05  -2.426551e+06  -6.194412e+11   1.703106e+12  -8.208395e+11   3.790707e+06   1.297392e-17   0.000000e+00   0.000000e+00
     1280000   1.279999e-05   1.835619e+01   4.232640e+00   4.186442e+01   2.856972e+06   2.657798e+04  -2.491279e+06  -7.110963e+11   1.732513e+12  -7.970110e+11   3.790708e+06   1.357848e-17   0.000000e+00   0.000000e+00
     1288000   1.287999e-05   1.858237e+01   4.240322e+00   4.166259e+01   2.796237e+06   1.656319e+05  -2.554035e+06  -8.081342e+11   1.743924e+12  -7.716917e+11   3.790708e+06   1.406156e-17   0.000000e+00   0.000000e+00
     1296000   1.295999e-05   1.880338e+01   4.259156e+00   4.145583e+01   2.727571e+06   3.052985e+05  -2.614693e+06  -9.094161e+11   1.747027e+12  -7.447057e+11   3.790709e+06   1.453312e-17   0.000000e+00   0.000000e+00
     1304000   1.303999e-05   1.901856e+01   4.289182e+00   4.124430e+01   2.650547e+06   4.453675e+05  -2.673149e+06  -1.017248e+12   1.751178e+12  -7.169041e+11   3.790709e+06   1.512853e-17   0.000000e+00   0.000000e+00
     1312000   1.311999e-05   1.922722e+01   4.330417e+00   4.102819e+01   2.564579e+06   5.855637e+05  -2.729382e+06  -1.132608e+12   1.749973e+12  -6.887970e+11   3.790710e+06   1.579813e-17   0.000000e+00   0.000000e+00
     1320000   1.319999e-05   1.942864e+01   4.382859e+00   4.080766e+01   2.469188e+06   7.254270e+05  -2.783227e+06  -1.252518e+12   1.743323e+12  -6.568266e+11   3.790710e+06   1.651843e-17   0.000000e+00   0.000000e+00
     1328000   1.327999e-05   1.962203e+01   4.446459e+00   4.058294e+01   2.364052e+06   8.641392e+05  -2.834433e+06  -1.375012e+12   1.718184e+12  -6.230173e+11   3.790711e+06   1.714637e-17   0.000000e+00   0.000000e+00
     1336000   1.335999e-05   1.980662e+01   4.521057e+00   4.035423e+01   2.249058e+06   1.000313e+06  -2.882812e+06  -1.500039e+12   1.683210e+12  -5.862299e+11   3.790711e+06   1.778889e-17   0.000000e+00   0.000000e+00
     1344000   1.343999e-05   1.998161e+01   4.606424e+00   4.012177e+01   2.123928e+06   1.133253e+06  -2.928168e+06  -1.628159e+12   1.636345e+12  -5.476996e+11   3.790712e+06   1.844947e-17   0.000000e+00   0.000000e+00
     1352000   1.351999e-05   2.014618e+01   4.702270e+00   3.988581e+01   1.988439e+06   1.262130e+06  -2.970293e+06  -1.756157e+12   1.579648e+12  -5.044449e+11   3.790713e+06   1.912253e-17   0.000000e+00   0.000000e+00
     1360000   1.359999e-05   2.029949e+01   4.808233e+00   3.964662e+01   1.842581e+06   1.386137e+06  -3.008825e+06  -1.888234e+12   1.516434e+12  -4.577536e+11   3.790713e+06   1.991153e-17   0.000000e+00   0.000000e+00
     1368000   1.367999e-05   2.044072e+01   4.923889e+00   3.940450e+01   1.686439e+06   1.504269e+06  -3.043454e+06  -2.018579e+12   1.438114e+12  -4.077485e+11   3.790714e+06   2.068037e-17   0.000000e+00   0.000000e+00
     1376000   1.375999e-05   2.056904e+01   5.048733e+00   3.915978e+01   1.520014e+06   1.615567e+06  -3.073925e+06  -2.144074e+12   1.344238e+12  -3.537431e+11   3.790715e+06   2.140175e-17   0.000000e+00   0.000000e+00
     1384000   1.383999e-05   2.068366e+01   5.182163e+00   3.891279e+01   1.343875e+06   1.718696e+06  -3.099936e+06  -2.258782e+12   1.232419e+12  -2.959529e+11   3.790715e+06   2.198975e-17   0.000000e+00   0.000000e+00
     1392000   1.391999e-05   2.078382e+01   5.323475e+00   3.866392e+01   1.158759e+06   1.812471e+06  -3.121179e+06  -2.368042e+12   1.108621e+12  -2.353969e+11   3.790716e+06   2.259138e-17   0.000000e+00   0.000000e+00
     1400000   1.399999e-05   2.086884e+01   5.471876e+00   3.841353e+01   9.652134e+05   1.895765e+06  -3.137510e+06  -2.473520e+12   9.744678e+11  -1.721696e+11   3.790717e+06   2.326482e-17   0.000000e+00   0.000000e+00
     1408000   1.407999e-05   2.093805e+01   5.626493e+00   3.816205e+01   7.640582e+05   1.967645e+06  -3.148670e+06  -2.554110e+12   8.218413e+11  -1.062253e+11   3.790717e+06   2.363412e-17   0.000000e+00   0.000000e+00
     1416000   1.415999e-05   2.099092e+01   5.786364e+00   3.790989e+01   5.567147e+05   2.026918e+06  -3.154555e+06  -2.622897e+12   6.567440e+11  -4.092883e+10   3.790718e+06   2.396979e-17   0.000000e+00   0.000000e+00
     1424000   1.423999e-05   2.102699e+01   5.950438e+00   3.765746e+01   3.442224e+05   2.072560e+06  -3.155242e+06  -2.683433e+12   4.810550e+11   2.321319e+10   3.790719e+06   2.436380e-17   0.000000e+00   0.000000e+00
     1432000   1.431999e-05   2.104590e+01   6.117583e+00   3.740518e+01   1.279205e+05   2.103539e+06  -3.150923e+06  -2.720241e+12   2.910670e+11   8.385519e+10   3.790720e+06   2.455623e-17   0.000000e+00   0.000000e+00
     1440000   1.439999e-05   2.104742e+01   6.286584e+00   3.715344e+01  -8.992463e+04   2.118817e+06  -3.141988e+06  -2.724496e+12   8.993003e+10   1.385970e+11   3.790721e+06   2.442090e-17   0.000000e+00   0.000000e+00
     1448000   1.447999e-05   2.103150e+01   6.456155e+00   3.690257e+01  -3.078829e+05   2.117638e+06  -3.128959e+06  -2.717030e+12  -1.211326e+11   1.853453e+11   3.790721e+06   2.435899e-17   0.000000e+00   0.000000e+00
     1456000   1.455999e-05   2.099822e+01   6.624945e+00   3.665289e+01  -5.234768e+05   2.099215e+06  -3.112690e+06  -2.669209e+12  -3.393303e+11   2.200247e+11   3.790722e+06   2.389017e-17   0.000000e+00   0.000000e+00
     1464000   1.463999e-05   2.094788e+01   6.791560e+00   3.640460e+01  -7.342947e+05   2.063127e+06  -3.094172e+06  -2.597953e+12  -5.635283e+11   2.407629e+11   3.790723e+06   2.335477e-17   0.000000e+00   0.000000e+00
     1472000   1.471999e-05   2.088094e+01   6.954573e+00   3.615785e+01  -9.378618e+05   2.009224e+06  -3.074576e+06  -2.486768e+12  -7.850728e+11   2.454934e+11   3.790724e+06   2.248853e-17   0.000000e+00   0.000000e+00
     1480000   1.479999e-05   2.079809e+01   7.112562e+00   3.591266e+01  -1.131358e+06   1.937569e+06  -3.055396e+06  -2.345727e+12  -1.005057e+12   2.312053e+11   3.790724e+06   2.152290e-17   0.000000e+00   0.000000e+00
     1488000   1.487999e-05   2.070025e+01   7.264124e+00   3.566894e+01  -1.312492e+06   1.848664e+06  -3.037993e+06  -2.179855e+12  -1.217905e+12   2.006199e+11   3.790725e+06   2.056999e-17   0.000000e+00   0.000000e+00
     1496000   1.495999e-05   2.058848e+01   7.407901e+00   3.542649e+01  -1.478967e+06   1.743129e+06  -3.023865e+06  -1.976516e+12  -1.417919e+12   1.493208e+11   3.790726e+06   1.946896e-17   0.000000e+00   0.000000e+00
     1504000   1.503999e-05   2.046409e+01   7.542616e+00   3.518499e+01  -1.627692e+06   1.622391e+06  -3.014643e+06  -1.738143e+12  -1.594711e+12   8.022893e+10   3.790726e+06   1.826026e-17   0.000000e+00   0.000000e+00
     1512000   1.511999e-05   2.032857e+01   7.667114e+00   3.494399e+01  -1.756848e+06   1.487829e+06  -3.011554e+06  -1.482086e+12  -1.761793e+12  -5.810998e+09   3.790727e+06   1.737474e-17   0.000000e+00   0.000000e+00
     1520000   1.519999e-05   2.018357e+01   7.780353e+00   3.470295e+01  -1.864128e+06   1.341451e+06  -3.015816e+06  -1.196165e+12  -1.890376e+12  -1.014959e+11   3.790727e+06   1.643758e-17   0.000000e+00   0.000000e+00
     1528000   1.527999e-05   2.003093e+01   7.881495e+00   3.446124e+01  -1.947883e+06   1.185793e+06  -3.028079e+06  -8.945223e+11  -1.992237e+12  -2.047514e+11   3.790728e+06   1.577041e-17   0.000000e+00   0.000000e+00
     1536000   1.535999e-05   1.987257e+01   7.969903e+00   3.421823e+01  -2.006962e+06   1.023527e+06  -3.048625e+06  -5.807155e+11  -2.058665e+12  -3.088844e+11   3.790728e+06   1.531030e-17   0.000000e+00   0.000000e+00
     1544000   1.543999e-05   1.971050e+01   8.045152e+00   3.397324e+01  -2.040534e+06   8.572515e+05  -3.077493e+06  -2.600817e+11  -2.091852e+12  -4.102638e+11   3.790729e+06   1.511707e-17   0.000000e+00   0.000000e+00
     1552000   1.551999e-05   1.954676e+01   8.107028e+00   3.372563e+01  -2.048780e+06   6.897306e+05  -3.113904e+06   5.287180e+10  -2.087454e+12  -4.971733e+11   3.790729e+06   1.510276e-17   0.000000e+00   0.000000e+00
     1560000   1.559999e-05   1.938336e+01   8.155563e+00   3.347484e+01  -2.032084e+06   5.242165e+05  -3.156813e+06   3.613733e+11  -2.046604e+12  -5.724923e+11   3.790730e+06   1.523220e-17   0.000000e+00   0.000000e+00
     1568000   1.567999e-05   1.922225e+01   8.191017e+00   3.322041e+01  -1.991793e+06   3.630407e+05  -3.204777e+06   6.429467e+11  -1.978548e+12  -6.237430e+11   3.790730e+06   1.546216e-17   0.000000e+00   0.000000e+00
     1576000   1.575999e-05   1.906525e+01   8.213818e+00   3.296199e+01  -1.929733e+06   2.081763e+05  -3.256138e+06   9.035914e+11  -1.888493e+12  -6.562616e+11   3.790731e+06   1.577840e-17   0.000000e+00   0.000000e+00
     1584000   1.583999e-05   1.891402e+01   8.224539e+00   3.269938e+01  -1.848149e+06   6.136015e+04  -3.309112e+06   1.131602e+12  -1.778677e+12  -6.649994e+11   3.790731e+06   1.601733e-17   0.000000e+00   0.000000e+00
     1592000   1.591999e-05   1.877000e+01   8.223895e+00   3.243254e+01  -1.749788e+06  -7.578230e+04  -3.361867e+06   1.321433e+12  -1.650554e+12  -6.505886e+11   3.790732e+06   1.604139e-17   0.000000e+00   0.000000e+00
     1600000   1.599999e-05   1.863442e+01   8.212694e+00   3.216154e+01  -1.637720e+06  -2.024912e+05  -3.412700e+06   1.473303e+12  -1.517465e+12  -6.169994e+11   3.790732e+06   1.591107e-17   0.000000e+00   0.000000e+00
     1608000   1.607999e-05   1.850824e+01   8.191785e+00   3.188660e+01  -1.515232e+06  -3.184035e+05  -3.460108e+06   1.583760e+12  -1.380888e+12  -5.664940e+11   3.790733e+06   1.552449e-17   0.000000e+00   0.000000e+00
     1616000   1.615999e-05   1.839217e+01   8.162041e+00   3.160804e+01  -1.385552e+06  -4.233900e+05  -3.502948e+06   1.651999e+12  -1.245331e+12  -5.029239e+11   3.790733e+06   1.485851e-17   0.000000e+00   0.000000e+00
     1624000   1.623999e-05   1.828666e+01   8.124325e+00   3.132627e+01  -1.251947e+06  -5.177555e+05  -3.540370e+06   1.680374e+12  -1.114947e+12  -4.311727e+11   3.790734e+06   1.394004e-17   0.000000e+00   0.000000e+00
     1632000   1.631999e-05   1.819188e+01   8.079465e+00   3.104174e+01  -1.117565e+06  -6.021440e+05  -3.571854e+06   1.671985e+12  -9.951192e+11  -3.553857e+11   3.790734e+06   1.282368e-17   0.000000e+00   0.000000e+00
     1640000   1.639999e-05   1.810779e+01   8.028228e+00   3.075494e+01  -9.852544e+05  -6.773599e+05  -3.597239e+06   1.630066e+12  -8.872746e+11  -2.793977e+11   3.790735e+06   1.154642e-17   0.000000e+00   0.000000e+00
     1648000   1.647999e-05   1.803412e+01   7.971305e+00   3.046634e+01  -8.576121e+05  -7.444063e+05  -3.616633e+06   1.556428e+12  -7.905580e+11  -2.063648e+11   3.790735e+06   1.012907e-17   0.000000e+00   0.000000e+00
     1656000   1.655999e-05   1.797039e+01   7.909318e+00   3.017642e+01  -7.369412e+05  -8.041188e+05  -3.630425e+06   1.455777e+12  -7.034242e+11  -1.397114e+11   3.790735e+06   8.632953e-18   0.000000e+00   0.000000e+00
     1664000   1.663999e-05   1.791555e+01   7.843005e+00   2.988564e+01  -6.639470e+05  -8.401187e+05  -3.636351e+06  -1.073479e+12   4.435401e+11   9.352596e+10   3.790736e+06   4.444909e-18   0.000000e+00   0.000000e+00
     1672000   1.671999e-05   1.785515e+01   7.778911e+00   2.959550e+01  -8.596374e+05  -7.566964e+05  -3.613601e+06  -2.595081e+12   1.085442e+12   3.900258e+11   3.790736e+06   2.643616e-17   0.000000e+00   0.000000e+00
     1680000   1.679999e-05   1.777830e+01   7.721671e+00   2.930782e+01  -1.058663e+06  -6.766520e+05  -3.576459e+06  -2.380003e+12   9.093792e+11   5.324318e+11   3.790737e+06   2.220800e-17   0.000000e+00   0.000000e+00
     1688000   1.687999e-05   1.768622e+01   7.670235e+00   2.902353e+01  -1.240329e+06  -6.120031e+05  -3.529409e+06  -2.160345e+12   7.021950e+11   6.374258e+11   3.790738e+06   1.824695e-17   0.000000e+00   0.000000e+00
     1696000   1.695999e-05   1.758032e+01   7.623284e+00   2.874330e+01  -1.404299e+06  -5.648353e+05  -3.475428e+06  -1.938112e+12   4.739253e+11   7.060864e+11   3.790738e+06   1.468368e-17   0.000000e+00   0.000000e+00
     1704000   1.703999e-05   1.746201e+01   7.579362e+00   2.846757e+01  -1.550384e+06  -5.363982e+05  -3.417351e+06  -1.712213e+12   2.364217e+11   7.396773e+11   3.790739e+06   1.158680e-17   0.000000e+00   0.000000e+00
     1712000   1.711999e-05   1.733274e+01   7.536954e+00   2.819656e+01  -1.678392e+06  -5.269605e+05  -3.357829e+06  -1.485383e+12  -1.548295e+09   7.426951e+11   3.790739e+06   9.040669e-18   0.000000e+00   0.000000e+00
     1720000   1.719999e-05   1.719396e+01   7.494548e+00   2.793029e+01  -1.788115e+06  -5.361989e+05  -3.299218e+06  -1.256674e+12  -2.274291e+11   7.180501e+11   3.790739e+06   7.036440e-18   0.000000e+00   0.000000e+00
     1728000   1.727999e-05   1.704713e+01   7.450686e+00   2.766861e+01  -1.879327e+06  -5.632174e+05  -3.243551e+06  -1.024669e+12  -4.430556e+11   6.706253e+11   3.790739e+06   5.559455e-18   0.000000e+00   0.000000e+00
     1736000   1.735999e-05   1.689375e+01   7.404001e+00   2.741120e+01  -1.952141e+06  -6.064756e+05  -3.192341e+06  -7.954152e+11  -6.354947e+11   6.071282e+11   3.790740e+06   4.606050e-18   0.000000e+00   0.000000e+00
     1744000   1.743999e-05   1.673529e+01   7.353265e+00   2.715768e+01  -2.006556e+06  -6.641446e+05  -3.146801e+06  -5.677360e+11  -8.021135e+11   5.313018e+11   3.790740e+06   4.090870e-18   0.000000e+00   0.000000e+00
     1752000   1.751999e-05   1.657318e+01   7.297407e+00   2.690755e+01  -2.042976e+06  -7.342433e+05  -3.107546e+06  -3.416758e+11  -9.488879e+11   4.488229e+11   3.790740e+06   3.994389e-18   0.000000e+00   0.000000e+00
     1760000   1.759999e-05   1.640889e+01   7.235500e+00   2.666029e+01  -2.061515e+06  -8.149395e+05  -3.075019e+06  -1.255543e+11  -1.061293e+12   3.654314e+11   3.790740e+06   4.181429e-18   0.000000e+00   0.000000e+00
     1768000   1.767999e-05   1.624379e+01   7.166808e+00   2.641537e+01  -2.063215e+06  -9.034357e+05  -3.049042e+06   8.039132e+10  -1.146138e+12   2.851988e+11   3.790740e+06   4.593727e-18   0.000000e+00   0.000000e+00
     1776000   1.775999e-05   1.607921e+01   7.090787e+00   2.617228e+01  -2.048752e+06  -9.979795e+05  -3.029251e+06   2.800073e+11  -1.214706e+12   2.108013e+11   3.790740e+06   5.239232e-18   0.000000e+00   0.000000e+00
     1784000   1.783999e-05   1.591639e+01   7.007034e+00   2.593054e+01  -2.019410e+06  -1.096195e+06  -3.014971e+06   4.542252e+11  -1.242725e+12   1.475917e+11   3.790741e+06   5.809914e-18   0.000000e+00   0.000000e+00
     1792000   1.791999e-05   1.575647e+01   6.915341e+00   2.568976e+01  -1.976409e+06  -1.196268e+06  -3.005406e+06   6.166315e+11  -1.255711e+12   9.430723e+10   3.790741e+06   6.444146e-18   0.000000e+00   0.000000e+00
     1800000   1.799999e-05   1.560048e+01   6.815632e+00   2.544958e+01  -1.921309e+06  -1.296339e+06  -2.999633e+06   7.581897e+11  -1.245495e+12   5.262182e+10   3.790741e+06   6.978248e-18   0.000000e+00   0.000000e+00
     1808000   1.807999e-05   1.544935e+01   6.707959e+00   2.520974e+01  -1.855602e+06  -1.395045e+06  -2.996717e+06   8.787333e+11  -1.217550e+12   2.266996e+10   3.790741e+06   7.392052e-18   0.000000e+00   0.000000e+00
     1816000   1.815999e-05   1.530382e+01   6.592505e+00   2.497005e+01  -1.781250e+06  -1.490756e+06  -2.995750e+06   9.775149e+11  -1.175115e+12   3.534095e+09   3.790741e+06   7.658689e-18   0.000000e+00   0.000000e+00
     1824000   1.823999e-05   1.516453e+01   6.469548e+00   2.473039e+01  -1.700076e+06  -1.582399e+06  -2.995910e+06   1.048597e+12  -1.115296e+12  -5.966891e+09   3.790742e+06   7.681719e-18   0.000000e+00   0.000000e+00
     1832000   1.831999e-05   1.503195e+01   6.339443e+00   2.449069e+01  -1.613633e+06  -1.669390e+06  -2.996506e+06   1.102222e+12  -1.051227e+12  -7.908705e+09   3.790742e+06   7.604948e-18   0.000000e+00   0.000000e+00
     1840000   1.839999e-05   1.490642e+01   6.202605e+00   2.425095e+01  -1.524181e+06  -1.750572e+06  -2.997014e+06   1.129776e+12  -9.767893e+11  -4.025820e+09   3.790742e+06   7.311578e-18   0.000000e+00   0.000000e+00
     1848000   1.847999e-05   1.478813e+01   6.059505e+00   2.401118e+01  -1.433133e+06  -1.825848e+06  -2.997021e+06   1.141854e+12  -9.025315e+11   3.815600e+09   3.790742e+06   6.944027e-18   0.000000e+00   0.000000e+00
     1856000   1.855999e-05   1.467712e+01   5.910633e+00   2.377145e+01  -1.342241e+06  -1.894804e+06  -2.996304e+06   1.125752e+12  -8.196333e+11   1.401541e+10   3.790743e+06   6.357018e-18   0.000000e+00   0.000000e+00
     1864000   1.863999e-05   1.457332e+01   5.756514e+00   2.353180e+01  -1.253333e+06  -1.957021e+06  -2.994821e+06   1.091567e+12  -7.343979e+11   2.307903e+10   3.790743e+06   5.675469e-18   0.000000e+00   0.000000e+00
     1872000   1.871999e-05   1.447649e+01   5.597694e+00   2.329229e+01  -1.168068e+06  -2.012324e+06  -2.992641e+06   1.038507e+12  -6.490522e+11   3.108984e+10   3.790743e+06   4.919390e-18   0.000000e+00   0.000000e+00
     1880000   1.879999e-05   1.438631e+01   5.434718e+00   2.305299e+01  -1.087664e+06  -2.060902e+06  -2.989883e+06   9.638912e+11  -5.626617e+11   3.718818e+10   3.790743e+06   4.087874e-18   0.000000e+00   0.000000e+00
     1888000   1.887999e-05   1.430229e+01   5.268135e+00   2.281392e+01  -1.013790e+06  -2.102559e+06  -2.986840e+06   8.811048e+11  -4.792148e+11   3.827182e+10   3.790743e+06   3.302469e-18   0.000000e+00   0.000000e+00
     1896000   1.895999e-05   1.422390e+01   5.098488e+00   2.257509e+01  -9.476346e+05  -2.137454e+06  -2.983792e+06   7.763189e+11  -3.951559e+11   3.651505e+10   3.790743e+06   2.491843e-18   0.000000e+00   0.000000e+00
     1904000   1.903999e-05   1.415043e+01   4.926319e+00   2.233650e+01  -8.905700e+05  -2.165642e+06  -2.981042e+06   6.484806e+11  -3.096251e+11   3.120207e+10   3.790743e+06   1.695989e-18   0.000000e+00   0.000000e+00
     1912000   1.911999e-05   1.408111e+01   4.752167e+00   2.209811e+01  -8.443197e+05  -2.187061e+06  -2.978863e+06   5.070144e+11  -2.263225e+11   2.245683e+10   3.790743e+06   1.012267e-18   0.000000e+00   0.000000e+00
     1920000   1.919999e-05   1.401503e+01   4.576564e+00   2.185986e+01  -8.098666e+05  -2.201878e+06  -2.977514e+06   3.478897e+11  -1.430572e+11   1.116665e+10   3.790743e+06   4.642682e-19   0.000000e+00   0.000000e+00
     1928000   1.927999e-05   1.395118e+01   4.400043e+00   2.162168e+01  -7.886503e+05  -2.210054e+06  -2.977151e+06   1.781627e+11  -6.091300e+10  -1.977535e+09   3.790743e+06   1.162542e-19   0.000000e+00   0.000000e+00
     1936000   1.935999e-05   1.388845e+01   4.223136e+00   2.138349e+01  -7.821354e+05  -2.211481e+06  -2.977810e+06  -1.717452e+10   2.444924e+10  -1.364635e+10   3.790743e+06   3.531690e-21   0.000000e+00   0.000000e+00
     1944000   1.943999e-05   1.382560e+01   4.046394e+00   2.114521e+01  -7.920640e+05  -2.205902e+06  -2.979323e+06  -2.339521e+11   1.147479e+11  -2.276300e+10   3.790743e+06   2.242172e-19   0.000000e+00   0.000000e+00
     1952000   1.951999e-05   1.376124e+01   3.870389e+00   2.090679e+01  -8.202621e+05  -2.192942e+06  -2.981260e+06  -4.744370e+11   2.104026e+11  -2.423166e+10   3.790743e+06   8.847554e-19   0.000000e+00   0.000000e+00
     1960000   1.959999e-05   1.369383e+01   3.695731e+00   2.066822e+01  -8.682748e+05  -2.172144e+06  -2.982889e+06  -7.304433e+11   3.113251e+11  -1.408829e+10   3.790744e+06   2.067097e-18   0.000000e+00   0.000000e+00
     1968000   1.967999e-05   1.362174e+01   3.523074e+00   2.042956e+01  -9.378175e+05  -2.142767e+06  -2.983083e+06  -1.010625e+12   4.251203e+11   1.234813e+10   3.790744e+06   3.940591e-18   0.000000e+00   0.000000e+00
     1976000   1.975999e-05   1.354317e+01   3.353145e+00   2.019100e+01  -1.030323e+06  -2.103743e+06  -2.980342e+06  -1.303432e+12   5.524483e+11   6.063956e+10   3.790744e+06   6.581080e-18   0.000000e+00   0.000000e+00
     1984000   1.983999e-05   1.345628e+01   3.186752e+00   1.995284e+01  -1.140403e+06  -2.056514e+06  -2.973209e+06  -7.949511e+11   3.386701e+11   7.065674e+10   3.790744e+06   2.467165e-18   0.000000e+00   0.000000e+00
     1992000   1.991999e-05   1.336701e+01   3.021284e+00   1.971491e+01  -1.046856e+06  -2.100518e+06  -2.976854e+06   2.218892e+12  -1.030509e+12  -5.318303e+10   3.790744e+06   1.962846e-17   0.000000e+00   0.000000e+00
     2000000   1.999999e-05   1.329068e+01   2.849806e+00   1.947677e+01  -8.571945e+05  -2.188059e+06  -2.974452e+06   2.525062e+12  -1.151771e+12   1.195501e+11   3.790745e+06   2.529445e-17   0.000000e+00   0.000000e+00
     2008000   2.007999e-05   1.323052e+01   2.670982e+00   1.923941e+01  -6.426456e+05  -2.283497e+06  -2.956756e+06   2.838624e+12  -1.224010e+12   3.282977e+11   3.790746e+06   3.167641e-17   0.000000e+00   0.000000e+00
     2016000   2.015999e-05   1.318853e+01   2.484365e+00   1.900416e+01  -4.031886e+05  -2.381932e+06  -2.921233e+06   3.145524e+12  -1.222622e+12   5.627233e+11   3.790747e+06   3.837001e-17   0.000000e+00   0.000000e+00
     2024000   2.023999e-05   1.316665e+01   2.289971e+00   1.877253e+01  -1.400603e+05  -2.476619e+06  -2.866446e+06   3.428754e+12  -1.127625e+12   8.066881e+11   3.790748e+06   4.483712e-17   0.000000e+00   0.000000e+00
     2032000   2.031999e-05   1.316667e+01   2.088429e+00   1.854604e+01   1.436088e+05  -2.559154e+06  -2.792829e+06   3.655943e+12  -9.186278e+11   1.029703e+12   3.790750e+06   5.005402e-17   0.000000e+00   0.000000e+00
     2040000   2.039999e-05   1.319004e+01   1.881073e+00   1.832610e+01   4.427852e+05  -2.620445e+06  -2.703148e+06   3.810667e+12  -5.968437e+11   1.202724e+12   3.790752e+06   5.350888e-17   0.000000e+00   0.000000e+00
     2048000   2.047999e-05   1.323774e+01   1.669951e+00   1.811383e+01   7.506377e+05  -2.652042e+06  -2.602504e+06   3.868572e+12  -1.794784e+11   1.298639e+12   3.790753e+06   5.469115e-17   0.000000e+00   0.000000e+00
     2056000   2.055999e-05   1.331016e+01   1.457712e+00   1.790981e+01   1.059116e+06  -2.647561e+06  -2.497702e+06   3.822655e+12   2.984439e+11   1.304528e+12   3.790755e+06   5.377040e-17   0.000000e+00   0.000000e+00
     2064000   2.063999e-05   1.340700e+01   1.247391e+00   1.771411e+01   1.359884e+06  -2.603850e+06  -2.395938e+06   3.677205e+12   7.932230e+11   1.224982e+12   3.790757e+06   5.130578e-17   0.000000e+00   0.000000e+00
     2072000   2.071999e-05   1.352733e+01   1.042137e+00   1.752621e+01   1.645459e+06  -2.521212e+06  -2.303433e+06   3.447222e+12   1.264528e+12   1.078379e+12   3.790758e+06   4.800709e-17   0.000000e+00   0.000000e+00
     2080000   2.079999e-05   1.366971e+01   8.449510e-01   1.734520e+01   1.910005e+06  -2.402834e+06  -2.224439e+06   3.157191e+12   1.682884e+12   8.930006e+11   3.790760e+06   4.457222e-17   0.000000e+00   0.000000e+00
     2088000   2.087999e-05   1.383227e+01   6.585028e-01   1.716989e+01   2.149686e+06  -2.253696e+06  -2.160920e+06   2.830835e+12   2.033394e+12   6.953645e+11   3.790761e+06   4.140715e-17   0.000000e+00   0.000000e+00
     2096000   2.095999e-05   1.401294e+01   4.850272e-01   1.699904e+01   2.362576e+06  -2.079479e+06  -2.112791e+06   2.489473e+12   2.313998e+12   5.062224e+11   3.790763e+06   3.870761e-17   0.000000e+00   0.000000e+00
     2104000   2.103999e-05   1.420955e+01   3.263129e-01   1.683147e+01   2.548210e+06  -1.885527e+06  -2.078775e+06   2.152493e+12   2.526159e+12   3.472014e+11   3.790764e+06   3.650127e-17   0.000000e+00   0.000000e+00
     2112000   2.111999e-05   1.441994e+01   1.837404e-01   1.666612e+01   2.707201e+06  -1.676649e+06  -2.056650e+06   1.824719e+12   2.687805e+12   2.106675e+11   3.790765e+06   3.474105e-17   0.000000e+00   0.000000e+00
     2120000   2.119999e-05   1.464202e+01   5.834214e-02   1.650215e+01   2.840713e+06  -1.456749e+06  -2.044050e+06   1.515825e+12   2.803570e+12   1.085222e+11   3.790766e+06   3.333555e-17   0.000000e+00   0.000000e+00
