     timestep     time              x             y              z              vx             vy             vz             ax             ay             az         v_magnitude      ELoss        Electronic      Nuclear
           0   0.000000e+00   1.000000e-01   7.141900e+00   2.004317e+01   7.726569e+05  -1.632069e+06   3.825479e+06   0.000000e+00   0.000000e+00   0.000000e+00   4.230241e+06   0.000000e+00   0.000000e+00   0.000000e+00
        8000   7.999000e-08   2.244567e-01   6.978844e+00   2.030942e+01   2.146356e+06  -2.191735e+06   2.912870e+06   1.168536e+13  -4.449661e+11  -8.944454e+12   4.230291e+06   8.850048e-16   0.000000e+00   0.000000e+00
       16000   1.599900e-07   4.266154e-01   6.805375e+00   2.051708e+01   2.843623e+06  -2.116991e+06   2.308166e+06   6.704423e+12   1.761653e+12  -6.643597e+12   4.230304e+06   3.764014e-16   0.000000e+00   0.000000e+00
       24000   2.399900e-07   6.724876e-01   6.642093e+00   2.068195e+01   3.271522e+06  -1.961163e+06   1.829346e+06   4.243290e+12   2.037181e+12  -5.404256e+12   4.230310e+06   2.097015e-16   0.000000e+00   0.000000e+00
       32000   3.199900e-07   9.461852e-01   6.491715e+00   2.081182e+01   3.552494e+06  -1.799115e+06   1.427770e+06   2.877955e+12   1.989612e+12  -4.653437e+12   4.230314e+06   1.383876e-16   0.000000e+00   0.000000e+00
       40000   3.999900e-07   1.238519e+00   6.353994e+00   2.091187e+01   3.743905e+06  -1.645765e+06   1.081763e+06   1.979673e+12   1.848958e+12  -4.038334e+12   4.230317e+06   9.653963e-17   0.000000e+00   0.000000e+00
       48000   4.799900e-07   1.543651e+00   6.228081e+00   2.098605e+01   3.876317e+06  -1.504013e+06   7.795571e+05   1.371281e+12   1.701555e+12  -3.535579e+12   4.230319e+06   7.053305e-17   0.000000e+00   0.000000e+00
       56000   5.599900e-07   1.857654e+00   6.113056e+00   2.103755e+01   3.968121e+06  -1.373436e+06   5.131267e+05   9.474111e+11   1.566509e+12  -3.133358e+12   4.230320e+06   5.376689e-17   0.000000e+00   0.000000e+00
       64000   6.399900e-07   2.177783e+00   6.008062e+00   2.106895e+01   4.031041e+06  -1.252950e+06   2.764791e+05   6.417677e+11   1.448731e+12  -2.791173e+12   4.230321e+06   4.205707e-17   0.000000e+00   0.000000e+00
       72000   7.199900e-07   2.502062e+00   5.912346e+00   2.108245e+01   4.072929e+06  -1.141355e+06   6.469036e+04   4.165525e+11   1.343979e+12  -2.512720e+12   4.230322e+06   3.385982e-17   0.000000e+00   0.000000e+00
       80000   7.999900e-07   2.829036e+00   5.825240e+00   2.107985e+01   4.099173e+06  -1.037519e+06  -1.263513e+05   2.467465e+11   1.251630e+12  -2.273029e+12   4.230323e+06   2.773808e-17   0.000000e+00   0.000000e+00
       88000   8.799900e-07   3.157612e+00   5.746153e+00   2.106270e+01   4.113481e+06  -9.407390e+05  -2.998716e+05   1.171671e+11   1.172296e+12  -2.070608e+12   4.230323e+06   2.317075e-17   0.000000e+00   0.000000e+00
       96000   9.599900e-07   3.486948e+00   5.674558e+00   2.103227e+01   4.118568e+06  -8.501216e+05  -4.586161e+05   1.447462e+10   1.096224e+12  -1.902152e+12   4.230324e+06   1.967875e-17   0.000000e+00   0.000000e+00
      104000   1.039990e-06   3.816388e+00   5.609982e+00   2.098965e+01   4.116362e+06  -7.651224e+05  -6.048097e+05  -6.685134e+10   1.028896e+12  -1.756680e+12   4.230324e+06   1.693894e-17   0.000000e+00   0.000000e+00
      112000   1.119990e-06   4.145410e+00   5.552004e+00   2.093579e+01   4.108300e+06  -6.852216e+05  -7.402626e+05  -1.326876e+11   9.690890e+11  -1.633471e+12   4.230325e+06   1.479939e-17   0.000000e+00   0.000000e+00
      120000   1.199990e-06   4.473588e+00   5.500224e+00   2.087145e+01   4.095414e+06  -6.100208e+05  -8.666669e+05  -1.877018e+11   9.119671e+11  -1.528924e+12   4.230325e+06   1.308287e-17   0.000000e+00   0.000000e+00
      128000   1.279990e-06   4.800569e+00   5.454280e+00   2.079733e+01   4.078468e+06  -5.393830e+05  -9.853006e+05  -2.347401e+11   8.544177e+11  -1.439426e+12   4.230325e+06   1.166437e-17   0.000000e+00   0.000000e+00
      136000   1.359990e-06   5.126051e+00   5.413806e+00   2.071398e+01   4.058049e+06  -4.732073e+05  -1.097255e+06  -2.750021e+11   7.987854e+11  -1.361569e+12   4.230325e+06   1.048235e-17   0.000000e+00   0.000000e+00
      144000   1.439990e-06   5.449776e+00   5.378448e+00   2.062192e+01   4.034617e+06  -4.114686e+05  -1.203419e+06  -3.099226e+11   7.464276e+11  -1.294290e+12   4.230326e+06   9.505931e-18   0.000000e+00   0.000000e+00
      152000   1.519990e-06   5.771520e+00   5.347854e+00   2.052157e+01   4.008550e+06  -3.541966e+05  -1.304502e+06  -3.411472e+11   6.862869e+11  -1.234653e+12   4.230326e+06   8.621408e-18   0.000000e+00   0.000000e+00
      160000   1.599990e-06   6.091083e+00   5.321655e+00   2.041332e+01   3.980172e+06  -3.015262e+05  -1.401061e+06  -3.677957e+11   6.301665e+11  -1.180477e+12   4.230326e+06   7.862742e-18   0.000000e+00   0.000000e+00
      168000   1.679990e-06   6.408293e+00   5.299488e+00   2.029751e+01   3.949784e+06  -2.534322e+05  -1.493533e+06  -3.912855e+11   5.696255e+11  -1.131459e+12   4.230326e+06   7.176332e-18   0.000000e+00   0.000000e+00
      176000   1.759990e-06   6.723001e+00   5.280969e+00   2.017445e+01   3.917617e+06  -2.103992e+05  -1.582299e+06  -4.122726e+11   5.046667e+11  -1.087862e+12   4.230326e+06   6.565253e-18   0.000000e+00   0.000000e+00
      184000   1.839990e-06   7.035071e+00   5.265681e+00   2.004443e+01   3.883918e+06  -1.726871e+05  -1.667641e+06  -4.293689e+11   4.380938e+11  -1.045370e+12   4.230327e+06   5.997697e-18   0.000000e+00   0.000000e+00
      192000   1.919990e-06   7.344619e+00   5.253001e+00   1.990824e+01   3.861906e+06  -1.513878e+05  -1.720007e+06   5.293775e+10  -4.820981e+10   1.231035e+11   4.230327e+06   8.250592e-20   0.000000e+00   0.000000e+00
      200000   1.999990e-06   7.654489e+00   5.240166e+00   1.977280e+01   3.893131e+06  -1.753390e+05  -1.645738e+06   6.012048e+11  -4.347149e+11   1.468499e+12   4.230327e+06   1.105122e-17   0.000000e+00   0.000000e+00
      208000   2.079990e-06   7.967815e+00   5.224871e+00   1.964585e+01   3.939429e+06  -2.055148e+05  -1.527851e+06   5.565726e+11  -3.208535e+11   1.478216e+12   4.230327e+06   1.060591e-17   0.000000e+00   0.000000e+00
      216000   2.159990e-06   8.284703e+00   5.207521e+00   1.952836e+01   3.982192e+06  -2.267896e+05  -1.409392e+06   5.127686e+11  -2.118724e+11   1.482887e+12   4.230327e+06   1.023412e-17   0.000000e+00   0.000000e+00
      224000   2.239990e-06   8.604873e+00   5.188812e+00   1.942035e+01   4.021497e+06  -2.395585e+05  -1.290676e+06   4.699636e+11  -1.080721e+11   1.484356e+12   4.230327e+06   9.944585e-18   0.000000e+00   0.000000e+00
      232000   2.319990e-06   8.928052e+00   5.169409e+00   1.932185e+01   4.057405e+06  -2.441964e+05  -1.171968e+06   4.276104e+11  -8.615660e+09   1.482181e+12   4.230328e+06   9.715668e-18   0.000000e+00   0.000000e+00
      240000   2.399990e-06   9.253968e+00   5.149947e+00   1.923283e+01   4.089925e+06  -2.410706e+05  -1.053600e+06   3.854128e+11   8.618416e+10   1.476375e+12   4.230328e+06   9.535491e-18   0.000000e+00   0.000000e+00
      248000   2.479990e-06   9.582350e+00   5.131034e+00   1.915326e+01   4.119072e+06  -2.305732e+05  -9.358195e+05   3.432798e+11   1.755858e+11   1.467682e+12   4.230328e+06   9.401204e-18   0.000000e+00   0.000000e+00
      256000   2.559990e-06   9.912929e+00   5.113241e+00   1.908308e+01   4.144845e+06  -2.131376e+05  -8.188459e+05   3.009618e+11   2.591539e+11   1.455929e+12   4.230328e+06   9.297939e-18   0.000000e+00   0.000000e+00
      264000   2.639990e-06   1.024543e+01   5.097104e+00   1.902221e+01   4.167225e+06  -1.892410e+05  -7.029248e+05   2.585143e+11   3.371999e+11   1.441766e+12   4.230329e+06   9.223438e-18   0.000000e+00   0.000000e+00
      272000   2.719990e-06   1.057959e+01   5.083123e+00   1.897058e+01   4.186203e+06  -1.593442e+05  -5.882175e+05   2.158879e+11   4.091552e+11   1.425547e+12   4.230329e+06   9.170272e-18   0.000000e+00   0.000000e+00
      280000   2.799990e-06   1.091514e+01   5.071756e+00   1.892806e+01   4.201749e+06  -1.239371e+05  -4.750024e+05   1.728370e+11   4.748629e+11   1.404924e+12   4.230329e+06   9.100790e-18   0.000000e+00   0.000000e+00
      288000   2.879990e-06   1.125178e+01   5.063426e+00   1.889453e+01   4.213857e+06  -8.353623e+04  -3.634736e+05   1.298997e+11   5.338234e+11   1.383218e+12   4.230329e+06   9.043444e-18   0.000000e+00   0.000000e+00
      296000   2.959990e-06   1.158926e+01   5.058509e+00   1.886985e+01   4.222531e+06  -3.869134e+04  -2.538224e+05   8.699504e+10   5.859397e+11   1.357825e+12   4.230329e+06   8.959557e-18   0.000000e+00   0.000000e+00
      304000   3.039990e-06   1.192730e+01   5.057340e+00   1.885386e+01   4.227787e+06   1.005750e+04  -1.463020e+05   4.452395e+10   6.310763e+11   1.329873e+12   4.230330e+06   8.854307e-18   0.000000e+00   0.000000e+00
      312000   3.119990e-06   1.226562e+01   5.060206e+00   1.884638e+01   4.229674e+06   6.209802e+04  -4.110862e+04   2.815568e+09   6.686796e+11   1.299272e+12   4.230330e+06   8.717322e-18   0.000000e+00   0.000000e+00
      320000   3.199990e-06   1.260396e+01   5.067347e+00   1.884722e+01   4.228269e+06   1.168273e+05   6.153943e+04  -3.770911e+10   6.981251e+11   1.265938e+12   4.230330e+06   8.538319e-18   0.000000e+00   0.000000e+00
      328000   3.279990e-06   1.294206e+01   5.078952e+00   1.885615e+01   4.223685e+06   1.735789e+05   1.614063e+05  -7.655688e+10   7.191632e+11   1.230069e+12   4.230330e+06   8.312667e-18   0.000000e+00   0.000000e+00
      336000   3.359990e-06   1.327967e+01   5.095156e+00   1.887296e+01   4.216079e+06   2.316895e+05   2.582512e+05  -1.131660e+11   7.321734e+11   1.190700e+12   4.230330e+06   8.029036e-18   0.000000e+00   0.000000e+00
      344000   3.439990e-06   1.361655e+01   5.116042e+00   1.889738e+01   4.205657e+06   2.905231e+05   3.517652e+05  -1.468561e+11   7.370656e+11   1.147102e+12   4.230331e+06   7.678042e-18   0.000000e+00   0.000000e+00
      352000   3.519990e-06   1.395250e+01   5.141641e+00   1.892915e+01   4.192674e+06   3.494059e+05   4.416965e+05  -1.770673e+11   7.333410e+11   1.100687e+12   4.230331e+06   7.269708e-18   0.000000e+00   0.000000e+00
      360000   3.599990e-06   1.428732e+01   5.171929e+00   1.896795e+01   4.177431e+06   4.076397e+05   5.278230e+05  -2.033107e+11   7.213236e+11   1.052044e+12   4.230331e+06   6.811588e-18   0.000000e+00   0.000000e+00
      368000   3.679990e-06   1.462084e+01   5.206828e+00   1.901349e+01   4.160281e+06   4.645676e+05   6.098721e+05  -2.245778e+11   7.007126e+11   9.982313e+11   4.230331e+06   6.278659e-18   0.000000e+00   0.000000e+00
      376000   3.759990e-06   1.495293e+01   5.246208e+00   1.906542e+01   4.141637e+06   5.195373e+05   6.874804e+05  -2.406294e+11   6.723294e+11   9.415737e+11   4.230331e+06   5.701351e-18   0.000000e+00   0.000000e+00
      384000   3.839990e-06   1.528347e+01   5.289885e+00   1.912336e+01   4.121945e+06   5.719072e+05   7.603925e+05  -2.507167e+11   6.358058e+11   8.809015e+11   4.230331e+06   5.075110e-18   0.000000e+00   0.000000e+00
      392000   3.919990e-06   1.561242e+01   5.337627e+00   1.918694e+01   4.101698e+06   6.210770e+05   8.282771e+05  -2.545342e+11   5.922187e+11   8.164175e+11   4.230331e+06   4.417626e-18   0.000000e+00   0.000000e+00
      400000   3.999990e-06   1.593974e+01   5.389157e+00   1.925575e+01   4.081399e+06   6.664742e+05   8.908961e+05  -2.519346e+11   5.414097e+11   7.491550e+11   4.230332e+06   3.747187e-18   0.000000e+00   0.000000e+00
      408000   4.079990e-06   1.626546e+01   5.444149e+00   1.932934e+01   4.061587e+06   7.075598e+05   9.479314e+05  -2.423346e+11   4.843708e+11   6.767886e+11   4.230332e+06   3.067665e-18   0.000000e+00   0.000000e+00
      416000   4.159990e-06   1.658963e+01   5.502236e+00   1.940726e+01   4.042816e+06   7.437902e+05   9.990613e+05  -2.257215e+11   4.208071e+11   6.001276e+11   4.230332e+06   2.401380e-18   0.000000e+00   0.000000e+00
      424000   4.239990e-06   1.691235e+01   5.563014e+00   1.948902e+01   4.025617e+06   7.747334e+05   1.043983e+06  -2.030690e+11   3.518414e+11   5.219429e+11   4.230332e+06   1.786012e-18   0.000000e+00   0.000000e+00
      432000   4.319990e-06   1.723378e+01   5.626041e+00   1.957412e+01   4.010496e+06   7.999630e+05   1.082444e+06  -1.739113e+11   2.780668e+11   4.388500e+11   4.230332e+06   1.225473e-18   0.000000e+00   0.000000e+00
      440000   4.399990e-06   1.755410e+01   5.690846e+00   1.966203e+01   3.997945e+06   8.190905e+05   1.114108e+06  -1.389244e+11   1.991200e+11   3.521351e+11   4.230332e+06   7.469516e-19   0.000000e+00   0.000000e+00
      448000   4.479990e-06   1.787353e+01   5.756923e+00   1.975219e+01   3.988399e+06   8.317648e+05   1.138661e+06  -9.914163e+10   1.171679e+11   2.616767e+11   4.230332e+06   3.757662e-19   0.000000e+00   0.000000e+00
      456000   4.559990e-06   1.819232e+01   5.823755e+00   1.984405e+01   3.981448e+06   8.382508e+05   1.158066e+06  -9.577881e+10   5.941549e+10   2.862827e+11   4.230332e+06   3.864159e-19   0.000000e+00   0.000000e+00
      464000   4.639990e-06   1.851045e+01   5.890998e+00   1.993789e+01   3.970098e+06   8.435400e+05   1.192673e+06  -2.130529e+11   1.200099e+11   6.243222e+11   4.230332e+06   1.835141e-18   0.000000e+00   0.000000e+00
      472000   4.719990e-06   1.882714e+01   5.959076e+00   2.003587e+01   3.944479e+06   8.608964e+05   1.263191e+06  -4.032853e+11   2.999424e+11   1.054904e+12   4.230332e+06   5.574237e-18   0.000000e+00   0.000000e+00
      480000   4.799990e-06   1.914130e+01   6.029048e+00   2.014045e+01   3.908010e+06   8.902645e+05   1.352995e+06  -5.120621e+11   4.386263e+11   1.190447e+12   4.230332e+06   7.641340e-18   0.000000e+00   0.000000e+00
      488000   4.879990e-06   1.945217e+01   6.101832e+00   2.025264e+01   3.862071e+06   9.313515e+05   1.453513e+06  -6.397964e+11   5.900734e+11   1.321900e+12   4.230332e+06   1.022628e-17   0.000000e+00   0.000000e+00
      496000   4.959990e-06   1.975893e+01   6.178403e+00   2.037329e+01   3.804973e+06   9.851703e+05   1.564397e+06  -7.919307e+11   7.588767e+11   1.448280e+12   4.230333e+06   1.347437e-17   0.000000e+00   0.000000e+00
      504000   5.039990e-06   2.006061e+01   6.259831e+00   2.050320e+01   3.734635e+06   1.052860e+06   1.685143e+06  -9.714025e+11   9.370765e+11   1.567384e+12   4.230333e+06   1.746647e-17   0.000000e+00   0.000000e+00
      512000   5.119990e-06   2.035606e+01   6.347253e+00   2.064315e+01   3.648734e+06   1.135201e+06   1.814877e+06  -1.182555e+12   1.124465e+12   1.674159e+12   4.230333e+06   2.231335e-17   0.000000e+00   0.000000e+00
      520000   5.199990e-06   2.064392e+01   6.441873e+00   2.079380e+01   3.544467e+06   1.232912e+06   1.952540e+06  -1.430759e+12   1.318785e+12   1.764575e+12   4.230334e+06   2.816898e-17   0.000000e+00   0.000000e+00
      528000   5.279990e-06   2.092260e+01   6.544944e+00   2.095572e+01   3.418618e+06   1.346575e+06   2.096550e+06  -1.723556e+12   1.523665e+12   1.831836e+12   4.230335e+06   3.530449e-17   0.000000e+00   0.000000e+00
      536000   5.359990e-06   2.119023e+01   6.657754e+00   2.112936e+01   3.267593e+06   1.476239e+06   2.244837e+06  -2.058548e+12   1.713488e+12   1.869662e+12   4.230336e+06   4.355724e-17   0.000000e+00   0.000000e+00
      544000   5.439990e-06   2.144464e+01   6.781541e+00   2.131495e+01   3.087558e+06   1.620877e+06   2.394889e+06  -2.449758e+12   1.899946e+12   1.872454e+12   4.230337e+06   5.355074e-17   0.000000e+00   0.000000e+00
      552000   5.519990e-06   2.168335e+01   6.917466e+00   2.151250e+01   2.874215e+06   1.779369e+06   2.543323e+06  -2.894094e+12   2.060582e+12   1.829053e+12   4.230338e+06   6.518600e-17   0.000000e+00   0.000000e+00
      560000   5.599990e-06   2.190351e+01   7.066541e+00   2.172173e+01   2.623226e+06   1.949081e+06   2.686176e+06  -3.388776e+12   2.173882e+12   1.732071e+12   4.230340e+06   7.842342e-17   0.000000e+00   0.000000e+00
      568000   5.679990e-06   2.210195e+01   7.229504e+00   2.194201e+01   2.330487e+06   2.125813e+06   2.818783e+06  -3.937409e+12   2.232736e+12   1.571575e+12   4.230342e+06   9.372675e-17   0.000000e+00   0.000000e+00
      576000   5.759990e-06   2.227517e+01   7.406715e+00   2.217232e+01   1.991896e+06   2.304115e+06   2.935851e+06  -4.530455e+12   2.205878e+12   1.342667e+12   4.230344e+06   1.110186e-16   0.000000e+00   0.000000e+00
      584000   5.839990e-06   2.241936e+01   7.597984e+00   2.241118e+01   1.604813e+06   2.475665e+06   3.031747e+06  -5.147008e+12   2.060213e+12   1.042272e+12   4.230347e+06   1.299163e-16   0.000000e+00   0.000000e+00
      592000   5.919990e-06   2.253060e+01   7.802368e+00   2.265668e+01   1.167882e+06   2.630036e+06   3.100778e+06  -5.771067e+12   1.769635e+12   6.727640e+11   4.230350e+06   1.506025e-16   0.000000e+00   0.000000e+00
      600000   5.999990e-06   2.260493e+01   8.017975e+00   2.290646e+01   6.826835e+05   2.753734e+06   3.137959e+06  -6.349069e+12   1.289224e+12   2.500495e+11   4.230354e+06   1.716113e-16   0.000000e+00   0.000000e+00
      608000   6.079990e-06   2.263866e+01   8.241724e+00   2.315782e+01   1.537346e+05   2.830717e+06   3.139958e+06  -6.850557e+12   5.956550e+11  -2.014325e+11   4.230358e+06   1.932096e-16   0.000000e+00   0.000000e+00
      616000   6.159990e-06   2.262862e+01   8.469156e+00   2.340789e+01  -4.091804e+05   2.842646e+06   3.106108e+06  -7.192947e+12  -3.376529e+11  -6.383753e+11   4.230363e+06   2.133563e-16   0.000000e+00   0.000000e+00
      624000   6.239990e-06   2.257268e+01   8.694300e+00   2.365392e+01  -9.907952e+05   2.770376e+06   3.039631e+06  -7.298748e+12  -1.504240e+12  -1.007915e+12   4.230368e+06   2.308731e-16   0.000000e+00   0.000000e+00
      632000   6.319990e-06   2.247018e+01   8.909700e+00   2.389357e+01  -1.569030e+06   2.596405e+06   2.948370e+06  -7.098378e+12  -2.873246e+12  -1.247080e+12   4.230374e+06   2.457649e-16   0.000000e+00   0.000000e+00
      640000   6.399990e-06   2.232250e+01   9.106687e+00   2.412533e+01  -2.114813e+06   2.308751e+06   2.844880e+06  -6.480224e+12  -4.329407e+12  -1.303505e+12   4.230379e+06   2.549054e-16   0.000000e+00   0.000000e+00
      648000   6.479990e-06   2.213358e+01   9.275995e+00   2.434885e+01  -2.594370e+06   1.905017e+06   2.745235e+06  -5.438795e+12  -5.745688e+12  -1.152533e+12   4.230385e+06   2.609715e-16   0.000000e+00   0.000000e+00
      656000   6.559990e-06   2.191009e+01   9.408666e+00   2.456511e+01  -2.973244e+06   1.396016e+06   2.665928e+06  -3.970969e+12  -6.930401e+12  -7.993694e+11   4.230391e+06   2.630805e-16   0.000000e+00   0.000000e+00
      664000   6.639990e-06   2.166136e+01   9.497221e+00   2.477632e+01  -3.221238e+06   8.074877e+05   2.620659e+06  -2.191730e+12  -7.705378e+12  -3.195542e+11   4.230397e+06   2.624307e-16   0.000000e+00   0.000000e+00
      672000   6.719990e-06   2.139870e+01   9.536702e+00   2.498553e+01  -3.319447e+06   1.757840e+05   2.616617e+06  -2.601163e+11  -7.994798e+12   2.073498e+11   4.230404e+06   2.614061e-16   0.000000e+00   0.000000e+00
      680000   6.799990e-06   2.113436e+01   9.525304e+00   2.519604e+01  -3.263777e+06  -4.573922e+05   2.652342e+06   1.624768e+12  -7.751115e+12   6.628908e+11   4.230410e+06   2.578617e-16   0.000000e+00   0.000000e+00
      688000   6.879990e-06   2.088031e+01   9.464543e+00   2.541072e+01  -3.065502e+06  -1.052547e+06   2.718686e+06   3.284085e+12  -7.071202e+12   9.656189e+11   4.230415e+06   2.519858e-16   0.000000e+00   0.000000e+00
      696000   6.959990e-06   2.064707e+01   9.358701e+00   2.563147e+01  -2.747922e+06  -1.580426e+06   2.801364e+06   4.596004e+12  -6.095344e+12   1.069770e+12   4.230421e+06   2.426019e-16   0.000000e+00   0.000000e+00
      704000   7.039990e-06   2.044304e+01   9.213925e+00   2.585896e+01  -2.340730e+06  -2.023945e+06   2.884639e+06   5.513846e+12  -4.975737e+12   9.832646e+11   4.230427e+06   2.291561e-16   0.000000e+00   0.000000e+00
      712000   7.119990e-06   2.027409e+01   9.037302e+00   2.609265e+01  -1.875907e+06  -2.376710e+06   2.954450e+06   6.050803e+12  -3.856654e+12   7.396008e+11   4.230432e+06   2.124408e-16   0.000000e+00   0.000000e+00
      720000   7.199990e-06   2.014369e+01   8.835955e+00   2.633103e+01  -1.381073e+06  -2.643184e+06   3.000468e+06   6.266578e+12  -2.822863e+12   3.978466e+11   4.230436e+06   1.935132e-16   0.000000e+00   0.000000e+00
      728000   7.279990e-06   2.005328e+01   8.616462e+00   2.657193e+01  -8.798723e+05  -2.832223e+06   3.016781e+06   6.227830e+12  -1.927991e+12   6.503564e+09   4.230441e+06   1.735335e-16   0.000000e+00   0.000000e+00
      736000   7.359990e-06   2.000260e+01   8.384553e+00   2.681287e+01  -3.902872e+05  -2.955574e+06   3.001486e+06   5.991212e+12  -1.183439e+12  -3.861668e+11   4.230445e+06   1.528799e-16   0.000000e+00   0.000000e+00
      744000   7.439990e-06   1.999017e+01   8.144990e+00   2.705135e+01   7.445602e+04  -3.025636e+06   2.955786e+06   5.614169e+12  -5.930277e+11  -7.483525e+11   4.230448e+06   1.324101e-16   0.000000e+00   0.000000e+00
      752000   7.519990e-06   2.001364e+01   7.901559e+00   2.728508e+01   5.067061e+05  -3.054092e+06   2.883137e+06   5.178495e+12  -1.394415e+11  -1.057724e+12   4.230451e+06   1.141372e-16   0.000000e+00   0.000000e+00
      760000   7.599990e-06   2.007024e+01   7.657173e+00   2.751206e+01   9.018223e+05  -3.051082e+06   2.788252e+06   4.697181e+12   1.967523e+11  -1.303855e+12   4.230453e+06   9.718218e-17   0.000000e+00   0.000000e+00
      768000   7.679990e-06   2.015689e+01   7.413995e+00   2.773074e+01   1.257808e+06  -3.025207e+06   2.676339e+06   4.203366e+12   4.350347e+11  -1.483652e+12   4.230455e+06   8.189802e-17   0.000000e+00   0.000000e+00
      776000   7.759990e-06   2.027044e+01   7.173559e+00   2.793997e+01   1.574374e+06  -2.983570e+06   2.552728e+06   3.713869e+12   5.935793e+11  -1.596671e+12   4.230457e+06   6.816227e-17   0.000000e+00   0.000000e+00
      784000   7.839990e-06   2.040778e+01   6.936895e+00   2.813900e+01   1.853128e+06  -2.931705e+06   2.422354e+06   3.256958e+12   6.926417e+11  -1.653267e+12   4.230458e+06   5.642936e-17   0.000000e+00   0.000000e+00
      792000   7.919990e-06   2.056599e+01   6.704639e+00   2.832748e+01   2.096181e+06  -2.874059e+06   2.289672e+06   2.825889e+12   7.419162e+11  -1.655762e+12   4.230460e+06   4.604582e-17   0.000000e+00   0.000000e+00
      800000   7.999990e-06   2.074230e+01   6.477115e+00   2.850539e+01   2.306362e+06  -2.813815e+06   2.158688e+06   2.434232e+12   7.575982e+11  -1.613197e+12   4.230460e+06   3.716228e-17   0.000000e+00   0.000000e+00
      808000   8.079990e-06   2.093420e+01   6.254428e+00   2.867300e+01   2.486599e+06  -2.753528e+06   2.032662e+06   2.076358e+12   7.441672e+11  -1.531938e+12   4.230461e+06   2.944578e-17   0.000000e+00   0.000000e+00
      816000   8.159990e-06   2.113942e+01   6.036492e+00   2.883083e+01   2.639479e+06  -2.695386e+06   1.914381e+06   1.751924e+12   7.069264e+11  -1.420131e+12   4.230462e+06   2.280643e-17   0.000000e+00   0.000000e+00
      824000   8.239990e-06   2.135586e+01   5.823066e+00   2.897957e+01   2.767749e+06  -2.640935e+06   1.806056e+06   1.462551e+12   6.541908e+11  -1.284708e+12   4.230462e+06   1.721995e-17   0.000000e+00   0.000000e+00
      832000   8.319990e-06   2.158167e+01   5.613815e+00   2.912011e+01   2.873988e+06  -2.591265e+06   1.709488e+06   1.197563e+12   5.849216e+11  -1.126691e+12   4.230463e+06   1.243572e-17   0.000000e+00   0.000000e+00
      840000   8.399990e-06   2.181517e+01   5.408308e+00   2.925345e+01   2.960230e+06  -2.547374e+06   1.626267e+06   9.633854e+11   5.122078e+11  -9.512807e+11   4.230463e+06   8.555612e-18   0.000000e+00   0.000000e+00
      848000   8.479990e-06   2.205483e+01   5.206072e+00   2.938070e+01   3.028659e+06  -2.509554e+06   1.557622e+06   7.506999e+11   4.321238e+11  -7.634476e+11   4.230463e+06   5.443306e-18   0.000000e+00   0.000000e+00
      856000   8.559990e-06   2.229932e+01   5.006596e+00   2.950307e+01   3.080722e+06  -2.478558e+06   1.504235e+06   5.532378e+11   3.423530e+11  -5.689424e+11   4.230463e+06   3.050022e-18   0.000000e+00   0.000000e+00
      864000   8.639990e-06   2.254734e+01   4.809308e+00   2.962181e+01   3.117453e+06  -2.454896e+06   1.466899e+06   3.664785e+11   2.481106e+11  -3.636178e+11   4.230463e+06   1.339681e-18   0.000000e+00   0.000000e+00
      872000   8.719990e-06   2.279772e+01   4.613610e+00   2.973822e+01   3.139610e+06  -2.438901e+06   1.446178e+06   1.859623e+11   1.476284e+11  -1.547510e+11   4.230463e+06   3.280329e-19   0.000000e+00   0.000000e+00
      880000   8.799990e-06   2.304932e+01   4.418855e+00   2.985359e+01   3.149301e+06  -2.431462e+06   1.437607e+06   1.166062e+11   3.630115e+10  -1.940465e+11   4.230463e+06   2.145619e-19   0.000000e+00   0.000000e+00
      888000   8.879990e-06   2.330185e+01   4.224370e+00   2.996735e+01   3.167701e+06  -2.430400e+06   1.398444e+06   3.986588e+11   4.504350e+10  -8.247378e+11   4.230463e+06   3.433493e-18   0.000000e+00   0.000000e+00
      896000   8.959990e-06   2.355690e+01   4.030191e+00   3.007587e+01   3.210913e+06  -2.422583e+06   1.310707e+06   6.096379e+11   1.534698e+11  -1.209792e+12   4.230463e+06   7.588862e-18   0.000000e+00   0.000000e+00
      904000   9.039990e-06   2.381585e+01   3.837002e+00   3.017665e+01   3.264322e+06  -2.405549e+06   1.205968e+06   7.232989e+11   2.744876e+11  -1.410287e+12   4.230464e+06   1.056357e-17   0.000000e+00   0.000000e+00
      912000   9.119990e-06   2.407942e+01   3.645571e+00   3.026839e+01   3.326144e+06  -2.378420e+06   1.084763e+06   8.205891e+11   4.079748e+11  -1.621578e+12   4.230464e+06   1.416418e-17   0.000000e+00   0.000000e+00
      920000   9.199990e-06   2.434821e+01   3.456747e+00   3.034975e+01   3.394706e+06  -2.340348e+06   9.463445e+05   8.901612e+11   5.466166e+11  -1.841314e+12   4.230464e+06   1.829712e-17   0.000000e+00   0.000000e+00
      928000   9.279990e-06   2.462269e+01   3.271423e+00   3.041932e+01   3.467770e+06  -2.290782e+06   7.897614e+05   9.313294e+11   6.943345e+11  -2.075323e+12   4.230465e+06   2.309367e-17   0.000000e+00   0.000000e+00
      936000   9.359990e-06   2.490311e+01   3.090544e+00   3.047560e+01   3.542680e+06  -2.229193e+06   6.139649e+05   9.356986e+11   8.476348e+11  -2.321418e+12   4.230465e+06   2.850970e-17   0.000000e+00   0.000000e+00
      944000   9.439990e-06   2.518949e+01   2.915085e+00   3.051701e+01   3.616234e+06  -2.155230e+06   4.179479e+05   8.952461e+11   1.001806e+12  -2.579776e+12   4.230466e+06   3.454134e-17   0.000000e+00   0.000000e+00
      952000   9.519990e-06   2.548156e+01   2.746030e+00   3.054191e+01   3.684430e+06  -2.069166e+06   2.009309e+05   8.002552e+11   1.148311e+12  -2.848433e+12   4.230467e+06   4.112393e-17   0.000000e+00   0.000000e+00
      960000   9.599990e-06   2.577872e+01   2.584312e+00   3.054858e+01   3.742484e+06  -1.972112e+06  -3.806887e+04   6.411745e+11   1.277074e+12  -3.127672e+12   4.230468e+06   4.827598e-17   0.000000e+00   0.000000e+00
      968000   9.679990e-06   2.607994e+01   2.430735e+00   3.053521e+01   3.784801e+06  -1.866051e+06  -3.000148e+05   4.032186e+11   1.367940e+12  -3.422098e+12   4.230469e+06   5.611603e-17   0.000000e+00   0.000000e+00
      976000   9.759990e-06   2.638369e+01   2.285883e+00   3.049994e+01   3.804537e+06  -1.754768e+06  -5.858034e+05   8.097819e+10   1.415705e+12  -3.715081e+12   4.230471e+06   6.455924e-17   0.000000e+00   0.000000e+00
      984000   9.839990e-06   2.668787e+01   2.149994e+00   3.044084e+01   3.794080e+06  -1.643098e+06  -8.955911e+05  -3.599029e+11   1.363299e+12  -4.026074e+12   4.230472e+06   7.429583e-17   0.000000e+00   0.000000e+00
      992000   9.919990e-06   2.698968e+01   2.022782e+00   3.035599e+01   3.743750e+06  -1.539234e+06  -1.229637e+06  -9.247738e+11   1.203914e+12  -4.322770e+12   4.230474e+06   8.570140e-17   0.000000e+00   0.000000e+00
     1000000   9.999990e-06   2.728551e+01   1.903218e+00   3.024350e+01   3.642366e+06  -1.453967e+06  -1.586216e+06  -1.640437e+12   8.904921e+11  -4.583274e+12   4.230476e+06   9.998877e-17   0.000000e+00   0.000000e+00
     1008000   1.007999e-05   2.757076e+01   1.789293e+00   3.010171e+01   3.477033e+06  -1.400908e+06  -1.960778e+06  -2.529080e+12   3.903912e+11  -4.763870e+12   4.230479e+06   1.193924e-16   0.000000e+00   0.000000e+00
     1016000   1.015999e-05   2.784011e+01   1.677851e+00   2.993003e+01   3.268977e+06  -1.391580e+06  -2.296577e+06  -1.146248e+12  -2.100223e+10  -1.618875e+12   4.230481e+06   1.608898e-17   0.000000e+00   0.000000e+00
     1024000   1.023999e-05   2.810475e+01   1.567377e+00   2.975043e+01   3.418965e+06  -1.353395e+06  -2.091886e+06   3.555461e+12   1.044904e+12   5.134808e+12   4.230483e+06   1.637163e-16   0.000000e+00   0.000000e+00
     1032000   1.031999e-05   2.838940e+01   1.463360e+00   2.960028e+01   3.693071e+06  -1.235900e+06  -1.652512e+06   3.246378e+12   1.898747e+12   5.834729e+12   4.230487e+06   1.967426e-16   0.000000e+00   0.000000e+00
     1040000   1.039999e-05   2.869464e+01   1.371383e+00   2.948743e+01   3.929440e+06  -1.052949e+06  -1.160975e+06   2.618290e+12   2.659612e+12   6.449251e+12   4.230492e+06   2.266864e-16   0.000000e+00   0.000000e+00
     1048000   1.047999e-05   2.901646e+01   1.296383e+00   2.941565e+01   4.103727e+06  -8.139411e+05  -6.277205e+05   1.699898e+12   3.260162e+12   6.884799e+12   4.230497e+06   2.487225e-16   0.000000e+00   0.000000e+00
     1056000   1.055999e-05   2.934903e+01   1.242086e+00   2.938792e+01   4.195422e+06  -5.403198e+05  -6.038864e+04   5.568788e+11   3.510713e+12   7.265936e+12   4.230503e+06   2.671392e-16   0.000000e+00   0.000000e+00
     1064000   1.063999e-05   2.968509e+01   1.210030e+00   2.940663e+01   4.188719e+06  -2.634893e+05   5.314349e+05  -7.436228e+11   3.327966e+12   7.512474e+12   4.230510e+06   2.779053e-16   0.000000e+00   0.000000e+00
     1072000   1.071999e-05   3.001634e+01   1.198966e+00   2.947339e+01   4.073754e+06  -2.310447e+04   1.140729e+06  -2.150526e+12   2.582544e+12   7.732856e+12   4.230516e+06   2.902594e-16   0.000000e+00   0.000000e+00
     1080000   1.079999e-05   3.033387e+01   1.204283e+00   2.958934e+01   3.846255e+06   1.407029e+05   1.756089e+06  -3.534319e+12   1.425796e+12   7.627181e+12   4.230523e+06   2.968211e-16   0.000000e+00   0.000000e+00
     1088000   1.087999e-05   3.062885e+01   1.218499e+00   2.975390e+01   3.510849e+06   1.937658e+05   2.352398e+06  -4.818968e+12  -1.422315e+11   7.204131e+12   4.230530e+06   3.068012e-16   0.000000e+00   0.000000e+00
     1096000   1.095999e-05   3.089858e+01   1.233120e+00   2.995764e+01   3.354239e+06   1.887804e+05   2.571158e+06   3.161031e+12   1.105112e+12  -4.204793e+12   4.230533e+06   1.178691e-16   0.000000e+00   0.000000e+00
     1104000   1.103999e-05   3.118122e+01   1.254163e+00   3.014190e+01   3.705656e+06   3.522695e+05   2.010345e+06   3.807869e+12   2.493632e+12  -7.455595e+12   4.230540e+06   3.115510e-16   0.000000e+00   0.000000e+00
     1112000   1.111999e-05   3.148815e+01   1.290949e+00   3.027879e+01   3.946430e+06   5.734116e+05   1.412237e+06   2.226250e+12   2.969150e+12  -7.426229e+12   4.230547e+06   2.814078e-16   0.000000e+00   0.000000e+00
     1120000   1.119999e-05   3.180950e+01   1.346392e+00   3.036813e+01   4.069203e+06   8.126630e+05   8.238598e+05   8.692497e+11   2.976400e+12  -7.228591e+12   4.230553e+06   2.526074e-16   0.000000e+00   0.000000e+00
     1128000   1.127999e-05   3.213655e+01   1.420703e+00   3.041127e+01   4.092427e+06   1.040645e+06   2.583096e+05  -2.389821e+11   2.658677e+12  -6.922589e+12   4.230559e+06   2.247648e-16   0.000000e+00   0.000000e+00
     1136000   1.135999e-05   3.246219e+01   1.511946e+00   3.041017e+01   4.037075e+06   1.233219e+06  -2.808232e+05  -1.104066e+12   2.121840e+12  -6.555693e+12   4.230564e+06   1.988392e-16   0.000000e+00   0.000000e+00
     1144000   1.143999e-05   3.278087e+01   1.616740e+00   3.036716e+01   3.921387e+06   1.377883e+06  -7.885864e+05  -1.748535e+12   1.457469e+12  -6.148842e+12   4.230568e+06   1.755317e-16   0.000000e+00   0.000000e+00
     1152000   1.151999e-05   3.308846e+01   1.730878e+00   3.028486e+01   3.762077e+06   1.465957e+06  -1.263124e+06  -2.206194e+12   7.439213e+11  -5.707827e+12   4.230572e+06   1.551581e-16   0.000000e+00   0.000000e+00
     1160000   1.159999e-05   3.338201e+01   1.849768e+00   3.016606e+01   3.572902e+06   1.496843e+06  -1.700470e+06  -2.500506e+12   3.961269e+10  -5.219207e+12   4.230575e+06   1.367607e-16   0.000000e+00   0.000000e+00
     1168000   1.167999e-05   3.365964e+01   1.968935e+00   3.001387e+01   3.365610e+06   1.473783e+06  -2.097242e+06  -2.662172e+12  -6.009399e+11  -4.694632e+12   4.230578e+06   1.204024e-16   0.000000e+00   0.000000e+00
     1176000   1.175999e-05   3.392386e+01   2.085635e+00   2.983752e+01   3.298544e+06   1.460864e+06  -2.209815e+06   1.308069e+12   6.154680e+11   2.359365e+12   4.230579e+06   3.123707e-17   0.000000e+00   0.000000e+00
     1184000   1.183999e-05   3.419370e+01   2.205588e+00   2.967237e+01   3.445833e+06   1.542852e+06  -1.908836e+06   1.622337e+12   1.147511e+12   3.856042e+12   4.230581e+06   7.683578e-17   0.000000e+00   0.000000e+00
     1192000   1.191999e-05   3.447396e+01   2.332810e+00   2.953180e+01   3.553208e+06   1.638923e+06  -1.608252e+06   1.077263e+12   1.243477e+12   3.647153e+12   4.230582e+06   6.536481e-17   0.000000e+00   0.000000e+00
     1200000   1.199999e-05   3.476117e+01   2.467938e+00   2.941456e+01   3.621254e+06   1.739608e+06  -1.325942e+06   6.379159e+11   1.267395e+12   3.404893e+12   4.230584e+06   5.555744e-17   0.000000e+00   0.000000e+00
     1208000   1.207999e-05   3.505253e+01   2.611137e+00   2.931912e+01   3.658030e+06   1.840039e+06  -1.063447e+06   2.923827e+11   1.242507e+12   3.155482e+12   4.230585e+06   4.730884e-17   0.000000e+00   0.000000e+00
     1216000   1.215999e-05   3.534581e+01   2.762252e+00   2.924389e+01   3.670509e+06   1.936940e+06  -8.206596e+05   3.006046e+10   1.177112e+12   2.912578e+12   4.230586e+06   4.029910e-17   0.000000e+00   0.000000e+00
     1224000   1.223999e-05   3.563932e+01   2.920887e+00   2.918730e+01   3.664618e+06   2.027779e+06  -5.971241e+05  -1.672784e+11   1.091228e+12   2.678962e+12   4.230587e+06   3.428049e-17   0.000000e+00   0.000000e+00
     1232000   1.231999e-05   3.593178e+01   3.086501e+00   2.914786e+01   3.645097e+06   2.111331e+06  -3.916887e+05  -3.123225e+11   9.954488e+11   2.459109e+12   4.230588e+06   2.913611e-17   0.000000e+00   0.000000e+00
     1240000   1.239999e-05   3.622227e+01   3.258484e+00   2.912418e+01   3.615860e+06   2.186804e+06  -2.032679e+05  -4.112416e+11   8.894825e+11   2.253536e+12   4.230588e+06   2.465708e-17   0.000000e+00   0.000000e+00
     1248000   1.247999e-05   3.651015e+01   3.436159e+00   2.911492e+01   3.580207e+06   2.253675e+06  -3.080486e+04  -4.748806e+11   7.825920e+11   2.060911e+12   4.230589e+06   2.076417e-17   0.000000e+00   0.000000e+00
     1256000   1.255999e-05   3.679500e+01   3.618847e+00   2.911885e+01   3.540551e+06   2.312206e+06   1.268336e+05  -5.124973e+11   6.815476e+11   1.881891e+12   4.230589e+06   1.742972e-17   0.000000e+00   0.000000e+00
     1264000   1.263999e-05   3.707659e+01   3.805893e+00   2.913484e+01   3.498916e+06   2.362663e+06   2.707315e+05  -5.254597e+11   5.814595e+11   1.716765e+12   4.230590e+06   1.454213e-17   0.000000e+00   0.000000e+00
     1272000   1.271999e-05   3.735482e+01   3.996674e+00   2.916183e+01   3.456764e+06   2.405654e+06   4.018712e+05  -5.247321e+11   4.927155e+11   1.564186e+12   4.230590e+06   1.210575e-17   0.000000e+00   0.000000e+00
     1280000   1.279999e-05   3.762969e+01   4.190613e+00   2.919883e+01   3.415295e+06   2.441695e+06   5.213205e+05  -5.127435e+11   4.130184e+11   1.424709e+12   4.230590e+06   1.005802e-17   0.000000e+00   0.000000e+00
     1288000   1.287999e-05   3.790130e+01   4.387180e+00   2.924495e+01   3.375311e+06   2.471517e+06   6.298988e+05  -4.869944e+11   3.355769e+11   1.292897e+12   4.230590e+06   8.253572e-18   0.000000e+00   0.000000e+00
     1296000   1.295999e-05   3.816980e+01   4.585902e+00   2.929935e+01   3.337562e+06   2.495574e+06   7.284820e+05  -4.541951e+11   2.647204e+11   1.174074e+12   4.230590e+06   6.756927e-18   0.000000e+00   0.000000e+00
     1304000   1.303999e-05   3.843538e+01   4.786335e+00   2.936126e+01   3.302533e+06   2.514403e+06   8.178953e+05  -4.169819e+11   2.017440e+11   1.063515e+12   4.230591e+06   5.494501e-18   0.000000e+00   0.000000e+00
     1312000   1.311999e-05   3.869829e+01   4.988075e+00   2.942999e+01   3.270623e+06   2.528414e+06   8.989130e+05  -3.818201e+11   1.514080e+11   9.633618e+11   4.230591e+06   4.478342e-18   0.000000e+00   0.000000e+00
     1320000   1.319999e-05   3.895877e+01   5.190767e+00   2.950489e+01   3.241930e+06   2.538175e+06   9.723462e+05  -3.381629e+11   9.747316e+10   8.730487e+11   4.230591e+06   3.617989e-18   0.000000e+00   0.000000e+00
     1328000   1.327999e-05   3.921709e+01   5.394078e+00   2.958538e+01   3.216686e+06   2.543928e+06   1.038873e+06  -2.931622e+11   4.757083e+10   7.912434e+11   4.230591e+06   2.916513e-18   0.000000e+00   0.000000e+00
     1336000   1.335999e-05   3.947353e+01   5.597701e+00   2.967094e+01   3.194885e+06   2.546059e+06   1.099180e+06  -2.518245e+11   6.742852e+09   7.163415e+11   4.230591e+06   2.354395e-18   0.000000e+00   0.000000e+00
     1344000   1.343999e-05   3.972836e+01   5.801358e+00   2.976110e+01   3.176523e+06   2.544819e+06   1.153905e+06  -2.084795e+11  -3.586789e+10   6.530190e+11   4.230591e+06   1.923928e-18   0.000000e+00   0.000000e+00
     1352000   1.351999e-05   3.998191e+01   6.004821e+00   2.985524e+01   3.164592e+06   2.542525e+06   1.191143e+06  -3.740898e+10   1.244147e+10   7.283044e+10   4.230591e+06   2.808369e-20   0.000000e+00   0.000000e+00
     1360000   1.359999e-05   4.023522e+01   6.208405e+00   2.994974e+01   3.171078e+06   2.549039e+06   1.159554e+06   1.726930e+11   1.592930e+11  -8.224364e+11   4.230591e+06   2.986407e-18   0.000000e+00   0.000000e+00
     1368000   1.367999e-05   4.048960e+01   6.412993e+00   3.003906e+01   3.188975e+06   2.566866e+06   1.067494e+06   2.218634e+11   2.486203e+11  -1.260593e+12   4.230591e+06   6.941805e-18   0.000000e+00   0.000000e+00
     1376000   1.375999e-05   4.074537e+01   6.619149e+00   3.012045e+01   3.204453e+06   2.587154e+06   9.674816e+05   1.661911e+11   2.580427e+11  -1.240470e+12   4.230591e+06   6.667573e-18   0.000000e+00   0.000000e+00
     1384000   1.383999e-05   4.100220e+01   6.826955e+00   3.019390e+01   3.215705e+06   2.608098e+06   8.688918e+05   1.165420e+11   2.646161e+11  -1.225577e+12   4.230592e+06   6.474320e-18   0.000000e+00   0.000000e+00
     1392000   1.391999e-05   4.125978e+01   7.036455e+00   3.025950e+01   3.223208e+06   2.629433e+06   7.713073e+05   7.208920e+10   2.681428e+11  -1.215348e+12   4.230592e+06   6.345800e-18   0.000000e+00   0.000000e+00
     1400000   1.399999e-05   4.151782e+01   7.247672e+00   3.031732e+01   3.227290e+06   2.651006e+06   6.742938e+05   3.194556e+10   2.692019e+11  -1.211249e+12   4.230592e+06   6.290459e-18   0.000000e+00   0.000000e+00
     1408000   1.407999e-05   4.177606e+01   7.460615e+00   3.036739e+01   3.228310e+06   2.672550e+06   5.774076e+05  -6.354631e+09   2.695118e+11  -1.211888e+12   4.230592e+06   6.293453e-18   0.000000e+00   0.000000e+00
     1416000   1.415999e-05   4.203427e+01   7.675276e+00   3.040970e+01   3.226460e+06   2.693923e+06   4.802557e+05  -3.895625e+10   2.638743e+11  -1.218415e+12   4.230592e+06   6.351963e-18   0.000000e+00   0.000000e+00
     1424000   1.423999e-05   4.229223e+01   7.891629e+00   3.044421e+01   3.222017e+06   2.714837e+06   3.823366e+05  -7.208107e+10   2.586195e+11  -1.228884e+12   4.230592e+06   6.460384e-18   0.000000e+00   0.000000e+00
     1432000   1.431999e-05   4.254973e+01   8.109629e+00   3.047084e+01   3.215145e+06   2.735062e+06   2.831769e+05  -1.002152e+11   2.471930e+11  -1.249626e+12   4.230592e+06   6.666469e-18   0.000000e+00   0.000000e+00
     1440000   1.439999e-05   4.280659e+01   8.329216e+00   3.048947e+01   3.205906e+06   2.754424e+06   1.822884e+05  -1.300556e+11   2.356378e+11  -1.273167e+12   4.230593e+06   6.914222e-18   0.000000e+00   0.000000e+00
     1448000   1.447999e-05   4.306262e+01   8.550303e+00   3.049995e+01   3.194486e+06   2.772525e+06   7.923561e+04  -1.560729e+11   2.171003e+11  -1.304030e+12   4.230593e+06   7.235120e-18   0.000000e+00   0.000000e+00
     1456000   1.455999e-05   4.331765e+01   8.772784e+00   3.050208e+01   3.180814e+06   2.789199e+06  -2.661361e+04  -1.837010e+11   1.966866e+11  -1.342907e+12   4.230593e+06   7.659117e-18   0.000000e+00   0.000000e+00
     1464000   1.463999e-05   4.357149e+01   8.996524e+00   3.049560e+01   3.165029e+06   2.803939e+06  -1.357658e+05  -2.098090e+11   1.696955e+11  -1.386622e+12   4.230593e+06   8.147876e-18   0.000000e+00   0.000000e+00
     1472000   1.471999e-05   4.382400e+01   9.221350e+00   3.048025e+01   3.147187e+06   2.816252e+06  -2.487041e+05  -2.368529e+11   1.377167e+11  -1.437841e+12   4.230593e+06   8.747729e-18   0.000000e+00   0.000000e+00
     1480000   1.479999e-05   4.407498e+01   9.447050e+00   3.045569e+01   3.127179e+06   2.825716e+06  -3.660611e+05  -2.632020e+11   9.734959e+10  -1.497074e+12   4.230593e+06   9.472597e-18   0.000000e+00   0.000000e+00
     1488000   1.487999e-05   4.432429e+01   9.673367e+00   3.042155e+01   3.105088e+06   2.831553e+06  -4.885228e+05  -2.889364e+11   4.686673e+10  -1.564907e+12   4.230594e+06   1.034892e-17   0.000000e+00   0.000000e+00
     1496000   1.495999e-05   4.457174e+01   9.899979e+00   3.037738e+01   3.080957e+06   2.832915e+06  -6.166226e+05  -3.138792e+11  -1.534429e+10  -1.638839e+12   4.230594e+06   1.136941e-17   0.000000e+00   0.000000e+00
     1504000   1.503999e-05   4.481719e+01   1.012649e+01   3.032272e+01   3.054782e+06   2.828798e+06  -7.510891e+05  -3.401211e+11  -9.014650e+10  -1.722875e+12   4.230594e+06   1.262517e-17   0.000000e+00   0.000000e+00
     1512000   1.511999e-05   4.506045e+01   1.035241e+01   3.025702e+01   3.026532e+06   2.818053e+06  -8.925310e+05  -3.653668e+11  -1.823277e+11  -1.814658e+12   4.230595e+06   1.412613e-17   0.000000e+00   0.000000e+00
     1520000   1.519999e-05   4.530138e+01   1.057716e+01   3.017971e+01   2.996346e+06   2.799072e+06  -1.041652e+06  -3.882299e+11  -2.967826e+11  -1.914292e+12   4.230595e+06   1.593732e-17   0.000000e+00   0.000000e+00
     1528000   1.527999e-05   4.553982e+01   1.079999e+01   3.009014e+01   2.964452e+06   2.769896e+06  -1.199015e+06  -4.090517e+11  -4.372685e+11  -2.021532e+12   4.230595e+06   1.814949e-17   0.000000e+00   0.000000e+00
     1536000   1.535999e-05   4.577565e+01   1.102001e+01   2.998763e+01   2.931252e+06   2.728688e+06  -1.363805e+06  -3.774613e+11  -5.230076e+11  -1.857742e+12   4.230596e+06   1.579439e-17   0.000000e+00   0.000000e+00
     1544000   1.543999e-05   4.600935e+01   1.123719e+01   2.987467e+01   2.916934e+06   2.709330e+06  -1.431420e+06   2.210908e+10   1.067786e+11   2.471590e+11   4.230596e+06   2.972428e-19   0.000000e+00   0.000000e+00
     1552000   1.551999e-05   4.624315e+01   1.145518e+01   2.976349e+01   2.930897e+06   2.748956e+06  -1.323263e+06   2.243144e+11   7.040643e+11   1.959429e+12   4.230596e+06   1.790540e-17   0.000000e+00   0.000000e+00
     1560000   1.559999e-05   4.647823e+01   1.167743e+01   2.966416e+01   2.944887e+06   2.808522e+06  -1.156628e+06   1.214652e+11   7.833593e+11   2.211366e+12   4.230597e+06   2.253208e-17   0.000000e+00   0.000000e+00
     1568000   1.567999e-05   4.671408e+01   1.190469e+01   2.957900e+01   2.949696e+06   2.873866e+06  -9.685774e+05  -6.067460e+09   8.474798e+11   2.496008e+12   4.230597e+06   2.836977e-17   0.000000e+00   0.000000e+00
     1576000   1.575999e-05   4.694988e+01   1.213737e+01   2.950983e+01   2.943107e+06   2.943474e+06  -7.563339e+05  -1.643178e+11   8.885673e+11   2.818572e+12   4.230598e+06   3.577051e-17   0.000000e+00   0.000000e+00
     1584000   1.583999e-05   4.718460e+01   1.237571e+01   2.945872e+01   2.922329e+06   3.015140e+06  -5.166147e+05  -3.608956e+11   8.950077e+11   3.181882e+12   4.230599e+06   4.513998e-17   0.000000e+00   0.000000e+00
     1592000   1.591999e-05   4.741700e+01   1.261974e+01   2.942801e+01   2.884657e+06   3.084870e+06  -2.455712e+05  -5.900965e+11   8.387026e+11   3.603527e+12   4.230600e+06   5.731284e-17   0.000000e+00   0.000000e+00
     1600000   1.599999e-05   4.764560e+01   1.286909e+01   2.942039e+01   2.826585e+06   3.147161e+06   6.148835e+04  -8.695000e+11   7.011909e+11   4.084257e+12   4.230601e+06   7.320301e-17   0.000000e+00   0.000000e+00
     1608000   1.607999e-05   4.786862e+01   1.312286e+01   2.943894e+01   2.744518e+06   3.193394e+06   4.097126e+05  -1.191680e+12   4.297099e+11   4.633941e+12   4.230603e+06   9.422750e-17   0.000000e+00   0.000000e+00
     1616000   1.615999e-05   4.808400e+01   1.337926e+01   2.948720e+01   2.635213e+06   3.210191e+06   8.052050e+05  -1.550158e+12  -4.710937e+10   5.261427e+12   4.230606e+06   1.228479e-16   0.000000e+00   0.000000e+00
     1624000   1.623999e-05   4.828950e+01   1.363512e+01   2.956924e+01   2.497588e+06   3.175504e+06   1.255502e+06  -1.903157e+12  -8.698144e+11   5.986291e+12   4.230609e+06   1.641936e-16   0.000000e+00   0.000000e+00
     1632000   1.631999e-05   4.848291e+01   1.388505e+01   2.968970e+01   2.333910e+06   3.054720e+06   1.766250e+06  -2.195042e+12  -2.227898e+12   6.753965e+12   4.230614e+06   2.261871e-16   0.000000e+00   0.000000e+00
     1640000   1.639999e-05   4.866260e+01   1.412036e+01   2.985305e+01   2.167032e+06   2.820955e+06   2.290049e+06  -1.218455e+12  -2.022479e+12   3.644437e+12   4.230619e+06   7.705856e-17   0.000000e+00   0.000000e+00
     1648000   1.647999e-05   4.883613e+01   1.434858e+01   3.003270e+01   2.205546e+06   2.998388e+06   2.010822e+06   1.058175e+12   5.430947e+12  -9.258290e+12   4.230623e+06   4.749755e-16   0.000000e+00   0.000000e+00
     1656000   1.655999e-05   4.901352e+01   1.460556e+01   3.016144e+01   2.193909e+06   3.420407e+06   1.177227e+06  -1.570653e+12   4.977503e+12  -1.153355e+13   4.230636e+06   6.543581e-16   0.000000e+00   0.000000e+00
     1664000   1.663999e-05   4.918052e+01   1.489369e+01   3.021611e+01   1.932507e+06   3.760017e+06   1.616309e+05  -5.108545e+12   3.217270e+12  -1.375006e+13   4.230654e+06   9.207709e-16   0.000000e+00   0.000000e+00
     1672000   1.671999e-05   4.931481e+01   1.520105e+01   3.018269e+01   1.378077e+06   3.864871e+06  -1.030693e+06  -8.618300e+12  -1.211867e+12  -1.607047e+13   4.230680e+06   1.363735e-15   0.000000e+00   0.000000e+00
     1680000   1.679999e-05   4.939529e+01   1.549764e+01   3.004606e+01   6.258969e+05   3.417964e+06  -2.413456e+06  -9.228559e+12  -1.095725e+13  -1.791326e+13   4.230720e+06   2.148208e-15   0.000000e+00   0.000000e+00
     1688000   1.687999e-05   4.942606e+01   1.574509e+01   2.981799e+01   3.251479e+05   3.148455e+06  -2.807259e+06   1.155843e+12   1.294288e+13   1.464847e+13   4.230744e+06   1.564665e-15   0.000000e+00   0.000000e+00
     1696000   1.695999e-05   4.944509e+01   1.603620e+01   2.965117e+01   1.202460e+04   4.007511e+06  -1.356203e+06  -8.430319e+12   6.033367e+12   1.775044e+13   4.230789e+06   1.725499e-15   0.000000e+00   0.000000e+00
     1704000   1.703999e-05   4.941435e+01   1.636691e+01   2.959720e+01  -8.135038e+05   4.151789e+06  -2.732352e+04  -1.092785e+13  -2.039849e+12   1.527080e+13   4.230826e+06   1.456932e-15   0.000000e+00   0.000000e+00
     1712000   1.711999e-05   4.931614e+01   1.668613e+01   2.964105e+01  -1.606936e+06   3.760045e+06   1.086262e+06  -8.308758e+12  -7.142692e+12   1.243527e+13   4.230856e+06   1.121773e-15   0.000000e+00   0.000000e+00
     1720000   1.719999e-05   4.916504e+01   1.696172e+01   2.976365e+01  -2.119171e+06   3.112135e+06   1.929780e+06  -4.557232e+12  -8.460439e+12   8.640441e+12   4.230877e+06   6.820369e-16   0.000000e+00   0.000000e+00
     1728000   1.727999e-05   4.898610e+01   1.719077e+01   2.993664e+01  -2.278853e+06   2.776695e+06   2.235434e+06   3.957631e+11   1.987090e+12  -2.064732e+12   4.230883e+06   3.413211e-17   0.000000e+00   0.000000e+00
     1736000   1.735999e-05   4.880570e+01   1.742537e+01   3.010038e+01  -2.242466e+06   3.094881e+06   1.814791e+06  -2.074876e+11   3.285994e+12  -5.859954e+12   4.230888e+06   1.845106e-16   0.000000e+00   0.000000e+00
     1744000   1.743999e-05   4.862453e+01   1.768126e+01   3.022742e+01  -2.298720e+06   3.277289e+06   1.369563e+06  -1.104166e+12   1.411352e+12  -5.230332e+12   4.230891e+06   1.248324e-16   0.000000e+00   0.000000e+00
     1752000   1.751999e-05   4.843667e+01   1.794665e+01   3.032095e+01  -2.402312e+06   3.342672e+06   9.777017e+05  -1.439140e+12   3.002628e+11  -4.562447e+12   4.230894e+06   9.383428e-17   0.000000e+00   0.000000e+00
     1760000   1.759999e-05   4.823980e+01   1.821424e+01   3.038523e+01  -2.519868e+06   3.338388e+06   6.371106e+05  -1.478444e+12  -3.591747e+11  -3.965148e+12   4.230896e+06   7.366009e-17   0.000000e+00   0.000000e+00
     1768000   1.767999e-05   4.803354e+01   1.847967e+01   3.042410e+01  -2.635586e+06   3.292014e+06   3.417876e+05  -1.397907e+12  -7.627024e+11  -3.432935e+12   4.230897e+06   5.848353e-17   0.000000e+00   0.000000e+00
     1776000   1.775999e-05   4.781838e+01   1.874032e+01   3.044096e+01  -2.741618e+06   3.221284e+06   8.576339e+04  -1.252267e+12  -9.864883e+11  -2.977547e+12   4.230898e+06   4.658429e-17   0.000000e+00   0.000000e+00
     1784000   1.783999e-05   4.759522e+01   1.899473e+01   3.043872e+01  -2.835067e+06   3.137562e+06  -1.364099e+05  -1.084421e+12  -1.092223e+12  -2.584856e+12   4.230899e+06   3.695990e-17   0.000000e+00   0.000000e+00
     1792000   1.791999e-05   4.736511e+01   1.924219e+01   3.041991e+01  -2.915459e+06   3.048318e+06  -3.291974e+05  -9.250500e+11  -1.126927e+12  -2.242907e+12   4.230900e+06   2.922491e-17   0.000000e+00   0.000000e+00
     1800000   1.799999e-05   4.712908e+01   1.948246e+01   3.038673e+01  -2.983207e+06   2.958798e+06  -4.964970e+05  -7.697901e+11  -1.102802e+12  -1.946803e+12   4.230901e+06   2.286436e-17   0.000000e+00   0.000000e+00
     1808000   1.807999e-05   4.688811e+01   1.971569e+01   3.034107e+01  -3.039148e+06   2.872719e+06  -6.415509e+05  -6.303703e+11  -1.043080e+12  -1.684556e+12   4.230901e+06   1.765476e-17   0.000000e+00   0.000000e+00
     1816000   1.815999e-05   4.664310e+01   1.994225e+01   3.028461e+01  -3.084491e+06   2.792525e+06  -7.669750e+05  -5.038769e+11  -9.563522e+11  -1.455675e+12   4.230901e+06   1.342553e-17   0.000000e+00   0.000000e+00
     1824000   1.823999e-05   4.639485e+01   2.016270e+01   3.021882e+01  -3.120218e+06   2.720127e+06  -8.750323e+05  -3.911380e+11  -8.508319e+11  -1.250193e+12   4.230902e+06   9.964084e-18   0.000000e+00   0.000000e+00
     1832000   1.831999e-05   4.614410e+01   2.037771e+01   3.014501e+01  -3.147335e+06   2.656792e+06  -9.676101e+05  -2.888971e+11  -7.309586e+11  -1.067338e+12   4.230902e+06   7.175216e-18   0.000000e+00   0.000000e+00
     1840000   1.839999e-05   4.589148e+01   2.058805e+01   3.006437e+01  -3.166682e+06   2.603423e+06  -1.046350e+06  -1.940679e+11  -5.989013e+11  -9.028089e+11   4.230902e+06   4.947244e-18   0.000000e+00   0.000000e+00
     1848000   1.847999e-05   4.563762e+01   2.079455e+01   2.997795e+01  -3.178702e+06   2.561861e+06  -1.110520e+06  -1.011012e+11  -3.911457e+11  -6.129525e+11   4.230902e+06   2.201225e-18   0.000000e+00   0.000000e+00
     1856000   1.855999e-05   4.538310e+01   2.099861e+01   2.988770e+01  -3.183090e+06   2.543652e+06  -1.139434e+06  -2.855594e+10  -9.183545e+10  -1.252390e+11   4.230902e+06   1.018376e-19   0.000000e+00   0.000000e+00
     1864000   1.863999e-05   4.512828e+01   2.120180e+01   2.979636e+01  -3.188431e+06   2.535749e+06  -1.142111e+06  -1.085115e+11  -1.284411e+11   1.776243e+10   4.230902e+06   1.167107e-19   0.000000e+00   0.000000e+00
     1872000   1.871999e-05   4.487277e+01   2.140405e+01   2.970486e+01  -3.200547e+06   2.517927e+06  -1.147639e+06  -1.945967e+11  -3.184126e+11  -1.559072e+11   4.230902e+06   6.678254e-19   0.000000e+00   0.000000e+00
     1880000   1.879999e-05   4.461602e+01   2.160426e+01   2.961236e+01  -3.219518e+06   2.484570e+06  -1.167113e+06  -2.804754e+11  -5.189002e+11  -3.309475e+11   4.230902e+06   1.867886e-18   0.000000e+00   0.000000e+00
     1888000   1.887999e-05   4.435746e+01   2.180114e+01   2.951775e+01  -3.245429e+06   2.434457e+06  -1.200477e+06  -3.669613e+11  -7.368507e+11  -5.022118e+11   4.230902e+06   3.796817e-18   0.000000e+00   0.000000e+00
     1896000   1.895999e-05   4.409656e+01   2.199328e+01   2.941993e+01  -3.278397e+06   2.365752e+06  -1.247343e+06  -4.539569e+11  -9.820375e+11  -6.694413e+11   4.230902e+06   6.609518e-18   0.000000e+00   0.000000e+00
     1904000   1.903999e-05   4.383272e+01   2.217909e+01   2.931784e+01  -3.318654e+06   2.275752e+06  -1.306916e+06  -5.479868e+11  -1.269207e+12  -8.186048e+11   4.230903e+06   1.054060e-17   0.000000e+00   0.000000e+00
     1912000   1.911999e-05   4.356538e+01   2.235675e+01   2.921052e+01  -3.366236e+06   2.161206e+06  -1.377747e+06  -6.420029e+11  -1.604448e+12  -9.482497e+11   4.230903e+06   1.586676e-17   0.000000e+00   0.000000e+00
     1920000   1.919999e-05   4.329392e+01   2.252410e+01   2.909715e+01  -3.421375e+06   2.017388e+06  -1.457698e+06  -7.336340e+11  -1.998929e+12  -1.044548e+12   4.230903e+06   2.296974e-17   0.000000e+00   0.000000e+00
     1928000   1.927999e-05   4.301777e+01   2.267862e+01   2.897713e+01  -3.483505e+06   1.839393e+06  -1.543494e+06  -8.177744e+11  -2.464214e+12  -1.091042e+12   4.230904e+06   3.238832e-17   0.000000e+00   0.000000e+00
     1936000   1.935999e-05   4.273641e+01   2.281734e+01   2.885016e+01  -3.551522e+06   1.621309e+06  -1.630524e+06  -8.791254e+11  -3.002437e+12  -1.070671e+12   4.230905e+06   4.464849e-17   0.000000e+00   0.000000e+00
     1944000   1.943999e-05   4.244943e+01   2.293678e+01   2.871638e+01  -3.623306e+06   1.356491e+06  -1.712353e+06  -9.071467e+11  -3.630824e+12  -9.568479e+11   4.230906e+06   6.093182e-17   0.000000e+00   0.000000e+00
     1952000   1.951999e-05   4.215667e+01   2.303295e+01   2.857655e+01  -3.695087e+06   1.038123e+06  -1.780228e+06  -8.749009e+11  -4.342557e+12  -7.164675e+11   4.230908e+06   8.222848e-17   0.000000e+00   0.000000e+00
     1960000   1.959999e-05   4.185838e+01   2.310129e+01   2.843222e+01  -3.760681e+06   6.598621e+05  -1.822762e+06  -7.463956e+11  -5.125081e+12  -3.155434e+11   4.230910e+06   1.099418e-16   0.000000e+00   0.000000e+00
     1968000   1.967999e-05   4.155538e+01   2.313681e+01   2.828597e+01  -3.810715e+06   2.171689e+05  -1.825352e+06  -4.763170e+11  -5.945269e+12   2.868621e+11   4.230913e+06   1.456008e-16   0.000000e+00   0.000000e+00
     1976000   1.975999e-05   4.124943e+01   2.313428e+01   2.814169e+01  -3.831612e+06  -2.908574e+05  -1.770540e+06  -8.606219e+09  -6.742303e+12   1.125960e+12   4.230917e+06   1.908110e-16   0.000000e+00   0.000000e+00
     1984000   1.983999e-05   4.094357e+01   2.308868e+01   2.800475e+01  -3.805341e+06  -8.581441e+05  -1.638189e+06   7.116604e+11  -7.407152e+12   2.226659e+12   4.230922e+06   2.463645e-16   0.000000e+00   0.000000e+00
     1992000   1.991999e-05   4.064242e+01   2.299583e+01   2.788221e+01  -3.710052e+06  -1.468347e+06  -1.407204e+06   1.722138e+12  -7.791406e+12   3.589033e+12   4.230928e+06   3.126125e-16   0.000000e+00   0.000000e+00
     2000000   1.999999e-05   4.035244e+01   2.285337e+01   2.778275e+01  -3.521999e+06  -2.091926e+06  -1.058391e+06   3.020379e+12  -7.696921e+12   5.161294e+12   4.230936e+06   3.879633e-16   0.000000e+00   0.000000e+00
     2008000   2.007999e-05   4.008191e+01   2.266203e+01   2.771636e+01  -3.221529e+06  -2.680916e+06  -5.790912e+05   4.510647e+12  -6.894906e+12   6.825076e+12   4.230946e+06   4.674475e-16   0.000000e+00   0.000000e+00
     2016000   2.015999e-05   3.984023e+01   2.242704e+01   2.769360e+01  -2.800503e+06  -3.171310e+06   3.128130e+04   5.996277e+12  -5.212758e+12   8.396691e+12   4.230958e+06   5.457175e-16   0.000000e+00   0.000000e+00
     2024000   2.023999e-05   3.963678e+01   2.215919e+01   2.772440e+01  -2.269714e+06  -3.489987e+06   7.546583e+05   7.198171e+12  -2.605101e+12   9.603723e+12   4.230971e+06   6.159606e-16   0.000000e+00   0.000000e+00
     2032000   2.031999e-05   3.947909e+01   2.187509e+01   2.781631e+01  -1.664158e+06  -3.567575e+06   1.550559e+06   7.825623e+12   7.651155e+11   1.016042e+13   4.230986e+06   6.740721e-16   0.000000e+00   0.000000e+00
     2040000   2.039999e-05   3.937108e+01   2.159608e+01   2.797275e+01  -1.037669e+06  -3.357716e+06   2.355922e+06   7.720597e+12   4.496472e+12   9.809773e+12   4.231003e+06   7.189915e-16   0.000000e+00   0.000000e+00
     2048000   2.047999e-05   3.931212e+01   2.134575e+01   2.819141e+01  -4.464209e+05  -2.853249e+06   3.092120e+06   6.964431e+12   8.039897e+12   8.424879e+12   4.231020e+06   7.519326e-16   0.000000e+00   0.000000e+00
     2056000   2.055999e-05   3.929751e+01   2.114650e+01   2.846347e+01   6.543704e+04  -2.090027e+06   3.678204e+06   5.791655e+12   1.088674e+13   6.083538e+12   4.231037e+06   7.721647e-16   0.000000e+00   0.000000e+00
     2064000   2.063999e-05   3.931994e+01   2.101632e+01   2.877408e+01   4.788076e+05  -1.140833e+06   4.046118e+06   4.558217e+12   1.264823e+13   3.027325e+12   4.231055e+06   7.756279e-16   0.000000e+00   0.000000e+00
     2072000   2.071999e-05   3.937165e+01   2.096644e+01   2.910388e+01   8.003544e+05  -9.914672e+04   4.153502e+06   3.531209e+12   1.318621e+13  -3.652301e+11   4.231073e+06   7.615852e-16   0.000000e+00   0.000000e+00
     2080000   2.079999e-05   3.944616e+01   2.100030e+01   2.943137e+01   1.053253e+06   9.368637e+05   3.989369e+06   2.853018e+12   1.252878e+13  -3.695050e+12   4.231090e+06   7.300821e-16   0.000000e+00   0.000000e+00
     2088000   2.087999e-05   3.953910e+01   2.111381e+01   2.973544e+01   1.265736e+06   1.879066e+06   3.573414e+06   2.508157e+12   1.088186e+13  -6.610124e+12   4.231107e+06   6.877612e-16   0.000000e+00   0.000000e+00
     2096000   2.095999e-05   3.964556e+01   2.128660e+01   3.000611e+01   1.332974e+06   2.186461e+06   3.368217e+06  -1.603274e+12  -5.755020e+12   4.370501e+12   4.231113e+06   2.237778e-16   0.000000e+00   0.000000e+00
     2104000   2.103999e-05   3.974675e+01   2.144288e+01   3.028848e+01   1.193241e+06   1.718278e+06   3.677779e+06  -1.860310e+12  -5.921808e+12   3.370407e+12   4.231118e+06   2.037508e-16   0.000000e+00   0.000000e+00
     2112000   2.111999e-05   3.983613e+01   2.156135e+01   3.059244e+01   1.040446e+06   1.243739e+06   3.908067e+06  -1.928300e+12  -5.913427e+12   2.395429e+12   4.231123e+06   1.814394e-16   0.000000e+00   0.000000e+00
     2120000   2.119999e-05   3.991327e+01   2.164207e+01   3.091176e+01   8.895096e+05   7.762327e+05   4.063086e+06  -1.816926e+12  -5.751702e+12   1.496699e+12   4.231127e+06   1.577454e-16   0.000000e+00   0.000000e+00
     2128000   2.127999e-05   3.997887e+01   2.168605e+01   3.124073e+01   7.541819e+05   3.274129e+05   4.150478e+06  -1.540932e+12  -5.448376e+12   7.098790e+11   4.231130e+06   1.329951e-16   0.000000e+00   0.000000e+00
     2136000   2.135999e-05   4.003467e+01   2.169522e+01   3.157431e+01   6.461559e+05  -9.251498e+04   4.180479e+06  -1.141813e+12  -5.030653e+12   6.521856e+10   4.231133e+06   1.087038e-16   0.000000e+00   0.000000e+00
     2144000   2.143999e-05   4.008321e+01   2.167226e+01   3.190839e+01   5.737997e+05  -4.747769e+05   4.165074e+06  -6.594171e+11  -4.516528e+12  -4.239443e+11   4.231135e+06   8.582501e-17   0.000000e+00   0.000000e+00
     2152000   2.151999e-05   4.012756e+01   2.162045e+01   3.223985e+01   5.418024e+05  -8.124547e+05   4.116902e+06  -1.381512e+11  -3.915585e+12  -7.545055e+11   4.231137e+06   6.502249e-17   0.000000e+00   0.000000e+00
     2160000   2.159999e-05   4.017102e+01   2.154360e+01   3.256655e+01   5.516162e+05  -1.099996e+06   4.048241e+06   3.814053e+11  -3.263522e+12  -9.387119e+11   4.231138e+06   4.769336e-17   0.000000e+00   0.000000e+00
     2168000   2.167999e-05   4.021689e+01   2.144589e+01   3.288732e+01   6.015346e+05  -1.333612e+06   3.970160e+06   8.570858e+11  -2.573223e+12  -9.942079e+11   4.231139e+06   3.408162e-17   0.000000e+00   0.000000e+00
     2176000   2.175999e-05   4.026821e+01   2.133172e+01   3.320177e+01   6.869599e+05  -1.511230e+06   3.891891e+06   1.263565e+12  -1.865792e+12  -9.475087e+11   4.231140e+06   2.440597e-17   0.000000e+00   0.000000e+00
     2184000   2.183999e-05   4.032758e+01   2.120561e+01   3.351021e+01   8.013734e+05  -1.632135e+06   3.820534e+06   1.579755e+12  -1.161865e+12  -8.276980e+11   4.231140e+06   1.850428e-17   0.000000e+00   0.000000e+00
     2192000   2.191999e-05   4.039700e+01   2.107205e+01   3.381337e+01   9.372422e+05  -1.697606e+06   3.760620e+06   1.796941e+12  -4.807591e+11  -6.648557e+11   4.231141e+06   1.593712e-17   0.000000e+00   0.000000e+00
     2200000   2.199999e-05   4.047789e+01   2.093540e+01   3.411227e+01   1.086536e+06  -1.710089e+06   3.714511e+06   1.917048e+12   1.607616e+11  -4.867357e+11   4.231141e+06   1.608248e-17   0.000000e+00   0.000000e+00
     2208000   2.207999e-05   4.057100e+01   2.079975e+01   3.440806e+01   1.241665e+06  -1.673264e+06   3.682528e+06   1.949249e+12   7.527415e+11  -3.152002e+11   4.231141e+06   1.823754e-17   0.000000e+00   0.000000e+00
     2216000   2.215999e-05   4.067654e+01   2.066889e+01   3.470183e+01   1.396257e+06  -1.591099e+06   3.663527e+06   1.902490e+12   1.287800e+12  -1.657675e+11   4.231142e+06   2.166746e-17   0.000000e+00   0.000000e+00
     2224000   2.223999e-05   4.079422e+01   2.054624e+01   3.499451e+01   1.544341e+06  -1.468909e+06   3.655117e+06   1.793165e+12   1.760536e+12  -5.010189e+10   4.231142e+06   2.580075e-17   0.000000e+00   0.000000e+00
     2232000   2.231999e-05   4.092334e+01   2.043480e+01   3.528685e+01   1.681385e+06  -1.311635e+06   3.654467e+06   1.627597e+12   2.160513e+12   2.661470e+10   4.231143e+06   2.988559e-17   0.000000e+00   0.000000e+00
     2240000   2.239999e-05   4.106285e+01   2.033717e+01   3.557935e+01   1.803844e+06  -1.124780e+06   3.658360e+06   1.429212e+12   2.501522e+12   6.441926e+10   4.231144e+06   3.391590e-17   0.000000e+00   0.000000e+00
     2248000   2.247999e-05   4.121150e+01   2.025549e+01   3.587223e+01   1.909284e+06  -9.132898e+05   3.663758e+06   1.206248e+12   2.781417e+12   6.475915e+10   4.231145e+06   3.755533e-17   0.000000e+00   0.000000e+00
     2256000   2.255999e-05   4.136785e+01   2.019157e+01   3.616551e+01   1.996220e+06  -6.819275e+05   3.667789e+06   9.668458e+11   2.994967e+12   3.064860e+10   4.231145e+06   4.045542e-17   0.000000e+00   0.000000e+00
     2264000   2.263999e-05   4.153038e+01   2.014680e+01   3.645897e+01   2.063801e+06  -4.351601e+05   3.667964e+06   7.214032e+11   3.162515e+12  -3.067829e+10   4.231146e+06   4.297670e-17   0.000000e+00   0.000000e+00
     2272000   2.271999e-05   4.169752e+01   2.012223e+01   3.675223e+01   2.111548e+06  -1.774249e+05   3.662307e+06   4.732205e+11   3.276525e+12  -1.140759e+11   4.231147e+06   4.481339e-17   0.000000e+00   0.000000e+00
     2280000   2.279999e-05   4.186770e+01   2.011861e+01   3.704475e+01   2.139620e+06   8.784347e+04   3.649237e+06   2.290456e+11   3.350276e+12  -2.149099e+11   4.231149e+06   4.624473e-17   0.000000e+00   0.000000e+00
     2288000   2.287999e-05   4.203934e+01   2.013640e+01   3.733588e+01   2.148271e+06   3.572083e+05   3.627666e+06  -1.145647e+10   3.378293e+12  -3.258369e+11   4.231150e+06   4.704596e-17   0.000000e+00   0.000000e+00
     2296000   2.295999e-05   4.221092e+01   2.017578e+01   3.762493e+01   2.138075e+06   6.272840e+05   3.596913e+06  -2.424385e+11   3.369329e+12  -4.434521e+11   4.231151e+06   4.740810e-17   0.000000e+00   0.000000e+00
     2304000   2.303999e-05   4.238096e+01   2.023671e+01   3.791113e+01   2.109864e+06   8.954640e+05   3.556580e+06  -4.608390e+11   3.328986e+12  -5.647457e+11   4.231152e+06   4.743128e-17   0.000000e+00   0.000000e+00
     2312000   2.311999e-05   4.254804e+01   2.031894e+01   3.819372e+01   2.064466e+06   1.159300e+06   3.506659e+06  -6.731093e+11   3.265218e+12  -6.831689e+11   4.231153e+06   4.730049e-17   0.000000e+00   0.000000e+00
     2320000   2.319999e-05   4.271084e+01   2.042203e+01   3.847195e+01   2.002724e+06   1.416876e+06   3.447350e+06  -8.714475e+11   3.176609e+12  -7.993035e+11   4.231154e+06   4.692365e-17   0.000000e+00   0.000000e+00
     2328000   2.327999e-05   4.286807e+01   2.054543e+01   3.874506e+01   1.925624e+06   1.666634e+06   3.378901e+06  -1.053430e+12   3.064853e+12  -9.113514e+11   4.231155e+06   4.628840e-17   0.000000e+00   0.000000e+00
     2336000   2.335999e-05   4.301856e+01   2.068844e+01   3.901234e+01   1.834503e+06   1.906760e+06   3.301749e+06  -1.224295e+12   2.938737e+12  -1.016849e+12   4.231156e+06   4.561636e-17   0.000000e+00   0.000000e+00
     2344000   2.343999e-05   4.316123e+01   2.085024e+01   3.927311e+01   1.730095e+06   2.136598e+06   3.216273e+06  -1.384364e+12   2.805109e+12  -1.118749e+12   4.231157e+06   4.507581e-17   0.000000e+00   0.000000e+00
     2352000   2.351999e-05   4.329505e+01   2.102999e+01   3.952674e+01   1.613396e+06   2.355070e+06   3.123027e+06  -1.529934e+12   2.654632e+12  -1.211435e+12   4.231158e+06   4.433524e-17   0.000000e+00   0.000000e+00
     2360000   2.359999e-05   4.341908e+01   2.122673e+01   3.977260e+01   1.485455e+06   2.561326e+06   3.022538e+06  -1.663954e+12   2.497595e+12  -1.298683e+12   4.231159e+06   4.367348e-17   0.000000e+00   0.000000e+00
     2368000   2.367999e-05   4.353246e+01   2.143945e+01   4.001016e+01   1.347445e+06   2.754657e+06   2.915300e+06  -1.783887e+12   2.334327e+12  -1.381154e+12   4.231160e+06   4.304295e-17   0.000000e+00   0.000000e+00
     2376000   2.375999e-05   4.363443e+01   2.166712e+01   4.023888e+01   1.200481e+06   2.934599e+06   2.801732e+06  -1.887321e+12   2.162914e+12  -1.456773e+12   4.231161e+06   4.232182e-17   0.000000e+00   0.000000e+00
     2384000   2.383999e-05   4.372432e+01   2.190862e+01   4.045828e+01   1.045633e+06   3.100747e+06   2.682303e+06  -1.983070e+12   1.990271e+12  -1.527666e+12   4.231162e+06   4.177108e-17   0.000000e+00   0.000000e+00
     2392000   2.391999e-05   4.380154e+01   2.216286e+01   4.066790e+01   8.837282e+05   3.252954e+06   2.557354e+06  -2.062876e+12   1.814103e+12  -1.594645e+12   4.231163e+06   4.120669e-17   0.000000e+00   0.000000e+00
     2400000   2.399999e-05   4.386556e+01   2.242872e+01   4.086732e+01   7.157058e+05   3.391084e+06   2.427151e+06  -2.140024e+12   1.639710e+12  -1.659834e+12   4.231164e+06   4.093743e-17   0.000000e+00   0.000000e+00
     2408000   2.407999e-05   4.391590e+01   2.270506e+01   4.105612e+01   5.421239e+05   3.515064e+06   2.291983e+06  -2.195604e+12   1.459697e+12  -1.719270e+12   4.231165e+06   4.046319e-17   0.000000e+00   0.000000e+00
     2416000   2.415999e-05   4.395219e+01   2.299075e+01   4.123391e+01   3.644532e+05   3.624644e+06   2.152184e+06  -2.244846e+12   1.280097e+12  -1.775711e+12   4.231166e+06   4.015215e-17   0.000000e+00   0.000000e+00
     2424000   2.423999e-05   4.397411e+01   2.328462e+01   4.140035e+01   1.832277e+05   3.719762e+06   2.008126e+06  -2.285489e+12   1.099234e+12  -1.827589e+12   4.231167e+06   3.991010e-17   0.000000e+00   0.000000e+00
     2432000   2.431999e-05   4.398142e+01   2.358552e+01   4.155510e+01  -1.091522e+03   3.800506e+06   1.859821e+06  -2.320672e+12   9.186151e+11  -1.878481e+12   4.231168e+06   3.985383e-17   0.000000e+00   0.000000e+00
     2440000   2.439999e-05   4.397391e+01   2.389232e+01   4.169781e+01  -1.868722e+05   3.866903e+06   1.707317e+06  -2.335006e+12   7.407685e+11  -1.933285e+12   4.231169e+06   3.977420e-17   0.000000e+00   0.000000e+00
     2448000   2.447999e-05   4.395147e+01   2.420385e+01   4.182816e+01  -3.743693e+05   3.918971e+06   1.550585e+06  -2.349095e+12   5.611936e+11  -1.985465e+12   4.231170e+06   3.992406e-17   0.000000e+00   0.000000e+00
     2456000   2.455999e-05   4.391400e+01   2.451897e+01   4.194579e+01  -5.623021e+05   3.956702e+06   1.389651e+06  -2.342195e+12   3.830228e+11  -2.038232e+12   4.231171e+06   3.997193e-17   0.000000e+00   0.000000e+00
     2464000   2.463999e-05   4.386153e+01   2.483654e+01   4.205039e+01  -7.496799e+05   3.980124e+06   1.224501e+06  -2.346702e+12   2.006718e+11  -2.088912e+12   4.231172e+06   4.047778e-17   0.000000e+00   0.000000e+00
     2472000   2.471999e-05   4.379405e+01   2.515540e+01   4.214160e+01  -9.369429e+05   3.988916e+06   1.055228e+06  -2.324060e+12   2.088491e+10  -2.142400e+12   4.231172e+06   4.080751e-17   0.000000e+00   0.000000e+00
     2480000   2.479999e-05   4.371166e+01   2.547438e+01   4.221912e+01  -1.122668e+06   3.983047e+06   8.819201e+05  -2.314091e+12  -1.670141e+11  -2.191387e+12   4.231173e+06   4.159785e-17   0.000000e+00   0.000000e+00
     2488000   2.487999e-05   4.361446e+01   2.579228e+01   4.228261e+01  -1.306835e+06   3.962135e+06   7.046293e+05  -2.286117e+12  -3.555698e+11  -2.240409e+12   4.231174e+06   4.236203e-17   0.000000e+00   0.000000e+00
     2496000   2.495999e-05   4.350264e+01   2.610792e+01   4.233175e+01  -1.488163e+06   3.926105e+06   5.233738e+05  -2.248878e+12  -5.470849e+11  -2.290290e+12   4.231175e+06   4.330137e-17   0.000000e+00   0.000000e+00
     2504000   2.503999e-05   4.337643e+01   2.642004e+01   4.236624e+01  -1.666537e+06   3.874408e+06   3.383336e+05  -2.210998e+12  -7.470393e+11  -2.335757e+12   4.231176e+06   4.452721e-17   0.000000e+00   0.000000e+00
     2512000   2.511999e-05   4.323610e+01   2.672739e+01   4.238579e+01  -1.841069e+06   3.806694e+06   1.496878e+05  -2.145487e+12  -9.440147e+11  -2.380316e+12   4.231177e+06   4.558040e-17   0.000000e+00   0.000000e+00
     2520000   2.519999e-05   4.308201e+01   2.702869e+01   4.239010e+01  -2.010371e+06   3.722833e+06  -4.234068e+04  -2.093262e+12  -1.157877e+12  -2.420099e+12   4.231179e+06   4.729212e-17   0.000000e+00   0.000000e+00
     2528000   2.527999e-05   4.291458e+01   2.732259e+01   4.237893e+01  -2.174385e+06   3.621957e+06  -2.373935e+05  -2.008166e+12  -1.366491e+12  -2.455694e+12   4.231180e+06   4.872635e-17   0.000000e+00   0.000000e+00
     2536000   2.535999e-05   4.273429e+01   2.760774e+01   4.235205e+01  -2.331666e+06   3.503843e+06  -4.351003e+05  -1.924543e+12  -1.589246e+12  -2.484951e+12   4.231181e+06   5.066263e-17   0.000000e+00   0.000000e+00
     2544000   2.543999e-05   4.254170e+01   2.788272e+01   4.230926e+01  -2.481722e+06   3.367635e+06  -6.348176e+05  -1.829455e+12  -1.820552e+12  -2.506050e+12   4.231182e+06   5.285598e-17   0.000000e+00   0.000000e+00
     2552000   2.551999e-05   4.233740e+01   2.814604e+01   4.225044e+01  -2.624493e+06   3.211877e+06  -8.359407e+05  -1.734684e+12  -2.072941e+12  -2.518720e+12   4.231183e+06   5.575004e-17   0.000000e+00   0.000000e+00
     2560000   2.559999e-05   4.212204e+01   2.839610e+01   4.217550e+01  -2.757949e+06   3.036470e+06  -1.037538e+06  -1.606513e+12  -2.320128e+12  -2.519870e+12   4.231185e+06   5.845967e-17   0.000000e+00   0.000000e+00
     2568000   2.567999e-05   4.189641e+01   2.863132e+01   4.208445e+01  -2.881013e+06   2.840485e+06  -1.238686e+06  -1.464502e+12  -2.577626e+12  -2.504759e+12   4.231186e+06   6.151914e-17   0.000000e+00   0.000000e+00
     2576000   2.575999e-05   4.166138e+01   2.885001e+01   4.197736e+01  -2.992588e+06   2.622845e+06  -1.438069e+06  -1.321372e+12  -2.865308e+12  -2.476304e+12   4.231187e+06   6.570699e-17   0.000000e+00   0.000000e+00
     2584000   2.583999e-05   4.141793e+01   2.905037e+01   4.185444e+01  -3.091282e+06   2.382426e+06  -1.634314e+06  -1.144561e+12  -3.149431e+12  -2.426275e+12   4.231189e+06   6.990414e-17   0.000000e+00   0.000000e+00
     2592000   2.591999e-05   4.116717e+01   2.923057e+01   4.171600e+01  -3.175231e+06   2.118350e+06  -1.825782e+06  -9.507204e+11  -3.455037e+12  -2.355376e+12   4.231191e+06   7.510419e-17   0.000000e+00   0.000000e+00
     2600000   2.599999e-05   4.091035e+01   2.938866e+01   4.156250e+01  -3.242346e+06   1.829912e+06  -2.010374e+06  -7.219359e+11  -3.756870e+12  -2.255388e+12   4.231192e+06   8.054882e-17   0.000000e+00   0.000000e+00
     2608000   2.607999e-05   4.064892e+01   2.952271e+01   4.139458e+01  -3.289999e+06   1.517115e+06  -2.185697e+06  -4.660541e+11  -4.068033e+12  -2.122238e+12   4.231194e+06   8.687098e-17   0.000000e+00   0.000000e+00
     2616000   2.615999e-05   4.038452e+01   2.963071e+01   4.121311e+01  -3.316278e+06   1.178493e+06  -2.348718e+06  -1.851618e+11  -4.398886e+12  -1.945846e+12   4.231196e+06   9.463429e-17   0.000000e+00   0.000000e+00
     2624000   2.623999e-05   4.011895e+01   2.971057e+01   4.101922e+01  -3.318575e+06   8.135790e+05  -2.495634e+06   1.339278e+11  -4.726518e+12  -1.719042e+12   4.231199e+06   1.033834e-16   0.000000e+00   0.000000e+00
     2632000   2.631999e-05   3.985427e+01   2.976020e+01   4.081435e+01  -3.293622e+06   4.227999e+05  -2.622281e+06   4.968627e+11  -5.046372e+12  -1.437817e+12   4.231201e+06   1.134597e-16   0.000000e+00   0.000000e+00
     2640000   2.639999e-05   3.959280e+01   2.977755e+01   4.060032e+01  -3.237838e+06   7.027607e+03  -2.723865e+06   9.054034e+11  -5.344199e+12  -1.090146e+12   4.231204e+06   1.248486e-16   0.000000e+00   0.000000e+00
     2648000   2.647999e-05   3.933714e+01   2.976070e+01   4.037935e+01  -3.147405e+06  -4.322500e+05  -2.794658e+06   1.364737e+12  -5.634526e+12  -6.656262e+11   4.231207e+06   1.390816e-16   0.000000e+00   0.000000e+00
     2656000   2.655999e-05   3.909024e+01   2.970784e+01   4.015418e+01  -3.018273e+06  -8.921689e+05  -2.827933e+06   1.872590e+12  -5.856169e+12  -1.512324e+11   4.231210e+06   1.544820e-16   0.000000e+00   0.000000e+00
     2664000   2.663999e-05   3.885537e+01   2.961752e+01   3.992808e+01  -2.846198e+06  -1.367784e+06  -2.816291e+06   2.435472e+12  -6.014373e+12   4.595065e+11   4.231214e+06   1.728250e-16   0.000000e+00   0.000000e+00
     2672000   2.671999e-05   3.863612e+01   2.948874e+01   3.970498e+01  -2.626876e+06  -1.852449e+06  -2.751575e+06   3.052105e+12  -6.075341e+12   1.176157e+12   4.231218e+06   1.944435e-16   0.000000e+00   0.000000e+00
     2680000   2.679999e-05   3.843643e+01   2.932115e+01   3.948947e+01  -2.356644e+06  -2.336069e+06  -2.625312e+06   3.701134e+12  -5.978173e+12   1.996956e+12   4.231223e+06   2.181995e-16   0.000000e+00   0.000000e+00
     2688000   2.687999e-05   3.826046e+01   2.911538e+01   3.928678e+01  -2.033867e+06  -2.804124e+06  -2.429726e+06   4.366265e+12  -5.686343e+12   2.907411e+12   4.231229e+06   2.444499e-16   0.000000e+00   0.000000e+00
     2696000   2.695999e-05   3.811241e+01   2.887337e+01   3.910273e+01  -1.658730e+06  -3.239200e+06  -2.158598e+06   5.012461e+12  -5.151870e+12   3.878883e+12   4.231235e+06   2.724709e-16   0.000000e+00   0.000000e+00
     2704000   2.703999e-05   3.799639e+01   2.859854e+01   3.894350e+01  -1.233825e+06  -3.620577e+06  -1.809005e+06   5.587368e+12  -4.330501e+12   4.855899e+12   4.231241e+06   3.004058e-16   0.000000e+00   0.000000e+00
     2712000   2.711999e-05   3.791611e+01   2.829614e+01   3.881533e+01  -7.670798e+05  -3.924489e+06  -1.383271e+06   6.048216e+12  -3.215243e+12   5.767428e+12   4.231249e+06   3.274879e-16   0.000000e+00   0.000000e+00
     2720000   2.719999e-05   3.787442e+01   2.797332e+01   3.872396e+01  -2.716949e+05  -4.127465e+06  -8.909239e+05   6.305437e+12  -1.819592e+12   6.505937e+12   4.231256e+06   3.487884e-16   0.000000e+00   0.000000e+00
     2728000   2.727999e-05   3.787298e+01   2.763896e+01   3.867411e+01   2.361032e+05  -4.210228e+06  -3.490445e+05   6.333037e+12  -2.244675e+11   6.988851e+12   4.231265e+06   3.635158e-16   0.000000e+00   0.000000e+00
     2736000   2.735999e-05   3.791192e+01   2.730320e+01   3.866880e+01   7.341738e+05  -4.161363e+06   2.184488e+05   6.086410e+12   1.448447e+12   7.140942e+12   4.231273e+06   3.681487e-16   0.000000e+00   0.000000e+00
     2744000   2.743999e-05   3.798970e+01   2.697669e+01   3.870901e+01   1.203821e+06  -3.979947e+06   7.839512e+05   5.608801e+12   3.063130e+12   6.939197e+12   4.231282e+06   3.634887e-16   0.000000e+00   0.000000e+00
     2752000   2.751999e-05   3.810329e+01   2.666968e+01   3.879344e+01   1.627125e+06  -3.676200e+06   1.319784e+06   4.953584e+12   4.492768e+12   6.407922e+12   4.231290e+06   3.503825e-16   0.000000e+00   0.000000e+00
     2760000   2.759999e-05   3.824848e+01   2.639126e+01   3.891875e+01   1.992008e+06  -3.269070e+06   1.802489e+06   4.154551e+12   5.632383e+12   5.624201e+12   4.231298e+06   3.292732e-16   0.000000e+00   0.000000e+00
     2768000   2.767999e-05   3.842023e+01   2.614871e+01   3.907997e+01   2.290286e+06  -2.783947e+06   2.215439e+06   3.306846e+12   6.445727e+12   4.681548e+12   4.231305e+06   3.038849e-16   0.000000e+00   0.000000e+00
     2776000   2.775999e-05   3.861312e+01   2.594722e+01   3.927112e+01   2.520899e+06  -2.246627e+06   2.549850e+06   2.463759e+12   6.934591e+12   3.674422e+12   4.231312e+06   2.763591e-16   0.000000e+00   0.000000e+00
     2784000   2.783999e-05   3.882182e+01   2.578998e+01   3.948580e+01   2.685947e+06  -1.681854e+06   2.803767e+06   1.670523e+12   7.137199e+12   2.681180e+12   4.231318e+06   2.488258e-16   0.000000e+00   0.000000e+00
     2792000   2.791999e-05   3.904128e+01   2.567832e+01   3.971766e+01   2.791017e+06  -1.109830e+06   2.980369e+06   9.660238e+11   7.124628e+12   1.748605e+12   4.231323e+06   2.236337e-16   0.000000e+00   0.000000e+00
     2800000   2.799999e-05   3.926696e+01   2.561217e+01   3.996076e+01   2.842930e+06  -5.465462e+05   3.085964e+06   3.474420e+11   6.938210e+12   9.088860e+11   4.231328e+06   2.004928e-16   0.000000e+00   0.000000e+00
     2808000   2.807999e-05   3.949492e+01   2.559034e+01   4.020974e+01   2.848830e+06  -3.220611e+03   3.128632e+06  -1.850854e+11   6.629583e+12   1.754979e+11   4.231333e+06   1.797881e-16   0.000000e+00   0.000000e+00
     2816000   2.815999e-05   3.972173e+01   2.561089e+01   4.045989e+01   2.815522e+06   5.117252e+05   3.116918e+06  -6.335078e+11   6.236476e+12  -4.515074e+11   4.231337e+06   1.613357e-16   0.000000e+00   0.000000e+00
     2824000   2.823999e-05   3.994453e+01   2.567132e+01   4.070721e+01   2.749530e+06   9.931464e+05   3.059082e+06  -1.005205e+12   5.796690e+12  -9.783212e+11   4.231340e+06   1.452848e-16   0.000000e+00   0.000000e+00
     2832000   2.831999e-05   4.016093e+01   2.576884e+01   4.094832e+01   2.656417e+06   1.438543e+06   2.962821e+06  -1.311748e+12   5.333478e+12  -1.413371e+12   4.231343e+06   1.313777e-16   0.000000e+00   0.000000e+00
     2840000   2.839999e-05   4.036897e+01   2.590049e+01   4.118042e+01   2.541125e+06   1.846636e+06   2.834944e+06  -1.562100e+12   4.870392e+12  -1.772189e+12   4.231346e+06   1.196846e-16   0.000000e+00   0.000000e+00
     2848000   2.847999e-05   4.056703e+01   2.606331e+01   4.140122e+01   2.407717e+06   2.217855e+06   2.681107e+06  -1.763348e+12   4.409307e+12  -2.063809e+12   4.231349e+06   1.095106e-16   0.000000e+00   0.000000e+00
     2856000   2.855999e-05   4.075382e+01   2.625437e+01   4.160884e+01   2.259681e+06   2.552648e+06   2.506425e+06  -1.933878e+12   3.964724e+12  -2.294244e+12   4.231351e+06   1.009810e-16   0.000000e+00   0.000000e+00
     2864000   2.863999e-05   4.092826e+01   2.647080e+01   4.180181e+01   2.099823e+06   2.852117e+06   2.315281e+06  -2.061730e+12   3.527848e+12  -2.475873e+12   4.231354e+06   9.323634e-17   0.000000e+00   0.000000e+00
     2872000   2.871999e-05   4.108955e+01   2.670980e+01   4.197895e+01   1.931014e+06   3.117348e+06   2.111325e+06  -2.157583e+12   3.109160e+12  -2.617219e+12   4.231356e+06   8.647848e-17   0.000000e+00   0.000000e+00
     2880000   2.879999e-05   4.123705e+01   2.696870e+01   4.213936e+01   1.755829e+06   3.349821e+06   1.897406e+06  -2.216969e+12   2.705722e+12  -2.725231e+12   4.231358e+06   8.031438e-17   0.000000e+00   0.000000e+00
     2888000   2.887999e-05   4.137036e+01   2.724494e+01   4.228233e+01   1.576305e+06   3.551170e+06   1.675964e+06  -2.271080e+12   2.333475e+12  -2.808217e+12   4.231359e+06   7.551997e-17   0.000000e+00   0.000000e+00
     2896000   2.895999e-05   4.148918e+01   2.753611e+01   4.240736e+01   1.393696e+06   3.723224e+06   1.449010e+06  -2.302460e+12   1.976368e+12  -2.863582e+12   4.231361e+06   7.110221e-17   0.000000e+00   0.000000e+00
     2904000   2.903999e-05   4.159330e+01   2.783992e+01   4.251408e+01   1.209426e+06   3.867469e+06   1.218361e+06  -2.302510e+12   1.633508e+12  -2.899518e+12   4.231363e+06   6.689395e-17   0.000000e+00   0.000000e+00
     2912000   2.911999e-05   4.168267e+01   2.815420e+01   4.260224e+01   1.024703e+06   3.985381e+06   9.854787e+05  -2.301517e+12   1.313594e+12  -2.919035e+12   4.231364e+06   6.348812e-17   0.000000e+00   0.000000e+00
     2920000   2.919999e-05   4.175729e+01   2.847691e+01   4.267173e+01   8.409662e+05   4.078253e+06   7.517210e+05  -2.292355e+12   1.011486e+12  -2.922833e+12   4.231366e+06   6.053759e-17   0.000000e+00   0.000000e+00
     2928000   2.927999e-05   4.181727e+01   2.880609e+01   4.272252e+01   6.587897e+05   4.147535e+06   5.180895e+05  -2.263269e+12   7.238325e+11  -2.916409e+12   4.231367e+06   5.780427e-17   0.000000e+00   0.000000e+00
     2936000   2.935999e-05   4.186276e+01   2.913992e+01   4.275465e+01   4.790067e+05   4.194467e+06   2.854432e+05  -2.226406e+12   4.515700e+11  -2.898988e+12   4.231368e+06   5.540732e-17   0.000000e+00   0.000000e+00
     2944000   2.943999e-05   4.189402e+01   2.947664e+01   4.276824e+01   3.030502e+05   4.220151e+06   5.452844e+04  -2.180719e+12   1.937515e+11  -2.873049e+12   4.231370e+06   5.329370e-17   0.000000e+00   0.000000e+00
     2952000   2.951999e-05   4.191134e+01   2.981461e+01   4.276344e+01   1.307911e+05   4.225766e+06  -1.740521e+05  -2.123848e+12  -5.121905e+10  -2.840218e+12   4.231371e+06   5.138508e-17   0.000000e+00   0.000000e+00
     2960000   2.959999e-05   4.191508e+01   3.015225e+01   4.274046e+01  -3.638422e+04   4.212291e+06  -3.997406e+05  -2.055919e+12  -2.835353e+11  -2.800945e+12   4.231372e+06   4.963810e-17   0.000000e+00   0.000000e+00
     2968000   2.967999e-05   4.190567e+01   3.048809e+01   4.269957e+01  -1.979950e+05   4.180710e+06  -6.220769e+05  -1.990806e+12  -5.042879e+11  -2.755656e+12   4.231373e+06   4.824425e-17   0.000000e+00   0.000000e+00
     2976000   2.975999e-05   4.188356e+01   3.082071e+01   4.264103e+01  -3.538645e+05   4.131916e+06  -8.405817e+05  -1.917413e+12  -7.148462e+11  -2.706810e+12   4.231374e+06   4.703134e-17   0.000000e+00   0.000000e+00
     2984000   2.983999e-05   4.184920e+01   3.114876e+01   4.256519e+01  -5.038684e+05   4.066681e+06  -1.054875e+06  -1.826500e+12  -9.139625e+11  -2.651110e+12   4.231375e+06   4.574680e-17   0.000000e+00   0.000000e+00
     2992000   2.991999e-05   4.180312e+01   3.147096e+01   4.247238e+01  -6.470259e+05   3.985821e+06  -1.264569e+06  -1.745847e+12  -1.105288e+12  -2.590591e+12   4.231376e+06   4.485226e-17   0.000000e+00   0.000000e+00
     3000000   2.999999e-05   4.174589e+01   3.178610e+01   4.236299e+01  -7.827502e+05   3.890127e+06  -1.469274e+06  -1.657669e+12  -1.287628e+12  -2.526147e+12   4.231377e+06   4.406170e-17   0.000000e+00   0.000000e+00
     3008000   3.007999e-05   4.167806e+01   3.209300e+01   4.223744e+01  -9.115431e+05   3.780134e+06  -1.668604e+06  -1.555855e+12  -1.459006e+12  -2.455415e+12   4.231378e+06   4.320880e-17   0.000000e+00   0.000000e+00
     3016000   3.015999e-05   4.160023e+01   3.239055e+01   4.209617e+01  -1.032811e+06   3.656536e+06  -1.862155e+06  -1.472155e+12  -1.629335e+12  -2.382921e+12   4.231379e+06   4.288951e-17   0.000000e+00   0.000000e+00
     3024000   3.023999e-05   4.151303e+01   3.267770e+01   4.193966e+01  -1.145711e+06   3.520174e+06  -2.049463e+06  -1.353676e+12  -1.780071e+12  -2.300769e+12   4.231380e+06   4.204950e-17   0.000000e+00   0.000000e+00
     3032000   3.031999e-05   4.141714e+01   3.295346e+01   4.176843e+01  -1.249863e+06   3.371755e+06  -2.230179e+06  -1.244436e+12  -1.926949e+12  -2.215933e+12   4.231381e+06   4.154909e-17   0.000000e+00   0.000000e+00
     3040000   3.039999e-05   4.131329e+01   3.321688e+01   4.158301e+01  -1.344998e+06   3.211927e+06  -2.403976e+06  -1.132458e+12  -2.067397e+12  -2.128671e+12   4.231382e+06   4.120483e-17   0.000000e+00   0.000000e+00
     3048000   3.047999e-05   4.120219e+01   3.346708e+01   4.138398e+01  -1.430945e+06   3.041246e+06  -2.570569e+06  -1.019297e+12  -2.200111e+12  -2.035588e+12   4.231383e+06   4.094034e-17   0.000000e+00   0.000000e+00
     3056000   3.055999e-05   4.108458e+01   3.370320e+01   4.117192e+01  -1.507707e+06   2.860128e+06  -2.729671e+06  -9.052807e+11  -2.329214e+12  -1.940546e+12   4.231384e+06   4.088898e-17   0.000000e+00   0.000000e+00
     3064000   3.063999e-05   4.096121e+01   3.392444e+01   4.094745e+01  -1.574843e+06   2.669350e+06  -2.880809e+06  -7.750703e+11  -2.439785e+12  -1.837028e+12   4.231385e+06   4.055187e-17   0.000000e+00   0.000000e+00
     3072000   3.071999e-05   4.083287e+01   3.413006e+01   4.071122e+01  -1.632017e+06   2.469821e+06  -3.023431e+06  -6.536919e+11  -2.546999e+12  -1.727804e+12   4.231386e+06   4.043698e-17   0.000000e+00   0.000000e+00
     3080000   3.079999e-05   4.070036e+01   3.431940e+01   4.046394e+01  -1.679017e+06   2.262280e+06  -3.157155e+06  -5.202392e+11  -2.639720e+12  -1.614870e+12   4.231387e+06   4.021951e-17   0.000000e+00   0.000000e+00
     3088000   3.087999e-05   4.056452e+01   3.449184e+01   4.020632e+01  -1.715212e+06   2.047696e+06  -3.281712e+06  -3.862787e+11  -2.723653e+12  -1.497621e+12   4.231388e+06   4.007164e-17   0.000000e+00   0.000000e+00
     3096000   3.095999e-05   4.042623e+01   3.464687e+01   3.993912e+01  -1.740279e+06   1.827097e+06  -3.396733e+06  -2.428654e+11  -2.790717e+12  -1.376721e+12   4.231389e+06   3.979423e-17   0.000000e+00   0.000000e+00
     3104000   3.103999e-05   4.028638e+01   3.478405e+01   3.966311e+01  -1.753878e+06   1.601818e+06  -3.501821e+06  -9.635520e+10  -2.839636e+12  -1.250687e+12   4.231390e+06   3.936364e-17   0.000000e+00   0.000000e+00
     3112000   3.111999e-05   4.014592e+01   3.490307e+01   3.937910e+01  -1.755897e+06   1.373027e+06  -3.596705e+06   4.894514e+10  -2.875110e+12  -1.121482e+12   4.231391e+06   3.891172e-17   0.000000e+00   0.000000e+00
     3120000   3.119999e-05   4.000575e+01   3.500369e+01   3.908791e+01  -1.746274e+06   1.142335e+06  -3.681069e+06   1.902886e+11  -2.892720e+12  -9.879860e+11   4.231391e+06   3.831452e-17   0.000000e+00   0.000000e+00
     3128000   3.127999e-05   3.986682e+01   3.508582e+01   3.879041e+01  -1.725235e+06   9.110083e+05  -3.754772e+06   3.353380e+11  -2.888897e+12  -8.550289e+11   4.231392e+06   3.753477e-17   0.000000e+00   0.000000e+00
     3136000   3.135999e-05   3.973003e+01   3.514948e+01   3.848743e+01  -1.692605e+06   6.808121e+05  -3.817889e+06   4.769892e+11  -2.864821e+12  -7.223490e+11   4.231393e+06   3.658414e-17   0.000000e+00   0.000000e+00
     3144000   3.143999e-05   3.959630e+01   3.519483e+01   3.817983e+01  -1.648765e+06   4.536204e+05  -3.870465e+06   6.135963e+11  -2.817631e+12  -5.916338e+11   4.231394e+06   3.539588e-17   0.000000e+00   0.000000e+00
     3152000   3.151999e-05   3.946652e+01   3.522220e+01   3.786843e+01  -1.593880e+06   2.315647e+05  -3.912880e+06   7.544610e+11  -2.733824e+12  -4.691328e+11   4.231395e+06   3.375185e-17   0.000000e+00   0.000000e+00
     3160000   3.159999e-05   3.934156e+01   3.523208e+01   3.755403e+01  -1.528508e+06   1.685711e+04  -3.945642e+06   8.784110e+11  -2.625929e+12  -3.515275e+11   4.231396e+06   3.182231e-17   0.000000e+00   0.000000e+00
     3168000   3.167999e-05   3.922221e+01   3.522516e+01   3.723737e+01  -1.453603e+06  -1.880751e+05  -3.969431e+06   9.927520e+11  -2.494780e+12  -2.453586e+11   4.231396e+06   2.969434e-17   0.000000e+00   0.000000e+00
     3176000   3.175999e-05   3.910921e+01   3.520230e+01   3.691913e+01  -1.370114e+06  -3.812404e+05  -3.985243e+06   1.091220e+12  -2.327231e+12  -1.525446e+11   4.231397e+06   2.708164e-17   0.000000e+00   0.000000e+00
     3184000   3.183999e-05   3.900318e+01   3.516455e+01   3.659991e+01  -1.279499e+06  -5.596143e+05  -3.994301e+06   1.170023e+12  -2.128763e+12  -7.656323e+10   4.231398e+06   2.412606e-17   0.000000e+00   0.000000e+00
     3192000   3.191999e-05   3.890464e+01   3.511321e+01   3.628018e+01  -1.183350e+06  -7.209624e+05  -3.998078e+06   1.227644e+12  -1.899339e+12  -2.086818e+10   4.231398e+06   2.089351e-17   0.000000e+00   0.000000e+00
     3200000   3.199999e-05   3.881394e+01   3.504973e+01   3.596031e+01  -1.083856e+06  -8.625977e+05  -3.998239e+06   1.254180e+12  -1.636546e+12   1.307770e+10   4.231399e+06   1.736598e-17   0.000000e+00   0.000000e+00
     3208000   3.207999e-05   3.873124e+01   3.497579e+01   3.564051e+01  -9.836401e+05  -9.819863e+05  -3.996610e+06   1.242777e+12  -1.341184e+12   2.365650e+10   4.231399e+06   1.365880e-17   0.000000e+00   0.000000e+00
     3216000   3.215999e-05   3.865649e+01   3.489326e+01   3.532085e+01  -8.858371e+05  -1.076814e+06  -3.995060e+06   1.196656e+12  -1.025913e+12   1.117644e+10   4.231399e+06   1.014918e-17   0.000000e+00   0.000000e+00
     3224000   3.223999e-05   3.858936e+01   3.480419e+01   3.500125e+01  -7.936532e+05  -1.145385e+06  -3.995366e+06   1.100498e+12  -6.836774e+11  -2.261536e+10   4.231399e+06   6.858607e-18   0.000000e+00   0.000000e+00
     3232000   3.231999e-05   3.852923e+01   3.471077e+01   3.468150e+01  -7.113500e+05  -1.185504e+06  -3.999163e+06   9.560447e+11  -3.228593e+11  -7.435101e+10   4.231399e+06   4.182100e-18   0.000000e+00   0.000000e+00
     3240000   3.239999e-05   3.847519e+01   3.461529e+01   3.436126e+01  -6.425071e+05  -1.196384e+06  -4.007567e+06   7.535885e+11   5.466069e+10  -1.371373e+11   4.231400e+06   2.408820e-18   0.000000e+00   0.000000e+00
     3248000   3.247999e-05   3.842594e+01   3.452016e+01   3.404015e+01  -5.921321e+05  -1.176679e+06  -4.021138e+06   4.951609e+11   4.394642e+11  -2.015135e+11   4.231400e+06   1.956177e-18   0.000000e+00   0.000000e+00
     3256000   3.255999e-05   3.837984e+01   3.442784e+01   3.371775e+01  -5.646359e+05  -1.126255e+06  -4.039490e+06   1.806270e+11   8.237472e+11  -2.549196e+11   4.231400e+06   3.170096e-18   0.000000e+00   0.000000e+00
     3264000   3.263999e-05   3.833486e+01   3.434078e+01   3.339374e+01  -5.647371e+05  -1.045034e+06  -4.061246e+06  -1.904055e+11   1.204362e+12  -2.834317e+11   4.231400e+06   6.400380e-18   0.000000e+00   0.000000e+00
     3272000   3.271999e-05   3.828863e+01   3.426144e+01   3.306793e+01  -5.965877e+05  -9.335618e+05  -4.083784e+06  -6.112052e+11   1.577197e+12  -2.712687e+11   4.231400e+06   1.198633e-17   0.000000e+00   0.000000e+00
     3280000   3.279999e-05   3.823847e+01   3.419219e+01   3.274042e+01  -6.635371e+05  -7.929203e+05  -4.103138e+06  -1.065791e+12   1.933364e+12  -2.012753e+11   4.231400e+06   2.007201e-17   0.000000e+00   0.000000e+00
     3288000   3.287999e-05   3.818147e+01   3.413532e+01   3.241165e+01  -7.677684e+05  -6.244648e+05  -4.114040e+06  -1.543354e+12   2.276110e+12  -5.748304e+10   4.231401e+06   3.090251e-17   0.000000e+00   0.000000e+00
     3296000   3.295999e-05   3.811461e+01   3.409298e+01   3.208257e+01  -9.102446e+05  -4.297463e+05  -4.109931e+06  -2.016494e+12   2.588037e+12   1.759629e+11   4.231402e+06   4.409244e-17   0.000000e+00   0.000000e+00
     3304000   3.303999e-05   3.803484e+01   3.406720e+01   3.175467e+01  -1.089788e+06  -2.108884e+05  -4.083217e+06  -2.466058e+12   2.878864e+12   5.094547e+11   4.231403e+06   5.975151e-17   0.000000e+00   0.000000e+00
     3312000   3.311999e-05   3.793933e+01   3.405983e+01   3.143008e+01  -1.303388e+06   3.000754e+04  -4.025551e+06  -2.863439e+12   3.139731e+12   9.504784e+11   4.231405e+06   7.744502e-17   0.000000e+00   0.000000e+00
     3320000   3.319999e-05   3.782553e+01   3.407252e+01   3.111164e+01  -1.545652e+06   2.904152e+05  -3.928285e+06  -3.178794e+12   3.368475e+12   1.499720e+12   4.231407e+06   9.680579e-17   0.000000e+00   0.000000e+00
     3328000   3.327999e-05   3.769147e+01   3.410674e+01   3.080284e+01  -1.808781e+06   5.675541e+05  -3.782990e+06  -3.379075e+12   3.556642e+12   2.149175e+12   4.231409e+06   1.171731e-16   0.000000e+00   0.000000e+00
     3336000   3.335999e-05   3.753585e+01   3.416368e+01   3.050784e+01  -2.082541e+06   8.579100e+05  -3.582159e+06  -3.442010e+12   3.696437e+12   2.886248e+12   4.231412e+06   1.382284e-16   0.000000e+00   0.000000e+00
     3344000   3.343999e-05   3.735829e+01   3.424424e+01   3.023134e+01  -2.355137e+06   1.157000e+06  -3.319572e+06  -3.344128e+12   3.770037e+12   3.686447e+12   4.231415e+06   1.592434e-16   0.000000e+00   0.000000e+00
     3352000   3.351999e-05   3.715943e+01   3.434888e+01   2.997845e+01  -2.610532e+06   1.455951e+06  -2.995036e+06  -2.295432e+12   2.766267e+12   3.345405e+12   4.231419e+06   9.860399e-17   0.000000e+00   0.000000e+00
     3360000   3.359999e-05   3.695376e+01   3.446090e+01   2.973429e+01  -2.413670e+06   1.189657e+06  -3.265558e+06   5.621578e+12  -7.606330e+12  -6.926516e+12   4.231425e+06   5.613720e-16   0.000000e+00   0.000000e+00
     3368000   3.367999e-05   3.677978e+01   3.452988e+01   2.945309e+01  -1.921751e+06   5.135573e+05  -3.734729e+06   6.674527e+12  -9.198999e+12  -4.699806e+12   4.231438e+06   6.178429e-16   0.000000e+00   0.000000e+00
     3376000   3.375999e-05   3.664851e+01   3.454036e+01   2.914211e+01  -1.346110e+06  -2.629792e+05  -4.003002e+06   7.711784e+12  -1.006568e+13  -1.932423e+12   4.231453e+06   6.720312e-16   0.000000e+00   0.000000e+00
     3384000   3.383999e-05   3.656657e+01   3.448696e+01   2.881893e+01  -6.894843e+05  -1.070487e+06  -4.035344e+06   8.684755e+12  -9.936948e+12   1.151727e+12   4.231470e+06   7.168499e-16   0.000000e+00   0.000000e+00
     3392000   3.391999e-05   3.654012e+01   3.437055e+01   2.850312e+01   3.906272e+04  -1.822730e+06  -3.818587e+06   9.485645e+12  -8.672211e+12   4.236070e+12   4.231487e+06   7.480436e-16   0.000000e+00   0.000000e+00
     3400000   3.399999e-05   3.657420e+01   3.419924e+01   2.821424e+01   8.187017e+05  -2.428501e+06  -3.367156e+06   9.922646e+12  -6.297278e+12   6.953872e+12   4.231504e+06   7.617034e-16   0.000000e+00   0.000000e+00
     3408000   3.407999e-05   3.667149e+01   3.398804e+01   2.796951e+01   1.611806e+06  -2.808400e+06  -2.724104e+06   9.782181e+12  -3.096396e+12   8.979478e+12   4.231522e+06   7.594197e-16   0.000000e+00   0.000000e+00
     3416000   3.415999e-05   3.683102e+01   3.375725e+01   2.778174e+01   2.364901e+06  -2.913755e+06  -1.955300e+06   8.912114e+12   4.683521e+11   1.008019e+13   4.231539e+06   7.404150e-16   0.000000e+00   0.000000e+00
     3424000   3.423999e-05   3.704720e+01   3.352935e+01   2.765796e+01   3.018046e+06  -2.739197e+06  -1.137658e+06   7.305094e+12   3.809002e+12   1.020674e+13   4.231556e+06   7.028219e-16   0.000000e+00   0.000000e+00
     3432000   3.431999e-05   3.730984e+01   3.332543e+01   2.759904e+01   3.519598e+06  -2.323717e+06  -3.449098e+05   5.171703e+12   6.423310e+12   9.494592e+12   4.231571e+06   6.460573e-16   0.000000e+00   0.000000e+00
     3440000   3.439999e-05   3.760550e+01   3.316212e+01   2.760056e+01   3.841192e+06  -1.737230e+06   3.655020e+05   2.874037e+12   8.075118e+12   8.180560e+12   4.231586e+06   5.734996e-16   0.000000e+00   0.000000e+00
     3448000   3.447999e-05   3.791964e+01   3.304993e+01   2.765429e+01   3.983977e+06  -1.058551e+06   9.559369e+05   7.541489e+11   8.751934e+12   6.549651e+12   4.231598e+06   4.904708e-16   0.000000e+00   0.000000e+00
     3456000   3.455999e-05   3.823883e+01   3.299332e+01   2.774991e+01   3.973131e+06  -3.577850e+05   1.411640e+06  -9.416339e+11   8.665320e+12   4.847237e+12   4.231608e+06   4.063502e-16   0.000000e+00   0.000000e+00
     3464000   3.463999e-05   3.855227e+01   3.299189e+01   2.787660e+01   3.847009e+06   3.139378e+05   1.734516e+06  -2.125167e+12   8.064528e+12   3.254268e+12   4.231617e+06   3.273993e-16   0.000000e+00   0.000000e+00
     3472000   3.471999e-05   3.885236e+01   3.304193e+01   2.802424e+01   3.646117e+06   9.252885e+05   1.938120e+06  -2.821673e+12   7.187742e+12   1.877100e+12   4.231623e+06   2.579762e-16   0.000000e+00   0.000000e+00
     3480000   3.479999e-05   3.913461e+01   3.313793e+01   2.818404e+01   3.405877e+06   1.461941e+06   2.041915e+06  -3.126647e+12   6.219740e+12   7.623106e+11   4.231629e+06   2.003481e-16   0.000000e+00   0.000000e+00
     3488000   3.487999e-05   3.939699e+01   3.327375e+01   2.834885e+01   3.153523e+06   1.920739e+06   2.067068e+06  -3.140947e+12   5.256112e+12  -9.201156e+10   4.231633e+06   1.531993e-16   0.000000e+00   0.000000e+00
     3496000   3.495999e-05   3.963936e+01   3.344327e+01   2.851321e+01   2.908036e+06   2.305328e+06   2.033601e+06  -2.971666e+12   4.373583e+12  -7.083723e+11   4.231636e+06   1.162694e-16   0.000000e+00   0.000000e+00
     3504000   3.503999e-05   3.986277e+01   3.364083e+01   2.867314e+01   2.680699e+06   2.623420e+06   1.959153e+06  -2.700603e+12   3.598566e+12  -1.123359e+12   4.231638e+06   8.785273e-17   0.000000e+00   0.000000e+00
     3512000   3.511999e-05   4.006892e+01   3.386148e+01   2.882597e+01   2.477379e+06   2.883863e+06   1.858146e+06  -2.375177e+12   2.928449e+12  -1.378186e+12   4.231640e+06   6.584073e-17   0.000000e+00   0.000000e+00
     3520000   3.519999e-05   4.025986e+01   3.410093e+01   2.897004e+01   2.300632e+06   3.095091e+06   1.741922e+06  -2.042545e+12   2.368112e+12  -1.509972e+12   4.231641e+06   4.926807e-17   0.000000e+00   0.000000e+00
     3528000   3.527999e-05   4.043773e+01   3.435559e+01   2.910450e+01   2.150340e+06   3.265221e+06   1.619002e+06  -1.723686e+12   1.903523e+12  -1.549611e+12   4.231642e+06   3.675014e-17   0.000000e+00   0.000000e+00
     3536000   3.535999e-05   4.060457e+01   3.462247e+01   2.922907e+01   2.024786e+06   3.401458e+06   1.495702e+06  -1.424196e+12   1.517924e+12  -1.523965e+12   4.231643e+06   2.718702e-17   0.000000e+00   0.000000e+00
     3544000   3.543999e-05   4.076229e+01   3.489909e+01   2.934392e+01   1.921684e+06   3.509905e+06   1.376410e+06  -1.158953e+12   1.204039e+12  -1.452235e+12   4.231644e+06   2.002548e-17   0.000000e+00   0.000000e+00
     3552000   3.551999e-05   4.091256e+01   3.518345e+01   2.944948e+01   1.838151e+06   3.595853e+06   1.264062e+06  -9.321975e+11   9.518418e+11  -1.352091e+12   4.231644e+06   1.471985e-17   0.000000e+00   0.000000e+00
     3560000   3.559999e-05   4.105685e+01   3.547393e+01   2.954640e+01   1.771692e+06   3.663486e+06   1.160513e+06  -7.355653e+11   7.465198e+11  -1.233630e+12   4.231644e+06   1.070422e-17   0.000000e+00   0.000000e+00
     3568000   3.567999e-05   4.119642e+01   3.576921e+01   2.963543e+01   1.719828e+06   3.716287e+06   1.066873e+06  -5.651428e+11   5.789871e+11  -1.105769e+12   4.231645e+06   7.669473e-18   0.000000e+00   0.000000e+00
     3576000   3.575999e-05   4.133236e+01   3.606822e+01   2.971738e+01   1.680274e+06   3.757141e+06   9.835587e+05  -4.289748e+11   4.476756e+11  -9.772385e+11   4.231645e+06   5.471953e-18   0.000000e+00   0.000000e+00
     3584000   3.583999e-05   4.146554e+01   3.637010e+01   2.979308e+01   1.650861e+06   3.788447e+06   9.105720e+05  -3.104440e+11   3.390417e+11  -8.477446e+11   4.231645e+06   3.799322e-18   0.000000e+00   0.000000e+00
     3592000   3.591999e-05   4.159680e+01   3.667407e+01   2.986362e+01   1.633106e+06   3.808128e+06   8.590378e+05  -1.326724e+11   1.524761e+11  -4.237045e+11   4.231645e+06   9.005090e-19   0.000000e+00   0.000000e+00
     3600000   3.599999e-05   4.172715e+01   3.697909e+01   2.993126e+01   1.626859e+06   3.816071e+06   8.353142e+05  -5.005171e+10   6.045950e+10  -1.787235e+11   4.231645e+06   1.557037e-19   0.000000e+00   0.000000e+00
     3608000   3.607999e-05   4.185716e+01   3.728451e+01   2.999771e+01   1.623589e+06   3.819110e+06   8.277539e+05  -3.500152e+10   1.981671e+10  -2.277742e+10   4.231645e+06   8.734230e-21   0.000000e+00   0.000000e+00
     3616000   3.615999e-05   4.198687e+01   3.759017e+01   3.006370e+01   1.618467e+06   3.822763e+06   8.208964e+05  -8.929187e+10   6.417000e+10  -1.227810e+11   4.231645e+06   1.109602e-19   0.000000e+00   0.000000e+00
     3624000   3.623999e-05   4.211601e+01   3.789623e+01   3.012890e+01   1.609455e+06   3.829247e+06   8.082948e+05  -1.353618e+11   9.738718e+10  -1.918363e+11   4.231645e+06   2.639091e-19   0.000000e+00   0.000000e+00
     3632000   3.631999e-05   4.224429e+01   3.820291e+01   3.019288e+01   1.596917e+06   3.838219e+06   7.904082e+05  -1.768949e+11   1.260239e+11  -2.545769e+11   4.231645e+06   4.574392e-19   0.000000e+00   0.000000e+00
     3640000   3.639999e-05   4.237144e+01   3.851040e+01   3.025524e+01   1.581052e+06   3.849399e+06   7.676092e+05  -2.185487e+11   1.525969e+11  -3.150923e+11   4.231645e+06   6.957945e-19   0.000000e+00   0.000000e+00
     3648000   3.647999e-05   4.249718e+01   3.881887e+01   3.031557e+01   1.562089e+06   3.862508e+06   7.400877e+05  -2.562026e+11   1.749365e+11  -3.722260e+11   4.231645e+06   9.591260e-19   0.000000e+00   0.000000e+00
     3656000   3.655999e-05   4.262130e+01   3.912845e+01   3.037353e+01   1.540525e+06   3.877130e+06   7.081417e+05  -2.858506e+11   1.914412e+11  -4.262977e+11   4.231645e+06   1.225866e-18   0.000000e+00   0.000000e+00
     3664000   3.663999e-05   4.274360e+01   3.943924e+01   3.042876e+01   1.516531e+06   3.892999e+06   6.719482e+05  -3.155169e+11   2.053419e+11  -4.775681e+11   4.231645e+06   1.510585e-18   0.000000e+00   0.000000e+00
     3672000   3.671999e-05   4.286388e+01   3.975135e+01   3.048094e+01   1.490149e+06   3.909884e+06   6.317312e+05  -3.435233e+11   2.159578e+11  -5.262755e+11   4.231645e+06   1.803997e-18   0.000000e+00   0.000000e+00
     3680000   3.679999e-05   4.298197e+01   4.006484e+01   3.052974e+01   1.461787e+06   3.927425e+06   5.876503e+05  -3.654762e+11   2.221646e+11  -5.756507e+11   4.231645e+06   2.100951e-18   0.000000e+00   0.000000e+00
     3688000   3.687999e-05   4.309773e+01   4.037975e+01   3.057486e+01   1.431992e+06   3.945241e+06   5.397152e+05  -3.779881e+11   2.223880e+11  -6.227220e+11   4.231645e+06   2.369798e-18   0.000000e+00   0.000000e+00
     3696000   3.695999e-05   4.321106e+01   4.069608e+01   3.061600e+01   1.400937e+06   3.963071e+06   4.881230e+05  -3.969294e+11   2.225414e+11  -6.675927e+11   4.231645e+06   2.666551e-18   0.000000e+00   0.000000e+00
     3704000   3.703999e-05   4.332185e+01   4.101383e+01   3.065286e+01   1.368730e+06   3.980703e+06   4.329047e+05  -4.051164e+11   2.167329e+11  -7.120433e+11   4.231645e+06   2.933483e-18   0.000000e+00   0.000000e+00
     3712000   3.711999e-05   4.343004e+01   4.133298e+01   3.068517e+01   1.335982e+06   3.997742e+06   3.742078e+05  -4.121538e+11   2.084856e+11  -7.558198e+11   4.231645e+06   3.205153e-18   0.000000e+00   0.000000e+00
     3720000   3.719999e-05   4.353560e+01   4.165345e+01   3.071264e+01   1.302817e+06   4.013993e+06   3.120091e+05  -4.164427e+11   1.972667e+11  -7.989196e+11   4.231645e+06   3.474809e-18   0.000000e+00   0.000000e+00
     3728000   3.727999e-05   4.363849e+01   4.197519e+01   3.073500e+01   1.269484e+06   4.029208e+06   2.464112e+05  -4.153037e+11   1.822920e+11  -8.411217e+11   4.231645e+06   3.730467e-18   0.000000e+00   0.000000e+00
     3736000   3.735999e-05   4.373872e+01   4.229809e+01   3.075198e+01   1.236263e+06   4.043142e+06   1.774411e+05  -4.136721e+11   1.652492e+11  -8.831601e+11   4.231646e+06   3.996856e-18   0.000000e+00   0.000000e+00
     3744000   3.743999e-05   4.383631e+01   4.262205e+01   3.076330e+01   1.203716e+06   4.055470e+06   1.051366e+05  -4.023944e+11   1.434163e+11  -9.249073e+11   4.231646e+06   4.240085e-18   0.000000e+00   0.000000e+00
     3752000   3.751999e-05   4.393133e+01   4.294692e+01   3.076871e+01   1.171949e+06   4.066017e+06   2.947159e+04  -3.897238e+11   1.193390e+11  -9.665905e+11   4.231646e+06   4.495331e-18   0.000000e+00   0.000000e+00
     3760000   3.759999e-05   4.402386e+01   4.327255e+01   3.076793e+01   1.141572e+06   4.074454e+06  -4.961061e+04  -3.711137e+11   9.168750e+10  -1.009626e+12   4.231646e+06   4.761074e-18   0.000000e+00   0.000000e+00
     3768000   3.767999e-05   4.411402e+01   4.359877e+01   3.076068e+01   1.112680e+06   4.080602e+06  -1.321197e+05  -3.507881e+11   6.151980e+10  -1.054268e+12   4.231646e+06   5.058629e-18   0.000000e+00   0.000000e+00
     3776000   3.775999e-05   4.420195e+01   4.392538e+01   3.074669e+01   1.085952e+06   4.084108e+06  -2.181699e+05  -3.196086e+11   2.632522e+10  -1.098124e+12   4.231646e+06   5.346227e-18   0.000000e+00   0.000000e+00
     3784000   3.783999e-05   4.428784e+01   4.425215e+01   3.072568e+01   1.061867e+06   4.084671e+06  -3.077837e+05  -2.843369e+11  -1.218118e+10  -1.142679e+12   4.231646e+06   5.664826e-18   0.000000e+00   0.000000e+00
     3792000   3.791999e-05   4.437193e+01   4.457884e+01   3.069735e+01   1.040853e+06   4.081989e+06  -4.010283e+05  -2.396648e+11  -5.576654e+10  -1.189714e+12   4.231646e+06   6.029457e-18   0.000000e+00   0.000000e+00
     3800000   3.799999e-05   4.445447e+01   4.490517e+01   3.066141e+01   1.023451e+06   4.075703e+06  -4.980234e+05  -1.916928e+11  -1.028693e+11  -1.235823e+12   4.231646e+06   6.432309e-18   0.000000e+00   0.000000e+00
     3808000   3.807999e-05   4.453580e+01   4.523084e+01   3.061756e+01   1.010469e+06   4.065355e+06  -5.988958e+05  -1.318917e+11  -1.566637e+11  -1.286005e+12   4.231647e+06   6.927259e-18   0.000000e+00   0.000000e+00
     3816000   3.815999e-05   4.461629e+01   4.555551e+01   3.056548e+01   1.002824e+06   4.050396e+06  -7.038984e+05  -5.828139e+10  -2.182376e+11  -1.338848e+12   4.231647e+06   7.530985e-18   0.000000e+00   0.000000e+00
     3824000   3.823999e-05   4.469641e+01   4.587877e+01   3.050482e+01   1.001472e+06   4.030199e+06  -8.132571e+05   2.827720e+10  -2.888158e+11  -1.396467e+12   4.231647e+06   8.310384e-18   0.000000e+00   0.000000e+00
     3832000   3.831999e-05   4.477673e+01   4.620018e+01   3.043524e+01   1.007801e+06   4.003927e+06  -9.272249e+05   1.298755e+11  -3.696227e+11  -1.454962e+12   4.231647e+06   9.274712e-18   0.000000e+00   0.000000e+00
     3840000   3.839999e-05   4.485790e+01   4.651921e+01   3.035633e+01   1.023463e+06   3.970506e+06  -1.046158e+06   2.634124e+11  -4.682436e+11  -1.519463e+12   4.231647e+06   1.061050e-17   0.000000e+00   0.000000e+00
     3848000   3.847999e-05   4.494079e+01   4.683523e+01   3.026771e+01   1.051032e+06   3.928407e+06  -1.170380e+06   4.324350e+11  -5.882746e+11  -1.586245e+12   4.231648e+06   1.245623e-17   0.000000e+00   0.000000e+00
     3856000   3.855999e-05   4.502648e+01   4.714747e+01   3.016893e+01   1.094164e+06   3.875511e+06  -1.300024e+06   6.571147e+11  -7.404828e+11  -1.654428e+12   4.231648e+06   1.518497e-17   0.000000e+00   0.000000e+00
     3864000   3.863999e-05   4.511641e+01   4.745494e+01   3.005956e+01   1.157965e+06   3.808789e+06  -1.434954e+06   9.566851e+11  -9.378242e+11  -1.717278e+12   4.231648e+06   1.937833e-17   0.000000e+00   0.000000e+00
     3872000   3.871999e-05   4.521229e+01   4.775657e+01   2.993950e+01   1.233359e+06   3.738085e+06  -1.553189e+06   5.062808e+11  -4.669493e+11  -7.217926e+11   4.231649e+06   4.069091e-18   0.000000e+00   0.000000e+00
     3880000   3.879999e-05   4.531072e+01   4.805573e+01   2.981533e+01   1.200461e+06   3.762698e+06  -1.519160e+06  -1.478603e+12   1.148948e+12   1.677293e+12   4.231649e+06   2.580618e-17   0.000000e+00   0.000000e+00
     3888000   3.887999e-05   4.540090e+01   4.836114e+01   2.970062e+01   1.046340e+06   3.875412e+06  -1.339109e+06  -2.200596e+12   1.494187e+12   2.604626e+12   4.231650e+06   5.661337e-17   0.000000e+00   0.000000e+00
     3896000   3.895999e-05   4.547682e+01   4.867608e+01   2.960270e+01   8.417268e+05   3.999534e+06  -1.096404e+06  -2.972549e+12   1.595932e+12   3.539454e+12   4.231652e+06   9.767145e-17   0.000000e+00   0.000000e+00
     3904000   3.903999e-05   4.553340e+01   4.900113e+01   2.952763e+01   5.547573e+05   4.125520e+06  -7.610727e+05  -4.319941e+12   1.499107e+12   4.976685e+12   4.231655e+06   1.865768e-16   0.000000e+00   0.000000e+00
     3912000   3.911999e-05   4.556146e+01   4.933541e+01   2.948468e+01   1.105766e+05   4.220503e+06  -2.865033e+05  -7.103892e+12   6.595646e+11   6.970863e+12   4.231661e+06   4.064093e-16   0.000000e+00   0.000000e+00
     3920000   3.919999e-05   4.554253e+01   4.967264e+01   2.948590e+01  -6.610320e+05   4.166595e+06   3.310687e+05  -1.268448e+13  -2.627766e+12   7.751475e+12   4.231676e+06   9.308946e-16   0.000000e+00   0.000000e+00
     3928000   3.927999e-05   4.545275e+01   4.999555e+01   2.952938e+01  -1.314667e+06   3.974220e+06   6.200168e+05   0.000000e+00   0.000000e+00   0.000000e+00   4.231689e+06   0.000000e+00   0.000000e+00   0.000000e+00
