     timestep     time              x             y              z              vx             vy             vz             ax             ay             az         v_magnitude      ELoss        Electronic      Nuclear
           0   0.000000e+00   1.000000e-01   2.052923e+00   6.549567e+00   5.584226e+03  -1.319071e+05  -6.561289e+04   0.000000e+00   0.000000e+00   0.000000e+00   1.474304e+05   0.000000e+00   0.000000e+00   0.000000e+00
        8000   7.999000e-08   1.004669e-01   2.042371e+00   6.544319e+00   6.088451e+03  -1.318924e+05  -6.559746e+04   6.286449e+09   1.943853e+08   1.926354e+08   1.474304e+05   3.066481e-27   0.000000e+00   0.000000e+00
       16000   1.599900e-07   1.009741e-01   2.031820e+00   6.539071e+00   6.590058e+03  -1.318760e+05  -6.558207e+04   6.253736e+09   2.169321e+08   1.921860e+08   1.474304e+05   3.035415e-27   0.000000e+00   0.000000e+00
       24000   2.399900e-07   1.015213e-01   2.021271e+00   6.533825e+00   7.089050e+03  -1.318577e+05  -6.556671e+04   6.221071e+09   2.391077e+08   1.917573e+08   1.474304e+05   3.004627e-27   0.000000e+00   0.000000e+00
       32000   3.199900e-07   1.021083e-01   2.010723e+00   6.528581e+00   7.585431e+03  -1.318377e+05  -6.555139e+04   6.188456e+09   2.609152e+08   1.913499e+08   1.474304e+05   2.974113e-27   0.000000e+00   0.000000e+00
       40000   3.999900e-07   1.027349e-01   2.000177e+00   6.523337e+00   8.079204e+03  -1.318160e+05  -6.553610e+04   6.155893e+09   2.823580e+08   1.909639e+08   1.474304e+05   2.943872e-27   0.000000e+00   0.000000e+00
       48000   4.799900e-07   1.034009e-01   1.989633e+00   6.518095e+00   8.570395e+03  -1.317926e+05  -6.552081e+04   6.123239e+09   3.033763e+08   1.907097e+08   1.474304e+05   2.913765e-27   0.000000e+00   0.000000e+00
       56000   5.599900e-07   1.041061e-01   1.979090e+00   6.512854e+00   9.058923e+03  -1.317675e+05  -6.550558e+04   6.089967e+09   3.242888e+08   1.898686e+08   1.474304e+05   2.883285e-27   0.000000e+00   0.000000e+00
       64000   6.399900e-07   1.048502e-01   1.968550e+00   6.507614e+00   9.544791e+03  -1.317407e+05  -6.549043e+04   6.056756e+09   3.448393e+08   1.890463e+08   1.474304e+05   2.853084e-27   0.000000e+00   0.000000e+00
       72000   7.199900e-07   1.056332e-01   1.958012e+00   6.502375e+00   1.002800e+04  -1.317123e+05  -6.547534e+04   6.023608e+09   3.650314e+08   1.882430e+08   1.474304e+05   2.823157e-27   0.000000e+00   0.000000e+00
       80000   7.999900e-07   1.064546e-01   1.947476e+00   6.497138e+00   1.050828e+04  -1.316823e+05  -6.546043e+04   5.984416e+09   3.854875e+08   1.852062e+08   1.474304e+05   2.787810e-27   0.000000e+00   0.000000e+00
       88000   8.799900e-07   1.073144e-01   1.936943e+00   6.491902e+00   1.098579e+04  -1.316507e+05  -6.544558e+04   5.953435e+09   4.043063e+08   1.860421e+08   1.474304e+05   2.760341e-27   0.000000e+00   0.000000e+00
       96000   9.599900e-07   1.082123e-01   1.926412e+00   6.486667e+00   1.146083e+04  -1.316176e+05  -6.543066e+04   5.922521e+09   4.227948e+08   1.869064e+08   1.474304e+05   2.733117e-27   0.000000e+00   0.000000e+00
      104000   1.039990e-06   1.091481e-01   1.915884e+00   6.481433e+00   1.193340e+04  -1.315830e+05  -6.541567e+04   5.891676e+09   4.409560e+08   1.877993e+08   1.474304e+05   2.706135e-27   0.000000e+00   0.000000e+00
      112000   1.119990e-06   1.101216e-01   1.905359e+00   6.476200e+00   1.240350e+04  -1.315471e+05  -6.540061e+04   5.860901e+09   4.587931e+08   1.887209e+08   1.474304e+05   2.679394e-27   0.000000e+00   0.000000e+00
      120000   1.199990e-06   1.111326e-01   1.894836e+00   6.470969e+00   1.287108e+04  -1.315098e+05  -6.538528e+04   5.828645e+09   4.737949e+08   1.944167e+08   1.474304e+05   2.651444e-27   0.000000e+00   0.000000e+00
      128000   1.279990e-06   1.121809e-01   1.884317e+00   6.465739e+00   1.333614e+04  -1.314711e+05  -6.536973e+04   5.797756e+09   4.915070e+08   1.942850e+08   1.474304e+05   2.624951e-27   0.000000e+00   0.000000e+00
      136000   1.359990e-06   1.132663e-01   1.873801e+00   6.460510e+00   1.379873e+04  -1.314311e+05  -6.535419e+04   5.766942e+09   5.089038e+08   1.941776e+08   1.474304e+05   2.598696e-27   0.000000e+00   0.000000e+00
      144000   1.439990e-06   1.143886e-01   1.863288e+00   6.455282e+00   1.425885e+04  -1.313897e+05  -6.533866e+04   5.736203e+09   5.259883e+08   1.940945e+08   1.474304e+05   2.572679e-27   0.000000e+00   0.000000e+00
      152000   1.519990e-06   1.155476e-01   1.852779e+00   6.450055e+00   1.471652e+04  -1.313470e+05  -6.532314e+04   5.705542e+09   5.427636e+08   1.940362e+08   1.474304e+05   2.546896e-27   0.000000e+00   0.000000e+00
      160000   1.599990e-06   1.167432e-01   1.842273e+00   6.444830e+00   1.517174e+04  -1.313029e+05  -6.530761e+04   5.674961e+09   5.592326e+08   1.940027e+08   1.474304e+05   2.521346e-27   0.000000e+00   0.000000e+00
      168000   1.679990e-06   1.179750e-01   1.831770e+00   6.439606e+00   1.562452e+04  -1.312575e+05  -6.529209e+04   5.644460e+09   5.753983e+08   1.939943e+08   1.474304e+05   2.496027e-27   0.000000e+00   0.000000e+00
      176000   1.759990e-06   1.192430e-01   1.821271e+00   6.434383e+00   1.607486e+04  -1.312108e+05  -6.527657e+04   5.614041e+09   5.912636e+08   1.940112e+08   1.474304e+05   2.470938e-27   0.000000e+00   0.000000e+00
      184000   1.839990e-06   1.205470e-01   1.810776e+00   6.429162e+00   1.652277e+04  -1.311629e+05  -6.526105e+04   5.583706e+09   6.068316e+08   1.940536e+08   1.474304e+05   2.446076e-27   0.000000e+00   0.000000e+00
      192000   1.919990e-06   1.218866e-01   1.800285e+00   6.423942e+00   1.696825e+04  -1.311137e+05  -6.524552e+04   5.553455e+09   6.221052e+08   1.941217e+08   1.474304e+05   2.421439e-27   0.000000e+00   0.000000e+00
      200000   1.999990e-06   1.232618e-01   1.789798e+00   6.418723e+00   1.741106e+04  -1.310633e+05  -6.523030e+04   5.520322e+09   6.384915e+08   1.905798e+08   1.474304e+05   2.394517e-27   0.000000e+00   0.000000e+00
      208000   2.079990e-06   1.246723e-01   1.779315e+00   6.413505e+00   1.785151e+04  -1.310116e+05  -6.521502e+04   5.490988e+09   6.529585e+08   1.913209e+08   1.474304e+05   2.370970e-27   0.000000e+00   0.000000e+00
      216000   2.159990e-06   1.261180e-01   1.768836e+00   6.408288e+00   1.828962e+04  -1.309588e+05  -6.519969e+04   5.461739e+09   6.671472e+08   1.920875e+08   1.474304e+05   2.347632e-27   0.000000e+00   0.000000e+00
      224000   2.239990e-06   1.275986e-01   1.758362e+00   6.403073e+00   1.872539e+04  -1.309049e+05  -6.518429e+04   5.432577e+09   6.810604e+08   1.928796e+08   1.474304e+05   2.324504e-27   0.000000e+00   0.000000e+00
      232000   2.319990e-06   1.291140e-01   1.747892e+00   6.397859e+00   1.915893e+04  -1.308500e+05  -6.516836e+04   5.406368e+09   6.882547e+08   2.074900e+08   1.474304e+05   2.303719e-27   0.000000e+00   0.000000e+00
      240000   2.399990e-06   1.306640e-01   1.737426e+00   6.392646e+00   1.959026e+04  -1.307944e+05  -6.515179e+04   5.376781e+09   7.022604e+08   2.069091e+08   1.474304e+05   2.280500e-27   0.000000e+00   0.000000e+00
      248000   2.479990e-06   1.322484e-01   1.726965e+00   6.387434e+00   2.001922e+04  -1.307377e+05  -6.513526e+04   5.347286e+09   7.159935e+08   2.063532e+08   1.474304e+05   2.257493e-27   0.000000e+00   0.000000e+00
      256000   2.559990e-06   1.338670e-01   1.716508e+00   6.382224e+00   2.044583e+04  -1.306799e+05  -6.511877e+04   5.317883e+09   7.294568e+08   2.058225e+08   1.474304e+05   2.234697e-27   0.000000e+00   0.000000e+00
      264000   2.639990e-06   1.355196e-01   1.706056e+00   6.377015e+00   2.087008e+04  -1.306210e+05  -6.510232e+04   5.288574e+09   7.426529e+08   2.053174e+08   1.474304e+05   2.212109e-27   0.000000e+00   0.000000e+00
      272000   2.719990e-06   1.372061e-01   1.695609e+00   6.371808e+00   2.129156e+04  -1.305607e+05  -6.508675e+04   5.246345e+09   7.655316e+08   1.805931e+08   1.474304e+05   2.179588e-27   0.000000e+00   0.000000e+00
      280000   2.799990e-06   1.389262e-01   1.685166e+00   6.366602e+00   2.171013e+04  -1.304990e+05  -6.507222e+04   5.217964e+09   7.769707e+08   1.826967e+08   1.474304e+05   2.158013e-27   0.000000e+00   0.000000e+00
      288000   2.879990e-06   1.406797e-01   1.674729e+00   6.361396e+00   2.212643e+04  -1.304364e+05  -6.505752e+04   5.189677e+09   7.881583e+08   1.848247e+08   1.474304e+05   2.136629e-27   0.000000e+00   0.000000e+00
      296000   2.959990e-06   1.424664e-01   1.664296e+00   6.356192e+00   2.254048e+04  -1.303729e+05  -6.504265e+04   5.161485e+09   7.990971e+08   1.869768e+08   1.474304e+05   2.115435e-27   0.000000e+00   0.000000e+00
      304000   3.039990e-06   1.442861e-01   1.653869e+00   6.350990e+00   2.295227e+04  -1.303086e+05  -6.502760e+04   5.133390e+09   8.097897e+08   1.891531e+08   1.474304e+05   2.094430e-27   0.000000e+00   0.000000e+00
      312000   3.119990e-06   1.461387e-01   1.643447e+00   6.345788e+00   2.336182e+04  -1.302434e+05  -6.501238e+04   5.105391e+09   8.202386e+08   1.913535e+08   1.474304e+05   2.073612e-27   0.000000e+00   0.000000e+00
      320000   3.199990e-06   1.480239e-01   1.633030e+00   6.340588e+00   2.376914e+04  -1.301773e+05  -6.499698e+04   5.077490e+09   8.304466e+08   1.935780e+08   1.474304e+05   2.052979e-27   0.000000e+00   0.000000e+00
      328000   3.279990e-06   1.499417e-01   1.622619e+00   6.335388e+00   2.417423e+04  -1.301105e+05  -6.498141e+04   5.049687e+09   8.404160e+08   1.958264e+08   1.474304e+05   2.032531e-27   0.000000e+00   0.000000e+00
      336000   3.359990e-06   1.518918e-01   1.612213e+00   6.330191e+00   2.457709e+04  -1.300429e+05  -6.496565e+04   5.021984e+09   8.501495e+08   1.980988e+08   1.474304e+05   2.012265e-27   0.000000e+00   0.000000e+00
      344000   3.439990e-06   1.538740e-01   1.601812e+00   6.324994e+00   2.497774e+04  -1.299745e+05  -6.494971e+04   4.994380e+09   8.596495e+08   2.003950e+08   1.474304e+05   1.992180e-27   0.000000e+00   0.000000e+00
      352000   3.519990e-06   1.558881e-01   1.591417e+00   6.319799e+00   2.537645e+04  -1.299059e+05  -6.493232e+04   4.970546e+09   8.606801e+08   2.206470e+08   1.474304e+05   1.974584e-27   0.000000e+00   0.000000e+00
      360000   3.599990e-06   1.579341e-01   1.581027e+00   6.314605e+00   2.577298e+04  -1.298366e+05  -6.491470e+04   4.942624e+09   8.712542e+08   2.197527e+08   1.474304e+05   1.954535e-27   0.000000e+00   0.000000e+00
      368000   3.679990e-06   1.600118e-01   1.570643e+00   6.309412e+00   2.616727e+04  -1.297665e+05  -6.489715e+04   4.914803e+09   8.815986e+08   2.188810e+08   1.474304e+05   1.934670e-27   0.000000e+00   0.000000e+00
      376000   3.759990e-06   1.621208e-01   1.560264e+00   6.304221e+00   2.655935e+04  -1.296956e+05  -6.487968e+04   4.887081e+09   8.917157e+08   2.180322e+08   1.474304e+05   1.914987e-27   0.000000e+00   0.000000e+00
      384000   3.839990e-06   1.642612e-01   1.549892e+00   6.299032e+00   2.694918e+04  -1.296236e+05  -6.486269e+04   4.857810e+09   9.152463e+08   1.892645e+08   1.474304e+05   1.895280e-27   0.000000e+00   0.000000e+00
      392000   3.919990e-06   1.664326e-01   1.539525e+00   6.293843e+00   2.733672e+04  -1.295501e+05  -6.484748e+04   4.830694e+09   9.237716e+08   1.909157e+08   1.474304e+05   1.876196e-27   0.000000e+00   0.000000e+00
      400000   3.999990e-06   1.686350e-01   1.529164e+00   6.288656e+00   2.772210e+04  -1.294758e+05  -6.483214e+04   4.803683e+09   9.320809e+08   1.925890e+08   1.474304e+05   1.857286e-27   0.000000e+00   0.000000e+00
      408000   4.079990e-06   1.708681e-01   1.518808e+00   6.283470e+00   2.810531e+04  -1.294010e+05  -6.481667e+04   4.776779e+09   9.401766e+08   1.942846e+08   1.474304e+05   1.838548e-27   0.000000e+00   0.000000e+00
      416000   4.159990e-06   1.731318e-01   1.508459e+00   6.278285e+00   2.848638e+04  -1.293254e+05  -6.480106e+04   4.749981e+09   9.480610e+08   1.960022e+08   1.474304e+05   1.819981e-27   0.000000e+00   0.000000e+00
      424000   4.239990e-06   1.754259e-01   1.498116e+00   6.273102e+00   2.886505e+04  -1.292495e+05  -6.478496e+04   4.705043e+09   9.397984e+08   2.213874e+08   1.474304e+05   1.786687e-27   0.000000e+00   0.000000e+00
      432000   4.319990e-06   1.777501e-01   1.487780e+00   6.267920e+00   2.924043e+04  -1.291740e+05  -6.476728e+04   4.679686e+09   9.487246e+08   2.205638e+08   1.474304e+05   1.769535e-27   0.000000e+00   0.000000e+00
      440000   4.399990e-06   1.801043e-01   1.477449e+00   6.262739e+00   2.961380e+04  -1.290977e+05  -6.474967e+04   4.654425e+09   9.574588e+08   2.197577e+08   1.474304e+05   1.752535e-27   0.000000e+00   0.000000e+00
      448000   4.479990e-06   1.824883e-01   1.467124e+00   6.257560e+00   2.998515e+04  -1.290208e+05  -6.473212e+04   4.629260e+09   9.660030e+08   2.189693e+08   1.474304e+05   1.735687e-27   0.000000e+00   0.000000e+00
      456000   4.559990e-06   1.849019e-01   1.456805e+00   6.252382e+00   3.035448e+04  -1.289432e+05  -6.471463e+04   4.604191e+09   9.743592e+08   2.181987e+08   1.474304e+05   1.718990e-27   0.000000e+00   0.000000e+00
      464000   4.639990e-06   1.873449e-01   1.446493e+00   6.247205e+00   3.072182e+04  -1.288649e+05  -6.469721e+04   4.579218e+09   9.825295e+08   2.174461e+08   1.474304e+05   1.702442e-27   0.000000e+00   0.000000e+00
      472000   4.719990e-06   1.898173e-01   1.436187e+00   6.242030e+00   3.108716e+04  -1.287860e+05  -6.467984e+04   4.554343e+09   9.905158e+08   2.167114e+08   1.474304e+05   1.686042e-27   0.000000e+00   0.000000e+00
      480000   4.799990e-06   1.923188e-01   1.425887e+00   6.236857e+00   3.145052e+04  -1.287064e+05  -6.466253e+04   4.529566e+09   9.983202e+08   2.159947e+08   1.474304e+05   1.669788e-27   0.000000e+00   0.000000e+00
      488000   4.879990e-06   1.948493e-01   1.415594e+00   6.231684e+00   3.181189e+04  -1.286262e+05  -6.464528e+04   4.504886e+09   1.005945e+09   2.152963e+08   1.474304e+05   1.653680e-27   0.000000e+00   0.000000e+00
      496000   4.959990e-06   1.974087e-01   1.405307e+00   6.226513e+00   3.217130e+04  -1.285455e+05  -6.462808e+04   4.480305e+09   1.013391e+09   2.146161e+08   1.474304e+05   1.637716e-27   0.000000e+00   0.000000e+00
      504000   5.039990e-06   1.999967e-01   1.395027e+00   6.221344e+00   3.252900e+04  -1.284635e+05  -6.461200e+04   4.462363e+09   1.035849e+09   1.870745e+08   1.474304e+05   1.627998e-27   0.000000e+00   0.000000e+00
      512000   5.119990e-06   2.026133e-01   1.384753e+00   6.216176e+00   3.288455e+04  -1.283815e+05  -6.459493e+04   4.431916e+09   1.028241e+09   2.126202e+08   1.474304e+05   1.606599e-27   0.000000e+00   0.000000e+00
      520000   5.199990e-06   2.052582e-01   1.374486e+00   6.211009e+00   3.323811e+04  -1.282990e+05  -6.457799e+04   4.407243e+09   1.035573e+09   2.109887e+08   1.474304e+05   1.590827e-27   0.000000e+00   0.000000e+00
      528000   5.279990e-06   2.079313e-01   1.364225e+00   6.205843e+00   3.358971e+04  -1.282158e+05  -6.456117e+04   4.382668e+09   1.042736e+09   2.093681e+08   1.474304e+05   1.575197e-27   0.000000e+00   0.000000e+00
      536000   5.359990e-06   2.106325e-01   1.353971e+00   6.200679e+00   3.393934e+04  -1.281321e+05  -6.454449e+04   4.358192e+09   1.049731e+09   2.077587e+08   1.474304e+05   1.559710e-27   0.000000e+00   0.000000e+00
      544000   5.439990e-06   2.133615e-01   1.343724e+00   6.195516e+00   3.428728e+04  -1.280477e+05  -6.452809e+04   4.337335e+09   1.058326e+09   2.045473e+08   1.474304e+05   1.546965e-27   0.000000e+00   0.000000e+00
      552000   5.519990e-06   2.161184e-01   1.333484e+00   6.190354e+00   3.463328e+04  -1.279628e+05  -6.451173e+04   4.312461e+09   1.064092e+09   2.044627e+08   1.474304e+05   1.531247e-27   0.000000e+00   0.000000e+00
      560000   5.599990e-06   2.189028e-01   1.323250e+00   6.185194e+00   3.497728e+04  -1.278775e+05  -6.449537e+04   4.287692e+09   1.069689e+09   2.043950e+08   1.474304e+05   1.515672e-27   0.000000e+00   0.000000e+00
      568000   5.679990e-06   2.217147e-01   1.313023e+00   6.180035e+00   3.531931e+04  -1.277917e+05  -6.447902e+04   4.263028e+09   1.075117e+09   2.043442e+08   1.474304e+05   1.500238e-27   0.000000e+00   0.000000e+00
      576000   5.759990e-06   2.245539e-01   1.302803e+00   6.174877e+00   3.565937e+04  -1.277055e+05  -6.446268e+04   4.238468e+09   1.080381e+09   2.043104e+08   1.474304e+05   1.484945e-27   0.000000e+00   0.000000e+00
      584000   5.839990e-06   2.274201e-01   1.292590e+00   6.169721e+00   3.599680e+04  -1.276192e+05  -6.444591e+04   4.203124e+09   1.078754e+09   2.114808e+08   1.474304e+05   1.461797e-27   0.000000e+00   0.000000e+00
      592000   5.919990e-06   2.303133e-01   1.282384e+00   6.164566e+00   3.633214e+04  -1.275327e+05  -6.442901e+04   4.180269e+09   1.084301e+09   2.109939e+08   1.474304e+05   1.447871e-27   0.000000e+00   0.000000e+00
      600000   5.999990e-06   2.332332e-01   1.272185e+00   6.159412e+00   3.666565e+04  -1.274458e+05  -6.441215e+04   4.157512e+09   1.089700e+09   2.105202e+08   1.474304e+05   1.434070e-27   0.000000e+00   0.000000e+00
      608000   6.079990e-06   2.361797e-01   1.261993e+00   6.154260e+00   3.699734e+04  -1.273584e+05  -6.439532e+04   4.134852e+09   1.094954e+09   2.100595e+08   1.474304e+05   1.420391e-27   0.000000e+00   0.000000e+00
      616000   6.159990e-06   2.391527e-01   1.251808e+00   6.149109e+00   3.732723e+04  -1.272706e+05  -6.437854e+04   4.112290e+09   1.100063e+09   2.096120e+08   1.474304e+05   1.406834e-27   0.000000e+00   0.000000e+00
      624000   6.239990e-06   2.421521e-01   1.241630e+00   6.143960e+00   3.765531e+04  -1.271824e+05  -6.436179e+04   4.089825e+09   1.105030e+09   2.091778e+08   1.474304e+05   1.393398e-27   0.000000e+00   0.000000e+00
      632000   6.319990e-06   2.451775e-01   1.231459e+00   6.138811e+00   3.798160e+04  -1.270938e+05  -6.434507e+04   4.067458e+09   1.109857e+09   2.087568e+08   1.474304e+05   1.380081e-27   0.000000e+00   0.000000e+00
      640000   6.399990e-06   2.482291e-01   1.221295e+00   6.133664e+00   3.830611e+04  -1.270048e+05  -6.432838e+04   4.045188e+09   1.114544e+09   2.083492e+08   1.474304e+05   1.366883e-27   0.000000e+00   0.000000e+00
      648000   6.479990e-06   2.513065e-01   1.211138e+00   6.128519e+00   3.862883e+04  -1.269154e+05  -6.431173e+04   4.023016e+09   1.119094e+09   2.079549e+08   1.474304e+05   1.353803e-27   0.000000e+00   0.000000e+00
      656000   6.559990e-06   2.544096e-01   1.200988e+00   6.123375e+00   3.894979e+04  -1.268257e+05  -6.429511e+04   4.000942e+09   1.123508e+09   2.075740e+08   1.474304e+05   1.340840e-27   0.000000e+00   0.000000e+00
      664000   6.639990e-06   2.575384e-01   1.190846e+00   6.118232e+00   3.926954e+04  -1.267351e+05  -6.427926e+04   3.986234e+09   1.135054e+09   1.973599e+08   1.474304e+05   1.333441e-27   0.000000e+00   0.000000e+00
      672000   6.719990e-06   2.606927e-01   1.180711e+00   6.113090e+00   3.958753e+04  -1.266442e+05  -6.426345e+04   3.963443e+09   1.138452e+09   1.980038e+08   1.474304e+05   1.320027e-27   0.000000e+00   0.000000e+00
      680000   6.799990e-06   2.638724e-01   1.170583e+00   6.107949e+00   3.990369e+04  -1.265530e+05  -6.424758e+04   3.940757e+09   1.141713e+09   1.986592e+08   1.474304e+05   1.306736e-27   0.000000e+00   0.000000e+00
      688000   6.879990e-06   2.670773e-01   1.160462e+00   6.102810e+00   4.021805e+04  -1.264615e+05  -6.423166e+04   3.918177e+09   1.144840e+09   1.993262e+08   1.474304e+05   1.293567e-27   0.000000e+00   0.000000e+00
      696000   6.959990e-06   2.703072e-01   1.150349e+00   6.097672e+00   4.052972e+04  -1.263699e+05  -6.421601e+04   3.871686e+09   1.144456e+09   1.914366e+08   1.474304e+05   1.265212e-27   0.000000e+00   0.000000e+00
      704000   7.039990e-06   2.735619e-01   1.140243e+00   6.092536e+00   4.083865e+04  -1.262783e+05  -6.420062e+04   3.851537e+09   1.147284e+09   1.933689e+08   1.474304e+05   1.253719e-27   0.000000e+00   0.000000e+00
      712000   7.119990e-06   2.768413e-01   1.130144e+00   6.087400e+00   4.114597e+04  -1.261864e+05  -6.418507e+04   3.831484e+09   1.149994e+09   1.953157e+08   1.474304e+05   1.242328e-27   0.000000e+00   0.000000e+00
      720000   7.199990e-06   2.801453e-01   1.120053e+00   6.082266e+00   4.145169e+04  -1.260943e+05  -6.416937e+04   3.811526e+09   1.152589e+09   1.972770e+08   1.474304e+05   1.231036e-27   0.000000e+00   0.000000e+00
      728000   7.279990e-06   2.834736e-01   1.109969e+00   6.077133e+00   4.175581e+04  -1.260020e+05  -6.415351e+04   3.791664e+09   1.155070e+09   1.992525e+08   1.474304e+05   1.219844e-27   0.000000e+00   0.000000e+00
      736000   7.359990e-06   2.868261e-01   1.099893e+00   6.072001e+00   4.205837e+04  -1.259095e+05  -6.413747e+04   3.794319e+09   1.155913e+09   2.189410e+08   1.474304e+05   1.222193e-27   0.000000e+00   0.000000e+00
      744000   7.439990e-06   2.902029e-01   1.089824e+00   6.066871e+00   4.236107e+04  -1.258169e+05  -6.411994e+04   3.773117e+09   1.158557e+09   2.193879e+08   1.474304e+05   1.210256e-27   0.000000e+00   0.000000e+00
      752000   7.519990e-06   2.936039e-01   1.079762e+00   6.061742e+00   4.266207e+04  -1.257241e+05  -6.410237e+04   3.752018e+09   1.161080e+09   2.198501e+08   1.474304e+05   1.198428e-27   0.000000e+00   0.000000e+00
      760000   7.599990e-06   2.970288e-01   1.069708e+00   6.056615e+00   4.296139e+04  -1.256311e+05  -6.408476e+04   3.731020e+09   1.163486e+09   2.203275e+08   1.474304e+05   1.186709e-27   0.000000e+00   0.000000e+00
      768000   7.679990e-06   3.004776e-01   1.059661e+00   6.051489e+00   4.325882e+04  -1.255379e+05  -6.406731e+04   3.690358e+09   1.167898e+09   2.033003e+08   1.474304e+05   1.163575e-27   0.000000e+00   0.000000e+00
      776000   7.759990e-06   3.039501e-01   1.049622e+00   6.046364e+00   4.355329e+04  -1.254444e+05  -6.405097e+04   3.671470e+09   1.169869e+09   2.053190e+08   1.474304e+05   1.153227e-27   0.000000e+00   0.000000e+00
      784000   7.839990e-06   3.074461e-01   1.039590e+00   6.041241e+00   4.384626e+04  -1.253507e+05  -6.403446e+04   3.652674e+09   1.171740e+09   2.073491e+08   1.474304e+05   1.142970e-27   0.000000e+00   0.000000e+00
      792000   7.919990e-06   3.109655e-01   1.029566e+00   6.036119e+00   4.413772e+04  -1.252569e+05  -6.401779e+04   3.633971e+09   1.173511e+09   2.093903e+08   1.474304e+05   1.132802e-27   0.000000e+00   0.000000e+00
      800000   7.999990e-06   3.145081e-01   1.019549e+00   6.030998e+00   4.442770e+04  -1.251630e+05  -6.400096e+04   3.615359e+09   1.175183e+09   2.114428e+08   1.474304e+05   1.122724e-27   0.000000e+00   0.000000e+00
      808000   8.079990e-06   3.180739e-01   1.009540e+00   6.025878e+00   4.471618e+04  -1.250689e+05  -6.398396e+04   3.596840e+09   1.176758e+09   2.135063e+08   1.474304e+05   1.112734e-27   0.000000e+00   0.000000e+00
      816000   8.159990e-06   3.216627e-01   9.995378e-01   6.020760e+00   4.500322e+04  -1.249747e+05  -6.396677e+04   3.585630e+09   1.177977e+09   2.211684e+08   1.474304e+05   1.106979e-27   0.000000e+00   0.000000e+00
      824000   8.239990e-06   3.252744e-01   9.895436e-01   6.015644e+00   4.528924e+04  -1.248804e+05  -6.394907e+04   3.564963e+09   1.179490e+09   2.214126e+08   1.474304e+05   1.095819e-27   0.000000e+00   0.000000e+00
      832000   8.319990e-06   3.289089e-01   9.795570e-01   6.010528e+00   4.557362e+04  -1.247860e+05  -6.393135e+04   3.544398e+09   1.180895e+09   2.216706e+08   1.474304e+05   1.084761e-27   0.000000e+00   0.000000e+00
      840000   8.399990e-06   3.325661e-01   9.695779e-01   6.005415e+00   4.585635e+04  -1.246915e+05  -6.391360e+04   3.523933e+09   1.182193e+09   2.219423e+08   1.474304e+05   1.073805e-27   0.000000e+00   0.000000e+00
      848000   8.479990e-06   3.362459e-01   9.596064e-01   6.000302e+00   4.613745e+04  -1.245968e+05  -6.389584e+04   3.503570e+09   1.183386e+09   2.222278e+08   1.474304e+05   1.062950e-27   0.000000e+00   0.000000e+00
      856000   8.559990e-06   3.399480e-01   9.496424e-01   5.995191e+00   4.641542e+04  -1.245014e+05  -6.388060e+04   3.464503e+09   1.193990e+09   1.902435e+08   1.474304e+05   1.042798e-27   0.000000e+00   0.000000e+00
      864000   8.639990e-06   3.436723e-01   9.396861e-01   5.990081e+00   4.669187e+04  -1.244059e+05  -6.386523e+04   3.446640e+09   1.193944e+09   1.941004e+08   1.474304e+05   1.033343e-27   0.000000e+00   0.000000e+00
      872000   8.719990e-06   3.474187e-01   9.297375e-01   5.984973e+00   4.696689e+04  -1.243103e+05  -6.384955e+04   3.428870e+09   1.193812e+09   1.979666e+08   1.474304e+05   1.023974e-27   0.000000e+00   0.000000e+00
      880000   8.799990e-06   3.511870e-01   9.197965e-01   5.979865e+00   4.724049e+04  -1.242149e+05  -6.383355e+04   3.411193e+09   1.193593e+09   2.018418e+08   1.474304e+05   1.014689e-27   0.000000e+00   0.000000e+00
      888000   8.879990e-06   3.549771e-01   9.098631e-01   5.974759e+00   4.751268e+04  -1.241194e+05  -6.381725e+04   3.393608e+09   1.193290e+09   2.057261e+08   1.474304e+05   1.005488e-27   0.000000e+00   0.000000e+00
      896000   8.959990e-06   3.587890e-01   8.999374e-01   5.969655e+00   4.778348e+04  -1.240239e+05  -6.380061e+04   3.393124e+09   1.174530e+09   2.580734e+08   1.474304e+05   1.003674e-27   0.000000e+00   0.000000e+00
      904000   9.039990e-06   3.626225e-01   8.900192e-01   5.964552e+00   4.805418e+04  -1.239299e+05  -6.377998e+04   3.374447e+09   1.175808e+09   2.577357e+08   1.474304e+05   9.941038e-28   0.000000e+00   0.000000e+00
      912000   9.119990e-06   3.664776e-01   8.801086e-01   5.959450e+00   4.832339e+04  -1.238358e+05  -6.375937e+04   3.355864e+09   1.176994e+09   2.574136e+08   1.474304e+05   9.846206e-28   0.000000e+00   0.000000e+00
      920000   9.199990e-06   3.703542e-01   8.702055e-01   5.954350e+00   4.859112e+04  -1.237416e+05  -6.373879e+04   3.337373e+09   1.178091e+09   2.571071e+08   1.474304e+05   9.752237e-28   0.000000e+00   0.000000e+00
      928000   9.279990e-06   3.742521e-01   8.603099e-01   5.949252e+00   4.885738e+04  -1.236473e+05  -6.371824e+04   3.318976e+09   1.179099e+09   2.568163e+08   1.474304e+05   9.659121e-28   0.000000e+00   0.000000e+00
      936000   9.359990e-06   3.781713e-01   8.504219e-01   5.944155e+00   4.912216e+04  -1.235530e+05  -6.369770e+04   3.300672e+09   1.180020e+09   2.565411e+08   1.474304e+05   9.566854e-28   0.000000e+00   0.000000e+00
      944000   9.439990e-06   3.821116e-01   8.405415e-01   5.939060e+00   4.938548e+04  -1.234585e+05  -6.367719e+04   3.282461e+09   1.180854e+09   2.562816e+08   1.474304e+05   9.475425e-28   0.000000e+00   0.000000e+00
      952000   9.519990e-06   3.860730e-01   8.306686e-01   5.933967e+00   4.964736e+04  -1.233640e+05  -6.365670e+04   3.264342e+09   1.181603e+09   2.560377e+08   1.474304e+05   9.384829e-28   0.000000e+00   0.000000e+00
      960000   9.599990e-06   3.900552e-01   8.208032e-01   5.928875e+00   4.990778e+04  -1.232695e+05  -6.363622e+04   3.246315e+09   1.182268e+09   2.558095e+08   1.474304e+05   9.295059e-28   0.000000e+00   0.000000e+00
      968000   9.679990e-06   3.940582e-01   8.109454e-01   5.923785e+00   5.016677e+04  -1.231749e+05  -6.361577e+04   3.228380e+09   1.182849e+09   2.555969e+08   1.474304e+05   9.206106e-28   0.000000e+00   0.000000e+00
      976000   9.759990e-06   3.980818e-01   8.010952e-01   5.918697e+00   5.042432e+04  -1.230802e+05  -6.359533e+04   3.210537e+09   1.183349e+09   2.554000e+08   1.474304e+05   9.117964e-28   0.000000e+00   0.000000e+00
      984000   9.839990e-06   4.021260e-01   7.912527e-01   5.913610e+00   5.067975e+04  -1.229848e+05  -6.357683e+04   3.191991e+09   1.184356e+09   2.534163e+08   1.474304e+05   9.027067e-28   0.000000e+00   0.000000e+00
      992000   9.919990e-06   4.061906e-01   7.814177e-01   5.908524e+00   5.093441e+04  -1.228900e+05  -6.355660e+04   3.174381e+09   1.185202e+09   2.523030e+08   1.474304e+05   8.941353e-28   0.000000e+00   0.000000e+00
     1000000   9.999990e-06   4.102755e-01   7.715903e-01   5.903441e+00   5.118766e+04  -1.227952e+05  -6.353646e+04   3.156859e+09   1.185971e+09   2.512031e+08   1.474304e+05   8.856420e-28   0.000000e+00   0.000000e+00
     1008000   1.007999e-05   4.143805e-01   7.617704e-01   5.898358e+00   5.143914e+04  -1.226999e+05  -6.351735e+04   3.125372e+09   1.199415e+09   2.140849e+08   1.474304e+05   8.714682e-28   0.000000e+00   0.000000e+00
     1016000   1.015999e-05   4.185057e-01   7.519583e-01   5.893278e+00   5.168851e+04  -1.226040e+05  -6.350016e+04   3.108983e+09   1.198939e+09   2.158084e+08   1.474304e+05   8.635242e-28   0.000000e+00   0.000000e+00
     1024000   1.023999e-05   4.226507e-01   7.421538e-01   5.888198e+00   5.193658e+04  -1.225081e+05  -6.348282e+04   3.092679e+09   1.198395e+09   2.175379e+08   1.474304e+05   8.556505e-28   0.000000e+00   0.000000e+00
     1032000   1.031999e-05   4.268155e-01   7.323570e-01   5.883120e+00   5.218335e+04  -1.224123e+05  -6.346535e+04   3.076460e+09   1.197785e+09   2.192734e+08   1.474304e+05   8.478466e-28   0.000000e+00   0.000000e+00
     1040000   1.039999e-05   4.310000e-01   7.225678e-01   5.878044e+00   5.242882e+04  -1.223165e+05  -6.344774e+04   3.060325e+09   1.197109e+09   2.210149e+08   1.474304e+05   8.401120e-28   0.000000e+00   0.000000e+00
     1048000   1.047999e-05   4.352041e-01   7.127863e-01   5.872969e+00   5.267300e+04  -1.222207e+05  -6.342999e+04   3.044274e+09   1.196369e+09   2.227622e+08   1.474304e+05   8.324460e-28   0.000000e+00   0.000000e+00
     1056000   1.055999e-05   4.394276e-01   7.030125e-01   5.867895e+00   5.291590e+04  -1.221251e+05  -6.341210e+04   3.028306e+09   1.195565e+09   2.245155e+08   1.474304e+05   8.248482e-28   0.000000e+00   0.000000e+00
     1064000   1.063999e-05   4.436706e-01   6.932463e-01   5.862823e+00   5.315842e+04  -1.220307e+05  -6.339096e+04   3.027787e+09   1.173276e+09   2.804271e+08   1.474304e+05   8.227022e-28   0.000000e+00   0.000000e+00
     1072000   1.071999e-05   4.479329e-01   6.834876e-01   5.857753e+00   5.339993e+04  -1.219368e+05  -6.336869e+04   3.010070e+09   1.174590e+09   2.763475e+08   1.474304e+05   8.144803e-28   0.000000e+00   0.000000e+00
     1080000   1.079999e-05   4.522145e-01   6.737364e-01   5.852684e+00   5.364003e+04  -1.218427e+05  -6.334674e+04   2.992437e+09   1.175832e+09   2.722753e+08   1.474304e+05   8.063364e-28   0.000000e+00   0.000000e+00
     1088000   1.087999e-05   4.565153e-01   6.639928e-01   5.847617e+00   5.387872e+04  -1.217486e+05  -6.332512e+04   2.974889e+09   1.177004e+09   2.682104e+08   1.474304e+05   7.982696e-28   0.000000e+00   0.000000e+00
     1096000   1.095999e-05   4.608351e-01   6.542566e-01   5.842552e+00   5.411601e+04  -1.216544e+05  -6.330383e+04   2.957423e+09   1.178107e+09   2.641531e+08   1.474304e+05   7.902793e-28   0.000000e+00   0.000000e+00
     1104000   1.103999e-05   4.651738e-01   6.445281e-01   5.837488e+00   5.435191e+04  -1.215601e+05  -6.328286e+04   2.940042e+09   1.179142e+09   2.601034e+08   1.474304e+05   7.823649e-28   0.000000e+00   0.000000e+00
     1112000   1.111999e-05   4.695314e-01   6.348070e-01   5.832427e+00   5.458642e+04  -1.214658e+05  -6.326221e+04   2.922743e+09   1.180110e+09   2.560614e+08   1.474304e+05   7.745257e-28   0.000000e+00   0.000000e+00
     1120000   1.119999e-05   4.739076e-01   6.250935e-01   5.827367e+00   5.481955e+04  -1.213713e+05  -6.324189e+04   2.905528e+09   1.181012e+09   2.520273e+08   1.474304e+05   7.667609e-28   0.000000e+00   0.000000e+00
     1128000   1.127999e-05   4.783025e-01   6.153876e-01   5.822308e+00   5.505131e+04  -1.212768e+05  -6.322189e+04   2.888395e+09   1.181848e+09   2.480010e+08   1.474304e+05   7.590700e-28   0.000000e+00   0.000000e+00
     1136000   1.135999e-05   4.827158e-01   6.056892e-01   5.817251e+00   5.528170e+04  -1.211822e+05  -6.320221e+04   2.871344e+09   1.182619e+09   2.439826e+08   1.474304e+05   7.514523e-28   0.000000e+00   0.000000e+00
     1144000   1.143999e-05   4.871475e-01   5.959985e-01   5.812196e+00   5.551016e+04  -1.210868e+05  -6.318478e+04   2.837564e+09   1.205488e+09   1.827144e+08   1.474304e+05   7.387218e-28   0.000000e+00   0.000000e+00
     1152000   1.151999e-05   4.915974e-01   5.863154e-01   5.807141e+00   5.573654e+04  -1.209905e+05  -6.317012e+04   2.821999e+09   1.204033e+09   1.838181e+08   1.474304e+05   7.316590e-28   0.000000e+00   0.000000e+00
     1160000   1.159999e-05   4.960653e-01   5.766400e-01   5.802088e+00   5.596168e+04  -1.208942e+05  -6.315537e+04   2.806514e+09   1.202525e+09   1.849223e+08   1.474304e+05   7.246594e-28   0.000000e+00   0.000000e+00
     1168000   1.167999e-05   5.005512e-01   5.669723e-01   5.797037e+00   5.618592e+04  -1.207990e+05  -6.313835e+04   2.792966e+09   1.188346e+09   2.118237e+08   1.474304e+05   7.169854e-28   0.000000e+00   0.000000e+00
     1176000   1.175999e-05   5.050550e-01   5.573122e-01   5.791986e+00   5.640873e+04  -1.207040e+05  -6.312144e+04   2.777303e+09   1.187682e+09   2.108009e+08   1.474304e+05   7.100725e-28   0.000000e+00   0.000000e+00
     1184000   1.183999e-05   5.095766e-01   5.476596e-01   5.786937e+00   5.663030e+04  -1.206090e+05  -6.310462e+04   2.761718e+09   1.186963e+09   2.097842e+08   1.474304e+05   7.032216e-28   0.000000e+00   0.000000e+00
     1192000   1.191999e-05   5.141158e-01   5.380147e-01   5.781889e+00   5.685061e+04  -1.205141e+05  -6.308787e+04   2.746212e+09   1.186190e+09   2.087736e+08   1.474304e+05   6.964320e-28   0.000000e+00   0.000000e+00
     1200000   1.199999e-05   5.186726e-01   5.283774e-01   5.776843e+00   5.706969e+04  -1.204192e+05  -6.307121e+04   2.730783e+09   1.185364e+09   2.077691e+08   1.474304e+05   6.897033e-28   0.000000e+00   0.000000e+00
     1208000   1.207999e-05   5.232469e-01   5.187476e-01   5.771798e+00   5.728754e+04  -1.203244e+05  -6.305463e+04   2.715432e+09   1.184485e+09   2.067708e+08   1.474304e+05   6.830350e-28   0.000000e+00   0.000000e+00
     1216000   1.215999e-05   5.278386e-01   5.091255e-01   5.766754e+00   5.750416e+04  -1.202297e+05  -6.303813e+04   2.700159e+09   1.183554e+09   2.057785e+08   1.474304e+05   6.764264e-28   0.000000e+00   0.000000e+00
     1224000   1.223999e-05   5.324476e-01   4.995109e-01   5.761712e+00   5.771958e+04  -1.201351e+05  -6.302163e+04   2.688044e+09   1.174807e+09   2.224180e+08   1.474304e+05   6.703251e-28   0.000000e+00   0.000000e+00
     1232000   1.231999e-05   5.370737e-01   4.899038e-01   5.756671e+00   5.793401e+04  -1.200411e+05  -6.300394e+04   2.672664e+09   1.174494e+09   2.198354e+08   1.474304e+05   6.637945e-28   0.000000e+00   0.000000e+00
     1240000   1.239999e-05   5.417170e-01   4.803043e-01   5.751631e+00   5.814721e+04  -1.199472e+05  -6.298646e+04   2.657360e+09   1.174131e+09   2.172571e+08   1.474304e+05   6.573237e-28   0.000000e+00   0.000000e+00
     1248000   1.247999e-05   5.463772e-01   4.707123e-01   5.746593e+00   5.835919e+04  -1.198533e+05  -6.296918e+04   2.642131e+09   1.173719e+09   2.146832e+08   1.474304e+05   6.509121e-28   0.000000e+00   0.000000e+00
     1256000   1.255999e-05   5.510544e-01   4.611278e-01   5.741556e+00   5.856995e+04  -1.197594e+05  -6.295211e+04   2.626976e+09   1.173259e+09   2.121135e+08   1.474304e+05   6.445591e-28   0.000000e+00   0.000000e+00
     1264000   1.263999e-05   5.557484e-01   4.515508e-01   5.736521e+00   5.877950e+04  -1.196655e+05  -6.293525e+04   2.611896e+09   1.172751e+09   2.095483e+08   1.474304e+05   6.382644e-28   0.000000e+00   0.000000e+00
     1272000   1.271999e-05   5.604591e-01   4.419813e-01   5.731487e+00   5.898785e+04  -1.195717e+05  -6.291858e+04   2.596889e+09   1.172196e+09   2.069875e+08   1.474304e+05   6.320273e-28   0.000000e+00   0.000000e+00
     1280000   1.279999e-05   5.651864e-01   4.324193e-01   5.726454e+00   5.919501e+04  -1.194780e+05  -6.290213e+04   2.581957e+09   1.171594e+09   2.044312e+08   1.474304e+05   6.258474e-28   0.000000e+00   0.000000e+00
     1288000   1.287999e-05   5.699303e-01   4.228648e-01   5.721422e+00   5.940097e+04  -1.193843e+05  -6.288587e+04   2.567098e+09   1.170947e+09   2.018793e+08   1.474304e+05   6.197241e-28   0.000000e+00   0.000000e+00
     1296000   1.295999e-05   5.746906e-01   4.133178e-01   5.716392e+00   5.960575e+04  -1.192906e+05  -6.286983e+04   2.552312e+09   1.170255e+09   1.993320e+08   1.474304e+05   6.136571e-28   0.000000e+00   0.000000e+00
     1304000   1.303999e-05   5.794672e-01   4.037783e-01   5.711363e+00   5.980934e+04  -1.191970e+05  -6.285398e+04   2.537599e+09   1.169518e+09   1.967892e+08   1.474304e+05   6.076457e-28   0.000000e+00   0.000000e+00
     1312000   1.311999e-05   5.842600e-01   3.942463e-01   5.706335e+00   6.001183e+04  -1.191032e+05  -6.283883e+04   2.524351e+09   1.174654e+09   1.843729e+08   1.474304e+05   6.030178e-28   0.000000e+00   0.000000e+00
     1320000   1.319999e-05   5.890690e-01   3.847218e-01   5.701309e+00   6.021320e+04  -1.190093e+05  -6.282414e+04   2.510075e+09   1.173439e+09   1.828832e+08   1.474304e+05   5.971885e-28   0.000000e+00   0.000000e+00
     1328000   1.327999e-05   5.938940e-01   3.752048e-01   5.696283e+00   6.041159e+04  -1.189158e+05  -6.281080e+04   2.464943e+09   1.167118e+09   1.611546e+08   1.474304e+05   5.780742e-28   0.000000e+00   0.000000e+00
     1336000   1.335999e-05   5.987348e-01   3.656953e-01   5.691259e+00   6.060826e+04  -1.188225e+05  -6.279791e+04   2.451811e+09   1.165566e+09   1.609053e+08   1.474304e+05   5.727870e-28   0.000000e+00   0.000000e+00
     1344000   1.343999e-05   6.035914e-01   3.561932e-01   5.686236e+00   6.080568e+04  -1.187295e+05  -6.278296e+04   2.468450e+09   1.161062e+09   1.950129e+08   1.474304e+05   5.792562e-28   0.000000e+00   0.000000e+00
     1352000   1.351999e-05   6.084637e-01   3.466985e-01   5.681214e+00   6.100256e+04  -1.186366e+05  -6.276748e+04   2.453534e+09   1.160016e+09   1.920000e+08   1.474304e+05   5.732918e-28   0.000000e+00   0.000000e+00
     1360000   1.359999e-05   6.133518e-01   3.372113e-01   5.676193e+00   6.119825e+04  -1.185439e+05  -6.275224e+04   2.438690e+09   1.158928e+09   1.889926e+08   1.474304e+05   5.673835e-28   0.000000e+00   0.000000e+00
     1368000   1.367999e-05   6.182554e-01   3.277315e-01   5.671173e+00   6.139275e+04  -1.184512e+05  -6.273724e+04   2.423919e+09   1.157797e+09   1.859908e+08   1.474304e+05   5.615306e-28   0.000000e+00   0.000000e+00
     1376000   1.375999e-05   6.231746e-01   3.182591e-01   5.666155e+00   6.158607e+04  -1.183586e+05  -6.272248e+04   2.409220e+09   1.156624e+09   1.829947e+08   1.474304e+05   5.557326e-28   0.000000e+00   0.000000e+00
     1384000   1.383999e-05   6.281092e-01   3.087941e-01   5.661138e+00   6.177823e+04  -1.182661e+05  -6.270796e+04   2.394592e+09   1.155410e+09   1.800042e+08   1.474304e+05   5.499892e-28   0.000000e+00   0.000000e+00
     1392000   1.391999e-05   6.330591e-01   2.993365e-01   5.656122e+00   6.196912e+04  -1.181738e+05  -6.269376e+04   2.364311e+09   1.153822e+09   1.621013e+08   1.474304e+05   5.380700e-28   0.000000e+00   0.000000e+00
     1400000   1.399999e-05   6.380241e-01   2.898863e-01   5.651107e+00   6.215775e+04  -1.180815e+05  -6.268086e+04   2.351392e+09   1.152571e+09   1.604921e+08   1.474304e+05   5.330881e-28   0.000000e+00   0.000000e+00
     1408000   1.407999e-05   6.430043e-01   2.804435e-01   5.646093e+00   6.234535e+04  -1.179893e+05  -6.266808e+04   2.338537e+09   1.151289e+09   1.588845e+08   1.474304e+05   5.281505e-28   0.000000e+00   0.000000e+00
     1416000   1.415999e-05   6.479994e-01   2.710080e-01   5.641080e+00   6.253192e+04  -1.178973e+05  -6.265544e+04   2.325747e+09   1.149976e+09   1.572783e+08   1.474304e+05   5.232569e-28   0.000000e+00   0.000000e+00
     1424000   1.423999e-05   6.530094e-01   2.615799e-01   5.636068e+00   6.271747e+04  -1.178054e+05  -6.264292e+04   2.313022e+09   1.148632e+09   1.556737e+08   1.474304e+05   5.184069e-28   0.000000e+00   0.000000e+00
     1432000   1.431999e-05   6.580341e-01   2.521592e-01   5.631057e+00   6.290200e+04  -1.177135e+05  -6.263053e+04   2.300360e+09   1.147257e+09   1.540707e+08   1.474304e+05   5.136002e-28   0.000000e+00   0.000000e+00
     1440000   1.439999e-05   6.630736e-01   2.427458e-01   5.626047e+00   6.308553e+04  -1.176218e+05  -6.261827e+04   2.287762e+09   1.145853e+09   1.524693e+08   1.474304e+05   5.088363e-28   0.000000e+00   0.000000e+00
     1448000   1.447999e-05   6.681278e-01   2.333397e-01   5.621038e+00   6.326805e+04  -1.175302e+05  -6.260613e+04   2.275228e+09   1.144419e+09   1.508695e+08   1.474304e+05   5.041149e-28   0.000000e+00   0.000000e+00
     1456000   1.455999e-05   6.731965e-01   2.239409e-01   5.616030e+00   6.344956e+04  -1.174387e+05  -6.259413e+04   2.262757e+09   1.142957e+09   1.492713e+08   1.474304e+05   4.994356e-28   0.000000e+00   0.000000e+00
     1464000   1.463999e-05   6.782797e-01   2.145495e-01   5.611023e+00   6.363009e+04  -1.173473e+05  -6.258225e+04   2.250348e+09   1.141466e+09   1.476748e+08   1.474304e+05   4.947981e-28   0.000000e+00   0.000000e+00
     1472000   1.471999e-05   6.833773e-01   2.051654e-01   5.606017e+00   6.380962e+04  -1.172561e+05  -6.257050e+04   2.238003e+09   1.139948e+09   1.460800e+08   1.474304e+05   4.902020e-28   0.000000e+00   0.000000e+00
     1480000   1.479999e-05   6.884892e-01   1.957885e-01   5.601012e+00   6.398858e+04  -1.171649e+05  -6.255842e+04   2.236952e+09   1.137900e+09   1.569312e+08   1.474304e+05   4.897314e-28   0.000000e+00   0.000000e+00
     1488000   1.487999e-05   6.936154e-01   1.864190e-01   5.596008e+00   6.416525e+04  -1.170737e+05  -6.254835e+04   2.196408e+09   1.141282e+09   1.170128e+08   1.474304e+05   4.755603e-28   0.000000e+00   0.000000e+00
     1496000   1.495999e-05   6.987556e-01   1.770567e-01   5.591004e+00   6.434046e+04  -1.169824e+05  -6.253909e+04   2.183976e+09   1.139991e+09   1.144734e+08   1.474304e+05   4.710695e-28   0.000000e+00   0.000000e+00
     1504000   1.503999e-05   7.039099e-01   1.677018e-01   5.586001e+00   6.451588e+04  -1.168918e+05  -6.252770e+04   2.190863e+09   1.129223e+09   1.495095e+08   1.474304e+05   4.722267e-28   0.000000e+00   0.000000e+00
     1512000   1.511999e-05   7.090781e-01   1.583540e-01   5.581000e+00   6.469061e+04  -1.168015e+05  -6.251594e+04   2.177301e+09   1.128551e+09   1.445132e+08   1.474304e+05   4.674075e-28   0.000000e+00   0.000000e+00
     1520000   1.519999e-05   7.142603e-01   1.490135e-01   5.575999e+00   6.486425e+04  -1.167113e+05  -6.250458e+04   2.163801e+09   1.127849e+09   1.395194e+08   1.474304e+05   4.626360e-28   0.000000e+00   0.000000e+00
     1528000   1.527999e-05   7.194564e-01   1.396802e-01   5.570999e+00   6.503682e+04  -1.166211e+05  -6.249362e+04   2.150362e+09   1.127116e+09   1.345282e+08   1.474304e+05   4.579117e-28   0.000000e+00   0.000000e+00
     1536000   1.535999e-05   7.246662e-01   1.303542e-01   5.566000e+00   6.520831e+04  -1.165309e+05  -6.248305e+04   2.136984e+09   1.126353e+09   1.295398e+08   1.474304e+05   4.532344e-28   0.000000e+00   0.000000e+00
     1544000   1.543999e-05   7.298897e-01   1.210353e-01   5.561002e+00   6.537874e+04  -1.164409e+05  -6.247289e+04   2.123666e+09   1.125561e+09   1.245541e+08   1.474304e+05   4.486037e-28   0.000000e+00   0.000000e+00
     1552000   1.551999e-05   7.351268e-01   1.117236e-01   5.556004e+00   6.554810e+04  -1.163509e+05  -6.246312e+04   2.110409e+09   1.124740e+09   1.195712e+08   1.474304e+05   4.440191e-28   0.000000e+00   0.000000e+00
     1560000   1.559999e-05   7.403774e-01   1.024191e-01   5.551007e+00   6.571640e+04  -1.162609e+05  -6.245376e+04   2.097212e+09   1.123890e+09   1.145913e+08   1.474304e+05   4.394802e-28   0.000000e+00   0.000000e+00
     1568000   1.567999e-05   7.456414e-01   9.312187e-02   5.546011e+00   6.588303e+04  -1.161708e+05  -6.244594e+04   2.073737e+09   1.127288e+09   9.073526e+07   1.474304e+05   4.321102e-28   0.000000e+00   0.000000e+00
     1576000   1.575999e-05   7.509186e-01   8.383182e-02   5.541016e+00   6.604843e+04  -1.160806e+05  -6.243882e+04   2.061435e+09   1.126001e+09   8.724772e+07   1.474304e+05   4.278978e-28   0.000000e+00   0.000000e+00
     1584000   1.583999e-05   7.562091e-01   7.454897e-02   5.536021e+00   6.621286e+04  -1.159906e+05  -6.243198e+04   2.049191e+09   1.124690e+09   8.375918e+07   1.474304e+05   4.237251e-28   0.000000e+00   0.000000e+00
     1592000   1.591999e-05   7.615127e-01   6.527332e-02   5.531027e+00   6.637630e+04  -1.159007e+05  -6.242542e+04   2.037004e+09   1.123357e+09   8.026971e+07   1.474304e+05   4.195918e-28   0.000000e+00   0.000000e+00
     1600000   1.599999e-05   7.668293e-01   5.600485e-02   5.526033e+00   6.653878e+04  -1.158109e+05  -6.241914e+04   2.024873e+09   1.122002e+09   7.677934e+07   1.474304e+05   4.154976e-28   0.000000e+00   0.000000e+00
     1608000   1.607999e-05   7.721588e-01   4.674357e-02   5.521040e+00   6.670029e+04  -1.157212e+05  -6.241313e+04   2.012799e+09   1.120625e+09   7.328816e+07   1.474304e+05   4.114421e-28   0.000000e+00   0.000000e+00
     1616000   1.615999e-05   7.775013e-01   3.748946e-02   5.516047e+00   6.686083e+04  -1.156316e+05  -6.240741e+04   2.000780e+09   1.119227e+09   6.979620e+07   1.474304e+05   4.074250e-28   0.000000e+00   0.000000e+00
     1624000   1.623999e-05   7.828565e-01   2.824252e-02   5.511055e+00   6.702041e+04  -1.155421e+05  -6.240197e+04   1.988817e+09   1.117808e+09   6.630354e+07   1.474304e+05   4.034460e-28   0.000000e+00   0.000000e+00
     1632000   1.631999e-05   7.882245e-01   1.900272e-02   5.506063e+00   6.717904e+04  -1.154527e+05  -6.239680e+04   1.976910e+09   1.116368e+09   6.281022e+07   1.474304e+05   3.995048e-28   0.000000e+00   0.000000e+00
     1640000   1.639999e-05   7.936052e-01   9.770077e-03   5.501071e+00   6.733672e+04  -1.153635e+05  -6.239192e+04   1.965058e+09   1.114908e+09   5.931630e+07   1.474304e+05   3.956010e-28   0.000000e+00   0.000000e+00
     1648000   1.647999e-05   7.989984e-01   5.445564e-04   5.496080e+00   6.749334e+04  -1.152746e+05  -6.238693e+04   1.951494e+09   1.109260e+09   6.160404e+07   1.474304e+05   3.905353e-28   0.000000e+00   0.000000e+00
