     timestep     time              x             y              z              vx             vy             vz             ax             ay             az         v_magnitude      ELoss        Electronic      Nuclear
           0   0.000000e+00   1.000000e-01   1.264878e+01   1.162218e+00   1.042051e+04   2.430800e+04  -1.450388e+05   0.000000e+00   0.000000e+00   0.000000e+00   1.474304e+05   0.000000e+00   0.000000e+00   0.000000e+00
        8000   7.999000e-08   1.008318e-01   1.265072e+01   1.150614e+00   1.037406e+04   2.425011e+04  -1.450518e+05  -5.707537e+08  -7.301552e+08  -1.628893e+08   1.474304e+05   6.857344e-29   0.000000e+00   0.000000e+00
       16000   1.599900e-07   1.016599e-01   1.265266e+01   1.139010e+00   1.032919e+04   2.419118e+04  -1.450648e+05  -5.509991e+08  -7.430710e+08  -1.631487e+08   1.474304e+05   6.833743e-29   0.000000e+00   0.000000e+00
       24000   2.399900e-07   1.024845e-01   1.265459e+01   1.127404e+00   1.028590e+04   2.413122e+04  -1.450779e+05  -5.312609e+08  -7.558285e+08  -1.633851e+08   1.474304e+05   6.816995e-29   0.000000e+00   0.000000e+00
       32000   3.199900e-07   1.033057e-01   1.265652e+01   1.115797e+00   1.024419e+04   2.407025e+04  -1.450910e+05  -5.115409e+08  -7.684312e+08  -1.635985e+08   1.474304e+05   6.807045e-29   0.000000e+00   0.000000e+00
       40000   3.999900e-07   1.041236e-01   1.265844e+01   1.104189e+00   1.020405e+04   2.400828e+04  -1.451041e+05  -4.918409e+08  -7.808824e+08  -1.637888e+08   1.474304e+05   6.803842e-29   0.000000e+00   0.000000e+00
       48000   4.799900e-07   1.049384e-01   1.266036e+01   1.092581e+00   1.016525e+04   2.394594e+04  -1.451171e+05  -4.766293e+08  -7.811634e+08  -1.622880e+08   1.474304e+05   6.689354e-29   0.000000e+00   0.000000e+00
       56000   5.599900e-07   1.057501e-01   1.266227e+01   1.080971e+00   1.012793e+04   2.388293e+04  -1.451301e+05  -4.564403e+08  -7.941109e+08  -1.625335e+08   1.474304e+05   6.702039e-29   0.000000e+00   0.000000e+00
       64000   6.399900e-07   1.065589e-01   1.266418e+01   1.069360e+00   1.009222e+04   2.381889e+04  -1.451431e+05  -4.362691e+08  -8.069179e+08  -1.627554e+08   1.474304e+05   6.721938e-29   0.000000e+00   0.000000e+00
       72000   7.199900e-07   1.073649e-01   1.266608e+01   1.057748e+00   1.005813e+04   2.375383e+04  -1.451561e+05  -4.161173e+08  -8.195877e+08  -1.629536e+08   1.474304e+05   6.749004e-29   0.000000e+00   0.000000e+00
       80000   7.999900e-07   1.081682e-01   1.266798e+01   1.046135e+00   1.002564e+04   2.368776e+04  -1.451692e+05  -3.959866e+08  -8.321235e+08  -1.631281e+08   1.474304e+05   6.783190e-29   0.000000e+00   0.000000e+00
       88000   8.799900e-07   1.089690e-01   1.266987e+01   1.034521e+00   9.994770e+03   2.362069e+04  -1.451822e+05  -3.758785e+08  -8.445287e+08  -1.632788e+08   1.474304e+05   6.824451e-29   0.000000e+00   0.000000e+00
       96000   9.599900e-07   1.097674e-01   1.267176e+01   1.022906e+00   9.965504e+03   2.355263e+04  -1.451953e+05  -3.557946e+08  -8.568066e+08  -1.634057e+08   1.474304e+05   6.872742e-29   0.000000e+00   0.000000e+00
      104000   1.039990e-06   1.105635e-01   1.267364e+01   1.011289e+00   9.937843e+03   2.348360e+04  -1.452084e+05  -3.357365e+08  -8.689606e+08  -1.635087e+08   1.474304e+05   6.928021e-29   0.000000e+00   0.000000e+00
      112000   1.119990e-06   1.113575e-01   1.267552e+01   9.996723e-01   9.911798e+03   2.341357e+04  -1.452215e+05  -3.101063e+08  -8.961504e+08  -1.656491e+08   1.474304e+05   7.176970e-29   0.000000e+00   0.000000e+00
      120000   1.199990e-06   1.121495e-01   1.267739e+01   9.880540e-01   9.887800e+03   2.334136e+04  -1.452347e+05  -2.898567e+08  -9.091850e+08  -1.658533e+08   1.474304e+05   7.265649e-29   0.000000e+00   0.000000e+00
      128000   1.279990e-06   1.129396e-01   1.267925e+01   9.764347e-01   9.865420e+03   2.326810e+04  -1.452480e+05  -2.696349e+08  -9.221041e+08  -1.660311e+08   1.474304e+05   7.361712e-29   0.000000e+00   0.000000e+00
      136000   1.359990e-06   1.137280e-01   1.268111e+01   9.648144e-01   9.844658e+03   2.319382e+04  -1.452613e+05  -2.494425e+08  -9.349114e+08  -1.661823e+08   1.474304e+05   7.465120e-29   0.000000e+00   0.000000e+00
      144000   1.439990e-06   1.145148e-01   1.268296e+01   9.531929e-01   9.825509e+03   2.311852e+04  -1.452746e+05  -2.292810e+08  -9.476102e+08  -1.663068e+08   1.474304e+05   7.575833e-29   0.000000e+00   0.000000e+00
      152000   1.519990e-06   1.153001e-01   1.268481e+01   9.415704e-01   9.807972e+03   2.304221e+04  -1.452879e+05  -2.091519e+08  -9.602038e+08  -1.664046e+08   1.474304e+05   7.693812e-29   0.000000e+00   0.000000e+00
      160000   1.599990e-06   1.160841e-01   1.268665e+01   9.299469e-01   9.792044e+03   2.296489e+04  -1.453012e+05  -1.890565e+08  -9.726958e+08  -1.664756e+08   1.474304e+05   7.819022e-29   0.000000e+00   0.000000e+00
      168000   1.679990e-06   1.168669e-01   1.268849e+01   9.183222e-01   9.777722e+03   2.288658e+04  -1.453145e+05  -1.689962e+08  -9.850896e+08  -1.665197e+08   1.474304e+05   7.951428e-29   0.000000e+00   0.000000e+00
      176000   1.759990e-06   1.176486e-01   1.269031e+01   9.066965e-01   9.765004e+03   2.280728e+04  -1.453279e+05  -1.489725e+08  -9.973885e+08  -1.665368e+08   1.474304e+05   8.090996e-29   0.000000e+00   0.000000e+00
      184000   1.839990e-06   1.184293e-01   1.269213e+01   8.950698e-01   9.753611e+03   2.272694e+04  -1.453412e+05  -1.371872e+08  -1.011333e+09  -1.673482e+08   1.474304e+05   8.283914e-29   0.000000e+00   0.000000e+00
      192000   1.919990e-06   1.192092e-01   1.269395e+01   8.834419e-01   9.743417e+03   2.264555e+04  -1.453546e+05  -1.176554e+08  -1.023393e+09  -1.673264e+08   1.474304e+05   8.435344e-29   0.000000e+00   0.000000e+00
      200000   1.999990e-06   1.199883e-01   1.269576e+01   8.718130e-01   9.734785e+03   2.256320e+04  -1.453680e+05  -9.816663e+07  -1.035367e+09  -1.672778e+08   1.474304e+05   8.593574e-29   0.000000e+00   0.000000e+00
      208000   2.079990e-06   1.207668e-01   1.269756e+01   8.601831e-01   9.727710e+03   2.247989e+04  -1.453814e+05  -7.872213e+07  -1.047261e+09  -1.672024e+08   1.474304e+05   8.758576e-29   0.000000e+00   0.000000e+00
      216000   2.159990e-06   1.215448e-01   1.269935e+01   8.485520e-01   9.722188e+03   2.239564e+04  -1.453947e+05  -5.932321e+07  -1.059077e+09  -1.671000e+08   1.474304e+05   8.930322e-29   0.000000e+00   0.000000e+00
      224000   2.239990e-06   1.223224e-01   1.270114e+01   8.369199e-01   9.718461e+03   2.231067e+04  -1.454080e+05  -3.542030e+07  -1.066223e+09  -1.659632e+08   1.474304e+05   9.027468e-29   0.000000e+00   0.000000e+00
      232000   2.319990e-06   1.230998e-01   1.270292e+01   8.252867e-01   9.716373e+03   2.222492e+04  -1.454213e+05  -1.678255e+07  -1.077365e+09  -1.657765e+08   1.474304e+05   9.204432e-29   0.000000e+00   0.000000e+00
      240000   2.399990e-06   1.238771e-01   1.270470e+01   8.136525e-01   9.715774e+03   2.213829e+04  -1.454346e+05   1.804130e+06  -1.088443e+09  -1.655642e+08   1.474304e+05   9.387555e-29   0.000000e+00   0.000000e+00
      248000   2.479990e-06   1.246544e-01   1.270647e+01   8.020172e-01   9.716660e+03   2.205078e+04  -1.454478e+05   2.033862e+07  -1.099461e+09  -1.653264e+08   1.474304e+05   9.576816e-29   0.000000e+00   0.000000e+00
      256000   2.559990e-06   1.254318e-01   1.270823e+01   7.903809e-01   9.718938e+03   2.196186e+04  -1.454611e+05   3.773094e+07  -1.118115e+09  -1.662931e+08   1.474304e+05   9.907488e-29   0.000000e+00   0.000000e+00
      264000   2.639990e-06   1.262094e-01   1.270998e+01   7.787434e-01   9.722719e+03   2.187199e+04  -1.454744e+05   5.678736e+07  -1.128585e+09  -1.658869e+08   1.474304e+05   1.010258e-28   0.000000e+00   0.000000e+00
      272000   2.719990e-06   1.269875e-01   1.271173e+01   7.671050e-01   9.728022e+03   2.178129e+04  -1.454876e+05   7.578587e+07  -1.139002e+09  -1.654552e+08   1.474304e+05   1.030391e-28   0.000000e+00   0.000000e+00
      280000   2.799990e-06   1.277660e-01   1.271346e+01   7.554654e-01   9.734843e+03   2.168975e+04  -1.455009e+05   9.472545e+07  -1.149367e+09  -1.649981e+08   1.474304e+05   1.051146e-28   0.000000e+00   0.000000e+00
      288000   2.879990e-06   1.285451e-01   1.271520e+01   7.438248e-01   9.743177e+03   2.159739e+04  -1.455140e+05   1.136051e+08  -1.159685e+09  -1.645154e+08   1.474304e+05   1.072520e-28   0.000000e+00   0.000000e+00
      296000   2.959990e-06   1.293249e-01   1.271692e+01   7.321832e-01   9.753019e+03   2.150420e+04  -1.455272e+05   1.324239e+08  -1.169958e+09  -1.640072e+08   1.474304e+05   1.094512e-28   0.000000e+00   0.000000e+00
      304000   3.039990e-06   1.301056e-01   1.271864e+01   7.205405e-01   9.764363e+03   2.141020e+04  -1.455403e+05   1.511807e+08  -1.180191e+09  -1.634733e+08   1.474304e+05   1.117122e-28   0.000000e+00   0.000000e+00
      312000   3.119990e-06   1.308872e-01   1.272035e+01   7.088967e-01   9.777206e+03   2.131537e+04  -1.455533e+05   1.698748e+08  -1.190387e+09  -1.629138e+08   1.474304e+05   1.140347e-28   0.000000e+00   0.000000e+00
      320000   3.199990e-06   1.316700e-01   1.272205e+01   6.972519e-01   9.791438e+03   2.121988e+04  -1.455663e+05   1.828893e+08  -1.193033e+09  -1.616121e+08   1.474304e+05   1.148460e-28   0.000000e+00   0.000000e+00
      328000   3.279990e-06   1.324539e-01   1.272374e+01   6.856061e-01   9.806782e+03   2.112402e+04  -1.455792e+05   2.007045e+08  -1.203518e+09  -1.611141e+08   1.474304e+05   1.173088e-28   0.000000e+00   0.000000e+00
      336000   3.359990e-06   1.332391e-01   1.272543e+01   6.739593e-01   9.823549e+03   2.102732e+04  -1.455921e+05   2.184537e+08  -1.213977e+09  -1.605904e+08   1.474304e+05   1.198303e-28   0.000000e+00   0.000000e+00
      344000   3.439990e-06   1.340257e-01   1.272711e+01   6.623114e-01   9.841733e+03   2.092978e+04  -1.456049e+05   2.361360e+08  -1.224415e+09  -1.600410e+08   1.474304e+05   1.224102e-28   0.000000e+00   0.000000e+00
      352000   3.519990e-06   1.348138e-01   1.272878e+01   6.506625e-01   9.861329e+03   2.083141e+04  -1.456177e+05   2.537505e+08  -1.234833e+09  -1.594656e+08   1.474304e+05   1.250487e-28   0.000000e+00   0.000000e+00
      360000   3.599990e-06   1.356036e-01   1.273044e+01   6.390125e-01   9.882331e+03   2.073221e+04  -1.456305e+05   2.712960e+08  -1.245237e+09  -1.588644e+08   1.474304e+05   1.277456e-28   0.000000e+00   0.000000e+00
      368000   3.679990e-06   1.363950e-01   1.273209e+01   6.273616e-01   9.904735e+03   2.063217e+04  -1.456431e+05   2.887717e+08  -1.255628e+09  -1.582371e+08   1.474304e+05   1.305008e-28   0.000000e+00   0.000000e+00
      376000   3.759990e-06   1.371883e-01   1.273374e+01   6.157096e-01   9.928533e+03   2.053131e+04  -1.456558e+05   3.061766e+08  -1.266010e+09  -1.575837e+08   1.474304e+05   1.333143e-28   0.000000e+00   0.000000e+00
      384000   3.839990e-06   1.379836e-01   1.273538e+01   6.040567e-01   9.953721e+03   2.042961e+04  -1.456684e+05   3.235097e+08  -1.276386e+09  -1.569041e+08   1.474304e+05   1.361861e-28   0.000000e+00   0.000000e+00
      392000   3.919990e-06   1.387810e-01   1.273701e+01   5.924027e-01   9.980250e+03   2.032764e+04  -1.456808e+05   3.395441e+08  -1.275276e+09  -1.546849e+08   1.474304e+05   1.367366e-28   0.000000e+00   0.000000e+00
      400000   3.999990e-06   1.395805e-01   1.273863e+01   5.807477e-01   1.000805e+04   2.022531e+04  -1.456931e+05   3.555111e+08  -1.283044e+09  -1.536930e+08   1.474304e+05   1.391116e-28   0.000000e+00   0.000000e+00
      408000   4.079990e-06   1.403823e-01   1.274024e+01   5.690918e-01   1.003713e+04   2.012235e+04  -1.457054e+05   3.713987e+08  -1.290818e+09  -1.526816e+08   1.474304e+05   1.415317e-28   0.000000e+00   0.000000e+00
      416000   4.159990e-06   1.411865e-01   1.274185e+01   5.574349e-01   1.006747e+04   2.001878e+04  -1.457176e+05   3.872064e+08  -1.298599e+09  -1.516509e+08   1.474304e+05   1.439966e-28   0.000000e+00   0.000000e+00
      424000   4.239990e-06   1.419931e-01   1.274345e+01   5.457770e-01   1.009908e+04   1.991458e+04  -1.457297e+05   4.029335e+08  -1.306392e+09  -1.506007e+08   1.474304e+05   1.465065e-28   0.000000e+00   0.000000e+00
      432000   4.319990e-06   1.428024e-01   1.274504e+01   5.341181e-01   1.013194e+04   1.980975e+04  -1.457417e+05   4.185794e+08  -1.314197e+09  -1.495311e+08   1.474304e+05   1.490613e-28   0.000000e+00   0.000000e+00
      440000   4.399990e-06   1.436143e-01   1.274662e+01   5.224583e-01   1.016605e+04   1.970430e+04  -1.457536e+05   4.341435e+08  -1.322019e+09  -1.484420e+08   1.474304e+05   1.516610e-28   0.000000e+00   0.000000e+00
      448000   4.479990e-06   1.444290e-01   1.274819e+01   5.107976e-01   1.020140e+04   1.959823e+04  -1.457654e+05   4.496253e+08  -1.329860e+09  -1.473334e+08   1.474304e+05   1.543057e-28   0.000000e+00   0.000000e+00
      456000   4.559990e-06   1.452465e-01   1.274975e+01   4.991359e-01   1.023803e+04   1.949139e+04  -1.457772e+05   4.720142e+08  -1.361085e+09  -1.488365e+08   1.474304e+05   1.624456e-28   0.000000e+00   0.000000e+00
      464000   4.639990e-06   1.460671e-01   1.275131e+01   4.874732e-01   1.027646e+04   1.938212e+04  -1.457890e+05   4.886686e+08  -1.370667e+09  -1.477798e+08   1.474304e+05   1.656878e-28   0.000000e+00   0.000000e+00
      472000   4.719990e-06   1.468908e-01   1.275285e+01   4.758096e-01   1.031622e+04   1.927208e+04  -1.458008e+05   5.052420e+08  -1.380274e+09  -1.466974e+08   1.474304e+05   1.689856e-28   0.000000e+00   0.000000e+00
      480000   4.799990e-06   1.477177e-01   1.275439e+01   4.641451e-01   1.035729e+04   1.916127e+04  -1.458125e+05   5.217338e+08  -1.389909e+09  -1.455889e+08   1.474304e+05   1.723392e-28   0.000000e+00   0.000000e+00
      488000   4.879990e-06   1.485480e-01   1.275592e+01   4.524796e-01   1.039969e+04   1.904969e+04  -1.458241e+05   5.381433e+08  -1.399573e+09  -1.444545e+08   1.474304e+05   1.757486e-28   0.000000e+00   0.000000e+00
      496000   4.959990e-06   1.493817e-01   1.275744e+01   4.408132e-01   1.044340e+04   1.893734e+04  -1.458356e+05   5.544695e+08  -1.409271e+09  -1.432937e+08   1.474304e+05   1.792139e-28   0.000000e+00   0.000000e+00
      504000   5.039990e-06   1.502190e-01   1.275895e+01   4.291459e-01   1.048840e+04   1.882421e+04  -1.458470e+05   5.707118e+08  -1.419005e+09  -1.421066e+08   1.474304e+05   1.827353e-28   0.000000e+00   0.000000e+00
      512000   5.119990e-06   1.510599e-01   1.276045e+01   4.174777e-01   1.053471e+04   1.871030e+04  -1.458584e+05   5.868694e+08  -1.428778e+09  -1.408928e+08   1.474304e+05   1.863127e-28   0.000000e+00   0.000000e+00
      520000   5.199990e-06   1.519046e-01   1.276194e+01   4.058086e-01   1.058230e+04   1.859560e+04  -1.458696e+05   6.029415e+08  -1.438593e+09  -1.396524e+08   1.474304e+05   1.899464e-28   0.000000e+00   0.000000e+00
      528000   5.279990e-06   1.527531e-01   1.276343e+01   3.941386e-01   1.063163e+04   1.848028e+04  -1.458806e+05   6.305080e+08  -1.445261e+09  -1.371362e+08   1.474304e+05   1.940148e-28   0.000000e+00   0.000000e+00
      536000   5.359990e-06   1.536057e-01   1.276490e+01   3.824677e-01   1.068274e+04   1.836414e+04  -1.458916e+05   6.471818e+08  -1.458155e+09  -1.361567e+08   1.474304e+05   1.985435e-28   0.000000e+00   0.000000e+00
      544000   5.439990e-06   1.544624e-01   1.276636e+01   3.707959e-01   1.073518e+04   1.824697e+04  -1.459024e+05   6.637721e+08  -1.471102e+09  -1.351415e+08   1.474304e+05   2.031438e-28   0.000000e+00   0.000000e+00
      552000   5.519990e-06   1.553233e-01   1.276782e+01   3.591233e-01   1.078894e+04   1.812877e+04  -1.459132e+05   6.802777e+08  -1.484105e+09  -1.340903e+08   1.474304e+05   2.078159e-28   0.000000e+00   0.000000e+00
      560000   5.599990e-06   1.561887e-01   1.276927e+01   3.474498e-01   1.084402e+04   1.800952e+04  -1.459239e+05   6.966974e+08  -1.497166e+09  -1.330026e+08   1.474304e+05   2.125601e-28   0.000000e+00   0.000000e+00
      568000   5.679990e-06   1.570584e-01   1.277070e+01   3.357755e-01   1.090041e+04   1.788922e+04  -1.459345e+05   7.130301e+08  -1.510288e+09  -1.318782e+08   1.474304e+05   2.173767e-28   0.000000e+00   0.000000e+00
      576000   5.759990e-06   1.579328e-01   1.277213e+01   3.241003e-01   1.095811e+04   1.776787e+04  -1.459450e+05   7.292745e+08  -1.523475e+09  -1.307168e+08   1.474304e+05   2.222659e-28   0.000000e+00   0.000000e+00
      584000   5.839990e-06   1.588118e-01   1.277354e+01   3.124243e-01   1.101709e+04   1.764546e+04  -1.459554e+05   7.454296e+08  -1.536729e+09  -1.295180e+08   1.474304e+05   2.272281e-28   0.000000e+00   0.000000e+00
      592000   5.919990e-06   1.596955e-01   1.277495e+01   3.007475e-01   1.107737e+04   1.752199e+04  -1.459657e+05   7.614939e+08  -1.550052e+09  -1.282814e+08   1.474304e+05   2.322634e-28   0.000000e+00   0.000000e+00
      600000   5.999990e-06   1.605842e-01   1.277635e+01   2.890698e-01   1.113866e+04   1.739945e+04  -1.459757e+05   7.738223e+08  -1.536070e+09  -1.240443e+08   1.474304e+05   2.303045e-28   0.000000e+00   0.000000e+00
      608000   6.079990e-06   1.614777e-01   1.277773e+01   2.773913e-01   1.120120e+04   1.727608e+04  -1.459856e+05   7.895542e+08  -1.548233e+09  -1.226387e+08   1.474304e+05   2.350880e-28   0.000000e+00   0.000000e+00
      616000   6.159990e-06   1.623764e-01   1.277911e+01   2.657121e-01   1.126499e+04   1.715173e+04  -1.459953e+05   8.051931e+08  -1.560476e+09  -1.211984e+08   1.474304e+05   2.399398e-28   0.000000e+00   0.000000e+00
      624000   6.239990e-06   1.632802e-01   1.278048e+01   2.540321e-01   1.133003e+04   1.702640e+04  -1.460050e+05   8.207380e+08  -1.572799e+09  -1.197230e+08   1.474304e+05   2.448602e-28   0.000000e+00   0.000000e+00
      632000   6.319990e-06   1.641892e-01   1.278184e+01   2.423513e-01   1.139631e+04   1.690008e+04  -1.460145e+05   8.361877e+08  -1.585206e+09  -1.182122e+08   1.474304e+05   2.498494e-28   0.000000e+00   0.000000e+00
      640000   6.399990e-06   1.651036e-01   1.278318e+01   2.306698e-01   1.146382e+04   1.677277e+04  -1.460239e+05   8.515411e+08  -1.597700e+09  -1.166656e+08   1.474304e+05   2.549079e-28   0.000000e+00   0.000000e+00
      648000   6.479990e-06   1.660235e-01   1.278452e+01   2.189875e-01   1.153255e+04   1.664445e+04  -1.460331e+05   8.667971e+08  -1.610283e+09  -1.150829e+08   1.474304e+05   2.600360e-28   0.000000e+00   0.000000e+00
      656000   6.559990e-06   1.669489e-01   1.278585e+01   2.073045e-01   1.160250e+04   1.651512e+04  -1.460423e+05   8.819546e+08  -1.622957e+09  -1.134636e+08   1.474304e+05   2.652340e-28   0.000000e+00   0.000000e+00
      664000   6.639990e-06   1.678799e-01   1.278716e+01   1.956207e-01   1.167378e+04   1.638363e+04  -1.460514e+05   9.008512e+08  -1.673681e+09  -1.157446e+08   1.474304e+05   2.808342e-28   0.000000e+00   0.000000e+00
      672000   6.719990e-06   1.688167e-01   1.278847e+01   1.839363e-01   1.174643e+04   1.624928e+04  -1.460606e+05   9.155819e+08  -1.684956e+09  -1.138195e+08   1.474304e+05   2.858051e-28   0.000000e+00   0.000000e+00
      680000   6.799990e-06   1.697594e-01   1.278976e+01   1.722511e-01   1.182027e+04   1.611403e+04  -1.460696e+05   9.302045e+08  -1.696331e+09  -1.118611e+08   1.474304e+05   2.908400e-28   0.000000e+00   0.000000e+00
      688000   6.879990e-06   1.707080e-01   1.279105e+01   1.605651e-01   1.189526e+04   1.597787e+04  -1.460785e+05   9.447180e+08  -1.707809e+09  -1.098691e+08   1.474304e+05   2.959393e-28   0.000000e+00   0.000000e+00
      696000   6.959990e-06   1.716626e-01   1.279232e+01   1.488785e-01   1.197142e+04   1.584078e+04  -1.460872e+05   9.591213e+08  -1.719392e+09  -1.078431e+08   1.474304e+05   3.011033e-28   0.000000e+00   0.000000e+00
      704000   7.039990e-06   1.726234e-01   1.279358e+01   1.371912e-01   1.204872e+04   1.570276e+04  -1.460957e+05   9.734135e+08  -1.731082e+09  -1.057828e+08   1.474304e+05   3.063324e-28   0.000000e+00   0.000000e+00
      712000   7.119990e-06   1.735905e-01   1.279483e+01   1.255032e-01   1.212716e+04   1.556380e+04  -1.461041e+05   9.875934e+08  -1.742883e+09  -1.036879e+08   1.474304e+05   3.116270e-28   0.000000e+00   0.000000e+00
      720000   7.199990e-06   1.745638e-01   1.279607e+01   1.138145e-01   1.220673e+04   1.542390e+04  -1.461123e+05   1.001660e+09  -1.754797e+09  -1.015578e+08   1.474304e+05   3.169874e-28   0.000000e+00   0.000000e+00
      728000   7.279990e-06   1.755436e-01   1.279730e+01   1.021252e-01   1.228742e+04   1.528303e+04  -1.461204e+05   1.015612e+09  -1.766825e+09  -9.939225e+07   1.474304e+05   3.224141e-28   0.000000e+00   0.000000e+00
      736000   7.359990e-06   1.765298e-01   1.279852e+01   9.043527e-02   1.236828e+04   1.514157e+04  -1.461283e+05   1.014721e+09  -1.773142e+09  -9.784450e+07   1.474304e+05   3.239823e-28   0.000000e+00   0.000000e+00
      744000   7.439990e-06   1.775225e-01   1.279972e+01   7.874470e-02   1.244998e+04   1.499925e+04  -1.461360e+05   1.027920e+09  -1.784949e+09  -9.563246e+07   1.474304e+05   3.292907e-28   0.000000e+00   0.000000e+00
      752000   7.519990e-06   1.785218e-01   1.280092e+01   6.705351e-02   1.253307e+04   1.485619e+04  -1.461435e+05   1.046108e+09  -1.793151e+09  -9.256992e+07   1.474304e+05   3.344404e-28   0.000000e+00   0.000000e+00
      760000   7.599990e-06   1.795278e-01   1.280210e+01   5.536174e-02   1.261725e+04   1.471228e+04  -1.461508e+05   1.058545e+09  -1.804823e+09  -9.029827e+07   1.474304e+05   3.396880e-28   0.000000e+00   0.000000e+00
      768000   7.679990e-06   1.805406e-01   1.280327e+01   4.366938e-02   1.270243e+04   1.456742e+04  -1.461580e+05   1.070859e+09  -1.816623e+09  -8.799416e+07   1.474304e+05   3.449966e-28   0.000000e+00   0.000000e+00
      776000   7.759990e-06   1.815602e-01   1.280443e+01   3.197647e-02   1.278859e+04   1.442161e+04  -1.461649e+05   1.083048e+09  -1.828554e+09  -8.565720e+07   1.474304e+05   3.503665e-28   0.000000e+00   0.000000e+00
      784000   7.839990e-06   1.825868e-01   1.280558e+01   2.028300e-02   1.287572e+04   1.427485e+04  -1.461717e+05   1.095112e+09  -1.840616e+09  -8.328701e+07   1.474304e+05   3.557983e-28   0.000000e+00   0.000000e+00
      792000   7.919990e-06   1.836204e-01   1.280671e+01   8.589004e-03   1.296380e+04   1.412711e+04  -1.461782e+05   1.107050e+09  -1.852812e+09  -8.088317e+07   1.474304e+05   3.612925e-28   0.000000e+00   0.000000e+00
