     timestep     time              x             y              z              vx             vy             vz             ax             ay             az         v_magnitude      ELoss        Electronic      Nuclear
           0   0.000000e+00   1.000000e-01   4.314296e+00   3.585088e+00   8.345731e+03  -9.856758e+04  -1.093183e+05   0.000000e+00   0.000000e+00   0.000000e+00   1.474304e+05   0.000000e+00   0.000000e+00   0.000000e+00
        8000   7.999000e-08   1.006849e-01   4.306411e+00   3.576343e+00   8.776814e+03  -9.855676e+04  -1.092943e+05   5.378233e+09   1.450821e+08   3.010645e+08   1.474304e+05   2.248848e-27   0.000000e+00   0.000000e+00
       16000   1.599900e-07   1.014042e-01   4.298527e+00   3.567601e+00   9.206260e+03  -9.854448e+04  -1.092700e+05   5.358394e+09   1.572669e+08   3.096246e+08   1.474304e+05   2.233041e-27   0.000000e+00   0.000000e+00
       24000   2.399900e-07   1.021579e-01   4.290644e+00   3.558860e+00   9.634103e+03  -9.853107e+04  -1.092453e+05   5.337677e+09   1.779132e+08   3.102511e+08   1.474304e+05   2.216446e-27   0.000000e+00   0.000000e+00
       32000   3.199900e-07   1.029457e-01   4.282762e+00   3.550122e+00   1.006029e+04  -9.851603e+04  -1.092204e+05   5.316967e+09   1.982554e+08   3.109181e+08   1.474304e+05   2.199981e-27   0.000000e+00   0.000000e+00
       40000   3.999900e-07   1.037675e-01   4.274881e+00   3.541385e+00   1.048482e+04  -9.849936e+04  -1.091955e+05   5.296268e+09   2.182953e+08   3.116261e+08   1.474304e+05   2.183648e-27   0.000000e+00   0.000000e+00
       48000   4.799900e-07   1.046232e-01   4.267002e+00   3.532650e+00   1.090769e+04  -9.848111e+04  -1.091705e+05   5.275580e+09   2.380346e+08   3.123755e+08   1.474304e+05   2.167443e-27   0.000000e+00   0.000000e+00
       56000   5.599900e-07   1.055127e-01   4.259124e+00   3.523918e+00   1.132891e+04  -9.846128e+04  -1.091455e+05   5.254905e+09   2.574750e+08   3.131668e+08   1.474304e+05   2.151366e-27   0.000000e+00   0.000000e+00
       64000   6.399900e-07   1.064358e-01   4.251248e+00   3.515187e+00   1.174848e+04  -9.843992e+04  -1.091204e+05   5.234247e+09   2.766183e+08   3.140004e+08   1.474304e+05   2.135416e-27   0.000000e+00   0.000000e+00
       72000   7.199900e-07   1.073924e-01   4.243374e+00   3.506458e+00   1.216639e+04  -9.841703e+04  -1.090953e+05   5.213605e+09   2.954663e+08   3.148767e+08   1.474304e+05   2.119592e-27   0.000000e+00   0.000000e+00
       80000   7.999900e-07   1.083823e-01   4.235502e+00   3.497732e+00   1.258272e+04  -9.839263e+04  -1.090701e+05   5.196126e+09   3.150613e+08   3.152234e+08   1.474304e+05   2.106444e-27   0.000000e+00   0.000000e+00
       88000   8.799900e-07   1.094056e-01   4.227631e+00   3.489007e+00   1.299751e+04  -9.836670e+04  -1.090448e+05   5.173585e+09   3.331748e+08   3.161101e+08   1.474304e+05   2.089293e-27   0.000000e+00   0.000000e+00
       96000   9.599900e-07   1.104619e-01   4.219763e+00   3.480285e+00   1.341050e+04  -9.833933e+04  -1.090195e+05   5.151070e+09   3.509801e+08   3.170351e+08   1.474304e+05   2.072279e-27   0.000000e+00   0.000000e+00
      104000   1.039990e-06   1.115512e-01   4.211897e+00   3.471564e+00   1.382168e+04  -9.831055e+04  -1.089941e+05   5.128584e+09   3.684793e+08   3.179988e+08   1.474304e+05   2.055399e-27   0.000000e+00   0.000000e+00
      112000   1.119990e-06   1.126733e-01   4.204033e+00   3.462846e+00   1.423107e+04  -9.828038e+04  -1.089686e+05   5.106127e+09   3.856744e+08   3.190017e+08   1.474304e+05   2.038652e-27   0.000000e+00   0.000000e+00
      120000   1.199990e-06   1.138281e-01   4.196172e+00   3.454129e+00   1.463828e+04  -9.824892e+04  -1.089430e+05   5.074310e+09   4.008357e+08   3.203254e+08   1.474304e+05   2.014555e-27   0.000000e+00   0.000000e+00
      128000   1.279990e-06   1.150154e-01   4.188314e+00   3.445415e+00   1.504342e+04  -9.821618e+04  -1.089174e+05   5.054168e+09   4.175469e+08   3.215451e+08   1.474304e+05   1.999875e-27   0.000000e+00   0.000000e+00
      136000   1.359990e-06   1.162350e-01   4.180458e+00   3.436702e+00   1.544695e+04  -9.818212e+04  -1.088916e+05   5.034051e+09   4.339880e+08   3.228036e+08   1.474304e+05   1.985305e-27   0.000000e+00   0.000000e+00
      144000   1.439990e-06   1.174869e-01   4.172605e+00   3.427992e+00   1.584887e+04  -9.814675e+04  -1.088657e+05   5.013960e+09   4.501607e+08   3.241012e+08   1.474304e+05   1.970842e-27   0.000000e+00   0.000000e+00
      152000   1.519990e-06   1.187708e-01   4.164754e+00   3.419284e+00   1.624918e+04  -9.811010e+04  -1.088397e+05   4.993896e+09   4.660666e+08   3.254382e+08   1.474304e+05   1.956487e-27   0.000000e+00   0.000000e+00
      160000   1.599990e-06   1.200867e-01   4.156907e+00   3.410578e+00   1.664789e+04  -9.807219e+04  -1.088136e+05   4.973860e+09   4.817075e+08   3.268149e+08   1.474304e+05   1.942238e-27   0.000000e+00   0.000000e+00
      168000   1.679990e-06   1.214344e-01   4.149063e+00   3.401874e+00   1.704500e+04  -9.803303e+04  -1.087874e+05   4.953855e+09   4.970849e+08   3.282315e+08   1.474304e+05   1.928094e-27   0.000000e+00   0.000000e+00
      176000   1.759990e-06   1.228139e-01   4.141222e+00   3.393172e+00   1.744105e+04  -9.799326e+04  -1.087605e+05   4.942320e+09   5.030110e+08   3.393449e+08   1.474304e+05   1.920287e-27   0.000000e+00   0.000000e+00
      184000   1.839990e-06   1.242249e-01   4.133384e+00   3.384472e+00   1.783561e+04  -9.795238e+04  -1.087333e+05   4.921757e+09   5.189457e+08   3.398254e+08   1.474304e+05   1.905864e-27   0.000000e+00   0.000000e+00
      192000   1.919990e-06   1.256675e-01   4.125549e+00   3.375774e+00   1.822853e+04  -9.791024e+04  -1.087061e+05   4.901231e+09   5.346134e+08   3.403477e+08   1.474304e+05   1.891554e-27   0.000000e+00   0.000000e+00
      200000   1.999990e-06   1.271415e-01   4.117718e+00   3.367079e+00   1.861981e+04  -9.786685e+04  -1.086789e+05   4.880743e+09   5.500158e+08   3.409122e+08   1.474304e+05   1.877356e-27   0.000000e+00   0.000000e+00
      208000   2.079990e-06   1.286466e-01   4.109891e+00   3.358386e+00   1.900945e+04  -9.782224e+04  -1.086516e+05   4.860294e+09   5.651547e+08   3.415191e+08   1.474304e+05   1.863269e-27   0.000000e+00   0.000000e+00
      216000   2.159990e-06   1.301829e-01   4.102067e+00   3.349695e+00   1.939746e+04  -9.777643e+04  -1.086242e+05   4.839887e+09   5.800318e+08   3.421689e+08   1.474304e+05   1.849292e-27   0.000000e+00   0.000000e+00
      224000   2.239990e-06   1.317502e-01   4.094247e+00   3.341006e+00   1.978278e+04  -9.772837e+04  -1.085980e+05   4.802651e+09   6.117656e+08   3.243403e+08   1.474304e+05   1.823493e-27   0.000000e+00   0.000000e+00
      232000   2.319990e-06   1.333481e-01   4.086430e+00   3.332319e+00   2.016629e+04  -9.767898e+04  -1.085719e+05   4.785189e+09   6.229673e+08   3.283400e+08   1.474304e+05   1.811800e-27   0.000000e+00   0.000000e+00
      240000   2.399990e-06   1.349767e-01   4.078618e+00   3.323634e+00   2.054841e+04  -9.762870e+04  -1.085454e+05   4.767773e+09   6.339401e+08   3.323878e+08   1.474304e+05   1.800190e-27   0.000000e+00   0.000000e+00
      248000   2.479990e-06   1.366358e-01   4.070810e+00   3.314952e+00   2.092914e+04  -9.757755e+04  -1.085187e+05   4.750403e+09   6.446855e+08   3.364838e+08   1.474304e+05   1.788662e-27   0.000000e+00   0.000000e+00
      256000   2.559990e-06   1.383254e-01   4.063006e+00   3.306271e+00   2.130848e+04  -9.752556e+04  -1.084916e+05   4.733082e+09   6.552051e+08   3.406281e+08   1.474304e+05   1.777216e-27   0.000000e+00   0.000000e+00
      264000   2.639990e-06   1.400452e-01   4.055206e+00   3.297593e+00   2.168652e+04  -9.747318e+04  -1.084638e+05   4.719465e+09   6.455076e+08   3.635208e+08   1.474304e+05   1.767519e-27   0.000000e+00   0.000000e+00
      272000   2.719990e-06   1.417952e-01   4.047410e+00   3.288917e+00   2.206337e+04  -9.742102e+04  -1.084346e+05   4.701884e+09   6.584762e+08   3.651025e+08   1.474304e+05   1.756090e-27   0.000000e+00   0.000000e+00
      280000   2.799990e-06   1.435753e-01   4.039618e+00   3.280244e+00   2.243882e+04  -9.736783e+04  -1.084054e+05   4.684346e+09   6.712218e+08   3.667305e+08   1.474304e+05   1.744746e-27   0.000000e+00   0.000000e+00
      288000   2.879990e-06   1.453853e-01   4.031831e+00   3.271572e+00   2.281287e+04  -9.731363e+04  -1.083759e+05   4.666851e+09   6.837456e+08   3.684052e+08   1.474304e+05   1.733485e-27   0.000000e+00   0.000000e+00
      296000   2.959990e-06   1.472253e-01   4.024048e+00   3.262904e+00   2.318552e+04  -9.725843e+04  -1.083464e+05   4.649401e+09   6.960491e+08   3.701266e+08   1.474304e+05   1.722308e-27   0.000000e+00   0.000000e+00
      304000   3.039990e-06   1.490950e-01   4.016270e+00   3.254237e+00   2.355677e+04  -9.720226e+04  -1.083167e+05   4.631996e+09   7.081337e+08   3.718950e+08   1.474304e+05   1.711213e-27   0.000000e+00   0.000000e+00
      312000   3.119990e-06   1.509943e-01   4.008496e+00   3.245573e+00   2.392664e+04  -9.714514e+04  -1.082869e+05   4.614638e+09   7.200008e+08   3.737106e+08   1.474304e+05   1.700199e-27   0.000000e+00   0.000000e+00
      320000   3.199990e-06   1.529232e-01   4.000726e+00   3.236911e+00   2.429511e+04  -9.708707e+04  -1.082569e+05   4.597327e+09   7.316518e+08   3.755735e+08   1.474304e+05   1.689267e-27   0.000000e+00   0.000000e+00
      328000   3.279990e-06   1.548815e-01   3.992962e+00   3.228252e+00   2.466157e+04  -9.702678e+04  -1.082281e+05   4.571632e+09   7.597267e+08   3.606233e+08   1.474304e+05   1.673411e-27   0.000000e+00   0.000000e+00
      336000   3.359990e-06   1.568690e-01   3.985202e+00   3.219595e+00   2.502664e+04  -9.696566e+04  -1.081991e+05   4.555196e+09   7.682690e+08   3.651173e+08   1.474304e+05   1.663057e-27   0.000000e+00   0.000000e+00
      344000   3.439990e-06   1.588857e-01   3.977447e+00   3.210940e+00   2.539040e+04  -9.690387e+04  -1.081697e+05   4.538817e+09   7.766050e+08   3.696614e+08   1.474304e+05   1.652777e-27   0.000000e+00   0.000000e+00
      352000   3.519990e-06   1.609315e-01   3.969698e+00   3.202287e+00   2.575286e+04  -9.684141e+04  -1.081399e+05   4.522495e+09   7.847363e+08   3.742558e+08   1.474304e+05   1.642571e-27   0.000000e+00   0.000000e+00
      360000   3.599990e-06   1.630061e-01   3.961953e+00   3.193638e+00   2.611352e+04  -9.677895e+04  -1.081094e+05   4.498191e+09   7.822361e+08   3.862702e+08   1.474304e+05   1.625995e-27   0.000000e+00   0.000000e+00
      368000   3.679990e-06   1.651096e-01   3.954213e+00   3.184990e+00   2.647275e+04  -9.671602e+04  -1.080783e+05   4.482332e+09   7.908024e+08   3.902370e+08   1.474304e+05   1.616247e-27   0.000000e+00   0.000000e+00
      376000   3.759990e-06   1.672417e-01   3.946478e+00   3.176345e+00   2.683070e+04  -9.665242e+04  -1.080469e+05   4.466527e+09   7.991733e+08   3.942527e+08   1.474304e+05   1.606568e-27   0.000000e+00   0.000000e+00
      384000   3.839990e-06   1.694025e-01   3.938749e+00   3.167703e+00   2.718739e+04  -9.658816e+04  -1.080152e+05   4.450776e+09   8.073500e+08   3.983172e+08   1.474304e+05   1.596957e-27   0.000000e+00   0.000000e+00
      392000   3.919990e-06   1.715917e-01   3.931024e+00   3.159063e+00   2.754282e+04  -9.652325e+04  -1.079832e+05   4.435081e+09   8.153341e+08   4.024307e+08   1.474304e+05   1.587414e-27   0.000000e+00   0.000000e+00
      400000   3.999990e-06   1.738093e-01   3.923305e+00   3.150425e+00   2.789701e+04  -9.645771e+04  -1.079508e+05   4.419441e+09   8.231266e+08   4.065930e+08   1.474304e+05   1.577939e-27   0.000000e+00   0.000000e+00
      408000   4.079990e-06   1.760552e-01   3.915591e+00   3.141790e+00   2.824994e+04  -9.639156e+04  -1.079181e+05   4.403858e+09   8.307291e+08   4.108044e+08   1.474304e+05   1.568531e-27   0.000000e+00   0.000000e+00
      416000   4.159990e-06   1.783292e-01   3.907882e+00   3.133158e+00   2.860162e+04  -9.632480e+04  -1.078851e+05   4.388333e+09   8.381427e+08   4.150648e+08   1.474304e+05   1.559190e-27   0.000000e+00   0.000000e+00
      424000   4.239990e-06   1.806314e-01   3.900179e+00   3.124529e+00   2.895207e+04  -9.625746e+04  -1.078517e+05   4.372865e+09   8.453689e+08   4.193744e+08   1.474304e+05   1.549915e-27   0.000000e+00   0.000000e+00
      432000   4.319990e-06   1.829616e-01   3.892481e+00   3.115902e+00   2.930258e+04  -9.618982e+04  -1.078174e+05   4.373377e+09   8.489363e+08   4.312104e+08   1.474304e+05   1.551509e-27   0.000000e+00   0.000000e+00
      440000   4.399990e-06   1.853198e-01   3.884789e+00   3.107278e+00   2.965178e+04  -9.612163e+04  -1.077827e+05   4.356745e+09   8.557355e+08   4.354162e+08   1.474304e+05   1.541444e-27   0.000000e+00   0.000000e+00
      448000   4.479990e-06   1.877058e-01   3.877102e+00   3.098657e+00   2.999909e+04  -9.605260e+04  -1.077482e+05   4.294385e+09   8.863327e+08   4.055093e+08   1.474304e+05   1.501843e-27   0.000000e+00   0.000000e+00
      456000   4.559990e-06   1.901195e-01   3.869420e+00   3.090038e+00   3.034204e+04  -9.598146e+04  -1.077155e+05   4.279596e+09   8.922792e+08   4.104259e+08   1.474304e+05   1.493152e-27   0.000000e+00   0.000000e+00
      464000   4.639990e-06   1.925605e-01   3.861745e+00   3.081422e+00   3.068382e+04  -9.590984e+04  -1.076825e+05   4.264866e+09   8.980504e+08   4.153909e+08   1.474304e+05   1.484522e-27   0.000000e+00   0.000000e+00
      472000   4.719990e-06   1.950289e-01   3.854075e+00   3.072809e+00   3.102442e+04  -9.583778e+04  -1.076491e+05   4.250196e+09   9.036475e+08   4.204044e+08   1.474304e+05   1.475954e-27   0.000000e+00   0.000000e+00
      480000   4.799990e-06   1.975244e-01   3.846411e+00   3.064199e+00   3.136386e+04  -9.576527e+04  -1.076152e+05   4.235587e+09   9.090717e+08   4.254662e+08   1.474304e+05   1.467445e-27   0.000000e+00   0.000000e+00
      488000   4.879990e-06   2.000471e-01   3.838752e+00   3.055591e+00   3.170216e+04  -9.569236e+04  -1.075809e+05   4.251276e+09   8.936857e+08   4.578466e+08   1.474304e+05   1.477825e-27   0.000000e+00   0.000000e+00
      496000   4.959990e-06   2.025968e-01   3.831100e+00   3.046986e+00   3.204152e+04  -9.562054e+04  -1.075443e+05   4.232511e+09   9.018619e+08   4.591539e+08   1.474304e+05   1.466725e-27   0.000000e+00   0.000000e+00
      504000   5.039990e-06   2.051737e-01   3.823453e+00   3.038384e+00   3.237937e+04  -9.554807e+04  -1.075075e+05   4.213816e+09   9.098333e+08   4.605046e+08   1.474304e+05   1.455711e-27   0.000000e+00   0.000000e+00
      512000   5.119990e-06   2.077775e-01   3.815812e+00   3.029784e+00   3.271573e+04  -9.547497e+04  -1.074706e+05   4.195190e+09   9.176015e+08   4.618989e+08   1.474304e+05   1.444780e-27   0.000000e+00   0.000000e+00
      520000   5.199990e-06   2.104081e-01   3.808177e+00   3.021188e+00   3.305060e+04  -9.540126e+04  -1.074336e+05   4.176636e+09   9.251680e+08   4.633370e+08   1.474304e+05   1.433932e-27   0.000000e+00   0.000000e+00
      528000   5.279990e-06   2.130655e-01   3.800548e+00   3.012595e+00   3.338399e+04  -9.532695e+04  -1.073965e+05   4.158153e+09   9.325343e+08   4.648189e+08   1.474304e+05   1.423167e-27   0.000000e+00   0.000000e+00
      536000   5.359990e-06   2.157495e-01   3.792925e+00   3.004005e+00   3.371535e+04  -9.525162e+04  -1.073598e+05   4.134228e+09   9.442641e+08   4.605457e+08   1.474304e+05   1.409201e-27   0.000000e+00   0.000000e+00
      544000   5.439990e-06   2.184600e-01   3.785308e+00   2.995418e+00   3.404630e+04  -9.517703e+04  -1.073215e+05   4.137694e+09   9.230482e+08   4.940297e+08   1.474304e+05   1.410829e-27   0.000000e+00   0.000000e+00
      552000   5.519990e-06   2.211969e-01   3.777696e+00   2.986833e+00   3.437665e+04  -9.510289e+04  -1.072819e+05   4.120986e+09   9.305582e+08   4.955799e+08   1.474304e+05   1.401339e-27   0.000000e+00   0.000000e+00
      560000   5.599990e-06   2.239602e-01   3.770091e+00   2.978252e+00   3.470566e+04  -9.502815e+04  -1.072422e+05   4.104340e+09   9.378925e+08   4.971689e+08   1.474304e+05   1.391919e-27   0.000000e+00   0.000000e+00
      568000   5.679990e-06   2.267498e-01   3.762492e+00   2.969675e+00   3.503334e+04  -9.495283e+04  -1.072023e+05   4.087756e+09   9.450523e+08   4.987968e+08   1.474304e+05   1.382566e-27   0.000000e+00   0.000000e+00
      576000   5.759990e-06   2.295655e-01   3.754899e+00   2.961100e+00   3.535970e+04  -9.487694e+04  -1.071624e+05   4.071233e+09   9.520388e+08   5.004638e+08   1.474304e+05   1.373281e-27   0.000000e+00   0.000000e+00
      584000   5.839990e-06   2.324073e-01   3.747312e+00   2.952529e+00   3.568474e+04  -9.480051e+04  -1.071223e+05   4.054773e+09   9.588534e+08   5.021699e+08   1.474304e+05   1.364063e-27   0.000000e+00   0.000000e+00
      592000   5.919990e-06   2.352750e-01   3.739731e+00   2.943961e+00   3.600847e+04  -9.472353e+04  -1.070820e+05   4.038377e+09   9.654972e+08   5.039153e+08   1.474304e+05   1.354912e-27   0.000000e+00   0.000000e+00
      600000   5.999990e-06   2.381686e-01   3.732156e+00   2.935396e+00   3.633088e+04  -9.464603e+04  -1.070416e+05   4.022043e+09   9.719716e+08   5.057001e+08   1.474304e+05   1.345827e-27   0.000000e+00   0.000000e+00
      608000   6.079990e-06   2.410879e-01   3.724587e+00   2.926834e+00   3.665200e+04  -9.456802e+04  -1.070011e+05   4.005774e+09   9.782776e+08   5.075244e+08   1.474304e+05   1.336808e-27   0.000000e+00   0.000000e+00
      616000   6.159990e-06   2.440329e-01   3.717025e+00   2.918275e+00   3.697181e+04  -9.448951e+04  -1.069604e+05   3.989570e+09   9.844167e+08   5.093883e+08   1.474304e+05   1.327853e-27   0.000000e+00   0.000000e+00
      624000   6.239990e-06   2.470034e-01   3.709469e+00   2.909720e+00   3.729033e+04  -9.441052e+04  -1.069196e+05   3.973430e+09   9.903900e+08   5.112918e+08   1.474304e+05   1.318964e-27   0.000000e+00   0.000000e+00
      632000   6.319990e-06   2.499993e-01   3.701919e+00   2.901168e+00   3.760756e+04  -9.433105e+04  -1.068786e+05   3.957356e+09   9.961987e+08   5.132352e+08   1.474304e+05   1.310139e-27   0.000000e+00   0.000000e+00
      640000   6.399990e-06   2.530205e-01   3.694376e+00   2.892620e+00   3.792279e+04  -9.425146e+04  -1.068374e+05   3.930521e+09   9.950825e+08   5.173111e+08   1.474304e+05   1.293899e-27   0.000000e+00   0.000000e+00
      648000   6.479990e-06   2.560669e-01   3.686839e+00   2.884074e+00   3.823675e+04  -9.417176e+04  -1.067958e+05   3.918351e+09   9.973674e+08   5.234380e+08   1.474304e+05   1.287347e-27   0.000000e+00   0.000000e+00
      656000   6.559990e-06   2.591384e-01   3.679309e+00   2.875532e+00   3.854973e+04  -9.409189e+04  -1.067537e+05   3.906247e+09   9.995157e+08   5.296143e+08   1.474304e+05   1.280848e-27   0.000000e+00   0.000000e+00
      664000   6.639990e-06   2.622349e-01   3.671784e+00   2.866994e+00   3.886175e+04  -9.401184e+04  -1.067111e+05   3.894209e+09   1.001528e+09   5.358401e+08   1.474304e+05   1.274401e-27   0.000000e+00   0.000000e+00
      672000   6.719990e-06   2.653562e-01   3.664267e+00   2.858459e+00   3.917281e+04  -9.393164e+04  -1.066680e+05   3.882237e+09   1.003406e+09   5.421154e+08   1.474304e+05   1.268006e-27   0.000000e+00   0.000000e+00
      680000   6.799990e-06   2.685025e-01   3.656755e+00   2.849927e+00   3.948291e+04  -9.385130e+04  -1.066243e+05   3.870332e+09   1.005151e+09   5.484402e+08   1.474304e+05   1.261664e-27   0.000000e+00   0.000000e+00
      688000   6.879990e-06   2.716735e-01   3.649250e+00   2.841399e+00   3.979206e+04  -9.377082e+04  -1.065802e+05   3.858494e+09   1.006763e+09   5.548145e+08   1.474304e+05   1.255374e-27   0.000000e+00   0.000000e+00
      696000   6.959990e-06   2.748692e-01   3.641752e+00   2.832874e+00   4.010027e+04  -9.369022e+04  -1.065356e+05   3.846723e+09   1.008244e+09   5.612384e+08   1.474304e+05   1.249136e-27   0.000000e+00   0.000000e+00
      704000   7.039990e-06   2.780895e-01   3.634260e+00   2.824353e+00   4.040754e+04  -9.360951e+04  -1.064904e+05   3.835019e+09   1.009595e+09   5.677117e+08   1.474304e+05   1.242950e-27   0.000000e+00   0.000000e+00
      712000   7.119990e-06   2.813344e-01   3.626775e+00   2.815836e+00   4.071387e+04  -9.352869e+04  -1.064447e+05   3.823383e+09   1.010816e+09   5.742345e+08   1.474304e+05   1.236816e-27   0.000000e+00   0.000000e+00
      720000   7.199990e-06   2.846037e-01   3.619295e+00   2.807322e+00   4.101928e+04  -9.344778e+04  -1.063985e+05   3.811814e+09   1.011910e+09   5.808069e+08   1.474304e+05   1.230734e-27   0.000000e+00   0.000000e+00
      728000   7.279990e-06   2.878974e-01   3.611823e+00   2.798812e+00   4.132396e+04  -9.336693e+04  -1.063516e+05   3.817975e+09   1.000229e+09   6.054009e+08   1.474304e+05   1.234814e-27   0.000000e+00   0.000000e+00
      736000   7.359990e-06   2.912155e-01   3.604357e+00   2.790306e+00   4.162887e+04  -9.328686e+04  -1.063029e+05   3.804604e+09   1.001498e+09   6.110329e+08   1.474304e+05   1.227648e-27   0.000000e+00   0.000000e+00
      744000   7.439990e-06   2.945580e-01   3.596897e+00   2.781803e+00   4.193155e+04  -9.320613e+04  -1.062548e+05   3.757041e+09   1.019395e+09   5.884397e+08   1.474304e+05   1.200496e-27   0.000000e+00   0.000000e+00
      752000   7.519990e-06   2.979245e-01   3.589444e+00   2.773305e+00   4.223166e+04  -9.312457e+04  -1.062074e+05   3.745818e+09   1.019482e+09   5.955629e+08   1.474304e+05   1.194642e-27   0.000000e+00   0.000000e+00
      760000   7.599990e-06   3.013151e-01   3.581997e+00   2.764810e+00   4.253172e+04  -9.304338e+04  -1.061588e+05   3.761161e+09   1.007831e+09   6.235607e+08   1.474304e+05   1.204376e-27   0.000000e+00   0.000000e+00
      768000   7.679990e-06   3.047296e-01   3.574557e+00   2.756320e+00   4.283207e+04  -9.296273e+04  -1.061087e+05   3.747791e+09   1.008435e+09   6.293415e+08   1.474304e+05   1.197256e-27   0.000000e+00   0.000000e+00
      776000   7.759990e-06   3.081682e-01   3.567123e+00   2.747833e+00   4.313136e+04  -9.288203e+04  -1.060581e+05   3.734494e+09   1.008901e+09   6.351698e+08   1.474304e+05   1.190195e-27   0.000000e+00   0.000000e+00
      784000   7.839990e-06   3.116306e-01   3.559696e+00   2.739350e+00   4.342959e+04  -9.280131e+04  -1.060071e+05   3.721272e+09   1.009230e+09   6.410454e+08   1.474304e+05   1.183192e-27   0.000000e+00   0.000000e+00
      792000   7.919990e-06   3.151169e-01   3.552275e+00   2.730872e+00   4.372677e+04  -9.272056e+04  -1.059556e+05   3.708125e+09   1.009423e+09   6.469684e+08   1.474304e+05   1.176248e-27   0.000000e+00   0.000000e+00
      800000   7.999990e-06   3.186269e-01   3.544860e+00   2.722397e+00   4.402290e+04  -9.263980e+04  -1.059036e+05   3.695052e+09   1.009481e+09   6.529388e+08   1.474304e+05   1.169363e-27   0.000000e+00   0.000000e+00
      808000   8.079990e-06   3.221605e-01   3.537452e+00   2.713927e+00   4.431798e+04  -9.255905e+04  -1.058511e+05   3.682053e+09   1.009407e+09   6.589566e+08   1.474304e+05   1.162536e-27   0.000000e+00   0.000000e+00
      816000   8.159990e-06   3.257177e-01   3.530051e+00   2.705461e+00   4.461203e+04  -9.247830e+04  -1.057981e+05   3.669129e+09   1.009199e+09   6.650219e+08   1.474304e+05   1.155767e-27   0.000000e+00   0.000000e+00
      824000   8.239990e-06   3.292984e-01   3.522656e+00   2.696999e+00   4.490483e+04  -9.239734e+04  -1.057450e+05   3.648637e+09   1.017417e+09   6.604060e+08   1.474304e+05   1.144969e-27   0.000000e+00   0.000000e+00
      832000   8.319990e-06   3.329024e-01   3.515267e+00   2.688542e+00   4.519618e+04  -9.231594e+04  -1.056920e+05   3.635235e+09   1.017686e+09   6.656128e+08   1.474304e+05   1.137986e-27   0.000000e+00   0.000000e+00
      840000   8.399990e-06   3.365298e-01   3.507885e+00   2.680089e+00   4.548647e+04  -9.223451e+04  -1.056385e+05   3.621903e+09   1.017827e+09   6.708602e+08   1.474304e+05   1.131058e-27   0.000000e+00   0.000000e+00
      848000   8.479990e-06   3.401802e-01   3.500510e+00   2.671640e+00   4.577569e+04  -9.215309e+04  -1.055846e+05   3.608642e+09   1.017840e+09   6.761481e+08   1.474304e+05   1.124186e-27   0.000000e+00   0.000000e+00
      856000   8.559990e-06   3.438538e-01   3.493141e+00   2.663195e+00   4.606397e+04  -9.207255e+04  -1.055295e+05   3.596913e+09   1.006753e+09   6.916901e+08   1.474304e+05   1.117549e-27   0.000000e+00   0.000000e+00
      864000   8.639990e-06   3.475505e-01   3.485778e+00   2.654755e+00   4.635119e+04  -9.199194e+04  -1.054740e+05   3.583434e+09   1.008425e+09   6.952353e+08   1.474304e+05   1.110695e-27   0.000000e+00   0.000000e+00
      872000   8.719990e-06   3.512700e-01   3.478422e+00   2.646319e+00   4.663732e+04  -9.191120e+04  -1.054182e+05   3.570021e+09   1.009972e+09   6.988194e+08   1.474304e+05   1.103893e-27   0.000000e+00   0.000000e+00
      880000   8.799990e-06   3.550124e-01   3.471072e+00   2.637888e+00   4.692239e+04  -9.183035e+04  -1.053622e+05   3.556676e+09   1.011395e+09   7.024425e+08   1.474304e+05   1.097143e-27   0.000000e+00   0.000000e+00
      888000   8.879990e-06   3.587776e-01   3.463729e+00   2.629461e+00   4.720639e+04  -9.174938e+04  -1.053059e+05   3.543398e+09   1.012693e+09   7.061047e+08   1.474304e+05   1.090445e-27   0.000000e+00   0.000000e+00
      896000   8.959990e-06   3.625654e-01   3.456393e+00   2.621039e+00   4.748934e+04  -9.166832e+04  -1.052492e+05   3.530188e+09   1.013868e+09   7.098060e+08   1.474304e+05   1.083798e-27   0.000000e+00   0.000000e+00
      904000   9.039990e-06   3.663758e-01   3.449062e+00   2.612622e+00   4.777123e+04  -9.158717e+04  -1.051923e+05   3.517045e+09   1.014922e+09   7.135463e+08   1.474304e+05   1.077202e-27   0.000000e+00   0.000000e+00
      912000   9.119990e-06   3.702088e-01   3.441739e+00   2.604209e+00   4.805207e+04  -9.150593e+04  -1.051351e+05   3.503970e+09   1.015855e+09   7.173259e+08   1.474304e+05   1.070658e-27   0.000000e+00   0.000000e+00
      920000   9.199990e-06   3.740641e-01   3.434421e+00   2.595800e+00   4.833203e+04  -9.142453e+04  -1.050775e+05   3.495233e+09   1.019411e+09   7.207294e+08   1.474304e+05   1.066862e-27   0.000000e+00   0.000000e+00
      928000   9.279990e-06   3.779419e-01   3.427111e+00   2.587396e+00   4.861114e+04  -9.134292e+04  -1.050197e+05   3.482374e+09   1.020943e+09   7.239220e+08   1.474304e+05   1.060513e-27   0.000000e+00   0.000000e+00
      936000   9.359990e-06   3.818419e-01   3.419807e+00   2.578997e+00   4.888921e+04  -9.126118e+04  -1.049617e+05   3.469583e+09   1.022357e+09   7.271558e+08   1.474304e+05   1.054213e-27   0.000000e+00   0.000000e+00
      944000   9.439990e-06   3.857641e-01   3.412509e+00   2.570602e+00   4.916627e+04  -9.117934e+04  -1.049034e+05   3.456859e+09   1.023654e+09   7.304306e+08   1.474304e+05   1.047962e-27   0.000000e+00   0.000000e+00
      952000   9.519990e-06   3.897085e-01   3.405218e+00   2.562212e+00   4.944231e+04  -9.109740e+04  -1.048448e+05   3.444202e+09   1.024833e+09   7.337466e+08   1.474304e+05   1.041761e-27   0.000000e+00   0.000000e+00
      960000   9.599990e-06   3.936748e-01   3.397933e+00   2.553827e+00   4.971683e+04  -9.101515e+04  -1.047864e+05   3.408973e+09   1.035458e+09   7.180397e+08   1.474304e+05   1.022991e-27   0.000000e+00   0.000000e+00
      968000   9.679990e-06   3.976631e-01   3.390655e+00   2.545446e+00   4.998911e+04  -9.093229e+04  -1.047288e+05   3.398076e+09   1.036125e+09   7.223366e+08   1.474304e+05   1.017833e-27   0.000000e+00   0.000000e+00
      976000   9.759990e-06   4.016731e-01   3.383384e+00   2.537071e+00   5.026116e+04  -9.084970e+04  -1.046703e+05   3.406017e+09   1.027167e+09   7.439786e+08   1.474304e+05   1.023044e-27   0.000000e+00   0.000000e+00
      984000   9.839990e-06   4.057049e-01   3.376119e+00   2.528699e+00   5.053314e+04  -9.076748e+04  -1.046106e+05   3.393494e+09   1.028350e+09   7.469899e+08   1.474304e+05   1.016986e-27   0.000000e+00   0.000000e+00
      992000   9.919990e-06   4.097584e-01   3.368861e+00   2.520333e+00   5.080412e+04  -9.068517e+04  -1.045507e+05   3.381037e+09   1.029420e+09   7.500408e+08   1.474304e+05   1.010974e-27   0.000000e+00   0.000000e+00
     1000000   9.999990e-06   4.138335e-01   3.361610e+00   2.511971e+00   5.107410e+04  -9.060277e+04  -1.044906e+05   3.368645e+09   1.030380e+09   7.531312e+08   1.474304e+05   1.005009e-27   0.000000e+00   0.000000e+00
     1008000   1.007999e-05   4.179302e-01   3.354365e+00   2.503614e+00   5.134310e+04  -9.052031e+04  -1.044302e+05   3.356319e+09   1.031229e+09   7.562612e+08   1.474304e+05   9.990907e-28   0.000000e+00   0.000000e+00
     1016000   1.015999e-05   4.220484e-01   3.347127e+00   2.495262e+00   5.161102e+04  -9.043780e+04  -1.043696e+05   3.341911e+09   1.031341e+09   7.589100e+08   1.474304e+05   9.919452e-28   0.000000e+00   0.000000e+00
     1024000   1.023999e-05   4.261879e-01   3.339895e+00   2.486915e+00   5.187787e+04  -9.035530e+04  -1.043088e+05   3.329343e+09   1.031081e+09   7.626921e+08   1.474304e+05   9.858555e-28   0.000000e+00   0.000000e+00
     1032000   1.031999e-05   4.303488e-01   3.332670e+00   2.478573e+00   5.214372e+04  -9.027283e+04  -1.042476e+05   3.316840e+09   1.030716e+09   7.665083e+08   1.474304e+05   9.798139e-28   0.000000e+00   0.000000e+00
     1040000   1.039999e-05   4.345309e-01   3.325451e+00   2.470236e+00   5.240857e+04  -9.019039e+04  -1.041861e+05   3.304405e+09   1.030246e+09   7.703585e+08   1.474304e+05   9.738204e-28   0.000000e+00   0.000000e+00
     1048000   1.047999e-05   4.387341e-01   3.318239e+00   2.461903e+00   5.267243e+04  -9.010799e+04  -1.041244e+05   3.292036e+09   1.029674e+09   7.742428e+08   1.474304e+05   9.678747e-28   0.000000e+00   0.000000e+00
     1056000   1.055999e-05   4.429585e-01   3.311034e+00   2.453576e+00   5.293530e+04  -9.002564e+04  -1.040623e+05   3.279733e+09   1.028999e+09   7.781612e+08   1.474304e+05   9.619767e-28   0.000000e+00   0.000000e+00
     1064000   1.063999e-05   4.472038e-01   3.303835e+00   2.445253e+00   5.319719e+04  -8.994335e+04  -1.039999e+05   3.267498e+09   1.028223e+09   7.821139e+08   1.474304e+05   9.561263e-28   0.000000e+00   0.000000e+00
     1072000   1.071999e-05   4.514700e-01   3.296643e+00   2.436936e+00   5.345743e+04  -8.986073e+04  -1.039378e+05   3.237851e+09   1.037841e+09   7.680167e+08   1.474304e+05   9.410362e-28   0.000000e+00   0.000000e+00
     1080000   1.079999e-05   4.557569e-01   3.289457e+00   2.428623e+00   5.371605e+04  -8.977776e+04  -1.038762e+05   3.227690e+09   1.036343e+09   7.734027e+08   1.474304e+05   9.363506e-28   0.000000e+00   0.000000e+00
     1088000   1.087999e-05   4.600645e-01   3.282279e+00   2.420316e+00   5.397386e+04  -8.969492e+04  -1.038141e+05   3.217587e+09   1.034759e+09   7.788232e+08   1.474304e+05   9.317049e-28   0.000000e+00   0.000000e+00
     1096000   1.095999e-05   4.643927e-01   3.275106e+00   2.412013e+00   5.423087e+04  -8.961221e+04  -1.037515e+05   3.207541e+09   1.033091e+09   7.842780e+08   1.474304e+05   9.270991e-28   0.000000e+00   0.000000e+00
     1104000   1.103999e-05   4.687414e-01   3.267941e+00   2.403715e+00   5.448707e+04  -8.952963e+04  -1.036886e+05   3.197553e+09   1.031338e+09   7.897672e+08   1.474304e+05   9.225331e-28   0.000000e+00   0.000000e+00
     1112000   1.111999e-05   4.731106e-01   3.260782e+00   2.395423e+00   5.474340e+04  -8.944835e+04  -1.036237e+05   3.208564e+09   1.003407e+09   8.289073e+08   1.474304e+05   9.285013e-28   0.000000e+00   0.000000e+00
     1120000   1.119999e-05   4.775004e-01   3.253629e+00   2.387136e+00   5.499969e+04  -8.936813e+04  -1.035572e+05   3.198758e+09   1.002107e+09   8.340722e+08   1.474304e+05   9.240988e-28   0.000000e+00   0.000000e+00
     1128000   1.127999e-05   4.819106e-01   3.246483e+00   2.378854e+00   5.525520e+04  -8.928802e+04  -1.034902e+05   3.189012e+09   1.000723e+09   8.392756e+08   1.474304e+05   9.197368e-28   0.000000e+00   0.000000e+00
     1136000   1.135999e-05   4.863412e-01   3.239343e+00   2.370577e+00   5.550994e+04  -8.920802e+04  -1.034229e+05   3.179325e+09   9.992551e+08   8.445173e+08   1.474304e+05   9.154152e-28   0.000000e+00   0.000000e+00
     1144000   1.143999e-05   4.907921e-01   3.232209e+00   2.362306e+00   5.576390e+04  -8.912814e+04  -1.033551e+05   3.169696e+09   9.977049e+08   8.497975e+08   1.474304e+05   9.111339e-28   0.000000e+00   0.000000e+00
     1152000   1.151999e-05   4.952634e-01   3.225082e+00   2.354040e+00   5.601709e+04  -8.904839e+04  -1.032869e+05   3.160127e+09   9.960727e+08   8.551162e+08   1.474304e+05   9.068929e-28   0.000000e+00   0.000000e+00
     1160000   1.159999e-05   4.997549e-01   3.217962e+00   2.345780e+00   5.626952e+04  -8.896877e+04  -1.032183e+05   3.150616e+09   9.943594e+08   8.604734e+08   1.474304e+05   9.026922e-28   0.000000e+00   0.000000e+00
     1168000   1.167999e-05   5.042665e-01   3.210847e+00   2.337525e+00   5.652053e+04  -8.888843e+04  -1.031503e+05   3.133228e+09   1.003027e+09   8.524847e+08   1.474304e+05   8.945106e-28   0.000000e+00   0.000000e+00
     1176000   1.175999e-05   5.087981e-01   3.203739e+00   2.329276e+00   5.677088e+04  -8.880834e+04  -1.030818e+05   3.125565e+09   9.992573e+08   8.604675e+08   1.474304e+05   8.912707e-28   0.000000e+00   0.000000e+00
     1184000   1.183999e-05   5.133498e-01   3.196638e+00   2.321032e+00   5.702082e+04  -8.872885e+04  -1.030123e+05   3.122772e+09   9.882555e+08   8.773332e+08   1.474304e+05   8.904957e-28   0.000000e+00   0.000000e+00
     1192000   1.191999e-05   5.179214e-01   3.189543e+00   2.312794e+00   5.727026e+04  -8.864984e+04  -1.029419e+05   3.113229e+09   9.869186e+08   8.821006e+08   1.474304e+05   8.863320e-28   0.000000e+00   0.000000e+00
     1200000   1.199999e-05   5.225130e-01   3.182454e+00   2.304562e+00   5.751894e+04  -8.857094e+04  -1.028712e+05   3.103744e+09   9.855027e+08   8.869058e+08   1.474304e+05   8.822071e-28   0.000000e+00   0.000000e+00
     1208000   1.207999e-05   5.271244e-01   3.175371e+00   2.296335e+00   5.776690e+04  -8.849222e+04  -1.027999e+05   3.095531e+09   9.820306e+08   8.941354e+08   1.474304e+05   8.787322e-28   0.000000e+00   0.000000e+00
     1216000   1.215999e-05   5.317557e-01   3.168295e+00   2.288114e+00   5.801418e+04  -8.841377e+04  -1.027282e+05   3.086519e+09   9.792790e+08   9.002398e+08   1.474304e+05   8.748474e-28   0.000000e+00   0.000000e+00
     1224000   1.223999e-05   5.364067e-01   3.161225e+00   2.279898e+00   5.826074e+04  -8.833554e+04  -1.026559e+05   3.077564e+09   9.764521e+08   9.063835e+08   1.474304e+05   8.710038e-28   0.000000e+00   0.000000e+00
     1232000   1.231999e-05   5.410774e-01   3.154162e+00   2.271689e+00   5.850659e+04  -8.825754e+04  -1.025831e+05   3.068667e+09   9.735505e+08   9.125665e+08   1.474304e+05   8.672015e-28   0.000000e+00   0.000000e+00
     1240000   1.239999e-05   5.457677e-01   3.147104e+00   2.263485e+00   5.875173e+04  -8.817978e+04  -1.025099e+05   3.059827e+09   9.705750e+08   9.187888e+08   1.474304e+05   8.634405e-28   0.000000e+00   0.000000e+00
     1248000   1.247999e-05   5.504777e-01   3.140053e+00   2.255287e+00   5.899617e+04  -8.810225e+04  -1.024361e+05   3.051045e+09   9.675263e+08   9.250505e+08   1.474304e+05   8.597208e-28   0.000000e+00   0.000000e+00
     1256000   1.255999e-05   5.552071e-01   3.133008e+00   2.247095e+00   5.923990e+04  -8.802497e+04  -1.023619e+05   3.042320e+09   9.644052e+08   9.313516e+08   1.474304e+05   8.560424e-28   0.000000e+00   0.000000e+00
     1264000   1.263999e-05   5.599560e-01   3.125969e+00   2.238909e+00   5.948294e+04  -8.794795e+04  -1.022871e+05   3.033653e+09   9.612122e+08   9.376921e+08   1.474304e+05   8.524053e-28   0.000000e+00   0.000000e+00
     1272000   1.271999e-05   5.647244e-01   3.118936e+00   2.230729e+00   5.972529e+04  -8.787118e+04  -1.022118e+05   3.025042e+09   9.579483e+08   9.440720e+08   1.474304e+05   8.488096e-28   0.000000e+00   0.000000e+00
     1280000   1.279999e-05   5.695120e-01   3.111909e+00   2.222555e+00   5.996695e+04  -8.779468e+04  -1.021361e+05   3.016488e+09   9.546140e+08   9.504914e+08   1.474304e+05   8.452553e-28   0.000000e+00   0.000000e+00
     1288000   1.287999e-05   5.743190e-01   3.104889e+00   2.214387e+00   6.020793e+04  -8.771844e+04  -1.020598e+05   3.007991e+09   9.512101e+08   9.569502e+08   1.474304e+05   8.417424e-28   0.000000e+00   0.000000e+00
     1296000   1.295999e-05   5.791453e-01   3.097874e+00   2.206226e+00   6.044804e+04  -8.764220e+04  -1.019833e+05   2.991765e+09   9.599017e+08   9.483739e+08   1.474304e+05   8.342235e-28   0.000000e+00   0.000000e+00
     1304000   1.303999e-05   5.839907e-01   3.090866e+00   2.198070e+00   6.068772e+04  -8.756642e+04  -1.019060e+05   3.019325e+09   9.090660e+08   1.016939e+09   1.474304e+05   8.501321e-28   0.000000e+00   0.000000e+00
     1312000   1.311999e-05   5.888554e-01   3.083864e+00   2.189921e+00   6.092885e+04  -8.749375e+04  -1.018245e+05   3.008911e+09   9.074725e+08   1.020690e+09   1.474304e+05   8.456379e-28   0.000000e+00   0.000000e+00
     1320000   1.319999e-05   5.937393e-01   3.076867e+00   2.181778e+00   6.116915e+04  -8.742122e+04  -1.017427e+05   2.998557e+09   9.057975e+08   1.024478e+09   1.474304e+05   8.411851e-28   0.000000e+00   0.000000e+00
     1328000   1.327999e-05   5.986424e-01   3.069876e+00   2.173642e+00   6.140862e+04  -8.734883e+04  -1.016606e+05   2.988262e+09   9.040417e+08   1.028303e+09   1.474304e+05   8.367737e-28   0.000000e+00   0.000000e+00
     1336000   1.335999e-05   6.035646e-01   3.062891e+00   2.165512e+00   6.164545e+04  -8.727416e+04  -1.015814e+05   2.947186e+09   9.429255e+08   9.784029e+08   1.474304e+05   8.156986e-28   0.000000e+00   0.000000e+00
     1344000   1.343999e-05   6.085057e-01   3.055912e+00   2.157389e+00   6.188089e+04  -8.719892e+04  -1.015028e+05   2.938683e+09   9.381229e+08   9.856370e+08   1.474304e+05   8.122232e-28   0.000000e+00   0.000000e+00
     1352000   1.351999e-05   6.134655e-01   3.048939e+00   2.149272e+00   6.211564e+04  -8.712406e+04  -1.014237e+05   2.930232e+09   9.332598e+08   9.929018e+08   1.474304e+05   8.087902e-28   0.000000e+00   0.000000e+00
     1360000   1.359999e-05   6.184442e-01   3.041973e+00   2.141161e+00   6.234973e+04  -8.704960e+04  -1.013439e+05   2.921832e+09   9.283370e+08   1.000197e+09   1.474304e+05   8.053994e-28   0.000000e+00   0.000000e+00
     1368000   1.367999e-05   6.234415e-01   3.035012e+00   2.133057e+00   6.258314e+04  -8.697553e+04  -1.012636e+05   2.913483e+09   9.233551e+08   1.007524e+09   1.474304e+05   8.020511e-28   0.000000e+00   0.000000e+00
     1376000   1.375999e-05   6.284574e-01   3.028056e+00   2.124959e+00   6.281589e+04  -8.690186e+04  -1.011827e+05   2.905185e+09   9.183147e+08   1.014881e+09   1.474304e+05   7.987453e-28   0.000000e+00   0.000000e+00
     1384000   1.383999e-05   6.334920e-01   3.021107e+00   2.116868e+00   6.304797e+04  -8.682860e+04  -1.011013e+05   2.896938e+09   9.132167e+08   1.022269e+09   1.474304e+05   7.954819e-28   0.000000e+00   0.000000e+00
     1392000   1.391999e-05   6.385451e-01   3.014164e+00   2.108783e+00   6.327940e+04  -8.675575e+04  -1.010192e+05   2.888742e+09   9.080615e+08   1.029687e+09   1.474304e+05   7.922610e-28   0.000000e+00   0.000000e+00
     1400000   1.399999e-05   6.436167e-01   3.007226e+00   2.100705e+00   6.351017e+04  -8.668331e+04  -1.009365e+05   2.880596e+09   9.028500e+08   1.037137e+09   1.474304e+05   7.890826e-28   0.000000e+00   0.000000e+00
     1408000   1.407999e-05   6.487067e-01   3.000294e+00   2.092633e+00   6.374122e+04  -8.661234e+04  -1.008518e+05   2.884366e+09   8.846693e+08   1.063240e+09   1.474304e+05   7.924955e-28   0.000000e+00   0.000000e+00
     1416000   1.415999e-05   6.538151e-01   2.993368e+00   2.084568e+00   6.396856e+04  -8.653896e+04  -1.007708e+05   2.836576e+09   9.161130e+08   1.013906e+09   1.474304e+05   7.677697e-28   0.000000e+00   0.000000e+00
     1424000   1.423999e-05   6.589417e-01   2.986448e+00   2.076510e+00   6.419521e+04  -8.646589e+04  -1.006893e+05   2.829800e+09   9.108256e+08   1.021997e+09   1.474304e+05   7.653239e-28   0.000000e+00   0.000000e+00
     1432000   1.431999e-05   6.640864e-01   2.979534e+00   2.068458e+00   6.442132e+04  -8.639323e+04  -1.006073e+05   2.823072e+09   9.054880e+08   1.030124e+09   1.474304e+05   7.629190e-28   0.000000e+00   0.000000e+00
     1440000   1.439999e-05   6.692491e-01   2.972625e+00   2.060413e+00   6.464690e+04  -8.632101e+04  -1.005245e+05   2.816391e+09   9.001009e+08   1.038286e+09   1.474304e+05   7.605551e-28   0.000000e+00   0.000000e+00
     1448000   1.447999e-05   6.744298e-01   2.965722e+00   2.052374e+00   6.487195e+04  -8.624922e+04  -1.004411e+05   2.809756e+09   8.946648e+08   1.046485e+09   1.474304e+05   7.582323e-28   0.000000e+00   0.000000e+00
     1456000   1.455999e-05   6.796286e-01   2.958825e+00   2.044342e+00   6.509647e+04  -8.617786e+04  -1.003571e+05   2.803168e+09   8.891805e+08   1.054719e+09   1.474304e+05   7.559507e-28   0.000000e+00   0.000000e+00
     1464000   1.463999e-05   6.848453e-01   2.951934e+00   2.036317e+00   6.532046e+04  -8.610695e+04  -1.002724e+05   2.796626e+09   8.836485e+08   1.062990e+09   1.474304e+05   7.537103e-28   0.000000e+00   0.000000e+00
     1472000   1.471999e-05   6.900798e-01   2.945048e+00   2.028299e+00   6.554393e+04  -8.603648e+04  -1.001870e+05   2.790130e+09   8.780694e+08   1.071296e+09   1.474304e+05   7.515113e-28   0.000000e+00   0.000000e+00
     1480000   1.479999e-05   6.953323e-01   2.938168e+00   2.020287e+00   6.576688e+04  -8.596646e+04  -1.001010e+05   2.783679e+09   8.724439e+08   1.079639e+09   1.474304e+05   7.493538e-28   0.000000e+00   0.000000e+00
     1488000   1.487999e-05   7.006025e-01   2.931294e+00   2.012282e+00   6.598941e+04  -8.589697e+04  -1.000141e+05   2.787725e+09   8.578593e+08   1.102571e+09   1.474304e+05   7.530210e-28   0.000000e+00   0.000000e+00
     1496000   1.495999e-05   7.058906e-01   2.924425e+00   2.004285e+00   6.621207e+04  -8.582848e+04  -9.992572e+04   2.778826e+09   8.545230e+08   1.107316e+09   1.474304e+05   7.495540e-28   0.000000e+00   0.000000e+00
     1504000   1.503999e-05   7.111964e-01   2.917561e+00   1.996294e+00   6.643393e+04  -8.576029e+04  -9.983698e+04   2.767693e+09   8.499123e+08   1.111611e+09   1.474304e+05   7.449011e-28   0.000000e+00   0.000000e+00
     1512000   1.511999e-05   7.165200e-01   2.910703e+00   1.988311e+00   6.665504e+04  -8.569247e+04  -9.974779e+04   2.760166e+09   8.454902e+08   1.118087e+09   1.474304e+05   7.422164e-28   0.000000e+00   0.000000e+00
     1520000   1.519999e-05   7.218612e-01   2.903850e+00   1.980335e+00   6.687556e+04  -8.562501e+04  -9.965808e+04   2.752688e+09   8.410136e+08   1.124601e+09   1.474304e+05   7.395703e-28   0.000000e+00   0.000000e+00
     1528000   1.527999e-05   7.272201e-01   2.897003e+00   1.972366e+00   6.709519e+04  -8.555766e+04  -9.956826e+04   2.737173e+09   8.433959e+08   1.119755e+09   1.474304e+05   7.324424e-28   0.000000e+00   0.000000e+00
     1536000   1.535999e-05   7.325964e-01   2.890161e+00   1.964404e+00   6.731389e+04  -8.549040e+04  -9.947838e+04   2.730432e+09   8.381810e+08   1.127275e+09   1.474304e+05   7.302171e-28   0.000000e+00   0.000000e+00
     1544000   1.543999e-05   7.379903e-01   2.883324e+00   1.956449e+00   6.753206e+04  -8.542356e+04  -9.938790e+04   2.723734e+09   8.329214e+08   1.134828e+09   1.474304e+05   7.280302e-28   0.000000e+00   0.000000e+00
     1552000   1.551999e-05   7.434016e-01   2.876493e+00   1.948502e+00   6.774969e+04  -8.535714e+04  -9.929681e+04   2.717079e+09   8.276178e+08   1.142414e+09   1.474304e+05   7.258818e-28   0.000000e+00   0.000000e+00
     1560000   1.559999e-05   7.488302e-01   2.869667e+00   1.940562e+00   6.796679e+04  -8.529114e+04  -9.920511e+04   2.710467e+09   8.222706e+08   1.150034e+09   1.474304e+05   7.237721e-28   0.000000e+00   0.000000e+00
     1568000   1.567999e-05   7.542762e-01   2.862847e+00   1.932629e+00   6.818337e+04  -8.522557e+04  -9.911280e+04   2.703897e+09   8.168804e+08   1.157687e+09   1.474304e+05   7.217010e-28   0.000000e+00   0.000000e+00
     1576000   1.575999e-05   7.597395e-01   2.856031e+00   1.924704e+00   6.839942e+04  -8.516044e+04  -9.901988e+04   2.697370e+09   8.114478e+08   1.165374e+09   1.474304e+05   7.196686e-28   0.000000e+00   0.000000e+00
     1584000   1.583999e-05   7.652201e-01   2.849221e+00   1.916786e+00   6.861495e+04  -8.509574e+04  -9.892634e+04   2.690886e+09   8.059733e+08   1.173095e+09   1.474304e+05   7.176750e-28   0.000000e+00   0.000000e+00
     1592000   1.591999e-05   7.707179e-01   2.842416e+00   1.908875e+00   6.882996e+04  -8.503149e+04  -9.883218e+04   2.684443e+09   8.004575e+08   1.180849e+09   1.474304e+05   7.157202e-28   0.000000e+00   0.000000e+00
     1600000   1.599999e-05   7.762329e-01   2.835616e+00   1.900973e+00   6.904446e+04  -8.496767e+04  -9.873740e+04   2.678042e+09   7.949010e+08   1.188637e+09   1.474304e+05   7.138044e-28   0.000000e+00   0.000000e+00
     1608000   1.607999e-05   7.817651e-01   2.828821e+00   1.893078e+00   6.925986e+04  -8.490555e+04  -9.863993e+04   2.691295e+09   7.722731e+08   1.224944e+09   1.474304e+05   7.233559e-28   0.000000e+00   0.000000e+00
     1616000   1.615999e-05   7.873145e-01   2.822031e+00   1.885190e+00   6.947486e+04  -8.484392e+04  -9.854171e+04   2.683597e+09   7.684137e+08   1.230415e+09   1.474304e+05   7.207312e-28   0.000000e+00   0.000000e+00
     1624000   1.623999e-05   7.928810e-01   2.815246e+00   1.877311e+00   6.968924e+04  -8.478261e+04  -9.844306e+04   2.675945e+09   7.645039e+08   1.235921e+09   1.474304e+05   7.181429e-28   0.000000e+00   0.000000e+00
     1632000   1.631999e-05   7.984647e-01   2.808466e+00   1.869439e+00   6.990301e+04  -8.472160e+04  -9.834396e+04   2.668340e+09   7.605443e+08   1.241463e+09   1.474304e+05   7.155908e-28   0.000000e+00   0.000000e+00
     1640000   1.639999e-05   8.040655e-01   2.801691e+00   1.861576e+00   7.011541e+04  -8.466030e+04  -9.824551e+04   2.648065e+09   7.666877e+08   1.229186e+09   1.474304e+05   7.056200e-28   0.000000e+00   0.000000e+00
     1648000   1.647999e-05   8.096832e-01   2.794920e+00   1.853720e+00   7.032762e+04  -8.459966e+04  -9.814601e+04   2.651384e+09   7.538750e+08   1.250054e+09   1.474304e+05   7.094802e-28   0.000000e+00   0.000000e+00
     1656000   1.655999e-05   8.153179e-01   2.788155e+00   1.845873e+00   7.053941e+04  -8.453951e+04  -9.804581e+04   2.643372e+09   7.500370e+08   1.255067e+09   1.474304e+05   7.067203e-28   0.000000e+00   0.000000e+00
     1664000   1.663999e-05   8.209695e-01   2.781394e+00   1.838033e+00   7.075056e+04  -8.447966e+04  -9.794520e+04   2.635405e+09   7.461501e+08   1.260111e+09   1.474304e+05   7.039954e-28   0.000000e+00   0.000000e+00
     1672000   1.671999e-05   8.266380e-01   2.774638e+00   1.830201e+00   7.096107e+04  -8.442013e+04  -9.784419e+04   2.627483e+09   7.422149e+08   1.265186e+09   1.474304e+05   7.013056e-28   0.000000e+00   0.000000e+00
     1680000   1.679999e-05   8.323232e-01   2.767887e+00   1.822378e+00   7.117096e+04  -8.436091e+04  -9.774277e+04   2.619607e+09   7.382320e+08   1.270293e+09   1.474304e+05   6.986509e-28   0.000000e+00   0.000000e+00
     1688000   1.687999e-05   8.380253e-01   2.761140e+00   1.814562e+00   7.138021e+04  -8.430201e+04  -9.764094e+04   2.611775e+09   7.342020e+08   1.275431e+09   1.474304e+05   6.960312e-28   0.000000e+00   0.000000e+00
     1696000   1.695999e-05   8.437441e-01   2.754398e+00   1.806755e+00   7.158884e+04  -8.424344e+04  -9.753870e+04   2.603988e+09   7.301253e+08   1.280600e+09   1.474304e+05   6.934465e-28   0.000000e+00   0.000000e+00
     1704000   1.703999e-05   8.494795e-01   2.747661e+00   1.798956e+00   7.179666e+04  -8.418509e+04  -9.743627e+04   2.578349e+09   7.351278e+08   1.264723e+09   1.474304e+05   6.805940e-28   0.000000e+00   0.000000e+00
     1712000   1.711999e-05   8.552315e-01   2.740929e+00   1.791165e+00   7.200264e+04  -8.412642e+04  -9.733490e+04   2.571133e+09   7.317949e+08   1.269482e+09   1.474304e+05   6.782715e-28   0.000000e+00   0.000000e+00
     1720000   1.719999e-05   8.609999e-01   2.734201e+00   1.783383e+00   7.220804e+04  -8.406801e+04  -9.723315e+04   2.563955e+09   7.284216e+08   1.274268e+09   1.474304e+05   6.759782e-28   0.000000e+00   0.000000e+00
     1728000   1.727999e-05   8.667847e-01   2.727478e+00   1.775608e+00   7.241287e+04  -8.400987e+04  -9.713102e+04   2.556815e+09   7.250083e+08   1.279080e+09   1.474304e+05   6.737139e-28   0.000000e+00   0.000000e+00
     1736000   1.735999e-05   8.725859e-01   2.720759e+00   1.767842e+00   7.261713e+04  -8.395201e+04  -9.702850e+04   2.549713e+09   7.215557e+08   1.283918e+09   1.474304e+05   6.714787e-28   0.000000e+00   0.000000e+00
     1744000   1.743999e-05   8.784035e-01   2.714045e+00   1.760084e+00   7.282083e+04  -8.389442e+04  -9.692559e+04   2.542648e+09   7.180640e+08   1.288783e+09   1.474304e+05   6.692726e-28   0.000000e+00   0.000000e+00
     1752000   1.751999e-05   8.842373e-01   2.707336e+00   1.752334e+00   7.302396e+04  -8.383712e+04  -9.682229e+04   2.535621e+09   7.145338e+08   1.293675e+09   1.474304e+05   6.670955e-28   0.000000e+00   0.000000e+00
     1760000   1.759999e-05   8.900873e-01   2.700631e+00   1.744592e+00   7.322653e+04  -8.378010e+04  -9.671860e+04   2.528632e+09   7.109655e+08   1.298593e+09   1.474304e+05   6.649475e-28   0.000000e+00   0.000000e+00
     1768000   1.767999e-05   8.959535e-01   2.693931e+00   1.736859e+00   7.342894e+04  -8.372408e+04  -9.661359e+04   2.526759e+09   6.981720e+08   1.315377e+09   1.474304e+05   6.662159e-28   0.000000e+00   0.000000e+00
     1776000   1.775999e-05   9.018359e-01   2.687236e+00   1.729134e+00   7.363066e+04  -8.366814e+04  -9.650847e+04   2.515102e+09   7.029010e+08   1.309503e+09   1.474304e+05   6.609830e-28   0.000000e+00   0.000000e+00
     1784000   1.783999e-05   9.077344e-01   2.680544e+00   1.721417e+00   7.383159e+04  -8.361201e+04  -9.640355e+04   2.507957e+09   7.001866e+08   1.313461e+09   1.474304e+05   6.587127e-28   0.000000e+00   0.000000e+00
     1792000   1.791999e-05   9.136489e-01   2.673858e+00   1.713709e+00   7.403194e+04  -8.355611e+04  -9.629831e+04   2.500849e+09   6.974338e+08   1.317445e+09   1.474304e+05   6.564691e-28   0.000000e+00   0.000000e+00
     1800000   1.799999e-05   9.195795e-01   2.667175e+00   1.706010e+00   7.423172e+04  -8.350043e+04  -9.619276e+04   2.493777e+09   6.946430e+08   1.321454e+09   1.474304e+05   6.542522e-28   0.000000e+00   0.000000e+00
     1808000   1.807999e-05   9.255260e-01   2.660498e+00   1.698318e+00   7.443093e+04  -8.344500e+04  -9.608687e+04   2.485622e+09   6.900908e+08   1.326117e+09   1.474304e+05   6.515751e-28   0.000000e+00   0.000000e+00
     1816000   1.815999e-05   9.314884e-01   2.653824e+00   1.690636e+00   7.462947e+04  -8.338992e+04  -9.598063e+04   2.477974e+09   6.868342e+08   1.330005e+09   1.474304e+05   6.490878e-28   0.000000e+00   0.000000e+00
     1824000   1.823999e-05   9.374667e-01   2.647155e+00   1.682962e+00   7.482740e+04  -8.333511e+04  -9.587407e+04   2.470365e+09   6.835376e+08   1.333919e+09   1.474304e+05   6.466290e-28   0.000000e+00   0.000000e+00
     1832000   1.831999e-05   9.434608e-01   2.640491e+00   1.675296e+00   7.502473e+04  -8.328056e+04  -9.576720e+04   2.462794e+09   6.802012e+08   1.337857e+09   1.474304e+05   6.441990e-28   0.000000e+00   0.000000e+00
     1840000   1.839999e-05   9.494706e-01   2.633830e+00   1.667639e+00   7.522145e+04  -8.322627e+04  -9.566001e+04   2.455261e+09   6.768257e+08   1.341820e+09   1.474304e+05   6.417975e-28   0.000000e+00   0.000000e+00
     1848000   1.847999e-05   9.554962e-01   2.627174e+00   1.659990e+00   7.541757e+04  -8.317226e+04  -9.555251e+04   2.447766e+09   6.734113e+08   1.345808e+09   1.474304e+05   6.394247e-28   0.000000e+00   0.000000e+00
     1856000   1.855999e-05   9.615374e-01   2.620523e+00   1.652350e+00   7.561309e+04  -8.311853e+04  -9.544468e+04   2.440309e+09   6.699586e+08   1.349821e+09   1.474304e+05   6.370803e-28   0.000000e+00   0.000000e+00
     1864000   1.863999e-05   9.675943e-01   2.613875e+00   1.644719e+00   7.580802e+04  -8.306507e+04  -9.533653e+04   2.432890e+09   6.664679e+08   1.353860e+09   1.474304e+05   6.347645e-28   0.000000e+00   0.000000e+00
     1872000   1.871999e-05   9.736667e-01   2.607232e+00   1.637097e+00   7.600236e+04  -8.301190e+04  -9.522806e+04   2.425508e+09   6.629399e+08   1.357923e+09   1.474304e+05   6.324772e-28   0.000000e+00   0.000000e+00
     1880000   1.879999e-05   9.797546e-01   2.600594e+00   1.629483e+00   7.619610e+04  -8.295900e+04  -9.511927e+04   2.418164e+09   6.593747e+08   1.362012e+09   1.474304e+05   6.302183e-28   0.000000e+00   0.000000e+00
     1888000   1.887999e-05   9.858581e-01   2.593959e+00   1.621878e+00   7.638986e+04  -8.290683e+04  -9.500929e+04   2.418716e+09   6.499868e+08   1.377517e+09   1.474304e+05   6.327630e-28   0.000000e+00   0.000000e+00
     1896000   1.895999e-05   9.919770e-01   2.587328e+00   1.614281e+00   7.658304e+04  -8.285496e+04  -9.489895e+04   2.410871e+09   6.466791e+08   1.380955e+09   1.474304e+05   6.302309e-28   0.000000e+00   0.000000e+00
     1904000   1.903999e-05   9.981113e-01   2.580702e+00   1.606694e+00   7.677560e+04  -8.280336e+04  -9.478833e+04   2.403067e+09   6.433303e+08   1.384420e+09   1.474304e+05   6.277286e-28   0.000000e+00   0.000000e+00
     1912000   1.911999e-05   1.004261e+00   2.574080e+00   1.599115e+00   7.696716e+04  -8.275180e+04  -9.467794e+04   2.389892e+09   6.384953e+08   1.384763e+09   1.474304e+05   6.224316e-28   0.000000e+00   0.000000e+00
     1920000   1.919999e-05   1.010426e+00   2.567462e+00   1.591545e+00   7.715810e+04  -8.270092e+04  -9.456692e+04   2.383645e+09   6.335075e+08   1.390822e+09   1.474304e+05   6.209330e-28   0.000000e+00   0.000000e+00
     1928000   1.927999e-05   1.016606e+00   2.560848e+00   1.583984e+00   7.734854e+04  -8.265044e+04  -9.445541e+04   2.377430e+09   6.284908e+08   1.396909e+09   1.474304e+05   6.194654e-28   0.000000e+00   0.000000e+00
     1936000   1.935999e-05   1.022802e+00   2.554238e+00   1.576432e+00   7.753849e+04  -8.260036e+04  -9.434341e+04   2.371248e+09   6.234458e+08   1.403024e+09   1.474304e+05   6.180288e-28   0.000000e+00   0.000000e+00
     1944000   1.943999e-05   1.029012e+00   2.547632e+00   1.568889e+00   7.772794e+04  -8.255069e+04  -9.423093e+04   2.365099e+09   6.183728e+08   1.409167e+09   1.474304e+05   6.166233e-28   0.000000e+00   0.000000e+00
     1952000   1.951999e-05   1.035238e+00   2.541030e+00   1.561356e+00   7.791691e+04  -8.250142e+04  -9.411795e+04   2.358983e+09   6.132723e+08   1.415338e+09   1.474304e+05   6.152487e-28   0.000000e+00   0.000000e+00
     1960000   1.959999e-05   1.041479e+00   2.534431e+00   1.553831e+00   7.810538e+04  -8.245257e+04  -9.400447e+04   2.352898e+09   6.081448e+08   1.421537e+09   1.474304e+05   6.139052e-28   0.000000e+00   0.000000e+00
     1968000   1.967999e-05   1.047735e+00   2.527837e+00   1.546315e+00   7.829337e+04  -8.240412e+04  -9.389050e+04   2.346845e+09   6.029907e+08   1.427764e+09   1.474304e+05   6.125928e-28   0.000000e+00   0.000000e+00
     1976000   1.975999e-05   1.054006e+00   2.521247e+00   1.538808e+00   7.848088e+04  -8.235609e+04  -9.377603e+04   2.340824e+09   5.978104e+08   1.434019e+09   1.474304e+05   6.113114e-28   0.000000e+00   0.000000e+00
     1984000   1.983999e-05   1.060292e+00   2.514660e+00   1.531311e+00   7.866790e+04  -8.230847e+04  -9.366106e+04   2.334835e+09   5.926043e+08   1.440301e+09   1.474304e+05   6.100612e-28   0.000000e+00   0.000000e+00
     1992000   1.991999e-05   1.066593e+00   2.508077e+00   1.523822e+00   7.885445e+04  -8.226127e+04  -9.354558e+04   2.328877e+09   5.873729e+08   1.446612e+09   1.474304e+05   6.088420e-28   0.000000e+00   0.000000e+00
     2000000   1.999999e-05   1.072909e+00   2.501498e+00   1.516343e+00   7.904053e+04  -8.221449e+04  -9.342960e+04   2.322949e+09   5.821167e+08   1.452951e+09   1.474304e+05   6.076540e-28   0.000000e+00   0.000000e+00
     2008000   2.007999e-05   1.079239e+00   2.494923e+00   1.508874e+00   7.922593e+04  -8.216829e+04  -9.331314e+04   2.313868e+09   5.743811e+08   1.458769e+09   1.474304e+05   6.050117e-28   0.000000e+00   0.000000e+00
     2016000   2.015999e-05   1.085585e+00   2.488351e+00   1.501413e+00   7.941081e+04  -8.212255e+04  -9.319618e+04   2.308162e+09   5.691708e+08   1.465201e+09   1.474304e+05   6.039644e-28   0.000000e+00   0.000000e+00
     2024000   2.023999e-05   1.091945e+00   2.481783e+00   1.493962e+00   7.959529e+04  -8.207691e+04  -9.307894e+04   2.303593e+09   5.684523e+08   1.468627e+09   1.474304e+05   6.030478e-28   0.000000e+00   0.000000e+00
     2032000   2.031999e-05   1.098320e+00   2.475219e+00   1.486521e+00   7.977937e+04  -8.203168e+04  -9.296114e+04   2.298487e+09   5.623372e+08   1.476341e+09   1.474304e+05   6.024518e-28   0.000000e+00   0.000000e+00
     2040000   2.039999e-05   1.104710e+00   2.468658e+00   1.479089e+00   7.996289e+04  -8.198732e+04  -9.284252e+04   2.290596e+09   5.498502e+08   1.487269e+09   1.474304e+05   6.010796e-28   0.000000e+00   0.000000e+00
     2048000   2.047999e-05   1.111114e+00   2.462101e+00   1.471666e+00   8.014592e+04  -8.194355e+04  -9.272325e+04   2.285367e+09   5.443216e+08   1.494330e+09   1.474304e+05   6.003885e-28   0.000000e+00   0.000000e+00
     2056000   2.055999e-05   1.117533e+00   2.455547e+00   1.464253e+00   8.032855e+04  -8.190023e+04  -9.260342e+04   2.280163e+09   5.387742e+08   1.501417e+09   1.474304e+05   5.997276e-28   0.000000e+00   0.000000e+00
     2064000   2.063999e-05   1.123967e+00   2.448997e+00   1.456849e+00   8.051075e+04  -8.185735e+04  -9.248303e+04   2.274984e+09   5.332082e+08   1.508532e+09   1.474304e+05   5.990970e-28   0.000000e+00   0.000000e+00
     2072000   2.071999e-05   1.130415e+00   2.442450e+00   1.449456e+00   8.069254e+04  -8.181492e+04  -9.236206e+04   2.269830e+09   5.276242e+08   1.515674e+09   1.474304e+05   5.984967e-28   0.000000e+00   0.000000e+00
     2080000   2.079999e-05   1.136878e+00   2.435907e+00   1.442071e+00   8.087392e+04  -8.177293e+04  -9.224052e+04   2.264700e+09   5.220225e+08   1.522842e+09   1.474304e+05   5.979266e-28   0.000000e+00   0.000000e+00
     2088000   2.087999e-05   1.143355e+00   2.429366e+00   1.434697e+00   8.105490e+04  -8.173139e+04  -9.211840e+04   2.259594e+09   5.164036e+08   1.530038e+09   1.474304e+05   5.973869e-28   0.000000e+00   0.000000e+00
     2096000   2.095999e-05   1.149846e+00   2.422830e+00   1.427333e+00   8.123546e+04  -8.169031e+04  -9.199571e+04   2.254511e+09   5.107678e+08   1.537261e+09   1.474304e+05   5.968776e-28   0.000000e+00   0.000000e+00
     2104000   2.103999e-05   1.156352e+00   2.416296e+00   1.419978e+00   8.141562e+04  -8.164967e+04  -9.187244e+04   2.249453e+09   5.051155e+08   1.544511e+09   1.474304e+05   5.963986e-28   0.000000e+00   0.000000e+00
     2112000   2.111999e-05   1.162873e+00   2.409766e+00   1.412633e+00   8.159537e+04  -8.160949e+04  -9.174859e+04   2.244417e+09   4.994473e+08   1.551788e+09   1.474304e+05   5.959500e-28   0.000000e+00   0.000000e+00
     2120000   2.119999e-05   1.169408e+00   2.403239e+00   1.405298e+00   8.177473e+04  -8.156976e+04  -9.162415e+04   2.239404e+09   4.937634e+08   1.559092e+09   1.474304e+05   5.955318e-28   0.000000e+00   0.000000e+00
     2128000   2.127999e-05   1.175957e+00   2.396714e+00   1.397973e+00   8.195374e+04  -8.153023e+04  -9.149930e+04   2.238099e+09   4.992914e+08   1.559719e+09   1.474304e+05   5.956559e-28   0.000000e+00   0.000000e+00
     2136000   2.135999e-05   1.182520e+00   2.390194e+00   1.390658e+00   8.213255e+04  -8.149049e+04  -9.137430e+04   2.231956e+09   4.942709e+08   1.565405e+09   1.474304e+05   5.945191e-28   0.000000e+00   0.000000e+00
     2144000   2.143999e-05   1.189098e+00   2.383676e+00   1.383353e+00   8.231086e+04  -8.145115e+04  -9.124884e+04   2.225840e+09   4.892299e+08   1.571115e+09   1.474304e+05   5.934107e-28   0.000000e+00   0.000000e+00
     2152000   2.151999e-05   1.195690e+00   2.377161e+00   1.376058e+00   8.248868e+04  -8.141221e+04  -9.112292e+04   2.219752e+09   4.841687e+08   1.576849e+09   1.474304e+05   5.923308e-28   0.000000e+00   0.000000e+00
     2160000   2.159999e-05   1.202296e+00   2.370650e+00   1.368774e+00   8.266589e+04  -8.137416e+04  -9.099624e+04   2.209024e+09   4.621276e+08   1.593534e+09   1.474304e+05   5.911329e-28   0.000000e+00   0.000000e+00
     2168000   2.167999e-05   1.208916e+00   2.364142e+00   1.361499e+00   8.284237e+04  -8.133736e+04  -9.086855e+04   2.203076e+09   4.578147e+08   1.598689e+09   1.474304e+05   5.900673e-28   0.000000e+00   0.000000e+00
     2176000   2.175999e-05   1.215551e+00   2.357636e+00   1.354235e+00   8.301838e+04  -8.130091e+04  -9.074045e+04   2.197152e+09   4.534793e+08   1.603867e+09   1.474304e+05   5.890271e-28   0.000000e+00   0.000000e+00
     2184000   2.183999e-05   1.222199e+00   2.351133e+00   1.346981e+00   8.319392e+04  -8.126480e+04  -9.061193e+04   2.191253e+09   4.491218e+08   1.609071e+09   1.474304e+05   5.880123e-28   0.000000e+00   0.000000e+00
     2192000   2.191999e-05   1.228862e+00   2.344634e+00   1.339737e+00   8.336898e+04  -8.122905e+04  -9.048299e+04   2.185378e+09   4.447425e+08   1.614299e+09   1.474304e+05   5.870229e-28   0.000000e+00   0.000000e+00
     2200000   2.199999e-05   1.235538e+00   2.338137e+00   1.332503e+00   8.354358e+04  -8.119364e+04  -9.035364e+04   2.179526e+09   4.403418e+08   1.619552e+09   1.474304e+05   5.860589e-28   0.000000e+00   0.000000e+00
     2208000   2.207999e-05   1.242229e+00   2.331643e+00   1.325280e+00   8.371771e+04  -8.115859e+04  -9.022386e+04   2.173699e+09   4.359200e+08   1.624829e+09   1.474304e+05   5.851202e-28   0.000000e+00   0.000000e+00
     2216000   2.215999e-05   1.248933e+00   2.325151e+00   1.318067e+00   8.389137e+04  -8.112390e+04  -9.009367e+04   2.167896e+09   4.314775e+08   1.630131e+09   1.474304e+05   5.842069e-28   0.000000e+00   0.000000e+00
     2224000   2.223999e-05   1.255651e+00   2.318663e+00   1.310865e+00   8.406457e+04  -8.108956e+04  -8.996304e+04   2.162115e+09   4.270148e+08   1.635458e+09   1.474304e+05   5.833190e-28   0.000000e+00   0.000000e+00
     2232000   2.231999e-05   1.262384e+00   2.312177e+00   1.303673e+00   8.423731e+04  -8.105558e+04  -8.983199e+04   2.156359e+09   4.225321e+08   1.640810e+09   1.474304e+05   5.824565e-28   0.000000e+00   0.000000e+00
     2240000   2.239999e-05   1.269129e+00   2.305694e+00   1.296492e+00   8.440974e+04  -8.102191e+04  -8.970041e+04   2.154190e+09   4.192630e+08   1.648432e+09   1.474304e+05   5.834613e-28   0.000000e+00   0.000000e+00
     2248000   2.247999e-05   1.275889e+00   2.299214e+00   1.289321e+00   8.458159e+04  -8.098859e+04  -8.956853e+04   2.126515e+09   4.099011e+08   1.637479e+09   1.474304e+05   5.708975e-28   0.000000e+00   0.000000e+00
     2256000   2.255999e-05   1.282662e+00   2.292736e+00   1.282161e+00   8.475146e+04  -8.095593e+04  -8.943738e+04   2.120276e+09   4.064244e+08   1.641305e+09   1.474304e+05   5.695973e-28   0.000000e+00   0.000000e+00
     2264000   2.263999e-05   1.289449e+00   2.286261e+00   1.275011e+00   8.492083e+04  -8.092356e+04  -8.930592e+04   2.114063e+09   4.029264e+08   1.645151e+09   1.474304e+05   5.683194e-28   0.000000e+00   0.000000e+00
     2272000   2.271999e-05   1.296250e+00   2.279788e+00   1.267872e+00   8.508971e+04  -8.089147e+04  -8.917415e+04   2.107875e+09   3.994073e+08   1.649017e+09   1.474304e+05   5.670637e-28   0.000000e+00   0.000000e+00
     2280000   2.279999e-05   1.303064e+00   2.273318e+00   1.260743e+00   8.525855e+04  -8.085955e+04  -8.904173e+04   2.114381e+09   3.986276e+08   1.662548e+09   1.474304e+05   5.726136e-28   0.000000e+00   0.000000e+00
     2288000   2.287999e-05   1.309891e+00   2.266850e+00   1.253625e+00   8.542743e+04  -8.082783e+04  -8.890857e+04   2.107596e+09   3.944976e+08   1.666432e+09   1.474304e+05   5.711425e-28   0.000000e+00   0.000000e+00
     2296000   2.295999e-05   1.316732e+00   2.260385e+00   1.246518e+00   8.559577e+04  -8.079643e+04  -8.877510e+04   2.100839e+09   3.903443e+08   1.670338e+09   1.474304e+05   5.696971e-28   0.000000e+00   0.000000e+00
     2304000   2.303999e-05   1.323586e+00   2.253923e+00   1.239421e+00   8.576357e+04  -8.076537e+04  -8.864131e+04   2.094109e+09   3.861681e+08   1.674267e+09   1.474304e+05   5.682772e-28   0.000000e+00   0.000000e+00
     2312000   2.311999e-05   1.330454e+00   2.247463e+00   1.232336e+00   8.593083e+04  -8.073465e+04  -8.850721e+04   2.087407e+09   3.819693e+08   1.678218e+09   1.474304e+05   5.668829e-28   0.000000e+00   0.000000e+00
     2320000   2.319999e-05   1.337335e+00   2.241005e+00   1.225260e+00   8.609755e+04  -8.070426e+04  -8.837280e+04   2.080732e+09   3.777485e+08   1.682192e+09   1.474304e+05   5.655140e-28   0.000000e+00   0.000000e+00
     2328000   2.327999e-05   1.344230e+00   2.234550e+00   1.218196e+00   8.626375e+04  -8.067421e+04  -8.823806e+04   2.074085e+09   3.735058e+08   1.686188e+09   1.474304e+05   5.641707e-28   0.000000e+00   0.000000e+00
     2336000   2.335999e-05   1.351138e+00   2.228098e+00   1.211142e+00   8.642941e+04  -8.064450e+04  -8.810301e+04   2.067464e+09   3.692417e+08   1.690207e+09   1.474304e+05   5.628527e-28   0.000000e+00   0.000000e+00
     2344000   2.343999e-05   1.358058e+00   2.221647e+00   1.204099e+00   8.659454e+04  -8.061513e+04  -8.796763e+04   2.060870e+09   3.649566e+08   1.694248e+09   1.474304e+05   5.615602e-28   0.000000e+00   0.000000e+00
     2352000   2.351999e-05   1.364993e+00   2.215199e+00   1.197067e+00   8.675904e+04  -8.058594e+04  -8.783218e+04   2.051236e+09   3.655292e+08   1.690800e+09   1.474304e+05   5.576201e-28   0.000000e+00   0.000000e+00
     2360000   2.359999e-05   1.371940e+00   2.208753e+00   1.190046e+00   8.692290e+04  -8.055688e+04  -8.769672e+04   2.045323e+09   3.609024e+08   1.695755e+09   1.474304e+05   5.567835e-28   0.000000e+00   0.000000e+00
     2368000   2.367999e-05   1.378900e+00   2.202310e+00   1.183036e+00   8.708629e+04  -8.052819e+04  -8.756086e+04   2.039434e+09   3.562602e+08   1.700733e+09   1.474304e+05   5.559719e-28   0.000000e+00   0.000000e+00
     2376000   2.375999e-05   1.385874e+00   2.195869e+00   1.176037e+00   8.724911e+04  -8.050075e+04  -8.742390e+04   2.031564e+09   3.349030e+08   1.719120e+09   1.474304e+05   5.572177e-28   0.000000e+00   0.000000e+00
     2384000   2.383999e-05   1.392860e+00   2.189430e+00   1.169048e+00   8.741140e+04  -8.047412e+04  -8.728621e+04   2.025485e+09   3.308702e+08   1.723342e+09   1.474304e+05   5.562252e-28   0.000000e+00   0.000000e+00
     2392000   2.391999e-05   1.399860e+00   2.182993e+00   1.162071e+00   8.757319e+04  -8.044781e+04  -8.714817e+04   2.019429e+09   3.268182e+08   1.727586e+09   1.474304e+05   5.552561e-28   0.000000e+00   0.000000e+00
     2400000   2.399999e-05   1.406872e+00   2.176558e+00   1.155104e+00   8.773448e+04  -8.042030e+04  -8.701123e+04   2.013085e+09   3.417880e+08   1.713920e+09   1.474304e+05   5.504073e-28   0.000000e+00   0.000000e+00
     2408000   2.407999e-05   1.413897e+00   2.170126e+00   1.148149e+00   8.789529e+04  -8.039316e+04  -8.687391e+04   2.007052e+09   3.368079e+08   1.718966e+09   1.474304e+05   5.496087e-28   0.000000e+00   0.000000e+00
     2416000   2.415999e-05   1.420935e+00   2.163695e+00   1.141205e+00   8.805561e+04  -8.036641e+04  -8.673619e+04   2.001040e+09   3.318139e+08   1.724033e+09   1.474304e+05   5.488351e-28   0.000000e+00   0.000000e+00
     2424000   2.423999e-05   1.427986e+00   2.157267e+00   1.134271e+00   8.821545e+04  -8.034007e+04  -8.659807e+04   1.995050e+09   3.268064e+08   1.729121e+09   1.474304e+05   5.480863e-28   0.000000e+00   0.000000e+00
     2432000   2.431999e-05   1.435050e+00   2.150841e+00   1.127349e+00   8.837482e+04  -8.031412e+04  -8.645953e+04   1.989080e+09   3.217858e+08   1.734229e+09   1.474304e+05   5.473623e-28   0.000000e+00   0.000000e+00
     2440000   2.439999e-05   1.442126e+00   2.144417e+00   1.120438e+00   8.853371e+04  -8.028858e+04  -8.632059e+04   1.983132e+09   3.167523e+08   1.739357e+09   1.474304e+05   5.466631e-28   0.000000e+00   0.000000e+00
     2448000   2.447999e-05   1.449215e+00   2.137995e+00   1.113538e+00   8.869212e+04  -8.026344e+04  -8.618123e+04   1.977204e+09   3.117064e+08   1.744507e+09   1.474304e+05   5.459887e-28   0.000000e+00   0.000000e+00
     2456000   2.455999e-05   1.456317e+00   2.131575e+00   1.106649e+00   8.885006e+04  -8.023871e+04  -8.604147e+04   1.971297e+09   3.066483e+08   1.749676e+09   1.474304e+05   5.453390e-28   0.000000e+00   0.000000e+00
     2464000   2.463999e-05   1.463431e+00   2.125157e+00   1.099771e+00   8.900752e+04  -8.021440e+04  -8.590127e+04   1.963713e+09   2.953554e+08   1.758919e+09   1.474304e+05   5.450130e-28   0.000000e+00   0.000000e+00
     2472000   2.471999e-05   1.470558e+00   2.118740e+00   1.092905e+00   8.916437e+04  -8.019094e+04  -8.576040e+04   1.957345e+09   2.911074e+08   1.762832e+09   1.474304e+05   5.439536e-28   0.000000e+00   0.000000e+00
     2480000   2.479999e-05   1.477697e+00   2.112326e+00   1.086049e+00   8.932070e+04  -8.016782e+04  -8.561922e+04   1.951000e+09   2.868430e+08   1.766765e+09   1.474304e+05   5.429173e-28   0.000000e+00   0.000000e+00
     2488000   2.487999e-05   1.484849e+00   2.105914e+00   1.079205e+00   8.947653e+04  -8.014504e+04  -8.547772e+04   1.944678e+09   2.825626e+08   1.770718e+09   1.474304e+05   5.419040e-28   0.000000e+00   0.000000e+00
     2496000   2.495999e-05   1.492013e+00   2.099503e+00   1.072373e+00   8.963183e+04  -8.012259e+04  -8.533595e+04   1.934851e+09   2.816777e+08   1.767782e+09   1.474304e+05   5.381080e-28   0.000000e+00   0.000000e+00
     2504000   2.503999e-05   1.499190e+00   2.093094e+00   1.065552e+00   8.978636e+04  -8.010024e+04  -8.519435e+04   1.928516e+09   2.769628e+08   1.772061e+09   1.474304e+05   5.371816e-28   0.000000e+00   0.000000e+00
     2512000   2.511999e-05   1.506379e+00   2.086687e+00   1.058742e+00   8.994067e+04  -8.007849e+04  -8.505191e+04   1.925920e+09   2.694952e+08   1.782884e+09   1.474304e+05   5.390706e-28   0.000000e+00   0.000000e+00
     2520000   2.519999e-05   1.513581e+00   2.080281e+00   1.051943e+00   9.009447e+04  -8.005709e+04  -8.490916e+04   1.918998e+09   2.655342e+08   1.785828e+09   1.474304e+05   5.376586e-28   0.000000e+00   0.000000e+00
     2528000   2.527999e-05   1.520794e+00   2.073878e+00   1.045156e+00   9.024771e+04  -8.003601e+04  -8.476618e+04   1.912099e+09   2.615557e+08   1.788787e+09   1.474304e+05   5.362687e-28   0.000000e+00   0.000000e+00
     2536000   2.535999e-05   1.528020e+00   2.067476e+00   1.038381e+00   9.040041e+04  -8.001524e+04  -8.462296e+04   1.905224e+09   2.575601e+08   1.791763e+09   1.474304e+05   5.349007e-28   0.000000e+00   0.000000e+00
     2544000   2.543999e-05   1.535258e+00   2.061075e+00   1.031617e+00   9.055255e+04  -7.999480e+04  -8.447950e+04   1.898373e+09   2.535477e+08   1.794755e+09   1.474304e+05   5.335547e-28   0.000000e+00   0.000000e+00
     2552000   2.551999e-05   1.542509e+00   2.054676e+00   1.024864e+00   9.070415e+04  -7.997468e+04  -8.433580e+04   1.891545e+09   2.495188e+08   1.797763e+09   1.474304e+05   5.322306e-28   0.000000e+00   0.000000e+00
     2560000   2.559999e-05   1.549771e+00   2.048279e+00   1.018123e+00   9.085520e+04  -7.995488e+04  -8.419185e+04   1.884741e+09   2.454737e+08   1.800787e+09   1.474304e+05   5.309282e-28   0.000000e+00   0.000000e+00
     2568000   2.567999e-05   1.557045e+00   2.041884e+00   1.011393e+00   9.100571e+04  -7.993540e+04  -8.404767e+04   1.877959e+09   2.414128e+08   1.803827e+09   1.474304e+05   5.296477e-28   0.000000e+00   0.000000e+00
     2576000   2.575999e-05   1.564332e+00   2.035490e+00   1.004675e+00   9.115567e+04  -7.991625e+04  -8.390324e+04   1.871200e+09   2.373363e+08   1.806884e+09   1.474304e+05   5.283888e-28   0.000000e+00   0.000000e+00
     2584000   2.583999e-05   1.571630e+00   2.029097e+00   9.979689e-01   9.130516e+04  -7.989769e+04  -8.375825e+04   1.866909e+09   2.226082e+08   1.822776e+09   1.474304e+05   5.310891e-28   0.000000e+00   0.000000e+00
     2592000   2.591999e-05   1.578941e+00   2.022706e+00   9.912741e-01   9.145424e+04  -7.988003e+04  -8.361232e+04   1.860214e+09   2.188984e+08   1.825553e+09   1.474304e+05   5.298144e-28   0.000000e+00   0.000000e+00
     2600000   2.599999e-05   1.586263e+00   2.016316e+00   9.845909e-01   9.160279e+04  -7.986266e+04  -8.346617e+04   1.853541e+09   2.151718e+08   1.828349e+09   1.474304e+05   5.285608e-28   0.000000e+00   0.000000e+00
     2608000   2.607999e-05   1.593597e+00   2.009928e+00   9.779195e-01   9.175081e+04  -7.984560e+04  -8.331979e+04   1.846890e+09   2.114288e+08   1.831161e+09   1.474304e+05   5.273283e-28   0.000000e+00   0.000000e+00
     2616000   2.615999e-05   1.600943e+00   2.003541e+00   9.712598e-01   9.189828e+04  -7.982875e+04  -8.317327e+04   1.838753e+09   2.155213e+08   1.824785e+09   1.474304e+05   5.233356e-28   0.000000e+00   0.000000e+00
     2624000   2.623999e-05   1.608301e+00   1.997155e+00   9.646118e-01   9.204526e+04  -7.981205e+04  -8.302665e+04   1.836143e+09   2.011428e+08   1.842234e+09   1.474304e+05   5.270844e-28   0.000000e+00   0.000000e+00
     2632000   2.631999e-05   1.615670e+00   1.990771e+00   9.579755e-01   9.219186e+04  -7.979608e+04  -8.287921e+04   1.828973e+09   1.980788e+08   1.843773e+09   1.474304e+05   5.253935e-28   0.000000e+00   0.000000e+00
     2640000   2.639999e-05   1.623052e+00   1.984388e+00   9.513511e-01   9.233790e+04  -7.978036e+04  -8.273164e+04   1.821827e+09   1.949955e+08   1.845326e+09   1.474304e+05   5.237231e-28   0.000000e+00   0.000000e+00
     2648000   2.647999e-05   1.630444e+00   1.978006e+00   9.447385e-01   9.248336e+04  -7.976488e+04  -8.258395e+04   1.814707e+09   1.918932e+08   1.846894e+09   1.474304e+05   5.220732e-28   0.000000e+00   0.000000e+00
     2656000   2.655999e-05   1.637849e+00   1.971625e+00   9.381377e-01   9.262825e+04  -7.974966e+04  -8.243614e+04   1.807612e+09   1.887722e+08   1.848477e+09   1.474304e+05   5.204437e-28   0.000000e+00   0.000000e+00
     2664000   2.663999e-05   1.645265e+00   1.965246e+00   9.315487e-01   9.277258e+04  -7.973468e+04  -8.228820e+04   1.800541e+09   1.856329e+08   1.850075e+09   1.474304e+05   5.188346e-28   0.000000e+00   0.000000e+00
     2672000   2.671999e-05   1.652692e+00   1.958868e+00   9.249715e-01   9.291634e+04  -7.971996e+04  -8.214013e+04   1.793494e+09   1.824754e+08   1.851688e+09   1.474304e+05   5.172456e-28   0.000000e+00   0.000000e+00
     2680000   2.679999e-05   1.660132e+00   1.952491e+00   9.184063e-01   9.305954e+04  -7.970549e+04  -8.199193e+04   1.786472e+09   1.793001e+08   1.853316e+09   1.474304e+05   5.156769e-28   0.000000e+00   0.000000e+00
     2688000   2.687999e-05   1.667582e+00   1.946115e+00   9.118528e-01   9.320217e+04  -7.969127e+04  -8.184360e+04   1.779474e+09   1.761073e+08   1.854960e+09   1.474304e+05   5.141282e-28   0.000000e+00   0.000000e+00
     2696000   2.695999e-05   1.675044e+00   1.939740e+00   9.053113e-01   9.334425e+04  -7.967731e+04  -8.169513e+04   1.772500e+09   1.728972e+08   1.856618e+09   1.474304e+05   5.125996e-28   0.000000e+00   0.000000e+00
     2704000   2.703999e-05   1.682517e+00   1.933367e+00   8.987816e-01   9.348548e+04  -7.966339e+04  -8.154708e+04   1.746315e+09   1.839875e+08   1.822236e+09   1.474304e+05   4.959741e-28   0.000000e+00   0.000000e+00
     2712000   2.711999e-05   1.690001e+00   1.926994e+00   8.922637e-01   9.362495e+04  -7.964882e+04  -8.140118e+04   1.740301e+09   1.803526e+08   1.825166e+09   1.474304e+05   4.950751e-28   0.000000e+00   0.000000e+00
     2720000   2.719999e-05   1.697497e+00   1.920623e+00   8.857574e-01   9.376393e+04  -7.963454e+04  -8.125505e+04   1.734303e+09   1.767091e+08   1.828106e+09   1.474304e+05   4.941920e-28   0.000000e+00   0.000000e+00
     2728000   2.727999e-05   1.705004e+00   1.914253e+00   8.792629e-01   9.390334e+04  -7.962128e+04  -8.110692e+04   1.744917e+09   1.595668e+08   1.863572e+09   1.474304e+05   5.067459e-28   0.000000e+00   0.000000e+00
     2736000   2.735999e-05   1.712522e+00   1.907883e+00   8.727803e-01   9.404265e+04  -7.960863e+04  -8.095779e+04   1.737915e+09   1.567587e+08   1.864660e+09   1.474304e+05   5.051026e-28   0.000000e+00   0.000000e+00
     2744000   2.743999e-05   1.720051e+00   1.901515e+00   8.663097e-01   9.418141e+04  -7.959620e+04  -8.080857e+04   1.730937e+09   1.539333e+08   1.865761e+09   1.474304e+05   5.034780e-28   0.000000e+00   0.000000e+00
     2752000   2.751999e-05   1.727591e+00   1.895148e+00   8.598509e-01   9.431885e+04  -7.958337e+04  -8.066077e+04   1.711824e+09   1.611771e+08   1.842658e+09   1.474304e+05   4.919235e-28   0.000000e+00   0.000000e+00
     2760000   2.759999e-05   1.735142e+00   1.888782e+00   8.534040e-01   9.445554e+04  -7.957061e+04  -8.051327e+04   1.705432e+09   1.577629e+08   1.844841e+09   1.474304e+05   4.907709e-28   0.000000e+00   0.000000e+00
     2768000   2.767999e-05   1.742703e+00   1.882417e+00   8.469688e-01   9.459172e+04  -7.955813e+04  -8.036559e+04   1.699058e+09   1.543388e+08   1.847032e+09   1.474304e+05   4.896340e-28   0.000000e+00   0.000000e+00
     2776000   2.775999e-05   1.750276e+00   1.876053e+00   8.405455e-01   9.472739e+04  -7.954592e+04  -8.021774e+04   1.692701e+09   1.509051e+08   1.849232e+09   1.474304e+05   4.885126e-28   0.000000e+00   0.000000e+00
     2784000   2.783999e-05   1.757860e+00   1.869689e+00   8.341340e-01   9.486255e+04  -7.953398e+04  -8.006971e+04   1.686362e+09   1.474621e+08   1.851440e+09   1.474304e+05   4.874068e-28   0.000000e+00   0.000000e+00
     2792000   2.791999e-05   1.765454e+00   1.863327e+00   8.277343e-01   9.499721e+04  -7.952232e+04  -7.992151e+04   1.680039e+09   1.440098e+08   1.853656e+09   1.474304e+05   4.863165e-28   0.000000e+00   0.000000e+00
     2800000   2.799999e-05   1.773059e+00   1.856966e+00   8.213465e-01   9.513136e+04  -7.951094e+04  -7.977313e+04   1.673734e+09   1.405487e+08   1.855881e+09   1.474304e+05   4.852416e-28   0.000000e+00   0.000000e+00
     2808000   2.807999e-05   1.780675e+00   1.850605e+00   8.149706e-01   9.526501e+04  -7.949984e+04  -7.962457e+04   1.667446e+09   1.370788e+08   1.858113e+09   1.474304e+05   4.841821e-28   0.000000e+00   0.000000e+00
     2816000   2.815999e-05   1.788302e+00   1.844246e+00   8.086066e-01   9.539815e+04  -7.948901e+04  -7.947583e+04   1.661175e+09   1.336004e+08   1.860354e+09   1.474304e+05   4.831378e-28   0.000000e+00   0.000000e+00
     2824000   2.823999e-05   1.795939e+00   1.837887e+00   8.022545e-01   9.553080e+04  -7.947846e+04  -7.932691e+04   1.654921e+09   1.301138e+08   1.862603e+09   1.474304e+05   4.821089e-28   0.000000e+00   0.000000e+00
     2832000   2.831999e-05   1.803587e+00   1.831529e+00   7.959143e-01   9.566314e+04  -7.946855e+04  -7.917721e+04   1.652000e+09   1.211395e+08   1.874386e+09   1.474304e+05   4.845963e-28   0.000000e+00   0.000000e+00
     2840000   2.839999e-05   1.811245e+00   1.825172e+00   7.895862e-01   9.579509e+04  -7.945905e+04  -7.902707e+04   1.646772e+09   1.163832e+08   1.879165e+09   1.474304e+05   4.845623e-28   0.000000e+00   0.000000e+00
     2848000   2.847999e-05   1.818914e+00   1.818816e+00   7.832700e-01   9.592662e+04  -7.944993e+04  -7.887654e+04   1.641554e+09   1.116264e+08   1.883956e+09   1.474304e+05   4.845458e-28   0.000000e+00   0.000000e+00
     2856000   2.855999e-05   1.826593e+00   1.812460e+00   7.769659e-01   9.605774e+04  -7.944119e+04  -7.872563e+04   1.636346e+09   1.068694e+08   1.888760e+09   1.474304e+05   4.845468e-28   0.000000e+00   0.000000e+00
     2864000   2.863999e-05   1.834283e+00   1.806105e+00   7.706739e-01   9.618844e+04  -7.943283e+04  -7.857434e+04   1.631148e+09   1.021125e+08   1.893576e+09   1.474304e+05   4.845652e-28   0.000000e+00   0.000000e+00
     2872000   2.871999e-05   1.841983e+00   1.799751e+00   7.643940e-01   9.631873e+04  -7.942486e+04  -7.842264e+04   1.627365e+09   9.401414e+07   1.903514e+09   1.474304e+05   4.864102e-28   0.000000e+00   0.000000e+00
     2880000   2.879999e-05   1.849694e+00   1.793397e+00   7.581263e-01   9.644869e+04  -7.941751e+04  -7.827022e+04   1.621617e+09   8.985109e+07   1.907073e+09   1.474304e+05   4.859547e-28   0.000000e+00   0.000000e+00
     2888000   2.887999e-05   1.857415e+00   1.787044e+00   7.518708e-01   9.657819e+04  -7.941049e+04  -7.811751e+04   1.615881e+09   8.568499e+07   1.910641e+09   1.474304e+05   4.855149e-28   0.000000e+00   0.000000e+00
     2896000   2.895999e-05   1.865147e+00   1.780692e+00   7.456275e-01   9.670723e+04  -7.940380e+04  -7.796452e+04   1.610158e+09   8.151607e+07   1.914219e+09   1.474304e+05   4.850910e-28   0.000000e+00   0.000000e+00
     2904000   2.903999e-05   1.872888e+00   1.774339e+00   7.393965e-01   9.683581e+04  -7.939745e+04  -7.781124e+04   1.604447e+09   7.734456e+07   1.917807e+09   1.474304e+05   4.846828e-28   0.000000e+00   0.000000e+00
     2912000   2.911999e-05   1.880640e+00   1.767988e+00   7.331777e-01   9.696394e+04  -7.939142e+04  -7.765767e+04   1.598749e+09   7.317071e+07   1.921405e+09   1.474304e+05   4.842902e-28   0.000000e+00   0.000000e+00
     2920000   2.919999e-05   1.888402e+00   1.761637e+00   7.269713e-01   9.709161e+04  -7.938574e+04  -7.750381e+04   1.593063e+09   6.899472e+07   1.925012e+09   1.474304e+05   4.839132e-28   0.000000e+00   0.000000e+00
     2928000   2.927999e-05   1.896175e+00   1.755286e+00   7.207771e-01   9.721883e+04  -7.938039e+04  -7.734967e+04   1.587389e+09   6.481685e+07   1.928629e+09   1.474304e+05   4.835518e-28   0.000000e+00   0.000000e+00
     2936000   2.935999e-05   1.903957e+00   1.748936e+00   7.145953e-01   9.734568e+04  -7.937541e+04  -7.719508e+04   1.583848e+09   5.944009e+07   1.936168e+09   1.474304e+05   4.848869e-28   0.000000e+00   0.000000e+00
     2944000   2.943999e-05   1.911750e+00   1.742586e+00   7.084259e-01   9.747217e+04  -7.937083e+04  -7.704002e+04   1.578450e+09   5.508512e+07   1.940325e+09   1.474304e+05   4.847742e-28   0.000000e+00   0.000000e+00
     2952000   2.951999e-05   1.919553e+00   1.736237e+00   7.022689e-01   9.759823e+04  -7.936660e+04  -7.688462e+04   1.573061e+09   5.073138e+07   1.944492e+09   1.474304e+05   4.846771e-28   0.000000e+00   0.000000e+00
     2960000   2.959999e-05   1.927366e+00   1.729887e+00   6.961244e-01   9.772368e+04  -7.936235e+04  -7.672950e+04   1.564116e+09   5.343146e+07   1.936813e+09   1.474304e+05   4.802171e-28   0.000000e+00   0.000000e+00
     2968000   2.967999e-05   1.935189e+00   1.723539e+00   6.899922e-01   9.784860e+04  -7.935827e+04  -7.657437e+04   1.558718e+09   4.851181e+07   1.941491e+09   1.474304e+05   4.802777e-28   0.000000e+00   0.000000e+00
     2976000   2.975999e-05   1.943022e+00   1.717190e+00   6.838725e-01   9.797308e+04  -7.935459e+04  -7.641887e+04   1.553326e+09   4.359713e+07   1.946175e+09   1.474304e+05   4.803536e-28   0.000000e+00   0.000000e+00
     2984000   2.983999e-05   1.950864e+00   1.710842e+00   6.777652e-01   9.809713e+04  -7.935130e+04  -7.626298e+04   1.547943e+09   3.868764e+07   1.950865e+09   1.474304e+05   4.804446e-28   0.000000e+00   0.000000e+00
     2992000   2.991999e-05   1.958717e+00   1.704494e+00   6.716704e-01   9.822075e+04  -7.934840e+04  -7.610673e+04   1.542566e+09   3.378356e+07   1.955560e+09   1.474304e+05   4.805506e-28   0.000000e+00   0.000000e+00
     3000000   2.999999e-05   1.966580e+00   1.698146e+00   6.655882e-01   9.834423e+04  -7.934639e+04  -7.594919e+04   1.549501e+09   7.563161e+06   1.998497e+09   1.474304e+05   4.952762e-28   0.000000e+00   0.000000e+00
     3008000   3.007999e-05   1.974452e+00   1.691798e+00   6.595186e-01   9.846794e+04  -7.934595e+04  -7.578920e+04   1.543249e+09   3.581616e+06   2.001292e+09   1.474304e+05   4.946411e-28   0.000000e+00   0.000000e+00
     3016000   3.015999e-05   1.982335e+00   1.685451e+00   6.534619e-01   9.859115e+04  -7.934582e+04  -7.562899e+04   1.537011e+09  -4.022383e+05   2.004094e+09   1.474304e+05   4.940212e-28   0.000000e+00   0.000000e+00
     3024000   3.023999e-05   1.990227e+00   1.679103e+00   6.474180e-01   9.871386e+04  -7.934601e+04  -7.546855e+04   1.530787e+09  -4.388166e+06   2.006903e+09   1.474304e+05   4.934165e-28   0.000000e+00   0.000000e+00
     3032000   3.031999e-05   1.998129e+00   1.672755e+00   6.413869e-01   9.883608e+04  -7.934652e+04  -7.530788e+04   1.524577e+09  -8.375934e+06   2.009719e+09   1.474304e+05   4.928269e-28   0.000000e+00   0.000000e+00
     3040000   3.039999e-05   2.006041e+00   1.666408e+00   6.353687e-01   9.895736e+04  -7.934632e+04  -7.514866e+04   1.511239e+09   4.542714e+06   1.985234e+09   1.474304e+05   4.821114e-28   0.000000e+00   0.000000e+00
     3048000   3.047999e-05   2.013962e+00   1.660060e+00   6.293632e-01   9.907801e+04  -7.934612e+04  -7.498973e+04   1.505159e+09   4.384286e+05   1.988184e+09   1.474304e+05   4.815973e-28   0.000000e+00   0.000000e+00
     3056000   3.055999e-05   2.021893e+00   1.653712e+00   6.233703e-01   9.919818e+04  -7.934625e+04  -7.483055e+04   1.499091e+09  -3.664041e+06   1.991136e+09   1.474304e+05   4.810964e-28   0.000000e+00   0.000000e+00
     3064000   3.063999e-05   2.029834e+00   1.647365e+00   6.173903e-01   9.931787e+04  -7.934670e+04  -7.467114e+04   1.493035e+09  -7.764493e+06   1.994091e+09   1.474304e+05   4.806085e-28   0.000000e+00   0.000000e+00
     3072000   3.071999e-05   2.037784e+00   1.641017e+00   6.114230e-01   9.943707e+04  -7.934749e+04  -7.451150e+04   1.486989e+09  -1.186272e+07   1.997049e+09   1.474304e+05   4.801337e-28   0.000000e+00   0.000000e+00
     3080000   3.079999e-05   2.045744e+00   1.634669e+00   6.054684e-01   9.955578e+04  -7.934860e+04  -7.435162e+04   1.480955e+09  -1.595853e+07   2.000009e+09   1.474304e+05   4.796718e-28   0.000000e+00   0.000000e+00
     3088000   3.087999e-05   2.053713e+00   1.628321e+00   5.995267e-01   9.967404e+04  -7.935016e+04  -7.419135e+04   1.478062e+09  -3.763898e+07   2.025991e+09   1.474304e+05   4.872004e-28   0.000000e+00   0.000000e+00
     3096000   3.095999e-05   2.061691e+00   1.621973e+00   5.935979e-01   9.979199e+04  -7.935329e+04  -7.402926e+04   1.470783e+09  -4.067306e+07   2.026224e+09   1.474304e+05   4.856297e-28   0.000000e+00   0.000000e+00
     3104000   3.103999e-05   2.069680e+00   1.615624e+00   5.876820e-01   9.990937e+04  -7.935666e+04  -7.386715e+04   1.463525e+09  -4.371740e+07   2.026463e+09   1.474304e+05   4.840749e-28   0.000000e+00   0.000000e+00
     3112000   3.111999e-05   2.077677e+00   1.609276e+00   5.817791e-01   1.000262e+05  -7.936028e+04  -7.370503e+04   1.456286e+09  -4.677178e+07   2.026707e+09   1.474304e+05   4.825361e-28   0.000000e+00   0.000000e+00
     3120000   3.119999e-05   2.085684e+00   1.602927e+00   5.758892e-01   1.001424e+05  -7.936415e+04  -7.354288e+04   1.449068e+09  -4.983596e+07   2.026956e+09   1.474304e+05   4.810130e-28   0.000000e+00   0.000000e+00
     3128000   3.127999e-05   2.093700e+00   1.596578e+00   5.700122e-01   1.002575e+05  -7.936737e+04  -7.338235e+04   1.430352e+09  -3.254508e+07   1.989395e+09   1.474304e+05   4.650455e-28   0.000000e+00   0.000000e+00
     3136000   3.135999e-05   2.101725e+00   1.590228e+00   5.641480e-01   1.003719e+05  -7.937042e+04  -7.322255e+04   1.435295e+09  -5.381298e+07   2.025801e+09   1.474304e+05   4.776058e-28   0.000000e+00   0.000000e+00
     3144000   3.143999e-05   2.109759e+00   1.583878e+00   5.582967e-01   1.004864e+05  -7.937484e+04  -7.306052e+04   1.427627e+09  -5.669558e+07   2.025132e+09   1.474304e+05   4.757204e-28   0.000000e+00   0.000000e+00
     3152000   3.151999e-05   2.117803e+00   1.577528e+00   5.524583e-01   1.006003e+05  -7.937950e+04  -7.289853e+04   1.419981e+09  -5.958893e+07   2.024466e+09   1.474304e+05   4.738512e-28   0.000000e+00   0.000000e+00
     3160000   3.159999e-05   2.125855e+00   1.571178e+00   5.466329e-01   1.007136e+05  -7.938438e+04  -7.273660e+04   1.412357e+09  -6.249281e+07   2.023802e+09   1.474304e+05   4.719981e-28   0.000000e+00   0.000000e+00
     3168000   3.167999e-05   2.133917e+00   1.564827e+00   5.408205e-01   1.008263e+05  -7.938949e+04  -7.257472e+04   1.404755e+09  -6.540700e+07   2.023140e+09   1.474304e+05   4.701609e-28   0.000000e+00   0.000000e+00
     3176000   3.175999e-05   2.141987e+00   1.558475e+00   5.350210e-01   1.009383e+05  -7.939484e+04  -7.241290e+04   1.397175e+09  -6.833128e+07   2.022480e+09   1.474304e+05   4.683395e-28   0.000000e+00   0.000000e+00
     3184000   3.183999e-05   2.150067e+00   1.552123e+00   5.292344e-01   1.010498e+05  -7.940043e+04  -7.225113e+04   1.389616e+09  -7.126543e+07   2.021822e+09   1.474304e+05   4.665338e-28   0.000000e+00   0.000000e+00
     3192000   3.191999e-05   2.158155e+00   1.545771e+00   5.234608e-01   1.011607e+05  -7.940625e+04  -7.208941e+04   1.382079e+09  -7.420923e+07   2.021167e+09   1.474304e+05   4.647439e-28   0.000000e+00   0.000000e+00
     3200000   3.199999e-05   2.166253e+00   1.539418e+00   5.177001e-01   1.012709e+05  -7.941230e+04  -7.192774e+04   1.374564e+09  -7.716246e+07   2.020513e+09   1.474304e+05   4.629695e-28   0.000000e+00   0.000000e+00
     3208000   3.207999e-05   2.174359e+00   1.533065e+00   5.119524e-01   1.013806e+05  -7.941859e+04  -7.176613e+04   1.367070e+09  -8.012492e+07   2.019862e+09   1.474304e+05   4.612105e-28   0.000000e+00   0.000000e+00
     3216000   3.215999e-05   2.182474e+00   1.526711e+00   5.062175e-01   1.014897e+05  -7.942512e+04  -7.160456e+04   1.359597e+09  -8.309639e+07   2.019213e+09   1.474304e+05   4.594670e-28   0.000000e+00   0.000000e+00
     3224000   3.223999e-05   2.190597e+00   1.520357e+00   5.004956e-01   1.015981e+05  -7.943189e+04  -7.144305e+04   1.352145e+09  -8.607665e+07   2.018567e+09   1.474304e+05   4.577388e-28   0.000000e+00   0.000000e+00
     3232000   3.231999e-05   2.198729e+00   1.514002e+00   4.947866e-01   1.017056e+05  -7.943869e+04  -7.128235e+04   1.339644e+09  -8.639459e+07   2.007683e+09   1.474304e+05   4.517433e-28   0.000000e+00   0.000000e+00
     3240000   3.239999e-05   2.206870e+00   1.507647e+00   4.890905e-01   1.018128e+05  -7.944588e+04  -7.112118e+04   1.336328e+09  -9.172166e+07   2.015464e+09   1.474304e+05   4.535539e-28   0.000000e+00   0.000000e+00
     3248000   3.247999e-05   2.215019e+00   1.501291e+00   4.834072e-01   1.019194e+05  -7.945334e+04  -7.095998e+04   1.328718e+09  -9.466333e+07   2.014422e+09   1.474304e+05   4.517004e-28   0.000000e+00   0.000000e+00
     3256000   3.255999e-05   2.223177e+00   1.494934e+00   4.777368e-01   1.020251e+05  -7.946062e+04  -7.079976e+04   1.316436e+09  -9.127632e+07   1.999474e+09   1.474304e+05   4.444888e-28   0.000000e+00   0.000000e+00
     3264000   3.263999e-05   2.231343e+00   1.488577e+00   4.720793e-01   1.021301e+05  -7.946805e+04  -7.063984e+04   1.308917e+09  -9.432088e+07   1.998522e+09   1.474304e+05   4.427089e-28   0.000000e+00   0.000000e+00
     3272000   3.271999e-05   2.239518e+00   1.482219e+00   4.664345e-01   1.022345e+05  -7.947571e+04  -7.048000e+04   1.301419e+09  -9.737287e+07   1.997570e+09   1.474304e+05   4.409437e-28   0.000000e+00   0.000000e+00
     3280000   3.279999e-05   2.247701e+00   1.475861e+00   4.608025e-01   1.023383e+05  -7.948363e+04  -7.032023e+04   1.293942e+09  -1.004321e+08   1.996617e+09   1.474304e+05   4.391929e-28   0.000000e+00   0.000000e+00
     3288000   3.287999e-05   2.255892e+00   1.469502e+00   4.551832e-01   1.024416e+05  -7.949178e+04  -7.016054e+04   1.286486e+09  -1.034984e+08   1.995664e+09   1.474304e+05   4.374565e-28   0.000000e+00   0.000000e+00
     3296000   3.295999e-05   2.264091e+00   1.463142e+00   4.495768e-01   1.025442e+05  -7.950019e+04  -7.000092e+04   1.279050e+09  -1.065715e+08   1.994710e+09   1.474304e+05   4.357345e-28   0.000000e+00   0.000000e+00
     3304000   3.303999e-05   2.272299e+00   1.456782e+00   4.439831e-01   1.026462e+05  -7.950884e+04  -6.984139e+04   1.271635e+09  -1.096512e+08   1.993757e+09   1.474304e+05   4.340267e-28   0.000000e+00   0.000000e+00
     3312000   3.311999e-05   2.280515e+00   1.450421e+00   4.384021e-01   1.027476e+05  -7.951773e+04  -6.968192e+04   1.264241e+09  -1.127374e+08   1.992803e+09   1.474304e+05   4.323330e-28   0.000000e+00   0.000000e+00
     3320000   3.319999e-05   2.288739e+00   1.444059e+00   4.328340e-01   1.028485e+05  -7.952687e+04  -6.952254e+04   1.256866e+09  -1.158298e+08   1.991848e+09   1.474304e+05   4.306533e-28   0.000000e+00   0.000000e+00
     3328000   3.327999e-05   2.296971e+00   1.437697e+00   4.272785e-01   1.029487e+05  -7.953626e+04  -6.936323e+04   1.249512e+09  -1.189282e+08   1.990893e+09   1.474304e+05   4.289876e-28   0.000000e+00   0.000000e+00
     3336000   3.335999e-05   2.305210e+00   1.431333e+00   4.217359e-01   1.030485e+05  -7.954602e+04  -6.920373e+04   1.243791e+09  -1.243903e+08   1.995058e+09   1.474304e+05   4.292714e-28   0.000000e+00   0.000000e+00
     3344000   3.343999e-05   2.313458e+00   1.424969e+00   4.162059e-01   1.031477e+05  -7.955609e+04  -6.904418e+04   1.236217e+09  -1.274045e+08   1.993631e+09   1.474304e+05   4.274347e-28   0.000000e+00   0.000000e+00
     3352000   3.351999e-05   2.321714e+00   1.418604e+00   4.106888e-01   1.032463e+05  -7.956641e+04  -6.888475e+04   1.228664e+09  -1.304262e+08   1.992205e+09   1.474304e+05   4.256128e-28   0.000000e+00   0.000000e+00
     3360000   3.359999e-05   2.329978e+00   1.412239e+00   4.051844e-01   1.033443e+05  -7.957696e+04  -6.872543e+04   1.221133e+09  -1.334554e+08   1.990778e+09   1.474304e+05   4.238057e-28   0.000000e+00   0.000000e+00
     3368000   3.367999e-05   2.338249e+00   1.405872e+00   3.996927e-01   1.034417e+05  -7.958777e+04  -6.856622e+04   1.212482e+09  -1.390482e+08   1.990596e+09   1.474304e+05   4.222372e-28   0.000000e+00   0.000000e+00
     3376000   3.375999e-05   2.346528e+00   1.399505e+00   3.942138e-01   1.035383e+05  -7.959905e+04  -6.840705e+04   1.195391e+09  -1.440592e+08   1.976927e+09   1.474304e+05   4.149596e-28   0.000000e+00   0.000000e+00
     3384000   3.383999e-05   2.354815e+00   1.393136e+00   3.887476e-01   1.036337e+05  -7.961071e+04  -6.824888e+04   1.188846e+09  -1.474947e+08   1.977272e+09   1.474304e+05   4.139342e-28   0.000000e+00   0.000000e+00
     3392000   3.391999e-05   2.363110e+00   1.386767e+00   3.832940e-01   1.037285e+05  -7.962265e+04  -6.809068e+04   1.182315e+09  -1.509307e+08   1.977616e+09   1.474304e+05   4.129198e-28   0.000000e+00   0.000000e+00
     3400000   3.399999e-05   2.371412e+00   1.380397e+00   3.778530e-01   1.038229e+05  -7.963486e+04  -6.793246e+04   1.175798e+09  -1.543673e+08   1.977960e+09   1.474304e+05   4.119163e-28   0.000000e+00   0.000000e+00
     3408000   3.407999e-05   2.379721e+00   1.374025e+00   3.724248e-01   1.039167e+05  -7.964735e+04  -6.777421e+04   1.169296e+09  -1.578042e+08   1.978304e+09   1.474304e+05   4.109237e-28   0.000000e+00   0.000000e+00
     3416000   3.415999e-05   2.388038e+00   1.367653e+00   3.670092e-01   1.040100e+05  -7.966011e+04  -6.761593e+04   1.162808e+09  -1.612413e+08   1.978647e+09   1.474304e+05   4.099419e-28   0.000000e+00   0.000000e+00
     3424000   3.423999e-05   2.396363e+00   1.361280e+00   3.616062e-01   1.041027e+05  -7.967315e+04  -6.745763e+04   1.156334e+09  -1.646783e+08   1.978989e+09   1.474304e+05   4.089708e-28   0.000000e+00   0.000000e+00
     3432000   3.431999e-05   2.404695e+00   1.354905e+00   3.562160e-01   1.041951e+05  -7.968634e+04  -6.729921e+04   1.153005e+09  -1.654677e+08   1.981048e+09   1.474304e+05   4.090269e-28   0.000000e+00   0.000000e+00
     3440000   3.439999e-05   2.413034e+00   1.348530e+00   3.508384e-01   1.042871e+05  -7.969972e+04  -6.714073e+04   1.146307e+09  -1.689808e+08   1.981103e+09   1.474304e+05   4.079422e-28   0.000000e+00   0.000000e+00
     3448000   3.447999e-05   2.421381e+00   1.342153e+00   3.454734e-01   1.043785e+05  -7.971338e+04  -6.698224e+04   1.139624e+09  -1.724945e+08   1.981156e+09   1.474304e+05   4.068683e-28   0.000000e+00   0.000000e+00
     3456000   3.455999e-05   2.429735e+00   1.335776e+00   3.401212e-01   1.044694e+05  -7.972732e+04  -6.682374e+04   1.132954e+09  -1.760087e+08   1.981208e+09   1.474304e+05   4.058050e-28   0.000000e+00   0.000000e+00
     3464000   3.463999e-05   2.438096e+00   1.329397e+00   3.347816e-01   1.045598e+05  -7.974154e+04  -6.666524e+04   1.126299e+09  -1.795232e+08   1.981257e+09   1.474304e+05   4.047524e-28   0.000000e+00   0.000000e+00
     3472000   3.471999e-05   2.446464e+00   1.323017e+00   3.294548e-01   1.046496e+05  -7.975604e+04  -6.650674e+04   1.119658e+09  -1.830379e+08   1.981304e+09   1.474304e+05   4.037104e-28   0.000000e+00   0.000000e+00
     3480000   3.479999e-05   2.454840e+00   1.316636e+00   3.241406e-01   1.047389e+05  -7.977082e+04  -6.634823e+04   1.113030e+09  -1.865525e+08   1.981349e+09   1.474304e+05   4.026788e-28   0.000000e+00   0.000000e+00
     3488000   3.487999e-05   2.463222e+00   1.310254e+00   3.188390e-01   1.048277e+05  -7.978589e+04  -6.618973e+04   1.106417e+09  -1.900670e+08   1.981392e+09   1.474304e+05   4.016576e-28   0.000000e+00   0.000000e+00
     3496000   3.495999e-05   2.471612e+00   1.303870e+00   3.135502e-01   1.049160e+05  -7.980123e+04  -6.603121e+04   1.099817e+09  -1.935812e+08   1.981432e+09   1.474304e+05   4.006468e-28   0.000000e+00   0.000000e+00
     3504000   3.503999e-05   2.480009e+00   1.297486e+00   3.082740e-01   1.050036e+05  -7.981682e+04  -6.587284e+04   1.091417e+09  -1.956408e+08   1.976811e+09   1.474304e+05   3.978666e-28   0.000000e+00   0.000000e+00
     3512000   3.511999e-05   2.488413e+00   1.291100e+00   3.030105e-01   1.050907e+05  -7.983259e+04  -6.571471e+04   1.084992e+09  -1.987671e+08   1.976583e+09   1.474304e+05   3.968092e-28   0.000000e+00   0.000000e+00
     3520000   3.519999e-05   2.496823e+00   1.284712e+00   2.977597e-01   1.051771e+05  -7.984947e+04  -6.555571e+04   1.075838e+09  -2.266926e+08   2.002187e+09   1.474304e+05   4.040872e-28   0.000000e+00   0.000000e+00
     3528000   3.527999e-05   2.505241e+00   1.278324e+00   2.925216e-01   1.052627e+05  -7.986648e+04  -6.539740e+04   1.065079e+09  -2.048842e+08   1.964551e+09   1.474304e+05   3.900122e-28   0.000000e+00   0.000000e+00
     3536000   3.535999e-05   2.513665e+00   1.271934e+00   2.872961e-01   1.053477e+05  -7.988301e+04  -6.524026e+04   1.058294e+09  -2.082550e+08   1.963891e+09   1.474304e+05   3.888034e-28   0.000000e+00   0.000000e+00
     3544000   3.543999e-05   2.522097e+00   1.265542e+00   2.820832e-01   1.054321e+05  -7.989980e+04  -6.508317e+04   1.051522e+09  -2.116253e+08   1.963225e+09   1.474304e+05   3.876038e-28   0.000000e+00   0.000000e+00
     3552000   3.551999e-05   2.530535e+00   1.259150e+00   2.768828e-01   1.055159e+05  -7.991687e+04  -6.492614e+04   1.044764e+09  -2.149950e+08   1.962551e+09   1.474304e+05   3.864131e-28   0.000000e+00   0.000000e+00
     3560000   3.559999e-05   2.538979e+00   1.252756e+00   2.716950e-01   1.055992e+05  -7.993420e+04  -6.476917e+04   1.038019e+09  -2.183639e+08   1.961871e+09   1.474304e+05   3.852315e-28   0.000000e+00   0.000000e+00
     3568000   3.567999e-05   2.547430e+00   1.246360e+00   2.665197e-01   1.056820e+05  -7.995181e+04  -6.461224e+04   1.031289e+09  -2.217319e+08   1.961183e+09   1.474304e+05   3.840588e-28   0.000000e+00   0.000000e+00
     3576000   3.575999e-05   2.555888e+00   1.239963e+00   2.613570e-01   1.057642e+05  -7.996968e+04  -6.445538e+04   1.024572e+09  -2.250989e+08   1.960489e+09   1.474304e+05   3.828949e-28   0.000000e+00   0.000000e+00
     3584000   3.583999e-05   2.564353e+00   1.233565e+00   2.562069e-01   1.058459e+05  -7.998782e+04  -6.429857e+04   1.017868e+09  -2.284647e+08   1.959788e+09   1.474304e+05   3.817398e-28   0.000000e+00   0.000000e+00
     3592000   3.591999e-05   2.572824e+00   1.227165e+00   2.510693e-01   1.059271e+05  -8.000623e+04  -6.414181e+04   1.011178e+09  -2.318293e+08   1.959079e+09   1.474304e+05   3.805935e-28   0.000000e+00   0.000000e+00
     3600000   3.599999e-05   2.581301e+00   1.220764e+00   2.459442e-01   1.060077e+05  -8.002491e+04  -6.398511e+04   1.004502e+09  -2.351925e+08   1.958364e+09   1.474304e+05   3.794558e-28   0.000000e+00   0.000000e+00
     3608000   3.607999e-05   2.589785e+00   1.214361e+00   2.408316e-01   1.060878e+05  -8.004386e+04  -6.382847e+04   9.978384e+08  -2.385542e+08   1.957641e+09   1.474304e+05   3.783267e-28   0.000000e+00   0.000000e+00
     3616000   3.615999e-05   2.598275e+00   1.207957e+00   2.357316e-01   1.061674e+05  -8.006308e+04  -6.367189e+04   9.911887e+08  -2.419142e+08   1.956911e+09   1.474304e+05   3.772061e-28   0.000000e+00   0.000000e+00
     3624000   3.623999e-05   2.606772e+00   1.201551e+00   2.306441e-01   1.062467e+05  -8.008276e+04  -6.351471e+04   9.883814e+08  -2.480664e+08   1.966128e+09   1.474304e+05   3.798093e-28   0.000000e+00   0.000000e+00
     3632000   3.631999e-05   2.615275e+00   1.195144e+00   2.255692e-01   1.063252e+05  -8.010254e+04  -6.335817e+04   9.769606e+08  -2.479034e+08   1.952916e+09   1.474304e+05   3.740546e-28   0.000000e+00   0.000000e+00
     3640000   3.639999e-05   2.623784e+00   1.188735e+00   2.205068e-01   1.064031e+05  -8.012248e+04  -6.320203e+04   9.699120e+08  -2.506861e+08   1.950683e+09   1.474304e+05   3.724244e-28   0.000000e+00   0.000000e+00
     3648000   3.647999e-05   2.632299e+00   1.182324e+00   2.154569e-01   1.064804e+05  -8.014264e+04  -6.304606e+04   9.628796e+08  -2.534703e+08   1.948440e+09   1.474304e+05   3.708032e-28   0.000000e+00   0.000000e+00
     3656000   3.655999e-05   2.640820e+00   1.175912e+00   2.104195e-01   1.065571e+05  -8.016303e+04  -6.289028e+04   9.558633e+08  -2.562558e+08   1.946187e+09   1.474304e+05   3.691908e-28   0.000000e+00   0.000000e+00
     3664000   3.663999e-05   2.649348e+00   1.169498e+00   2.053945e-01   1.066333e+05  -8.018365e+04  -6.273467e+04   9.488632e+08  -2.590425e+08   1.943923e+09   1.474304e+05   3.675872e-28   0.000000e+00   0.000000e+00
     3672000   3.671999e-05   2.657882e+00   1.163083e+00   2.003819e-01   1.067089e+05  -8.020448e+04  -6.257925e+04   9.418792e+08  -2.618305e+08   1.941648e+09   1.474304e+05   3.659924e-28   0.000000e+00   0.000000e+00
     3680000   3.679999e-05   2.666422e+00   1.156665e+00   1.953819e-01   1.067840e+05  -8.022746e+04  -6.242154e+04   9.346786e+08  -2.903919e+08   1.972173e+09   1.474304e+05   3.754202e-28   0.000000e+00   0.000000e+00
     3688000   3.687999e-05   2.674967e+00   1.150246e+00   1.903945e-01   1.068585e+05  -8.025078e+04  -6.226391e+04   9.271907e+08  -2.926352e+08   1.968433e+09   1.474304e+05   3.733003e-28   0.000000e+00   0.000000e+00
     3696000   3.695999e-05   2.683519e+00   1.143825e+00   1.854196e-01   1.069324e+05  -8.027428e+04  -6.210659e+04   9.197238e+08  -2.948871e+08   1.964688e+09   1.474304e+05   3.711938e-28   0.000000e+00   0.000000e+00
     3704000   3.703999e-05   2.692076e+00   1.137402e+00   1.804574e-01   1.070056e+05  -8.029797e+04  -6.194956e+04   9.122777e+08  -2.971474e+08   1.960936e+09   1.474304e+05   3.691005e-28   0.000000e+00   0.000000e+00
     3712000   3.711999e-05   2.700640e+00   1.130977e+00   1.755077e-01   1.070783e+05  -8.032170e+04  -6.179299e+04   9.061453e+08  -2.787537e+08   1.932557e+09   1.474304e+05   3.588588e-28   0.000000e+00   0.000000e+00
     3720000   3.719999e-05   2.709209e+00   1.124551e+00   1.705704e-01   1.071505e+05  -8.034413e+04  -6.163850e+04   8.986942e+08  -2.817905e+08   1.929569e+09   1.474304e+05   3.570553e-28   0.000000e+00   0.000000e+00
     3728000   3.727999e-05   2.717784e+00   1.118122e+00   1.656455e-01   1.072221e+05  -8.036679e+04  -6.148425e+04   8.912619e+08  -2.848304e+08   1.926572e+09   1.474304e+05   3.552635e-28   0.000000e+00   0.000000e+00
     3736000   3.735999e-05   2.726364e+00   1.111692e+00   1.607330e-01   1.072931e+05  -8.038970e+04  -6.133025e+04   8.838482e+08  -2.878734e+08   1.923567e+09   1.474304e+05   3.534832e-28   0.000000e+00   0.000000e+00
     3744000   3.743999e-05   2.734951e+00   1.105260e+00   1.558327e-01   1.073635e+05  -8.041285e+04  -6.117648e+04   8.764532e+08  -2.909193e+08   1.920554e+09   1.474304e+05   3.517144e-28   0.000000e+00   0.000000e+00
     3752000   3.751999e-05   2.743543e+00   1.098826e+00   1.509447e-01   1.074333e+05  -8.043645e+04  -6.102276e+04   8.663016e+08  -3.078334e+08   1.930929e+09   1.474304e+05   3.542235e-28   0.000000e+00   0.000000e+00
     3760000   3.759999e-05   2.752140e+00   1.092390e+00   1.460691e-01   1.075023e+05  -8.046116e+04  -6.086847e+04   8.586577e+08  -3.100460e+08   1.926355e+09   1.474304e+05   3.519419e-28   0.000000e+00   0.000000e+00
     3768000   3.767999e-05   2.760743e+00   1.085952e+00   1.412057e-01   1.075707e+05  -8.048606e+04  -6.071455e+04   8.510354e+08  -3.122672e+08   1.921773e+09   1.474304e+05   3.496741e-28   0.000000e+00   0.000000e+00
     3776000   3.775999e-05   2.769351e+00   1.079512e+00   1.363547e-01   1.076385e+05  -8.051113e+04  -6.056099e+04   8.434346e+08  -3.144970e+08   1.917183e+09   1.474304e+05   3.474200e-28   0.000000e+00   0.000000e+00
     3784000   3.783999e-05   2.777965e+00   1.073071e+00   1.315160e-01   1.077057e+05  -8.053638e+04  -6.040780e+04   8.358553e+08  -3.167353e+08   1.912584e+09   1.474304e+05   3.451797e-28   0.000000e+00   0.000000e+00
     3792000   3.791999e-05   2.786584e+00   1.066627e+00   1.266895e-01   1.077722e+05  -8.056181e+04  -6.025498e+04   8.282972e+08  -3.189817e+08   1.907977e+09   1.474304e+05   3.429531e-28   0.000000e+00   0.000000e+00
     3800000   3.799999e-05   2.795209e+00   1.060181e+00   1.218752e-01   1.078382e+05  -8.058741e+04  -6.010252e+04   8.207605e+08  -3.212363e+08   1.903362e+09   1.474304e+05   3.407400e-28   0.000000e+00   0.000000e+00
     3808000   3.807999e-05   2.803838e+00   1.053733e+00   1.170730e-01   1.079037e+05  -8.061285e+04  -5.995071e+04   8.164502e+08  -3.137219e+08   1.891353e+09   1.474304e+05   3.362945e-28   0.000000e+00   0.000000e+00
     3816000   3.815999e-05   2.812473e+00   1.047283e+00   1.122830e-01   1.079687e+05  -8.063807e+04  -5.979956e+04   8.086667e+08  -3.168707e+08   1.887346e+09   1.474304e+05   3.342960e-28   0.000000e+00   0.000000e+00
     3824000   3.823999e-05   2.821113e+00   1.040831e+00   1.075051e-01   1.080330e+05  -8.066355e+04  -5.964873e+04   8.009029e+08  -3.200229e+08   1.883328e+09   1.474304e+05   3.323103e-28   0.000000e+00   0.000000e+00
     3832000   3.831999e-05   2.829758e+00   1.034376e+00   1.027392e-01   1.080968e+05  -8.068928e+04  -5.949823e+04   7.931589e+08  -3.231785e+08   1.879299e+09   1.474304e+05   3.303373e-28   0.000000e+00   0.000000e+00
     3840000   3.839999e-05   2.838409e+00   1.027920e+00   9.798538e-02   1.081600e+05  -8.071513e+04  -5.934816e+04   7.862385e+08  -3.226075e+08   1.871647e+09   1.474304e+05   3.272394e-28   0.000000e+00   0.000000e+00
     3848000   3.847999e-05   2.847064e+00   1.021462e+00   9.324352e-02   1.082226e+05  -8.074105e+04  -5.919861e+04   7.787907e+08  -3.251629e+08   1.867218e+09   1.474304e+05   3.251823e-28   0.000000e+00   0.000000e+00
     3856000   3.855999e-05   2.855724e+00   1.015002e+00   8.851360e-02   1.082846e+05  -8.076716e+04  -5.904941e+04   7.713640e+08  -3.277233e+08   1.862780e+09   1.474304e+05   3.231383e-28   0.000000e+00   0.000000e+00
     3864000   3.863999e-05   2.864390e+00   1.008539e+00   8.379560e-02   1.083460e+05  -8.079348e+04  -5.890056e+04   7.639583e+08  -3.302885e+08   1.858334e+09   1.474304e+05   3.211072e-28   0.000000e+00   0.000000e+00
     3872000   3.871999e-05   2.873060e+00   1.002075e+00   7.908950e-02   1.084068e+05  -8.082001e+04  -5.875207e+04   7.565736e+08  -3.328585e+08   1.853881e+09   1.474304e+05   3.190890e-28   0.000000e+00   0.000000e+00
     3880000   3.879999e-05   2.881735e+00   9.956080e-01   7.439528e-02   1.084670e+05  -8.084733e+04  -5.860313e+04   7.491912e+08  -3.463340e+08   1.864452e+09   1.474304e+05   3.219812e-28   0.000000e+00   0.000000e+00
     3888000   3.887999e-05   2.890414e+00   9.891391e-01   6.971299e-02   1.085267e+05  -8.087514e+04  -5.845415e+04   7.418021e+08  -3.488828e+08   1.859940e+09   1.474304e+05   3.199639e-28   0.000000e+00   0.000000e+00
     3896000   3.895999e-05   2.899099e+00   9.826680e-01   6.504261e-02   1.085857e+05  -8.090315e+04  -5.830554e+04   7.344339e+08  -3.514363e+08   1.855421e+09   1.474304e+05   3.179596e-28   0.000000e+00   0.000000e+00
     3904000   3.903999e-05   2.907788e+00   9.761946e-01   6.038403e-02   1.086440e+05  -8.093036e+04  -5.815909e+04   7.240916e+08  -3.399493e+08   1.825688e+09   1.474304e+05   3.076997e-28   0.000000e+00   0.000000e+00
     3912000   3.911999e-05   2.916482e+00   9.697191e-01   5.573714e-02   1.087016e+05  -8.095766e+04  -5.801322e+04   7.167109e+08  -3.427115e+08   1.821184e+09   1.474304e+05   3.057498e-28   0.000000e+00   0.000000e+00
     3920000   3.919999e-05   2.925180e+00   9.632414e-01   5.110191e-02   1.087587e+05  -8.098519e+04  -5.786770e+04   7.093499e+08  -3.454772e+08   1.816669e+09   1.474304e+05   3.038122e-28   0.000000e+00   0.000000e+00
     3928000   3.927999e-05   2.933883e+00   9.567615e-01   4.647830e-02   1.088151e+05  -8.101294e+04  -5.772255e+04   7.020086e+08  -3.482463e+08   1.812144e+09   1.474304e+05   3.018869e-28   0.000000e+00   0.000000e+00
     3936000   3.935999e-05   2.942591e+00   9.502793e-01   4.186629e-02   1.088710e+05  -8.104091e+04  -5.757776e+04   6.946868e+08  -3.510187e+08   1.807609e+09   1.474304e+05   2.999737e-28   0.000000e+00   0.000000e+00
     3944000   3.943999e-05   2.951303e+00   9.437949e-01   3.726585e-02   1.089263e+05  -8.106910e+04  -5.743333e+04   6.873845e+08  -3.537943e+08   1.803064e+09   1.474304e+05   2.980726e-28   0.000000e+00   0.000000e+00
     3952000   3.951999e-05   2.960019e+00   9.373083e-01   3.267695e-02   1.089810e+05  -8.109752e+04  -5.728927e+04   6.801016e+08  -3.565729e+08   1.798509e+09   1.474304e+05   2.961836e-28   0.000000e+00   0.000000e+00
     3960000   3.959999e-05   2.968740e+00   9.308193e-01   2.809956e-02   1.090351e+05  -8.112615e+04  -5.714557e+04   6.728379e+08  -3.593545e+08   1.793944e+09   1.474304e+05   2.943066e-28   0.000000e+00   0.000000e+00
     3968000   3.967999e-05   2.977465e+00   9.243281e-01   2.353365e-02   1.090886e+05  -8.115501e+04  -5.700224e+04   6.655935e+08  -3.621390e+08   1.789369e+09   1.474304e+05   2.924416e-28   0.000000e+00   0.000000e+00
     3976000   3.975999e-05   2.986194e+00   9.178345e-01   1.897919e-02   1.091416e+05  -8.118410e+04  -5.685927e+04   6.583681e+08  -3.649261e+08   1.784784e+09   1.474304e+05   2.905885e-28   0.000000e+00   0.000000e+00
     3984000   3.983999e-05   2.994927e+00   9.113386e-01   1.443615e-02   1.091940e+05  -8.121340e+04  -5.671667e+04   6.511618e+08  -3.677160e+08   1.780188e+09   1.474304e+05   2.887471e-28   0.000000e+00   0.000000e+00
     3992000   3.991999e-05   3.003665e+00   9.048404e-01   9.904513e-03   1.092458e+05  -8.124296e+04  -5.657440e+04   6.439407e+08  -3.713449e+08   1.776721e+09   1.474304e+05   2.872753e-28   0.000000e+00   0.000000e+00
     4000000   3.999999e-05   3.012406e+00   8.983397e-01   5.384241e-03   1.092970e+05  -8.127275e+04  -5.643250e+04   6.363556e+08  -3.728342e+08   1.769423e+09   1.474304e+05   2.846049e-28   0.000000e+00   0.000000e+00
     4008000   4.007999e-05   3.021152e+00   8.918367e-01   8.752974e-04   1.093476e+05  -8.130268e+04  -5.629115e+04   6.291970e+08  -3.754182e+08   1.764463e+09   1.474304e+05   2.826954e-28   0.000000e+00   0.000000e+00
