     timestep     time              x             y              z              vx             vy             vz             ax             ay             az         v_magnitude      ELoss        Electronic      Nuclear
           0  8.094772e-319   1.000000e-01   9.449685e+00   5.884431e+00   1.246004e+05  -2.285635e+04  -7.541903e+04   0.000000e+00   0.000000e+00   0.000000e+00   1.474304e+05   0.000000e+00   0.000000e+00   0.000000e+00
        8000   7.999000e-08   1.099828e-01   9.447931e+00   5.878400e+00   1.249641e+05  -2.099135e+04  -7.535954e+04   4.374584e+09   2.332778e+10   7.560907e+08   1.474304e+05   4.367214e-26  1.482197e-323  1.482197e-323
       16000   1.599900e-07   1.199935e-01   9.446326e+00   5.872374e+00   1.253004e+05  -1.912404e+04  -7.529808e+04   4.033340e+09   2.335411e+10   7.802128e+08   1.474304e+05   4.354799e-26  1.482197e-323  1.482197e-323
       24000   2.399900e-07   1.300301e-01   9.444871e+00   5.866352e+00   1.256094e+05  -1.725482e+04  -7.523473e+04   3.692264e+09   2.337561e+10   8.032940e+08   1.474304e+05   4.342454e-26  1.482197e-323  1.482197e-323
       32000   3.199900e-07   1.400903e-01   9.443566e+00   5.860336e+00   1.258911e+05  -1.538407e+04  -7.516958e+04   3.351403e+09   2.339229e+10   8.253050e+08   1.474304e+05   4.330180e-26  1.482197e-323  1.482197e-323
       40000   3.999900e-07   1.501720e-01   9.442410e+00   5.854325e+00   1.261456e+05  -1.351218e+04  -7.510271e+04   3.010808e+09   2.340418e+10   8.462170e+08   1.474304e+05   4.317979e-26  1.482197e-323  1.482197e-323
       48000   4.799900e-07   1.602729e-01   9.441404e+00   5.848320e+00   1.263729e+05  -1.163953e+04  -7.503422e+04   2.670524e+09   2.341131e+10   8.660022e+08   1.474304e+05   4.305851e-26  1.482197e-323  1.482197e-323
       56000   5.599900e-07   1.703909e-01   9.440548e+00   5.842320e+00   1.265729e+05  -9.766495e+03  -7.496419e+04   2.330601e+09   2.341368e+10   8.846338e+08   1.474304e+05   4.293798e-26  1.482197e-323  1.482197e-323
       64000   6.399900e-07   1.805238e-01   9.439841e+00   5.836325e+00   1.267458e+05  -7.893464e+03  -7.489271e+04   1.991085e+09   2.341132e+10   9.020858e+08   1.474304e+05   4.281820e-26  1.482197e-323  1.482197e-323
       72000   7.199900e-07   1.906695e-01   9.439285e+00   5.830337e+00   1.268915e+05  -6.020810e+03  -7.481988e+04   1.652023e+09   2.340425e+10   9.183329e+08   1.474304e+05   4.269920e-26  1.482197e-323  1.482197e-323
       80000   7.999900e-07   2.008257e-01   9.438878e+00   5.824354e+00   1.270101e+05  -4.148831e+03  -7.474581e+04   1.313591e+09   2.340455e+10   9.329266e+08   1.474304e+05   4.262465e-26  1.482197e-323  1.482197e-323
       88000   8.799900e-07   2.109904e-01   9.438621e+00   5.818378e+00   1.271017e+05  -2.277064e+03  -7.467060e+04   9.754316e+08   2.338884e+10   9.470342e+08   1.474304e+05   4.250983e-26  1.482197e-323  1.482197e-323
       96000   9.599900e-07   2.211613e-01   9.438513e+00   5.812407e+00   1.271662e+05  -4.067393e+02  -7.459432e+04   6.378368e+08   2.336851e+10   9.598708e+08   1.474304e+05   4.239591e-26  1.482197e-323  1.482197e-323
      104000   1.039990e-06   2.313363e-01   9.438556e+00   5.806443e+00   1.272037e+05   1.461774e+03  -7.451706e+04   3.008516e+08   2.334357e+10   9.714153e+08   1.474304e+05   4.228292e-26  1.482197e-323  1.482197e-323
      112000   1.119990e-06   2.415132e-01   9.438747e+00   5.800484e+00   1.272143e+05   3.328109e+03  -7.443893e+04  -3.547904e+07   2.331404e+10   9.816474e+08   1.474304e+05   4.217085e-26  1.482197e-323  1.482197e-323
      120000   1.199990e-06   2.516898e-01   9.439088e+00   5.794532e+00   1.271977e+05   5.191073e+03  -7.436077e+04  -3.766915e+08   2.326837e+10   9.799262e+08   1.474304e+05   4.201671e-26  1.482197e-323  1.482197e-323
      128000   1.279990e-06   2.618641e-01   9.439578e+00   5.788587e+00   1.271541e+05   7.050996e+03  -7.428211e+04  -7.118869e+08   2.322896e+10   9.862738e+08   1.474304e+05   4.190401e-26  1.482197e-323  1.482197e-323
      136000   1.359990e-06   2.720338e-01   9.440216e+00   5.782647e+00   1.270838e+05   8.907584e+03  -7.420300e+04  -1.046250e+09   2.318498e+10   9.912709e+08   1.474304e+05   4.179223e-26  1.482197e-323  1.482197e-323
      144000   1.439990e-06   2.821968e-01   9.441003e+00   5.776714e+00   1.269867e+05   1.076047e+04  -7.412355e+04  -1.379735e+09   2.313646e+10   9.949027e+08   1.474304e+05   4.168137e-26  1.482197e-323  1.482197e-323
      152000   1.519990e-06   2.923509e-01   9.441938e+00   5.770787e+00   1.268631e+05   1.260930e+04  -7.404385e+04  -1.712295e+09   2.308341e+10   9.971555e+08   1.474304e+05   4.157146e-26  1.482197e-323  1.482197e-323
      160000   1.599990e-06   3.024942e-01   9.443020e+00   5.764867e+00   1.267131e+05   1.445365e+04  -7.396358e+04  -2.029756e+09   2.302335e+10   1.021712e+09   1.474304e+05   4.145284e-26  1.482197e-323  1.482197e-323
      168000   1.679990e-06   3.126244e-01   9.444250e+00   5.758953e+00   1.265375e+05   1.629297e+04  -7.388175e+04  -2.358340e+09   2.295890e+10   1.023862e+09   1.474304e+05   4.133532e-26  1.482197e-323  1.482197e-323
      176000   1.759990e-06   3.227395e-01   9.445627e+00   5.753046e+00   1.263358e+05   1.812696e+04  -7.379980e+04  -2.685784e+09   2.288999e+10   1.024527e+09   1.474304e+05   4.121866e-26  1.482197e-323  1.482197e-323
      184000   1.839990e-06   3.328374e-01   9.447150e+00   5.747145e+00   1.261078e+05   1.995525e+04  -7.371786e+04  -3.012041e+09   2.281664e+10   1.023693e+09   1.474304e+05   4.110286e-26  1.482197e-323  1.482197e-323
      192000   1.919990e-06   3.429160e-01   9.448820e+00   5.741251e+00   1.258539e+05   2.177750e+04  -7.363605e+04  -3.337065e+09   2.273887e+10   1.021347e+09   1.474304e+05   4.098794e-26  1.482197e-323  1.482197e-323
      200000   1.999990e-06   3.529733e-01   9.450635e+00   5.735364e+00   1.255739e+05   2.359335e+04  -7.355449e+04  -3.660811e+09   2.265671e+10   1.017477e+09   1.474304e+05   4.087392e-26  1.482197e-323  1.482197e-323
      208000   2.079990e-06   3.630072e-01   9.452594e+00   5.729482e+00   1.252682e+05   2.540246e+04  -7.347329e+04  -3.983231e+09   2.257017e+10   1.012074e+09   1.474304e+05   4.076082e-26  1.482197e-323  1.482197e-323
      216000   2.159990e-06   3.730155e-01   9.454699e+00   5.723608e+00   1.249367e+05   2.720446e+04  -7.339260e+04  -4.304280e+09   2.247927e+10   1.005127e+09   1.474304e+05   4.064866e-26  1.482197e-323  1.482197e-323
      224000   2.239990e-06   3.829963e-01   9.456947e+00   5.717740e+00   1.245795e+05   2.899902e+04  -7.331252e+04  -4.623910e+09   2.238403e+10   9.966277e+08   1.474304e+05   4.053745e-26  1.482197e-323  1.482197e-323
      232000   2.319990e-06   3.929476e-01   9.459338e+00   5.711878e+00   1.241969e+05   3.078579e+04  -7.323318e+04  -4.942076e+09   2.228448e+10   9.865701e+08   1.474304e+05   4.042721e-26  1.482197e-323  1.482197e-323
      240000   2.399990e-06   4.028672e-01   9.461872e+00   5.706022e+00   1.237885e+05   3.256461e+04  -7.315517e+04  -5.272942e+09   2.218900e+10   9.547040e+08   1.474304e+05   4.035533e-26  1.482197e-323  1.482197e-323
      248000   2.479990e-06   4.127530e-01   9.464548e+00   5.700173e+00   1.233540e+05   3.433550e+04  -7.307940e+04  -5.590197e+09   2.208244e+10   9.391622e+08   1.474304e+05   4.025459e-26  1.482197e-323  1.482197e-323
      256000   2.559990e-06   4.226032e-01   9.467366e+00   5.694330e+00   1.228951e+05   3.609660e+04  -7.300381e+04  -5.892216e+09   2.195674e+10   9.374004e+08   1.474304e+05   4.009418e-26  1.482197e-323  1.482197e-323
      264000   2.639990e-06   4.324156e-01   9.470324e+00   5.688492e+00   1.224112e+05   3.784849e+04  -7.292949e+04  -6.204467e+09   2.183991e+10   9.201527e+08   1.474304e+05   3.998797e-26  1.482197e-323  1.482197e-323
      272000   2.719990e-06   4.421883e-01   9.473421e+00   5.682661e+00   1.219024e+05   3.959087e+04  -7.285662e+04  -6.515011e+09   2.171886e+10   9.013259e+08   1.474304e+05   3.988284e-26  1.482197e-323  1.482197e-323
      280000   2.799990e-06   4.519193e-01   9.476658e+00   5.676835e+00   1.213689e+05   4.132340e+04  -7.278532e+04  -6.823801e+09   2.159359e+10   8.809208e+08   1.474304e+05   3.977881e-26  1.482197e-323  1.482197e-323
      288000   2.879990e-06   4.616067e-01   9.480033e+00   5.671015e+00   1.208107e+05   4.304573e+04  -7.271572e+04  -7.130788e+09   2.146412e+10   8.589395e+08   1.474304e+05   3.967590e-26  1.482197e-323  1.482197e-323
      296000   2.959990e-06   4.712484e-01   9.483545e+00   5.665201e+00   1.202280e+05   4.475754e+04  -7.264794e+04  -7.435922e+09   2.133048e+10   8.353854e+08   1.474304e+05   3.957413e-26  1.482197e-323  1.482197e-323
      304000   3.039990e-06   4.808425e-01   9.487194e+00   5.659391e+00   1.196210e+05   4.645850e+04  -7.258210e+04  -7.739153e+09   2.119269e+10   8.102630e+08   1.474304e+05   3.947352e-26  1.482197e-323  1.482197e-323
      312000   3.119990e-06   4.903871e-01   9.490978e+00   5.653587e+00   1.189898e+05   4.814826e+04  -7.251834e+04  -8.040432e+09   2.105077e+10   7.835780e+08   1.474304e+05   3.937409e-26  1.482197e-323  1.482197e-323
      320000   3.199990e-06   4.998802e-01   9.494897e+00   5.647788e+00   1.183346e+05   4.982651e+04  -7.245677e+04  -8.339708e+09   2.090474e+10   7.553376e+08   1.474304e+05   3.927587e-26  1.482197e-323  1.482197e-323
      328000   3.279990e-06   5.093199e-01   9.498950e+00   5.641994e+00   1.176544e+05   5.149434e+04  -7.239824e+04  -8.650609e+09   2.077310e+10   7.169996e+08   1.474304e+05   3.925569e-26  1.482197e-323  1.482197e-323
      336000   3.359990e-06   5.187043e-01   9.503136e+00   5.636205e+00   1.169509e+05   5.314967e+04  -7.234170e+04  -8.938568e+09   2.061194e+10   6.930784e+08   1.474304e+05   3.912880e-26  1.482197e-323  1.482197e-323
      344000   3.439990e-06   5.280315e-01   9.507454e+00   5.630419e+00   1.162242e+05   5.479226e+04  -7.228752e+04  -9.230756e+09   2.045224e+10   6.610067e+08   1.474304e+05   3.902871e-26  1.482197e-323  1.482197e-323
      352000   3.519990e-06   5.372995e-01   9.511902e+00   5.624639e+00   1.154741e+05   5.642192e+04  -7.223598e+04  -9.520696e+09   2.028853e+10   6.273777e+08   1.474304e+05   3.892989e-26  1.482197e-323  1.482197e-323
      360000   3.599990e-06   5.465067e-01   9.516481e+00   5.618862e+00   1.147009e+05   5.803832e+04  -7.218718e+04  -9.808338e+09   2.012084e+10   5.922042e+08   1.474304e+05   3.883236e-26  1.482197e-323  1.482197e-323
      368000   3.679990e-06   5.556511e-01   9.521188e+00   5.613089e+00   1.139048e+05   5.964114e+04  -7.214126e+04  -1.009363e+10   1.994919e+10   5.555002e+08   1.474304e+05   3.873613e-26  1.482197e-323  1.482197e-323
      376000   3.759990e-06   5.647309e-01   9.526023e+00   5.607319e+00   1.130860e+05   6.123008e+04  -7.209834e+04  -1.037652e+10   1.977359e+10   5.172811e+08   1.474304e+05   3.864124e-26  1.482197e-323  1.482197e-323
      384000   3.839990e-06   5.737442e-01   9.530985e+00   5.601553e+00   1.122446e+05   6.280481e+04  -7.205854e+04  -1.065695e+10   1.959409e+10   4.775632e+08   1.474304e+05   3.854769e-26  1.482197e-323  1.482197e-323
      392000   3.919990e-06   5.826894e-01   9.536071e+00   5.595790e+00   1.113809e+05   6.436541e+04  -7.202175e+04  -1.093590e+10   1.941715e+10   4.406699e+08   1.474304e+05   3.847699e-26  1.482197e-323  1.482197e-323
      400000   3.999990e-06   5.915646e-01   9.541283e+00   5.590029e+00   1.104950e+05   6.591131e+04  -7.198814e+04  -1.121048e+10   1.922966e+10   3.993022e+08   1.474304e+05   3.838406e-26  1.482197e-323  1.482197e-323
      408000   4.079990e-06   6.003680e-01   9.546617e+00   5.584271e+00   1.095873e+05   6.744201e+04  -7.195792e+04  -1.147858e+10   1.902664e+10   3.513670e+08   1.474304e+05   3.825086e-26  1.482197e-323  1.482197e-323
      416000   4.159990e-06   6.090980e-01   9.552073e+00   5.578516e+00   1.086582e+05   6.895633e+04  -7.193160e+04  -1.174747e+10   1.883069e+10   3.062861e+08   1.474304e+05   3.815774e-26  1.482197e-323  1.482197e-323
      424000   4.239990e-06   6.177528e-01   9.557649e+00   5.572762e+00   1.077077e+05   7.045482e+04  -7.190895e+04  -1.201358e+10   1.863100e+10   2.598139e+08   1.474304e+05   3.806603e-26  1.482197e-323  1.482197e-323
      432000   4.319990e-06   6.263306e-01   9.563345e+00   5.567010e+00   1.067361e+05   7.193719e+04  -7.189007e+04  -1.227686e+10   1.842758e+10   2.119741e+08   1.474304e+05   3.797575e-26  1.482197e-323  1.482197e-323
      440000   4.399990e-06   6.348300e-01   9.569159e+00   5.561260e+00   1.057435e+05   7.340314e+04  -7.187507e+04  -1.253726e+10   1.822047e+10   1.627912e+08   1.474304e+05   3.788691e-26  1.482197e-323  1.482197e-323
      448000   4.479990e-06   6.432491e-01   9.575089e+00   5.555510e+00   1.047302e+05   7.485236e+04  -7.186406e+04  -1.279472e+10   1.800970e+10   1.122909e+08   1.474305e+05   3.779953e-26  1.482197e-323  1.482197e-323
      456000   4.559990e-06   6.515863e-01   9.581135e+00   5.549761e+00   1.036964e+05   7.628459e+04  -7.185714e+04  -1.304919e+10   1.779530e+10   6.050007e+07   1.474305e+05   3.771364e-26  1.482197e-323  1.482197e-323
      464000   4.639990e-06   6.598400e-01   9.587294e+00   5.544013e+00   1.026424e+05   7.769951e+04  -7.185441e+04  -1.330062e+10   1.757730e+10   7.446616e+06   1.474305e+05   3.762925e-26  1.482197e-323  1.482197e-323
      472000   4.719990e-06   6.680085e-01   9.593566e+00   5.538264e+00   1.015684e+05   7.909686e+04  -7.185598e+04  -1.354895e+10   1.735573e+10  -4.684053e+07   1.474305e+05   3.754636e-26  1.482197e-323  1.482197e-323
      480000   4.799990e-06   6.760904e-01   9.599949e+00   5.532516e+00   1.004747e+05   8.047634e+04  -7.186194e+04  -1.379412e+10   1.713064e+10  -1.023314e+08   1.474305e+05   3.746500e-26  1.482197e-323  1.482197e-323
      488000   4.879990e-06   6.840839e-01   9.606442e+00   5.526766e+00   9.936109e+04   8.183828e+04  -7.187218e+04  -1.404064e+10   1.690978e+10  -1.562586e+08   1.474305e+05   3.741523e-26  1.482197e-323  1.482197e-323
      496000   4.959990e-06   6.919876e-01   9.613043e+00   5.521016e+00   9.822826e+04   8.318180e+04  -7.188697e+04  -1.427940e+10   1.667773e+10  -2.136953e+08   1.474305e+05   3.733695e-26  1.482197e-323  1.482197e-323
      504000   5.039990e-06   6.997999e-01   9.619751e+00   5.515264e+00   9.707647e+04   8.450662e+04  -7.190640e+04  -1.451486e+10   1.644228e+10  -2.722249e+08   1.474305e+05   3.726027e-26  1.482197e-323  1.482197e-323
      512000   5.119990e-06   7.075194e-01   9.626564e+00   5.509511e+00   9.590614e+04   8.581228e+04  -7.193055e+04  -1.474463e+10   1.620080e+10  -3.319582e+08   1.474305e+05   3.717326e-26  1.482197e-323  1.482197e-323
      520000   5.199990e-06   7.151444e-01   9.633480e+00   5.503755e+00   9.471741e+04   8.709866e+04  -7.195954e+04  -1.497305e+10   1.595820e+10  -3.929344e+08   1.474305e+05   3.709819e-26  1.482197e-323  1.482197e-323
      528000   5.279990e-06   7.226737e-01   9.640499e+00   5.497997e+00   9.351054e+04   8.836546e+04  -7.199352e+04  -1.519839e+10   1.571059e+10  -4.575572e+08   1.474305e+05   3.702167e-26  1.482197e-323  1.482197e-323
      536000   5.359990e-06   7.301056e-01   9.647618e+00   5.492236e+00   9.228577e+04   8.961235e+04  -7.203267e+04  -1.542028e+10   1.546134e+10  -5.212937e+08   1.474305e+05   3.695095e-26  1.482197e-323  1.482197e-323
      544000   5.439990e-06   7.374389e-01   9.654836e+00   5.486472e+00   9.104339e+04   9.083918e+04  -7.207695e+04  -1.563858e+10   1.520887e+10  -5.859470e+08   1.474305e+05   3.688192e-26  1.482197e-323  1.482197e-323
      552000   5.519990e-06   7.446721e-01   9.662152e+00   5.480704e+00   8.978369e+04   9.204569e+04  -7.212644e+04  -1.585325e+10   1.495322e+10  -6.514779e+08   1.474305e+05   3.681458e-26  1.482197e-323  1.482197e-323
      560000   5.599990e-06   7.518039e-01   9.669563e+00   5.474932e+00   8.850696e+04   9.323161e+04  -7.218121e+04  -1.606423e+10   1.469444e+10  -7.178465e+08   1.474305e+05   3.674895e-26  1.482197e-323  1.482197e-323
      568000   5.679990e-06   7.588328e-01   9.677068e+00   5.469155e+00   8.721351e+04   9.439671e+04  -7.224132e+04  -1.627147e+10   1.443257e+10  -7.850121e+08   1.474305e+05   3.668502e-26  1.482197e-323  1.482197e-323
      576000   5.759990e-06   7.657576e-01   9.684666e+00   5.463373e+00   8.590363e+04   9.554074e+04  -7.230684e+04  -1.647492e+10   1.416765e+10  -8.529331e+08   1.474305e+05   3.662281e-26  1.482197e-323  1.482197e-323
      584000   5.839990e-06   7.725769e-01   9.692354e+00   5.457585e+00   8.457762e+04   9.666345e+04  -7.237781e+04  -1.667453e+10   1.389972e+10  -9.215676e+08   1.474305e+05   3.656230e-26  1.482197e-323  1.482197e-323
      592000   5.919990e-06   7.792896e-01   9.700131e+00   5.451792e+00   8.323581e+04   9.776461e+04  -7.245430e+04  -1.686673e+10   1.362880e+10  -9.869126e+08   1.474305e+05   3.649363e-26  1.482197e-323  1.482197e-323
      600000   5.999990e-06   7.858943e-01   9.707996e+00   5.445993e+00   8.187879e+04   9.884400e+04  -7.253601e+04  -1.705803e+10   1.335540e+10  -1.055949e+09   1.474305e+05   3.643580e-26  1.482197e-323  1.482197e-323
      608000   6.079990e-06   7.923898e-01   9.715946e+00   5.440186e+00   8.050663e+04   9.990140e+04  -7.262327e+04  -1.724532e+10   1.307919e+10  -1.125511e+09   1.474305e+05   3.637966e-26  1.482197e-323  1.482197e-323
      616000   6.159990e-06   7.987749e-01   9.723980e+00   5.434373e+00   7.911964e+04   1.009366e+05  -7.271611e+04  -1.742857e+10   1.280022e+10  -1.195555e+09   1.474305e+05   3.632520e-26  1.482197e-323  1.482197e-323
      624000   6.239990e-06   8.050485e-01   9.732095e+00   5.428552e+00   7.771802e+04   1.019493e+05  -7.281475e+04  -1.760980e+10   1.251773e+10  -1.269374e+09   1.474305e+05   3.627717e-26  1.482197e-323  1.482197e-323
      632000   6.319990e-06   8.112094e-01   9.740291e+00   5.422722e+00   7.630223e+04   1.029393e+05  -7.291919e+04  -1.778427e+10   1.223194e+10  -1.341706e+09   1.474305e+05   3.622227e-26  1.482197e-323  1.482197e-323
      640000   6.399990e-06   8.172565e-01   9.748565e+00   5.416884e+00   7.487264e+04   1.039064e+05  -7.302943e+04  -1.795453e+10   1.194355e+10  -1.414450e+09   1.474305e+05   3.616909e-26  1.482197e-323  1.482197e-323
      648000   6.479990e-06   8.231887e-01   9.756915e+00   5.411037e+00   7.342961e+04   1.048502e+05  -7.314551e+04  -1.812052e+10   1.165261e+10  -1.487559e+09   1.474305e+05   3.611761e-26  1.482197e-323  1.482197e-323
      656000   6.559990e-06   8.290049e-01   9.765340e+00   5.405181e+00   7.197347e+04   1.057707e+05  -7.326745e+04  -1.828220e+10   1.135918e+10  -1.560987e+09   1.474305e+05   3.606782e-26  1.482197e-323  1.482197e-323
      664000   6.639990e-06   8.347041e-01   9.773838e+00   5.399314e+00   7.050448e+04   1.066678e+05  -7.339511e+04  -1.844944e+10   1.108226e+10  -1.616626e+09   1.474305e+05   3.607597e-26  1.482197e-323  1.482197e-323
      672000   6.719990e-06   8.402853e-01   9.782407e+00   5.393438e+00   6.902227e+04   1.075426e+05  -7.352726e+04  -1.860528e+10   1.078762e+10  -1.687184e+09   1.474305e+05   3.604218e-26  1.482197e-323  1.482197e-323
      680000   6.799990e-06   8.457474e-01   9.791044e+00   5.387550e+00   6.752776e+04   1.083938e+05  -7.366506e+04  -1.875674e+10   1.049061e+10  -1.757797e+09   1.474305e+05   3.600983e-26  1.482197e-323  1.482197e-323
      688000   6.879990e-06   8.510894e-01   9.799749e+00   5.381651e+00   6.602130e+04   1.092211e+05  -7.380851e+04  -1.890378e+10   1.019129e+10  -1.828421e+09   1.474305e+05   3.597890e-26  1.482197e-323  1.482197e-323
      696000   6.959990e-06   8.563105e-01   9.808519e+00   5.375740e+00   6.450477e+04   1.100219e+05  -7.395996e+04  -1.902549e+10   9.856519e+09  -1.930864e+09   1.474305e+05   3.584645e-26  1.482197e-323  1.482197e-323
      704000   7.039990e-06   8.614099e-01   9.817352e+00   5.369817e+00   6.297731e+04   1.107981e+05  -7.411738e+04  -1.916026e+10   9.549768e+09  -2.004525e+09   1.474305e+05   3.580646e-26  1.482197e-323  1.482197e-323
      712000   7.119990e-06   8.663866e-01   9.826246e+00   5.363881e+00   6.143925e+04   1.115498e+05  -7.428069e+04  -1.929045e+10   9.240987e+09  -2.078134e+09   1.474305e+05   3.576803e-26  1.482197e-323  1.482197e-323
      720000   7.199990e-06   8.712399e-01   9.835199e+00   5.357932e+00   5.989096e+04   1.122766e+05  -7.444988e+04  -1.941599e+10   8.930243e+09  -2.151641e+09   1.474305e+05   3.573115e-26  1.482197e-323  1.482197e-323
      728000   7.279990e-06   8.759689e-01   9.844209e+00   5.351969e+00   5.833281e+04   1.129785e+05  -7.462495e+04  -1.953686e+10   8.617605e+09  -2.224997e+09   1.474305e+05   3.569578e-26  1.482197e-323  1.482197e-323
      736000   7.359990e-06   8.805729e-01   9.853275e+00   5.345992e+00   5.676518e+04   1.136554e+05  -7.480588e+04  -1.965303e+10   8.303144e+09  -2.298153e+09   1.474305e+05   3.566189e-26  1.482197e-323  1.482197e-323
      744000   7.439990e-06   8.850511e-01   9.862394e+00   5.340000e+00   5.518845e+04   1.143070e+05  -7.499265e+04  -1.976445e+10   7.986932e+09  -2.371059e+09   1.474305e+05   3.562947e-26  1.482197e-323  1.482197e-323
      752000   7.519990e-06   8.894028e-01   9.871563e+00   5.333993e+00   5.360300e+04   1.149332e+05  -7.518524e+04  -1.987110e+10   7.669040e+09  -2.443664e+09   1.474305e+05   3.559846e-26  1.482197e-323  1.482197e-323
      760000   7.599990e-06   8.936273e-01   9.880782e+00   5.327970e+00   5.200920e+04   1.155340e+05  -7.538362e+04  -1.997294e+10   7.349543e+09  -2.515921e+09   1.474305e+05   3.556885e-26  1.482197e-323  1.482197e-323
      768000   7.679990e-06   8.977241e-01   9.890048e+00   5.321932e+00   5.040745e+04   1.161091e+05  -7.558777e+04  -2.006994e+10   7.028515e+09  -2.587779e+09   1.474305e+05   3.554060e-26  1.482197e-323  1.482197e-323
      776000   7.759990e-06   9.016923e-01   9.899359e+00   5.315876e+00   4.879736e+04   1.166596e+05  -7.579648e+04  -2.018523e+10   6.738268e+09  -2.624224e+09   1.474305e+05   3.560529e-26  1.482197e-323  1.482197e-323
      784000   7.839990e-06   9.055314e-01   9.908713e+00   5.309804e+00   4.717918e+04   1.171854e+05  -7.600968e+04  -2.027028e+10   6.408935e+09  -2.701057e+09   1.474305e+05   3.556812e-26  1.482197e-323  1.482197e-323
      792000   7.919990e-06   9.092408e-01   9.918108e+00   5.303714e+00   4.555423e+04   1.176850e+05  -7.622860e+04  -2.035258e+10   6.082844e+09  -2.771808e+09   1.474305e+05   3.554155e-26  1.482197e-323  1.482197e-323
      800000   7.999990e-06   9.128199e-01   9.927542e+00   5.297607e+00   4.392281e+04   1.181588e+05  -7.645282e+04  -2.043263e+10   5.763831e+09  -2.830707e+09   1.474305e+05   3.552726e-26  1.482197e-323  1.482197e-323
      808000   8.079990e-06   9.162683e-01   9.937013e+00   5.291482e+00   4.228528e+04   1.186068e+05  -7.668197e+04  -2.050482e+10   5.436675e+09  -2.898072e+09   1.474305e+05   3.550226e-26  1.482197e-323  1.482197e-323
      816000   8.159990e-06   9.195854e-01   9.946518e+00   5.285338e+00   4.064218e+04   1.190287e+05  -7.691649e+04  -2.057202e+10   5.108511e+09  -2.964734e+09   1.474305e+05   3.547829e-26  1.482197e-323  1.482197e-323
      824000   8.239990e-06   9.227709e-01   9.956057e+00   5.279175e+00   3.899389e+04   1.194242e+05  -7.715631e+04  -2.063420e+10   4.779421e+09  -3.030652e+09   1.474305e+05   3.545532e-26  1.482197e-323  1.482197e-323
      832000   8.319990e-06   9.258243e-01   9.965626e+00   5.272993e+00   3.734084e+04   1.197933e+05  -7.740138e+04  -2.069135e+10   4.449488e+09  -3.095780e+09   1.474305e+05   3.543330e-26  1.482197e-323  1.482197e-323
      840000   8.399990e-06   9.287453e-01   9.975223e+00   5.266791e+00   3.568341e+04   1.201361e+05  -7.765162e+04  -2.074344e+10   4.118797e+09  -3.160078e+09   1.474305e+05   3.541217e-26  1.482197e-323  1.482197e-323
      848000   8.479990e-06   9.315336e-01   9.984847e+00   5.260568e+00   3.402202e+04   1.204523e+05  -7.790697e+04  -2.079047e+10   3.787431e+09  -3.223503e+09   1.474305e+05   3.539190e-26  1.482197e-323  1.482197e-323
      856000   8.559990e-06   9.341887e-01   9.994495e+00   5.254326e+00   3.235707e+04   1.207420e+05  -7.816735e+04  -2.083241e+10   3.455477e+09  -3.286015e+09   1.474305e+05   3.537243e-26  1.482197e-323  1.482197e-323
      864000   8.639990e-06   9.367106e-01   1.000416e+01   5.248062e+00   3.068920e+04   1.210045e+05  -7.843371e+04  -2.086241e+10   3.102071e+09  -3.377255e+09   1.474305e+05   3.533690e-26  1.482197e-323  1.482197e-323
      872000   8.719990e-06   9.390990e-01   1.001385e+01   5.241776e+00   2.901896e+04   1.212393e+05  -7.870639e+04  -2.089269e+10   2.767900e+09  -3.439500e+09   1.474305e+05   3.531578e-26  1.482197e-323  1.482197e-323
      880000   8.799990e-06   9.413536e-01   1.002356e+01   5.235468e+00   2.734650e+04   1.214473e+05  -7.898400e+04  -2.091785e+10   2.433443e+09  -3.500702e+09   1.474305e+05   3.529540e-26  1.482197e-323  1.482197e-323
      888000   8.879990e-06   9.434743e-01   1.003329e+01   5.229138e+00   2.567224e+04   1.216286e+05  -7.926647e+04  -2.093787e+10   2.098790e+09  -3.560821e+09   1.474305e+05   3.527572e-26  1.482197e-323  1.482197e-323
      896000   8.959990e-06   9.454611e-01   1.004302e+01   5.222786e+00   2.399658e+04   1.217831e+05  -7.955371e+04  -2.095276e+10   1.764032e+09  -3.619815e+09   1.474305e+05   3.525668e-26  1.482197e-323  1.482197e-323
      904000   9.039990e-06   9.473138e-01   1.005277e+01   5.216410e+00   2.231993e+04   1.219109e+05  -7.984561e+04  -2.096251e+10   1.429261e+09  -3.677645e+09   1.474305e+05   3.523821e-26  1.482197e-323  1.482197e-323
      912000   9.119990e-06   9.490323e-01   1.006253e+01   5.210010e+00   2.064271e+04   1.220118e+05  -8.014210e+04  -2.096711e+10   1.094568e+09  -3.734272e+09   1.474305e+05   3.522026e-26  1.482197e-323  1.482197e-323
      920000   9.199990e-06   9.506166e-01   1.007229e+01   5.203587e+00   1.896533e+04   1.220860e+05  -8.044306e+04  -2.096659e+10   7.600468e+08  -3.789658e+09   1.474305e+05   3.520277e-26  1.482197e-323  1.482197e-323
      928000   9.279990e-06   9.520667e-01   1.008206e+01   5.197139e+00   1.728761e+04   1.221341e+05  -8.074744e+04  -2.097758e+10   4.462311e+08  -3.816305e+09   1.474305e+05   3.522487e-26  1.482197e-323  1.482197e-323
      936000   9.359990e-06   9.533826e-01   1.009183e+01   5.190667e+00   1.560977e+04   1.221565e+05  -8.105484e+04  -2.096778e+10   1.126408e+08  -3.868329e+09   1.474305e+05   3.520954e-26  1.482197e-323  1.482197e-323
      944000   9.439990e-06   9.545643e-01   1.010160e+01   5.184170e+00   1.393311e+04   1.221520e+05  -8.136663e+04  -2.093757e+10  -2.367783e+08  -3.940841e+09   1.474305e+05   3.515873e-26  1.482197e-323  1.482197e-323
      952000   9.519990e-06   9.556120e-01   1.011138e+01   5.177648e+00   1.225888e+04   1.221197e+05  -8.168387e+04  -2.091726e+10  -5.689751e+08  -3.989892e+09   1.474305e+05   3.514374e-26  1.482197e-323  1.482197e-323
      960000   9.599990e-06   9.565258e-01   1.012114e+01   5.171101e+00   1.058648e+04   1.220609e+05  -8.200497e+04  -2.089186e+10  -9.005523e+08  -4.037536e+09   1.474305e+05   3.512885e-26  1.482197e-323  1.482197e-323
      968000   9.679990e-06   9.573059e-01   1.013090e+01   5.164527e+00   8.916319e+03   1.219757e+05  -8.232983e+04  -2.086138e+10  -1.231416e+09  -4.083744e+09   1.474305e+05   3.511398e-26  1.482197e-323  1.482197e-323
      976000   9.759990e-06   9.579525e-01   1.014066e+01   5.157928e+00   7.248796e+03   1.218639e+05  -8.265833e+04  -2.082584e+10  -1.561471e+09  -4.128486e+09   1.474305e+05   3.509908e-26  1.482197e-323  1.482197e-323
      984000   9.839990e-06   9.584658e-01   1.015040e+01   5.151302e+00   5.584320e+03   1.217258e+05  -8.299035e+04  -2.078525e+10  -1.890624e+09  -4.171735e+09   1.474305e+05   3.508408e-26  1.482197e-323  1.482197e-323
      992000   9.919990e-06   9.588461e-01   1.016013e+01   5.144649e+00   3.923291e+03   1.215615e+05  -8.332577e+04  -2.073963e+10  -2.218780e+09  -4.213465e+09   1.474305e+05   3.506892e-26  1.482197e-323  1.482197e-323
     1000000   9.999990e-06   9.590936e-01   1.016985e+01   5.137970e+00   2.266113e+03   1.213709e+05  -8.366447e+04  -2.068901e+10  -2.545844e+09  -4.253650e+09   1.474305e+05   3.505353e-26  1.482197e-323  1.482197e-323
     1008000   1.007999e-05   9.592087e-01   1.017955e+01   5.131263e+00   6.131839e+02   1.211541e+05  -8.400631e+04  -2.063340e+10  -2.871722e+09  -4.292268e+09   1.474305e+05   3.503785e-26  1.482197e-323  1.482197e-323
     1016000   1.015999e-05   9.591918e-01   1.018924e+01   5.124529e+00  -1.035098e+03   1.209114e+05  -8.435119e+04  -2.057282e+10  -3.196320e+09  -4.329295e+09   1.474305e+05   3.502182e-26  1.482197e-323  1.482197e-323
     1024000   1.023999e-05   9.590433e-01   1.019890e+01   5.117767e+00  -2.678336e+03   1.206428e+05  -8.469896e+04  -2.050732e+10  -3.519543e+09  -4.364711e+09   1.474305e+05   3.500537e-26  1.482197e-323  1.482197e-323
     1032000   1.031999e-05   9.587634e-01   1.020854e+01   5.110977e+00  -4.316286e+03   1.203483e+05  -8.504951e+04  -2.043863e+10  -3.842081e+09  -4.399479e+09   1.474305e+05   3.499504e-26  1.482197e-323  1.482197e-323
     1040000   1.039999e-05   9.583528e-01   1.021815e+01   5.104159e+00  -5.948362e+03   1.200281e+05  -8.540284e+04  -2.036246e+10  -4.163703e+09  -4.433604e+09   1.474305e+05   3.497712e-26  1.482197e-323  1.482197e-323
     1048000   1.047999e-05   9.578119e-01   1.022774e+01   5.097312e+00  -7.574245e+03   1.196824e+05  -8.575853e+04  -2.028457e+10  -4.476837e+09  -4.456264e+09   1.474305e+05   3.495707e-26  1.482197e-323  1.482197e-323
     1056000   1.055999e-05   9.571411e-01   1.023730e+01   5.090437e+00  -9.193629e+03   1.193115e+05  -8.611627e+04  -2.019924e+10  -4.795035e+09  -4.486992e+09   1.474305e+05   3.493929e-26  1.482197e-323  1.482197e-323
     1064000   1.063999e-05   9.563411e-01   1.024683e+01   5.083534e+00  -1.080599e+04   1.189152e+05  -8.647641e+04  -2.010909e+10  -5.111417e+09  -4.516042e+09   1.474305e+05   3.492086e-26  1.482197e-323  1.482197e-323
     1072000   1.071999e-05   9.554123e-01   1.025633e+01   5.076601e+00  -1.241096e+04   1.184937e+05  -8.683879e+04  -2.001416e+10  -5.425890e+09  -4.543400e+09   1.474305e+05   3.490171e-26  1.482197e-323  1.482197e-323
     1080000   1.079999e-05   9.543555e-01   1.026579e+01   5.069639e+00  -1.400813e+04   1.180471e+05  -8.720330e+04  -1.991450e+10  -5.738362e+09  -4.569055e+09   1.474305e+05   3.488178e-26  1.482197e-323  1.482197e-323
     1088000   1.087999e-05   9.531713e-01   1.027521e+01   5.062648e+00  -1.559715e+04   1.175756e+05  -8.756980e+04  -1.981013e+10  -6.048742e+09  -4.592994e+09   1.474306e+05   3.486102e-26  1.482197e-323  1.482197e-323
     1096000   1.095999e-05   9.518602e-01   1.028460e+01   5.055628e+00  -1.717763e+04   1.170794e+05  -8.793814e+04  -1.970111e+10  -6.356940e+09  -4.615208e+09   1.474306e+05   3.483936e-26  1.482197e-323  1.482197e-323
     1104000   1.103999e-05   9.504231e-01   1.029395e+01   5.048578e+00  -1.874920e+04   1.165586e+05  -8.830819e+04  -1.958747e+10  -6.662866e+09  -4.635689e+09   1.474306e+05   3.481674e-26  1.482197e-323  1.482197e-323
     1112000   1.111999e-05   9.488606e-01   1.030325e+01   5.041499e+00  -2.031102e+04   1.160130e+05  -8.868039e+04  -1.945172e+10  -6.979504e+09  -4.675595e+09   1.474306e+05   3.476964e-26  1.482197e-323  1.482197e-323
     1120000   1.119999e-05   9.471736e-01   1.031251e+01   5.034389e+00  -2.186222e+04   1.154426e+05  -8.905515e+04  -1.932770e+10  -7.280593e+09  -4.693143e+09   1.474306e+05   3.474242e-26  1.482197e-323  1.482197e-323
     1128000   1.127999e-05   9.453629e-01   1.032172e+01   5.027250e+00  -2.340333e+04   1.148482e+05  -8.943125e+04  -1.919927e+10  -7.579080e+09  -4.708882e+09   1.474306e+05   3.471418e-26  1.482197e-323  1.482197e-323
     1136000   1.135999e-05   9.434293e-01   1.033088e+01   5.020080e+00  -2.493399e+04   1.142300e+05  -8.980853e+04  -1.906648e+10  -7.874878e+09  -4.722809e+09   1.474306e+05   3.468484e-26  1.482197e-323  1.482197e-323
     1144000   1.143999e-05   9.413738e-01   1.034000e+01   5.012881e+00  -2.645385e+04   1.135883e+05  -9.018685e+04  -1.892938e+10  -8.167905e+09  -4.734923e+09   1.474306e+05   3.465436e-26  1.482197e-323  1.482197e-323
     1152000   1.151999e-05   9.391970e-01   1.034906e+01   5.005650e+00  -2.796257e+04   1.129232e+05  -9.056606e+04  -1.878803e+10  -8.458077e+09  -4.745221e+09   1.474306e+05   3.462266e-26  1.482197e-323  1.482197e-323
     1160000   1.159999e-05   9.369001e-01   1.035806e+01   4.998390e+00  -2.945992e+04   1.122352e+05  -9.094578e+04  -1.864780e+10  -8.735433e+09  -4.739803e+09   1.474306e+05   3.458144e-26  1.482197e-323  1.482197e-323
     1168000   1.167999e-05   9.344837e-01   1.036701e+01   4.991099e+00  -3.094570e+04   1.115250e+05  -9.132534e+04  -1.849609e+10  -9.021022e+09  -4.748945e+09   1.474306e+05   3.454446e-26  1.482197e-323  1.482197e-323
     1176000   1.175999e-05   9.319491e-01   1.037591e+01   4.983778e+00  -3.241918e+04   1.107920e+05  -9.170557e+04  -1.834026e+10  -9.303505e+09  -4.756328e+09   1.474306e+05   3.450623e-26  1.482197e-323  1.482197e-323
     1184000   1.183999e-05   9.292970e-01   1.038474e+01   4.976426e+00  -3.388003e+04   1.100365e+05  -9.208631e+04  -1.818038e+10  -9.582806e+09  -4.761954e+09   1.474306e+05   3.446670e-26  1.482197e-323  1.482197e-323
     1192000   1.191999e-05   9.265286e-01   1.039351e+01   4.969044e+00  -3.532794e+04   1.092588e+05  -9.246743e+04  -1.801651e+10  -9.858847e+09  -4.765830e+09   1.474306e+05   3.442581e-26  1.482197e-323  1.482197e-323
     1200000   1.199999e-05   9.236449e-01   1.040222e+01   4.961631e+00  -3.676252e+04   1.084589e+05  -9.284907e+04  -1.784636e+10  -1.014208e+10  -4.781167e+09   1.474306e+05   3.440329e-26  1.482197e-323  1.482197e-323
     1208000   1.207999e-05   9.206470e-01   1.041086e+01   4.954188e+00  -3.818341e+04   1.076368e+05  -9.323154e+04  -1.767539e+10  -1.041061e+10  -4.780163e+09   1.474306e+05   3.435964e-26  1.482197e-323  1.482197e-323
     1216000   1.215999e-05   9.175359e-01   1.041944e+01   4.946714e+00  -3.959048e+04   1.067933e+05  -9.361385e+04  -1.750065e+10  -1.067563e+10  -4.777411e+09   1.474306e+05   3.431436e-26  1.482197e-323  1.482197e-323
     1224000   1.223999e-05   9.143129e-01   1.042795e+01   4.939210e+00  -4.098342e+04   1.059288e+05  -9.399587e+04  -1.732219e+10  -1.093710e+10  -4.772924e+09   1.474306e+05   3.426741e-26  1.482197e-323  1.482197e-323
     1232000   1.231999e-05   9.109790e-01   1.043639e+01   4.931675e+00  -4.236193e+04   1.050435e+05  -9.437747e+04  -1.714010e+10  -1.119492e+10  -4.766713e+09   1.474306e+05   3.421874e-26  1.482197e-323  1.482197e-323
     1240000   1.239999e-05   9.075354e-01   1.044476e+01   4.924110e+00  -4.372574e+04   1.041377e+05  -9.475850e+04  -1.695444e+10  -1.144904e+10  -4.758792e+09   1.474306e+05   3.416832e-26  1.482197e-323  1.482197e-323
     1248000   1.247999e-05   9.039832e-01   1.045305e+01   4.916514e+00  -4.507455e+04   1.032117e+05  -9.513883e+04  -1.676530e+10  -1.169940e+10  -4.749178e+09   1.474306e+05   3.411611e-26  1.482197e-323  1.482197e-323
     1256000   1.255999e-05   9.003238e-01   1.046127e+01   4.908887e+00  -4.640809e+04   1.022659e+05  -9.551833e+04  -1.657274e+10  -1.194591e+10  -4.737885e+09   1.474306e+05   3.406207e-26  1.482197e-323  1.482197e-323
     1264000   1.263999e-05   8.965584e-01   1.046941e+01   4.901231e+00  -4.772604e+04   1.013010e+05  -9.589633e+04  -1.637574e+10  -1.218152e+10  -4.718174e+09   1.474306e+05   3.398522e-26  1.482197e-323  1.482197e-323
     1272000   1.271999e-05   8.926881e-01   1.047748e+01   4.893544e+00  -4.902923e+04   1.003167e+05  -9.627292e+04  -1.619227e+10  -1.242371e+10  -4.699298e+09   1.474306e+05   3.397020e-26  1.482197e-323  1.482197e-323
     1280000   1.279999e-05   8.887141e-01   1.048546e+01   4.885827e+00  -5.031651e+04   9.931336e+04  -9.664823e+04  -1.598916e+10  -1.265846e+10  -4.683375e+09   1.474306e+05   3.390842e-26  1.482197e-323  1.482197e-323
     1288000   1.287999e-05   8.846378e-01   1.049337e+01   4.878080e+00  -5.158741e+04   9.829143e+04  -9.702221e+04  -1.578293e+10  -1.288913e+10  -4.665893e+09   1.474306e+05   3.384469e-26  1.482197e-323  1.482197e-323
     1296000   1.295999e-05   8.804606e-01   1.050119e+01   4.870304e+00  -5.284143e+04   9.725124e+04  -9.739485e+04  -1.555200e+10  -1.311293e+10  -4.655928e+09   1.474306e+05   3.372777e-26  1.482197e-323  1.482197e-323
     1304000   1.303999e-05   8.761837e-01   1.050893e+01   4.862497e+00  -5.407712e+04   9.619329e+04  -9.776653e+04  -1.533970e+10  -1.333523e+10  -4.635916e+09   1.474306e+05   3.366080e-26  1.482197e-323  1.482197e-323
     1312000   1.311999e-05   8.718087e-01   1.051658e+01   4.854661e+00  -5.529570e+04   9.511772e+04  -9.813655e+04  -1.512457e+10  -1.355330e+10  -4.614385e+09   1.474306e+05   3.359191e-26  1.482197e-323  1.482197e-323
     1320000   1.319999e-05   8.673369e-01   1.052415e+01   4.846795e+00  -5.649697e+04   9.402487e+04  -9.850479e+04  -1.490668e+10  -1.376709e+10  -4.591359e+09   1.474306e+05   3.352106e-26  1.482197e-323  1.482197e-323
     1328000   1.327999e-05   8.627696e-01   1.053162e+01   4.838900e+00  -5.768070e+04   9.291509e+04  -9.887113e+04  -1.468611e+10  -1.397655e+10  -4.566865e+09   1.474306e+05   3.344824e-26  1.482197e-323  1.482197e-323
     1336000   1.335999e-05   8.581084e-01   1.053901e+01   4.830976e+00  -5.884668e+04   9.178874e+04  -9.923545e+04  -1.446296e+10  -1.418163e+10  -4.540928e+09   1.474306e+05   3.337342e-26  1.482197e-323  1.482197e-323
     1344000   1.343999e-05   8.533547e-01   1.054631e+01   4.823023e+00  -5.999470e+04   9.064615e+04  -9.959764e+04  -1.423731e+10  -1.438230e+10  -4.513574e+09   1.474306e+05   3.329659e-26  1.482197e-323  1.482197e-323
     1352000   1.351999e-05   8.485098e-01   1.055351e+01   4.815040e+00  -6.112458e+04   8.948769e+04  -9.995758e+04  -1.400924e+10  -1.457851e+10  -4.484832e+09   1.474306e+05   3.321772e-26  1.482197e-323  1.482197e-323
     1360000   1.359999e-05   8.435752e-01   1.056063e+01   4.807030e+00  -6.223612e+04   8.831370e+04  -1.003152e+05  -1.377884e+10  -1.477023e+10  -4.454731e+09   1.474306e+05   3.313681e-26  1.482197e-323  1.482197e-323
     1368000   1.367999e-05   8.385525e-01   1.056764e+01   4.798990e+00  -6.332926e+04   8.712468e+04  -1.006701e+05  -1.355907e+10  -1.494653e+10  -4.405772e+09   1.474306e+05   3.304365e-26  1.482197e-323  1.482197e-323
     1376000   1.375999e-05   8.334430e-01   1.057457e+01   4.790922e+00  -6.440464e+04   8.592169e+04  -1.010212e+05  -1.332514e+10  -1.512723e+10  -4.370967e+09   1.474306e+05   3.295379e-26  1.482197e-323  1.482197e-323
     1384000   1.383999e-05   8.282482e-01   1.058139e+01   4.782827e+00  -6.546123e+04   8.470444e+04  -1.013695e+05  -1.308916e+10  -1.530333e+10  -4.334953e+09   1.474306e+05   3.286180e-26  1.482197e-323  1.482197e-323
     1392000   1.391999e-05   8.229697e-01   1.058812e+01   4.774703e+00  -6.649885e+04   8.347328e+04  -1.017148e+05  -1.285122e+10  -1.547481e+10  -4.297764e+09   1.474306e+05   3.276767e-26  1.482197e-323  1.482197e-323
     1400000   1.399999e-05   8.176089e-01   1.059475e+01   4.766553e+00  -6.751737e+04   8.222859e+04  -1.020571e+05  -1.261141e+10  -1.564164e+10  -4.259432e+09   1.474306e+05   3.267139e-26  1.482197e-323  1.482197e-323
     1408000   1.407999e-05   8.121674e-01   1.060127e+01   4.758374e+00  -6.851647e+04   8.097060e+04  -1.023965e+05  -1.235982e+10  -1.581293e+10  -4.233893e+09   1.474306e+05   3.258530e-26  1.482197e-323  1.482197e-323
     1416000   1.415999e-05   8.066468e-01   1.060770e+01   4.750169e+00  -6.949558e+04   7.969926e+04  -1.027335e+05  -1.211767e+10  -1.596972e+10  -4.191960e+09   1.474306e+05   3.248483e-26  1.482197e-323  1.482197e-323
     1424000   1.423999e-05   8.010487e-01   1.061403e+01   4.741937e+00  -7.045525e+04   7.841557e+04  -1.030672e+05  -1.187394e+10  -1.612178e+10  -4.148959e+09   1.474306e+05   3.238211e-26  1.482197e-323  1.482197e-323
     1432000   1.431999e-05   7.953745e-01   1.062025e+01   4.733679e+00  -7.139588e+04   7.712032e+04  -1.033966e+05  -1.163621e+10  -1.626260e+10  -4.094941e+09   1.474306e+05   3.226794e-26  1.482197e-323  1.482197e-323
     1440000   1.439999e-05   7.896259e-01   1.062636e+01   4.725394e+00  -7.231688e+04   7.581358e+04  -1.037225e+05  -1.138855e+10  -1.640500e+10  -4.050628e+09   1.474306e+05   3.215864e-26  1.482197e-323  1.482197e-323
     1448000   1.447999e-05   7.838043e-01   1.063238e+01   4.717083e+00  -7.321801e+04   7.449565e+04  -1.040447e+05  -1.113957e+10  -1.654263e+10  -4.005403e+09   1.474306e+05   3.204720e-26  1.482197e-323  1.482197e-323
     1456000   1.455999e-05   7.779115e-01   1.063828e+01   4.708747e+00  -7.409918e+04   7.316689e+04  -1.043633e+05  -1.088934e+10  -1.667548e+10  -3.959304e+09   1.474306e+05   3.193363e-26  1.482197e-323  1.482197e-323
     1464000   1.463999e-05   7.719490e-01   1.064408e+01   4.700385e+00  -7.496027e+04   7.182770e+04  -1.046782e+05  -1.063796e+10  -1.680354e+10  -3.912367e+09   1.474306e+05   3.181795e-26  1.482197e-323  1.482197e-323
     1472000   1.471999e-05   7.659184e-01   1.064978e+01   4.691998e+00  -7.580120e+04   7.047812e+04  -1.049895e+05  -1.038611e+10  -1.693014e+10  -3.866381e+09   1.474306e+05   3.171093e-26  1.482197e-323  1.482197e-323
     1480000   1.479999e-05   7.598213e-01   1.065536e+01   4.683587e+00  -7.662203e+04   6.911902e+04  -1.052968e+05  -1.013454e+10  -1.704655e+10  -3.815088e+09   1.474306e+05   3.158693e-26  1.482197e-323  1.482197e-323
     1488000   1.487999e-05   7.536594e-01   1.066083e+01   4.675151e+00  -7.742270e+04   6.775080e+04  -1.055999e+05  -9.882123e+09  -1.715816e+10  -3.763097e+09   1.474306e+05   3.146078e-26  1.482197e-323  1.482197e-323
     1496000   1.495999e-05   7.474342e-01   1.066620e+01   4.666691e+00  -7.820314e+04   6.637384e+04  -1.058989e+05  -9.628948e+09  -1.726497e+10  -3.710449e+09   1.474306e+05   3.133248e-26  1.482197e-323  1.482197e-323
     1504000   1.503999e-05   7.411474e-01   1.067145e+01   4.658207e+00  -7.896331e+04   6.498853e+04  -1.061936e+05  -9.375100e+09  -1.736698e+10  -3.657183e+09   1.474306e+05   3.120207e-26  1.482197e-323  1.482197e-323
     1512000   1.511999e-05   7.348007e-01   1.067660e+01   4.649700e+00  -7.970314e+04   6.359525e+04  -1.064840e+05  -9.120662e+09  -1.746419e+10  -3.603339e+09   1.474306e+05   3.106956e-26  1.482197e-323  1.482197e-323
     1520000   1.519999e-05   7.283955e-01   1.068163e+01   4.641170e+00  -8.042260e+04   6.219439e+04  -1.067701e+05  -8.865719e+09  -1.755661e+10  -3.548956e+09   1.474306e+05   3.093497e-26  1.482197e-323  1.482197e-323
     1528000   1.527999e-05   7.219336e-01   1.068655e+01   4.632617e+00  -8.112164e+04   6.078632e+04  -1.070518e+05  -8.610355e+09  -1.764425e+10  -3.494075e+09   1.474306e+05   3.079834e-26  1.482197e-323  1.482197e-323
     1536000   1.535999e-05   7.154166e-01   1.069136e+01   4.624042e+00  -8.180024e+04   5.937143e+04  -1.073291e+05  -8.354652e+09  -1.772713e+10  -3.438733e+09   1.474306e+05   3.065968e-26  1.482197e-323  1.482197e-323
     1544000   1.543999e-05   7.088461e-01   1.069605e+01   4.615444e+00  -8.245838e+04   5.795011e+04  -1.076020e+05  -8.098695e+09  -1.780524e+10  -3.382971e+09   1.474306e+05   3.051904e-26  1.482197e-323  1.482197e-323
     1552000   1.551999e-05   7.022238e-01   1.070063e+01   4.606825e+00  -8.309602e+04   5.652272e+04  -1.078704e+05  -7.842335e+09  -1.787866e+10  -3.327028e+09   1.474306e+05   3.037637e-26  1.482197e-323  1.482197e-323
     1560000   1.559999e-05   6.955513e-01   1.070509e+01   4.598185e+00  -8.371297e+04   5.508952e+04  -1.081345e+05  -7.574064e+09  -1.795464e+10  -3.283585e+09   1.474306e+05   3.024467e-26  1.482197e-323  1.482197e-323
     1568000   1.567999e-05   6.888303e-01   1.070944e+01   4.589524e+00  -8.430869e+04   5.365058e+04  -1.083949e+05  -7.318778e+09  -1.801790e+10  -3.225595e+09   1.474306e+05   3.009722e-26  1.482197e-323  1.482197e-323
     1576000   1.575999e-05   6.820624e-01   1.071368e+01   4.580842e+00  -8.488398e+04   5.220678e+04  -1.086506e+05  -7.063588e+09  -1.807647e+10  -3.167333e+09   1.474306e+05   2.994786e-26  1.482197e-323  1.482197e-323
     1584000   1.583999e-05   6.752494e-01   1.071779e+01   4.572140e+00  -8.543886e+04   5.075847e+04  -1.089016e+05  -6.808571e+09  -1.813038e+10  -3.108839e+09   1.474306e+05   2.979662e-26  1.482197e-323  1.482197e-323
     1592000   1.591999e-05   6.683928e-01   1.072180e+01   4.563418e+00  -8.597335e+04   4.930604e+04  -1.091480e+05  -6.553807e+09  -1.817966e+10  -3.050152e+09   1.474306e+05   2.964355e-26  1.482197e-323  1.482197e-323
     1600000   1.599999e-05   6.614942e-01   1.072568e+01   4.554677e+00  -8.648748e+04   4.784985e+04  -1.093897e+05  -6.299371e+09  -1.822432e+10  -2.991308e+09   1.474306e+05   2.948867e-26  1.482197e-323  1.482197e-323
     1608000   1.607999e-05   6.545553e-01   1.072945e+01   4.545916e+00  -8.698126e+04   4.639027e+04  -1.096266e+05  -6.045340e+09  -1.826441e+10  -2.932347e+09   1.474306e+05   2.933203e-26  1.482197e-323  1.482197e-323
     1616000   1.615999e-05   6.475777e-01   1.073311e+01   4.537136e+00  -8.745474e+04   4.492767e+04  -1.098588e+05  -5.791788e+09  -1.829994e+10  -2.873305e+09   1.474306e+05   2.917366e-26  1.482197e-323  1.482197e-323
     1624000   1.623999e-05   6.405631e-01   1.073664e+01   4.528339e+00  -8.790796e+04   4.346240e+04  -1.100863e+05  -5.538790e+09  -1.833095e+10  -2.814220e+09   1.474306e+05   2.901359e-26  1.482197e-323  1.482197e-323
     1632000   1.631999e-05   6.335130e-01   1.074006e+01   4.519523e+00  -8.834096e+04   4.199483e+04  -1.103091e+05  -5.286416e+09  -1.835747e+10  -2.755127e+09   1.474306e+05   2.885188e-26  1.482197e-323  1.482197e-323
     1640000   1.639999e-05   6.264291e-01   1.074336e+01   4.510689e+00  -8.875380e+04   4.052532e+04  -1.105272e+05  -5.034741e+09  -1.837954e+10  -2.696062e+09   1.474306e+05   2.868855e-26  1.482197e-323  1.482197e-323
     1648000   1.647999e-05   6.193129e-01   1.074654e+01   4.501838e+00  -8.914654e+04   3.905422e+04  -1.107405e+05  -4.783833e+09  -1.839719e+10  -2.637061e+09   1.474306e+05   2.852366e-26  1.482197e-323  1.482197e-323
     1656000   1.655999e-05   6.121662e-01   1.074961e+01   4.492971e+00  -8.951914e+04   3.758199e+04  -1.109491e+05  -4.531039e+09  -1.840983e+10  -2.580165e+09   1.474306e+05   2.835434e-26  1.482197e-323  1.482197e-323
     1664000   1.663999e-05   6.049904e-01   1.075256e+01   4.484087e+00  -8.987153e+04   3.610872e+04  -1.111533e+05  -4.278920e+09  -1.842133e+10  -2.524631e+09   1.474306e+05   2.819316e-26  1.482197e-323  1.482197e-323
     1672000   1.671999e-05   5.977873e-01   1.075539e+01   4.475186e+00  -9.020360e+04   3.463476e+04  -1.113532e+05  -4.020450e+09  -1.842578e+10  -2.474264e+09   1.474306e+05   2.802023e-26  1.482197e-323  1.482197e-323
     1680000   1.679999e-05   5.905584e-01   1.075810e+01   4.466270e+00  -9.051527e+04   3.316054e+04  -1.115489e+05  -3.771303e+09  -1.842901e+10  -2.418304e+09   1.474306e+05   2.785790e-26  1.482197e-323  1.482197e-323
     1688000   1.687999e-05   5.833053e-01   1.076069e+01   4.457339e+00  -9.080704e+04   3.168623e+04  -1.117401e+05  -3.523184e+09  -1.842803e+10  -2.362523e+09   1.474306e+05   2.769427e-26  1.482197e-323  1.482197e-323
     1696000   1.695999e-05   5.760298e-01   1.076317e+01   4.448392e+00  -9.107900e+04   3.021217e+04  -1.119269e+05  -3.276154e+09  -1.842288e+10  -2.306953e+09   1.474306e+05   2.752940e-26  1.482197e-323  1.482197e-323
     1704000   1.703999e-05   5.687332e-01   1.076553e+01   4.439431e+00  -9.133125e+04   2.873868e+04  -1.121092e+05  -3.030276e+09  -1.841361e+10  -2.251622e+09   1.474306e+05   2.736333e-26  1.482197e-323  1.482197e-323
     1712000   1.711999e-05   5.614173e-01   1.076777e+01   4.430455e+00  -9.156388e+04   2.726610e+04  -1.122872e+05  -2.785611e+09  -1.840026e+10  -2.196561e+09   1.474306e+05   2.719609e-26  1.482197e-323  1.482197e-323
     1720000   1.719999e-05   5.540835e-01   1.076989e+01   4.421465e+00  -9.177698e+04   2.579475e+04  -1.124607e+05  -2.542220e+09  -1.838288e+10  -2.141797e+09   1.474306e+05   2.702774e-26  1.482197e-323  1.482197e-323
     1728000   1.727999e-05   5.467335e-01   1.077189e+01   4.412461e+00  -9.197066e+04   2.432495e+04  -1.126299e+05  -2.300161e+09  -1.836151e+10  -2.087358e+09   1.474306e+05   2.685832e-26  1.482197e-323  1.482197e-323
     1736000   1.735999e-05   5.393687e-01   1.077378e+01   4.403444e+00  -9.214504e+04   2.285701e+04  -1.127947e+05  -2.059491e+09  -1.833620e+10  -2.033272e+09   1.474306e+05   2.668786e-26  1.482197e-323  1.482197e-323
     1744000   1.743999e-05   5.319908e-01   1.077555e+01   4.394414e+00  -9.230011e+04   2.139165e+04  -1.129552e+05  -1.817598e+09  -1.829939e+10  -1.980371e+09   1.474306e+05   2.649435e-26  1.482197e-323  1.482197e-323
     1752000   1.751999e-05   5.246012e-01   1.077720e+01   4.385371e+00  -9.243593e+04   1.992895e+04  -1.131116e+05  -1.578029e+09  -1.826746e+10  -1.928963e+09   1.474306e+05   2.632534e-26  1.482197e-323  1.482197e-323
     1760000   1.759999e-05   5.172016e-01   1.077874e+01   4.376316e+00  -9.255264e+04   1.846896e+04  -1.132639e+05  -1.340040e+09  -1.823173e+10  -1.877917e+09   1.474306e+05   2.615551e-26  1.482197e-323  1.482197e-323
     1768000   1.767999e-05   5.097933e-01   1.078016e+01   4.367249e+00  -9.265038e+04   1.701198e+04  -1.134121e+05  -1.103684e+09  -1.819226e+10  -1.827256e+09   1.474306e+05   2.598489e-26  1.482197e-323  1.482197e-323
     1776000   1.775999e-05   5.023780e-01   1.078146e+01   4.358170e+00  -9.272927e+04   1.555830e+04  -1.135562e+05  -8.690103e+08  -1.814910e+10  -1.777003e+09   1.474306e+05   2.581354e-26  1.482197e-323  1.482197e-323
     1784000   1.783999e-05   4.949571e-01   1.078265e+01   4.349080e+00  -9.278906e+04   1.410667e+04  -1.136969e+05  -6.287136e+08  -1.812982e+10  -1.736344e+09   1.474306e+05   2.572044e-26  1.482197e-323  1.482197e-323
     1792000   1.791999e-05   4.875322e-01   1.078372e+01   4.339979e+00  -9.283010e+04   1.265839e+04  -1.138338e+05  -3.976874e+08  -1.807661e+10  -1.685850e+09   1.474306e+05   2.553950e-26  1.482197e-323  1.482197e-323
     1800000   1.799999e-05   4.801048e-01   1.078467e+01   4.330867e+00  -9.285274e+04   1.121451e+04  -1.139667e+05  -1.685499e+08  -1.801985e+10  -1.635888e+09   1.474306e+05   2.535789e-26  1.482197e-323  1.482197e-323
     1808000   1.807999e-05   4.726763e-01   1.078551e+01   4.321745e+00  -9.285712e+04   9.775308e+03  -1.140956e+05   5.865256e+07  -1.795957e+10  -1.586476e+09   1.474306e+05   2.517567e-26  1.482197e-323  1.482197e-323
     1816000   1.815999e-05   4.652482e-01   1.078624e+01   4.312612e+00  -9.284340e+04   8.341068e+03  -1.142205e+05   2.838750e+08  -1.789585e+10  -1.537637e+09   1.474307e+05   2.499289e-26  1.482197e-323  1.482197e-323
     1824000   1.823999e-05   4.578218e-01   1.078685e+01   4.303469e+00  -9.281175e+04   6.912062e+03  -1.143416e+05   5.070737e+08  -1.782875e+10  -1.489388e+09   1.474307e+05   2.480958e-26  1.482197e-323  1.482197e-323
     1832000   1.831999e-05   4.503987e-01   1.078734e+01   4.294317e+00  -9.276299e+04   5.490137e+03  -1.144582e+05   7.147366e+08  -1.772719e+10  -1.429595e+09   1.474307e+05   2.453604e-26  1.482197e-323  1.482197e-323
     1840000   1.839999e-05   4.429802e-01   1.078773e+01   4.285156e+00  -9.269705e+04   4.074802e+03  -1.145707e+05   9.333570e+08  -1.765566e+10  -1.383127e+09   1.474307e+05   2.435781e-26  1.482197e-323  1.482197e-323
     1848000   1.847999e-05   4.355677e-01   1.078800e+01   4.275986e+00  -9.261370e+04   2.665317e+03  -1.146795e+05   1.149880e+09  -1.758096e+10  -1.337263e+09   1.474307e+05   2.417925e-26  1.482197e-323  1.482197e-323
     1856000   1.855999e-05   4.281625e-01   1.078815e+01   4.266808e+00  -9.251312e+04   1.261932e+03  -1.147847e+05   1.364269e+09  -1.750317e+10  -1.292016e+09   1.474307e+05   2.400039e-26  1.482197e-323  1.482197e-323
     1864000   1.863999e-05   4.207660e-01   1.078820e+01   4.257621e+00  -9.239548e+04  -1.351077e+02  -1.148863e+05   1.576487e+09  -1.742233e+10  -1.247403e+09   1.474307e+05   2.382129e-26  1.482197e-323  1.482197e-323
     1872000   1.871999e-05   4.133797e-01   1.078813e+01   4.248426e+00  -9.226094e+04  -1.525560e+03  -1.149843e+05   1.786500e+09  -1.733851e+10  -1.203436e+09   1.474307e+05   2.364198e-26  1.482197e-323  1.482197e-323
     1880000   1.879999e-05   4.060047e-01   1.078795e+01   4.239223e+00  -9.210969e+04  -2.909190e+03  -1.150788e+05   1.994273e+09  -1.725176e+10  -1.160128e+09   1.474307e+05   2.346252e-26  1.482197e-323  1.482197e-323
     1888000   1.887999e-05   3.986425e-01   1.078767e+01   4.230013e+00  -9.194179e+04  -4.285697e+03  -1.151700e+05   2.208088e+09  -1.715739e+10  -1.124313e+09   1.474307e+05   2.327427e-26  1.482197e-323  1.482197e-323
     1896000   1.895999e-05   3.912945e-01   1.078727e+01   4.220796e+00  -9.175707e+04  -5.654562e+03  -1.152583e+05   2.409451e+09  -1.706380e+10  -1.081041e+09   1.474307e+05   2.309084e-26  1.482197e-323  1.482197e-323
     1904000   1.903999e-05   3.839618e-01   1.078676e+01   4.211572e+00  -9.155634e+04  -7.015831e+03  -1.153430e+05   2.608485e+09  -1.696750e+10  -1.038513e+09   1.474307e+05   2.290739e-26  1.482197e-323  1.482197e-323
     1912000   1.911999e-05   3.766459e-01   1.078615e+01   4.202341e+00  -9.133978e+04  -8.369290e+03  -1.154244e+05   2.805161e+09  -1.686855e+10  -9.967387e+08   1.474307e+05   2.272397e-26  1.482197e-323  1.482197e-323
     1920000   1.919999e-05   3.693479e-01   1.078542e+01   4.193104e+00  -9.110762e+04  -9.715352e+03  -1.155024e+05   2.998633e+09  -1.677652e+10  -9.541917e+08   1.474307e+05   2.256470e-26  1.482197e-323  1.482197e-323
     1928000   1.927999e-05   3.620691e-01   1.078459e+01   4.183861e+00  -9.086005e+04  -1.105323e+04  -1.155772e+05   3.190105e+09  -1.666998e+10  -9.136664e+08   1.474307e+05   2.237464e-26  1.482197e-323  1.482197e-323
     1936000   1.935999e-05   3.548107e-01   1.078365e+01   4.174612e+00  -9.059726e+04  -1.238248e+04  -1.156486e+05   3.379065e+09  -1.656098e+10  -8.739483e+08   1.474307e+05   2.218475e-26  1.482197e-323  1.482197e-323
     1944000   1.943999e-05   3.475739e-01   1.078261e+01   4.165357e+00  -9.031946e+04  -1.370292e+04  -1.157170e+05   3.565492e+09  -1.644958e+10  -8.350442e+08   1.474307e+05   2.199508e-26  1.482197e-323  1.482197e-323
     1952000   1.951999e-05   3.403600e-01   1.078146e+01   4.156097e+00  -9.002685e+04  -1.501435e+04  -1.157823e+05   3.749364e+09  -1.633586e+10  -7.969605e+08   1.474307e+05   2.180567e-26  1.482197e-323  1.482197e-323
     1960000   1.959999e-05   3.331700e-01   1.078021e+01   4.146832e+00  -8.971963e+04  -1.631660e+04  -1.158445e+05   3.930663e+09  -1.621987e+10  -7.597026e+08   1.474307e+05   2.161656e-26  1.482197e-323  1.482197e-323
     1968000   1.967999e-05   3.260052e-01   1.077885e+01   4.137562e+00  -8.939801e+04  -1.760947e+04  -1.159039e+05   4.109372e+09  -1.610168e+10  -7.232753e+08   1.474307e+05   2.142780e-26  1.482197e-323  1.482197e-323
     1976000   1.975999e-05   3.188667e-01   1.077739e+01   4.128288e+00  -8.906220e+04  -1.889281e+04  -1.159603e+05   4.285473e+09  -1.598135e+10  -6.876827e+08   1.474307e+05   2.123941e-26  1.482197e-323  1.482197e-323
     1984000   1.983999e-05   3.117556e-01   1.077583e+01   4.119009e+00  -8.871241e+04  -2.016643e+04  -1.160139e+05   4.458952e+09  -1.585894e+10  -6.529282e+08   1.474307e+05   2.105144e-26  1.482197e-323  1.482197e-323
     1992000   1.991999e-05   3.046731e-01   1.077416e+01   4.109726e+00  -8.834884e+04  -2.143018e+04  -1.160648e+05   4.629793e+09  -1.573453e+10  -6.190144e+08   1.474307e+05   2.086393e-26  1.482197e-323  1.482197e-323
     2000000   1.999999e-05   2.976202e-01   1.077240e+01   4.100438e+00  -8.797182e+04  -2.268382e+04  -1.161129e+05   4.794027e+09  -1.560549e+10  -5.834816e+08   1.474307e+05   2.066729e-26  1.482197e-323  1.482197e-323
     2008000   2.007999e-05   2.905980e-01   1.077054e+01   4.091148e+00  -8.758164e+04  -2.392649e+04  -1.161584e+05   4.959841e+09  -1.546959e+10  -5.532147e+08   1.474307e+05   2.046281e-26  1.482197e-323  1.482197e-323
     2016000   2.015999e-05   2.836075e-01   1.076857e+01   4.081853e+00  -8.717831e+04  -2.515894e+04  -1.162014e+05   5.122909e+09  -1.534134e+10  -5.218299e+08   1.474307e+05   2.028149e-26  1.482197e-323  1.482197e-323
     2024000   2.023999e-05   2.766498e-01   1.076651e+01   4.072555e+00  -8.676204e+04  -2.638106e+04  -1.162419e+05   5.283348e+09  -1.521132e+10  -4.912680e+08   1.474307e+05   2.010075e-26  1.482197e-323  1.482197e-323
     2032000   2.031999e-05   2.697259e-01   1.076435e+01   4.063254e+00  -8.633304e+04  -2.759271e+04  -1.162801e+05   5.441149e+09  -1.507960e+10  -4.615286e+08   1.474307e+05   1.992061e-26  1.482197e-323  1.482197e-323
     2040000   2.039999e-05   2.628368e-01   1.076210e+01   4.053951e+00  -8.589153e+04  -2.879375e+04  -1.163158e+05   5.596305e+09  -1.494624e+10  -4.326105e+08   1.474307e+05   1.974112e-26  1.482197e-323  1.482197e-323
     2048000   2.047999e-05   2.559836e-01   1.075974e+01   4.044644e+00  -8.543771e+04  -2.998406e+04  -1.163493e+05   5.748808e+09  -1.481130e+10  -4.045119e+08   1.474307e+05   1.956230e-26  1.482197e-323  1.482197e-323
     2056000   2.055999e-05   2.491671e-01   1.075730e+01   4.035335e+00  -8.497179e+04  -3.116352e+04  -1.163806e+05   5.898653e+09  -1.467483e+10  -3.772306e+08   1.474307e+05   1.938418e-26  1.482197e-323  1.482197e-323
     2064000   2.063999e-05   2.423884e-01   1.075476e+01   4.026023e+00  -8.449399e+04  -3.233199e+04  -1.164097e+05   6.045836e+09  -1.453690e+10  -3.507639e+08   1.474307e+05   1.920679e-26  1.482197e-323  1.482197e-323
     2072000   2.071999e-05   2.356484e-01   1.075213e+01   4.016709e+00  -8.400452e+04  -3.348938e+04  -1.164367e+05   6.190353e+09  -1.439757e+10  -3.251083e+08   1.474307e+05   1.903017e-26  1.482197e-323  1.482197e-323
     2080000   2.079999e-05   2.289480e-01   1.074940e+01   4.007393e+00  -8.350360e+04  -3.463557e+04  -1.164617e+05   6.332203e+09  -1.425689e+10  -3.002600e+08   1.474307e+05   1.885434e-26  1.482197e-323  1.482197e-323
     2088000   2.087999e-05   2.222881e-01   1.074658e+01   3.998075e+00  -8.299145e+04  -3.577039e+04  -1.164848e+05   6.470845e+09  -1.411151e+10  -2.768874e+08   1.474307e+05   1.867135e-26  1.482197e-323  1.482197e-323
     2096000   2.095999e-05   2.156696e-01   1.074368e+01   3.988756e+00  -8.246831e+04  -3.689359e+04  -1.165060e+05   6.607101e+09  -1.396831e+10  -2.535304e+08   1.474307e+05   1.849699e-26  1.482197e-323  1.482197e-323
     2104000   2.103999e-05   2.090935e-01   1.074068e+01   3.979435e+00  -8.193438e+04  -3.800529e+04  -1.165254e+05   6.740700e+09  -1.382394e+10  -2.309759e+08   1.474307e+05   1.832351e-26  1.482197e-323  1.482197e-323
     2112000   2.111999e-05   2.025604e-01   1.073760e+01   3.970112e+00  -8.138987e+04  -3.910539e+04  -1.165430e+05   6.871643e+09  -1.367846e+10  -2.092181e+08   1.474307e+05   1.815094e-26  1.482197e-323  1.482197e-323
     2120000   2.119999e-05   1.960714e-01   1.073443e+01   3.960788e+00  -8.083501e+04  -4.019404e+04  -1.165588e+05   6.999590e+09  -1.353620e+10  -1.865105e+08   1.474307e+05   1.798786e-26  1.482197e-323  1.482197e-323
     2128000   2.127999e-05   1.896271e-01   1.073117e+01   3.951462e+00  -8.026999e+04  -4.127098e+04  -1.165729e+05   7.125301e+09  -1.338725e+10  -1.668071e+08   1.474307e+05   1.781425e-26  1.482197e-323  1.482197e-323
     2136000   2.135999e-05   1.832284e-01   1.072782e+01   3.942136e+00  -7.969503e+04  -4.233597e+04  -1.165855e+05   7.248348e+09  -1.323734e+10  -1.479070e+08   1.474307e+05   1.764165e-26  1.482197e-323  1.482197e-323
     2144000   2.143999e-05   1.768761e-01   1.072439e+01   3.932809e+00  -7.911033e+04  -4.338893e+04  -1.165966e+05   7.368736e+09  -1.308654e+10  -1.298021e+08   1.474307e+05   1.747010e-26  1.482197e-323  1.482197e-323
     2152000   2.151999e-05   1.705710e-01   1.072088e+01   3.923481e+00  -7.851610e+04  -4.442980e+04  -1.166063e+05   7.486471e+09  -1.293489e+10  -1.124838e+08   1.474307e+05   1.729961e-26  1.482197e-323  1.482197e-323
     2160000   2.159999e-05   1.643138e-01   1.071729e+01   3.914152e+00  -7.791256e+04  -4.545849e+04  -1.166146e+05   7.601560e+09  -1.278245e+10  -9.594319e+07   1.474307e+05   1.713021e-26  1.482197e-323  1.482197e-323
     2168000   2.167999e-05   1.581053e-01   1.071361e+01   3.904822e+00  -7.729992e+04  -4.647497e+04  -1.166216e+05   7.714011e+09  -1.262927e+10  -8.017104e+07   1.474307e+05   1.696191e-26  1.482197e-323  1.482197e-323
     2176000   2.175999e-05   1.519461e-01   1.070985e+01   3.895492e+00  -7.667843e+04  -4.747892e+04  -1.166275e+05   7.823081e+09  -1.246963e+10  -6.704262e+07   1.474307e+05   1.678269e-26  1.482197e-323  1.482197e-323
     2184000   2.183999e-05   1.458369e-01   1.070601e+01   3.886162e+00  -7.604823e+04  -4.847038e+04  -1.166323e+05   7.931325e+09  -1.231691e+10  -5.281427e+07   1.474307e+05   1.662147e-26  1.482197e-323  1.482197e-323
     2192000   2.191999e-05   1.397786e-01   1.070209e+01   3.876831e+00  -7.540948e+04  -4.944961e+04  -1.166360e+05   8.036998e+09  -1.216360e+10  -3.929307e+07   1.474307e+05   1.646137e-26  1.482197e-323  1.482197e-323
     2200000   2.199999e-05   1.337717e-01   1.069810e+01   3.867500e+00  -7.476226e+04  -5.041666e+04  -1.166386e+05   8.143077e+09  -1.201270e+10  -2.706615e+07   1.474307e+05   1.631170e-26  1.482197e-323  1.482197e-323
     2208000   2.207999e-05   1.278168e-01   1.069403e+01   3.858169e+00  -7.410680e+04  -5.137149e+04  -1.166403e+05   8.243171e+09  -1.185797e+10  -1.470947e+07   1.474307e+05   1.615263e-26  1.482197e-323  1.482197e-323
     2216000   2.215999e-05   1.219148e-01   1.068988e+01   3.848838e+00  -7.344342e+04  -5.231392e+04  -1.166410e+05   8.340727e+09  -1.170278e+10  -3.046291e+06   1.474307e+05   1.599474e-26  1.482197e-323  1.482197e-323
     2224000   2.223999e-05   1.160661e-01   1.068566e+01   3.839507e+00  -7.277235e+04  -5.324392e+04  -1.166408e+05   8.435758e+09  -1.154719e+10   7.934422e+06   1.474307e+05   1.583804e-26  1.482197e-323  1.482197e-323
     2232000   2.231999e-05   1.102714e-01   1.068136e+01   3.830175e+00  -7.209377e+04  -5.416146e+04  -1.166398e+05   8.528275e+09  -1.139123e+10   1.824393e+07   1.474307e+05   1.568255e-26  1.482197e-323  1.482197e-323
     2240000   2.239999e-05   1.045313e-01   1.067699e+01   3.820844e+00  -7.140789e+04  -5.506651e+04  -1.166379e+05   8.618294e+09  -1.123495e+10   2.789373e+07   1.474307e+05   1.552828e-26  1.482197e-323  1.482197e-323
     2248000   2.247999e-05   9.884633e-02   1.067255e+01   3.811513e+00  -7.071492e+04  -5.595901e+04  -1.166353e+05   8.705035e+09  -1.107645e+10   3.643381e+07   1.474307e+05   1.537082e-26  1.482197e-323  1.482197e-323
     2256000   2.255999e-05   9.321708e-02   1.066804e+01   3.802183e+00  -7.001508e+04  -5.683888e+04  -1.166321e+05   8.790509e+09  -1.092042e+10   4.488003e+07   1.474307e+05   1.522087e-26  1.482197e-323  1.482197e-323
     2264000   2.263999e-05   8.764409e-02   1.066346e+01   3.792852e+00  -6.930862e+04  -5.770570e+04  -1.166284e+05   8.871776e+09  -1.075550e+10   4.939765e+07   1.474307e+05   1.505520e-26  1.482197e-323  1.482197e-323
     2272000   2.271999e-05   8.212788e-02   1.065881e+01   3.783522e+00  -6.859562e+04  -5.855994e+04  -1.166241e+05   8.952607e+09  -1.060051e+10   5.705138e+07   1.474307e+05   1.491050e-26  1.482197e-323  1.482197e-323
     2280000   2.279999e-05   7.666896e-02   1.065409e+01   3.774192e+00  -6.787626e+04  -5.940178e+04  -1.166193e+05   9.031047e+09  -1.044541e+10   6.414421e+07   1.474307e+05   1.476702e-26  1.482197e-323  1.482197e-323
     2288000   2.287999e-05   7.126784e-02   1.064930e+01   3.764863e+00  -6.715072e+04  -6.023121e+04  -1.166139e+05   9.107111e+09  -1.029025e+10   7.068827e+07   1.474307e+05   1.462476e-26  1.482197e-323  1.482197e-323
     2296000   2.295999e-05   6.592500e-02   1.064445e+01   3.755534e+00  -6.641919e+04  -6.104822e+04  -1.166080e+05   9.180818e+09  -1.013507e+10   7.669577e+07   1.474307e+05   1.448374e-26  1.482197e-323  1.482197e-323
     2304000   2.303999e-05   6.064092e-02   1.063954e+01   3.746206e+00  -6.568185e+04  -6.185282e+04  -1.166016e+05   9.252185e+09  -9.979896e+09   8.217908e+07   1.474307e+05   1.434395e-26  1.482197e-323  1.482197e-323
     2312000   2.311999e-05   5.541606e-02   1.063456e+01   3.736878e+00  -6.493890e+04  -6.264500e+04  -1.165948e+05   9.321229e+09  -9.824782e+09   8.715065e+07   1.474307e+05   1.420542e-26  1.482197e-323  1.482197e-323
     2320000   2.319999e-05   5.025084e-02   1.062951e+01   3.727551e+00  -6.419051e+04  -6.342478e+04  -1.165877e+05   9.387969e+09  -9.669761e+09   9.162304e+07   1.474307e+05   1.406813e-26  1.482197e-323  1.482197e-323
     2328000   2.327999e-05   4.514571e-02   1.062441e+01   3.718224e+00  -6.343688e+04  -6.419216e+04  -1.165802e+05   9.452423e+09  -9.514871e+09   9.560887e+07   1.474307e+05   1.393210e-26  1.482197e-323  1.482197e-323
     2336000   2.335999e-05   4.010108e-02   1.061924e+01   3.708898e+00  -6.267819e+04  -6.494716e+04  -1.165724e+05   9.514612e+09  -9.360150e+09   9.912087e+07   1.474307e+05   1.379733e-26  1.482197e-323  1.482197e-323
     2344000   2.343999e-05   3.511733e-02   1.061402e+01   3.699572e+00  -6.191460e+04  -6.568980e+04  -1.165643e+05   9.575336e+09  -9.208084e+09   1.031389e+08   1.474307e+05   1.366850e-26  1.482197e-323  1.482197e-323
     2352000   2.351999e-05   3.019487e-02   1.060873e+01   3.690248e+00  -6.114626e+04  -6.642024e+04  -1.165560e+05   9.632728e+09  -9.052833e+09   1.053933e+08   1.474307e+05   1.353434e-26  1.482197e-323  1.482197e-323
     2360000   2.359999e-05   2.533405e-02   1.060339e+01   3.680923e+00  -6.037342e+04  -6.713826e+04  -1.165475e+05   9.687906e+09  -8.897860e+09   1.071929e+08   1.474307e+05   1.340149e-26  1.482197e-323  1.482197e-323
     2368000   2.367999e-05   2.053524e-02   1.059799e+01   3.671600e+00  -5.959629e+04  -6.784386e+04  -1.165388e+05   9.739913e+09  -8.742010e+09   1.083534e+08   1.474307e+05   1.326684e-26  1.482197e-323  1.482197e-323
     2376000   2.375999e-05   1.579876e-02   1.059254e+01   3.662277e+00  -5.881505e+04  -6.853706e+04  -1.165301e+05   9.790742e+09  -8.587967e+09   1.094083e+08   1.474307e+05   1.313699e-26  1.482197e-323  1.482197e-323
     2384000   2.383999e-05   1.112493e-02   1.058702e+01   3.652955e+00  -5.802982e+04  -6.921795e+04  -1.165214e+05   9.839424e+09  -8.434308e+09   1.100550e+08   1.474307e+05   1.300844e-26  1.482197e-323  1.482197e-323
     2392000   2.391999e-05   6.514085e-03   1.058146e+01   3.643634e+00  -5.724079e+04  -6.988656e+04  -1.165125e+05   9.885980e+09  -8.281065e+09   1.103066e+08   1.474307e+05   1.288118e-26  1.482197e-323  1.482197e-323
     2400000   2.399999e-05   1.966505e-03   1.057584e+01   3.634313e+00  -5.644812e+04  -7.054293e+04  -1.165037e+05   9.930434e+09  -8.128270e+09   1.101764e+08   1.474307e+05   1.275522e-26  1.482197e-323  1.482197e-323
