     timestep     time              x             y              z              vx             vy             vz             ax             ay             az         v_magnitude      ELoss        Electronic      Nuclear
           0   0.000000e+00   1.000000e-01   7.683702e+00   2.042472e+01  -1.320474e+05  -1.041184e+06   2.958981e+06   0.000000e+00   0.000000e+00   0.000000e+00   3.139597e+06   0.000000e+00   0.000000e+00   0.000000e+00
        8000   7.999000e-08   1.077918e-01   7.590045e+00   2.065736e+01   3.022202e+05  -1.253820e+06   2.862464e+06   4.602300e+12  -1.245627e+12  -1.031441e+12   3.139602e+06   1.203912e-16   0.000000e+00   0.000000e+00
       16000   1.599900e-07   1.454149e-01   7.487265e+00   2.088330e+01   6.245837e+05  -1.301068e+06   2.788231e+06   3.555091e+12  -1.356470e+11  -8.596145e+11   3.139604e+06   6.777060e-17   0.000000e+00   0.000000e+00
       24000   2.399900e-07   2.059733e-01   7.383390e+00   2.110373e+01   8.806371e+05  -1.289692e+06   2.723655e+06   2.880293e+12   3.736477e+11  -7.543217e+11   3.139606e+06   4.555407e-17   0.000000e+00   0.000000e+00
       32000   3.199900e-07   2.850988e-01   7.281666e+00   2.131926e+01   1.091206e+06  -1.250647e+06   2.665010e+06   2.408078e+12   5.889689e+11  -7.095846e+11   3.139607e+06   3.363767e-17   0.000000e+00   0.000000e+00
       40000   3.999900e-07   3.796978e-01   7.183635e+00   2.153022e+01   1.268981e+06  -1.198621e+06   2.609622e+06   2.052749e+12   7.005767e+11  -6.763898e+11   3.139607e+06   2.611432e-17   0.000000e+00   0.000000e+00
       48000   4.799900e-07   4.874737e-01   7.090063e+00   2.173686e+01   1.421706e+06  -1.139836e+06   2.556690e+06   1.777071e+12   7.617914e+11  -6.485387e+11   3.139608e+06   2.103931e-17   0.000000e+00   0.000000e+00
       56000   5.599900e-07   6.066426e-01   7.001362e+00   2.193935e+01   1.554518e+06  -1.077246e+06   2.506024e+06   1.552399e+12   8.004321e+11  -6.188830e+11   3.139608e+06   1.737030e-17   0.000000e+00   0.000000e+00
       64000   6.399900e-07   7.357647e-01   6.917764e+00   2.213788e+01   1.671071e+06  -1.012405e+06   2.457581e+06   1.366865e+12   8.214149e+11  -5.910263e+11   3.139609e+06   1.463194e-17   0.000000e+00   0.000000e+00
       72000   7.199900e-07   8.736508e-01   6.839420e+00   2.233263e+01   1.773987e+06  -9.459071e+05   2.411509e+06   1.209567e+12   8.399749e+11  -5.603103e+11   3.139609e+06   1.255883e-17   0.000000e+00   0.000000e+00
       80000   7.999900e-07   1.019288e+00   6.766446e+00   2.252379e+01   1.865110e+06  -8.782914e+05   2.367935e+06   1.070746e+12   8.505504e+11  -5.278883e+11   3.139610e+06   1.086937e-17   0.000000e+00   0.000000e+00
       88000   8.799900e-07   1.171791e+00   6.698917e+00   2.271157e+01   1.945866e+06  -8.097074e+05   2.327043e+06   9.510045e+11   8.667388e+11  -4.936324e+11   3.139610e+06   9.608285e-18   0.000000e+00   0.000000e+00
       96000   9.599900e-07   1.330384e+00   6.636925e+00   2.289619e+01   2.017523e+06  -7.398554e+05   2.288966e+06   8.422369e+11   8.810270e+11  -4.575792e+11   3.139610e+06   8.574422e-18   0.000000e+00   0.000000e+00
      104000   1.039990e-06   1.494374e+00   6.580576e+00   2.307788e+01   2.080925e+06  -6.686386e+05   2.253847e+06   7.442192e+11   8.986885e+11  -4.205036e+11   3.139610e+06   7.782078e-18   0.000000e+00   0.000000e+00
      112000   1.119990e-06   1.663129e+00   6.529993e+00   2.325689e+01   2.136721e+06  -5.956750e+05   2.221880e+06   6.517096e+11   9.228819e+11  -3.793049e+11   3.139610e+06   7.185025e-18   0.000000e+00   0.000000e+00
      120000   1.199990e-06   1.836057e+00   6.485306e+00   2.343347e+01   2.185260e+06  -5.213643e+05   2.193165e+06   5.621134e+11   9.349057e+11  -3.378334e+11   3.139611e+06   6.597438e-18   0.000000e+00   0.000000e+00
      128000   1.279990e-06   2.012586e+00   6.446606e+00   2.360789e+01   2.226907e+06  -4.457455e+05   2.167799e+06   4.794212e+11   9.556918e+11  -2.959771e+11   3.139611e+06   6.226274e-18   0.000000e+00   0.000000e+00
      136000   1.359990e-06   2.192189e+00   6.414037e+00   2.378041e+01   2.262065e+06  -3.682915e+05   2.145829e+06   3.984898e+11   9.740056e+11  -2.529000e+11   3.139611e+06   5.926043e-18   0.000000e+00   0.000000e+00
      144000   1.439990e-06   2.374348e+00   6.387721e+00   2.395131e+01   2.290884e+06  -2.892615e+05   2.127284e+06   3.222964e+11   1.005537e+12  -2.103475e+11   3.139611e+06   5.864202e-18   0.000000e+00   0.000000e+00
      152000   1.519990e-06   2.558568e+00   6.367807e+00   2.412086e+01   2.313597e+06  -2.083726e+05   2.112110e+06   2.455548e+11   1.014627e+12  -1.688752e+11   3.139611e+06   5.657133e-18   0.000000e+00   0.000000e+00
      160000   1.599990e-06   2.744362e+00   6.354404e+00   2.428934e+01   2.330286e+06  -1.264570e+05   2.100223e+06   1.716837e+11   1.030702e+12  -1.284251e+11   3.139611e+06   5.606690e-18   0.000000e+00   0.000000e+00
      168000   1.679990e-06   2.931257e+00   6.347603e+00   2.445698e+01   2.341127e+06  -4.338960e+04   2.091507e+06   9.968048e+10   1.051350e+12  -8.976099e+10   3.139611e+06   5.682592e-18   0.000000e+00   0.000000e+00
      176000   1.759990e-06   3.118790e+00   6.347521e+00   2.462406e+01   2.346254e+06   4.157523e+04   2.085791e+06   2.874830e+10   1.060971e+12  -5.348074e+10   3.139612e+06   5.713093e-18   0.000000e+00   0.000000e+00
      184000   1.839990e-06   3.306509e+00   6.354235e+00   2.479079e+01   2.345806e+06   1.262591e+05   2.082886e+06  -3.972389e+10   1.066410e+12  -1.989937e+10   3.139612e+06   5.762912e-18   0.000000e+00   0.000000e+00
      192000   1.919990e-06   3.493973e+00   6.367775e+00   2.495739e+01   2.339897e+06   2.125781e+05   2.082512e+06  -1.083097e+11   1.096311e+12   9.792849e+09   3.139612e+06   6.139850e-18   0.000000e+00   0.000000e+00
      200000   1.999990e-06   3.680755e+00   6.388228e+00   2.512405e+01   2.328817e+06   2.985329e+05   2.084383e+06  -1.683587e+11   1.062630e+12   3.591384e+10   3.139612e+06   5.862183e-18   0.000000e+00   0.000000e+00
      208000   2.079990e-06   3.866452e+00   6.415541e+00   2.529094e+01   2.312763e+06   3.844736e+05   2.088174e+06  -2.308519e+11   1.074648e+12   5.782282e+10   3.139612e+06   6.128691e-18   0.000000e+00   0.000000e+00
      216000   2.159990e-06   4.050671e+00   6.449731e+00   2.545820e+01   2.291967e+06   4.701566e+05   2.093563e+06  -2.886523e+11   1.068418e+12   7.607617e+10   3.139612e+06   6.225401e-18   0.000000e+00   0.000000e+00
      224000   2.239990e-06   4.233044e+00   6.490767e+00   2.562594e+01   2.266578e+06   5.557709e+05   2.100216e+06  -3.441736e+11   1.064360e+12   8.978549e+10   3.139613e+06   6.370833e-18   0.000000e+00   0.000000e+00
      232000   2.319990e-06   4.413216e+00   6.538615e+00   2.579426e+01   2.237079e+06   6.402100e+05   2.107789e+06  -3.929611e+11   1.048338e+12   9.865378e+10   3.139613e+06   6.389984e-18   0.000000e+00   0.000000e+00
      240000   2.399990e-06   4.590875e+00   6.593169e+00   2.596320e+01   2.203765e+06   7.234693e+05   2.115935e+06  -4.397337e+11   1.035022e+12   1.041034e+11   3.139613e+06   6.452276e-18   0.000000e+00   0.000000e+00
      248000   2.479990e-06   4.765734e+00   6.654312e+00   2.613281e+01   2.167204e+06   8.047296e+05   2.124337e+06  -4.768015e+11   1.006167e+12   1.052783e+11   3.139613e+06   6.327438e-18   0.000000e+00   0.000000e+00
      256000   2.559990e-06   4.937543e+00   6.721891e+00   2.630310e+01   2.127559e+06   8.844675e+05   2.132694e+06  -5.119867e+11   9.835610e+11   1.028589e+11   3.139613e+06   6.273368e-18   0.000000e+00   0.000000e+00
      264000   2.639990e-06   5.106079e+00   6.795761e+00   2.647404e+01   2.085495e+06   9.618309e+05   2.140739e+06  -5.434921e+11   9.610654e+11   9.766719e+10   3.139613e+06   6.214997e-18   0.000000e+00   0.000000e+00
      272000   2.719990e-06   5.271164e+00   6.875727e+00   2.664560e+01   2.041387e+06   1.036793e+06   2.148249e+06  -5.591076e+11   9.152482e+11   8.958187e+10   3.139613e+06   5.859618e-18   0.000000e+00   0.000000e+00
      280000   2.799990e-06   5.432661e+00   6.961574e+00   2.681774e+01   1.995790e+06   1.109003e+06   2.155020e+06  -5.779955e+11   8.859715e+11   7.936063e+10   3.139614e+06   5.692769e-18   0.000000e+00   0.000000e+00
      288000   2.879990e-06   5.590466e+00   7.053085e+00   2.699038e+01   1.949167e+06   1.178323e+06   2.160898e+06  -5.886979e+11   8.497939e+11   6.763383e+10   3.139614e+06   5.429526e-18   0.000000e+00   0.000000e+00
      296000   2.959990e-06   5.744510e+00   7.150030e+00   2.716345e+01   1.901887e+06   1.244757e+06   2.165775e+06  -5.926584e+11   8.105951e+11   5.456957e+10   3.139614e+06   5.115872e-18   0.000000e+00   0.000000e+00
      304000   3.039990e-06   5.894766e+00   7.252161e+00   2.733688e+01   1.854555e+06   1.307985e+06   2.169556e+06  -5.881582e+11   7.674276e+11   4.009912e+10   3.139614e+06   4.737491e-18   0.000000e+00   0.000000e+00
      312000   3.119990e-06   6.041249e+00   7.359216e+00   2.751056e+01   1.807649e+06   1.367785e+06   2.172268e+06  -5.804644e+11   7.242750e+11   2.699113e+10   3.139614e+06   4.361914e-18   0.000000e+00   0.000000e+00
      320000   3.199990e-06   6.184016e+00   7.470910e+00   2.768441e+01   1.761699e+06   1.424007e+06   2.173890e+06  -5.674093e+11   6.807703e+11   1.388780e+10   3.139614e+06   3.974174e-18   0.000000e+00   0.000000e+00
      328000   3.279990e-06   6.323158e+00   7.586959e+00   2.785835e+01   1.717133e+06   1.476590e+06   2.174469e+06  -5.470749e+11   6.352037e+11   6.769841e+08   3.139614e+06   3.555208e-18   0.000000e+00   0.000000e+00
      336000   3.359990e-06   6.458803e+00   7.707069e+00   2.803230e+01   1.674312e+06   1.525534e+06   2.174075e+06  -5.217277e+11   5.873073e+11  -1.031059e+10   3.139614e+06   3.122493e-18   0.000000e+00   0.000000e+00
      344000   3.439990e-06   6.591110e+00   7.830939e+00   2.820618e+01   1.633802e+06   1.570533e+06   2.172854e+06  -4.899452e+11   5.377797e+11  -2.030628e+10   3.139614e+06   2.679504e-18   0.000000e+00   0.000000e+00
      352000   3.519990e-06   6.720286e+00   7.958246e+00   2.837994e+01   1.596052e+06   1.611485e+06   2.170925e+06  -4.547562e+11   4.880181e+11  -2.792128e+10   3.139615e+06   2.254957e-18   0.000000e+00   0.000000e+00
      360000   3.599990e-06   6.846555e+00   8.088674e+00   2.855351e+01   1.561206e+06   1.648549e+06   2.168432e+06  -4.150083e+11   4.377753e+11  -3.402317e+10   3.139615e+06   1.846680e-18   0.000000e+00   0.000000e+00
      368000   3.679990e-06   6.970168e+00   8.221905e+00   2.872687e+01   1.529733e+06   1.681522e+06   2.165544e+06  -3.721991e+11   3.877086e+11  -3.813030e+10   3.139615e+06   1.468615e-18   0.000000e+00   0.000000e+00
      376000   3.759990e-06   7.091404e+00   8.357613e+00   2.889999e+01   1.501786e+06   1.710486e+06   2.162419e+06  -3.263266e+11   3.373092e+11  -4.018071e+10   3.139615e+06   1.122479e-18   0.000000e+00   0.000000e+00
      384000   3.839990e-06   7.210556e+00   8.495473e+00   2.907286e+01   1.477683e+06   1.735330e+06   2.159228e+06  -2.760430e+11   2.844714e+11  -3.971155e+10   3.139615e+06   8.028623e-19   0.000000e+00   0.000000e+00
      392000   3.919990e-06   7.327945e+00   8.635152e+00   2.924547e+01   1.457746e+06   1.755955e+06   2.156103e+06  -2.231514e+11   2.323967e+11  -3.839284e+10   3.139615e+06   5.326083e-19   0.000000e+00   0.000000e+00
      400000   3.999990e-06   7.443908e+00   8.776317e+00   2.941784e+01   1.442059e+06   1.772458e+06   2.153146e+06  -1.684503e+11   1.797172e+11  -3.512319e+10   3.139615e+06   3.131972e-19   0.000000e+00   0.000000e+00
      408000   4.079990e-06   7.558795e+00   8.918631e+00   2.958998e+01   1.430902e+06   1.784628e+06   2.150535e+06  -1.090674e+11   1.229903e+11  -2.949365e+10   3.139615e+06   1.411177e-19   0.000000e+00   0.000000e+00
      416000   4.159990e-06   7.672979e+00   9.061740e+00   2.976194e+01   1.424513e+06   1.792349e+06   2.148355e+06  -4.921554e+10   6.832795e+10  -2.437180e+10   3.139615e+06   3.888439e-20   0.000000e+00   0.000000e+00
      424000   4.239990e-06   7.786980e+00   9.205122e+00   2.993378e+01   1.429163e+06   1.787891e+06   2.148981e+06   1.869557e+11  -2.138534e+11   5.358690e+10   3.139615e+06   4.225547e-19   0.000000e+00   0.000000e+00
      432000   4.319990e-06   7.902049e+00   9.347281e+00   3.010593e+01   1.447788e+06   1.765553e+06   2.154974e+06   2.212382e+11  -2.738771e+11   7.575015e+10   3.139615e+06   6.561191e-19   0.000000e+00   0.000000e+00
