     timestep     time              x             y              z              vx             vy             vz             ax             ay             az         v_magnitude      ELoss        Electronic      Nuclear
           0   0.000000e+00   1.000000e-01   6.413381e+00   1.590387e+01   2.860053e+06  -1.770195e+06   1.892636e+06   0.000000e+00   0.000000e+00   0.000000e+00   3.859478e+06   0.000000e+00   0.000000e+00   0.000000e+00
        8000   7.999000e-08   3.314635e-01   6.276690e+00   1.605572e+01   2.925320e+06  -1.645318e+06   1.905519e+06   7.684777e+11   1.627495e+12   2.255220e+11   3.859478e+06   2.515403e-17   0.000000e+00   0.000000e+00
       16000   1.599900e-07   5.678344e-01   6.150413e+00   1.620903e+01   2.982444e+06  -1.509856e+06   1.928973e+06   6.554098e+11   1.759276e+12   3.636997e+11   3.859478e+06   2.795776e-17   0.000000e+00   0.000000e+00
       24000   2.399900e-07   8.083892e-01   6.035391e+00   1.636466e+01   3.029613e+06  -1.363989e+06   1.963811e+06   5.191011e+11   1.885936e+12   5.090925e+11   3.859479e+06   3.123377e-17   0.000000e+00   0.000000e+00
       32000   3.199900e-07   1.052256e+00   5.932435e+00   1.652355e+01   3.064943e+06  -1.208367e+06   2.010361e+06   3.598605e+11   2.002328e+12   6.549270e+11   3.859479e+06   3.492145e-17   0.000000e+00   0.000000e+00
       40000   3.999900e-07   1.298416e+00   5.842287e+00   1.668663e+01   3.086652e+06  -1.043992e+06   2.068391e+06   1.802957e+11   2.104496e+12   7.931859e+11   3.859480e+06   3.891847e-17   0.000000e+00   0.000000e+00
       48000   4.799900e-07   1.545716e+00   5.765591e+00   1.685478e+01   3.093209e+06  -8.723061e+05   2.136990e+06  -1.783191e+10   2.185382e+12   9.178966e+11   3.859480e+06   4.295668e-17   0.000000e+00   0.000000e+00
       56000   5.599900e-07   1.792896e+00   5.702868e+00   1.702879e+01   3.083524e+06  -6.950280e+05   2.214590e+06  -2.253960e+11   2.242713e+12   1.017716e+12   3.859481e+06   4.676077e-17   0.000000e+00   0.000000e+00
       64000   6.399900e-07   2.038633e+00   5.654484e+00   1.720930e+01   3.057115e+06  -5.141202e+05   2.298984e+06  -4.343234e+11   2.274446e+12   1.086211e+12   3.859481e+06   5.001234e-17   0.000000e+00   0.000000e+00
       72000   7.199900e-07   2.281593e+00   5.620649e+00   1.739674e+01   3.014177e+06  -3.316768e+05   2.387536e+06  -6.371941e+11   2.283150e+12   1.121638e+12   3.859482e+06   5.257567e-17   0.000000e+00   0.000000e+00
       80000   7.999900e-07   2.520483e+00   5.601401e+00   1.759134e+01   2.955572e+06  -1.497752e+05   2.477452e+06  -8.245600e+11   2.261778e+12   1.120456e+12   3.859483e+06   5.390689e-17   0.000000e+00   0.000000e+00
       88000   8.799900e-07   2.754107e+00   5.596619e+00   1.779309e+01   2.882805e+06   2.968349e+04   2.565963e+06  -9.909435e+11   2.222358e+12   1.087623e+12   3.859484e+06   5.431073e-17   0.000000e+00   0.000000e+00
       96000   9.599900e-07   2.981407e+00   5.606042e+00   1.800179e+01   2.797860e+06   2.050871e+05   2.650573e+06  -1.128111e+12   2.160443e+12   1.023660e+12   3.859484e+06   5.342612e-17   0.000000e+00   0.000000e+00
      104000   1.039990e-06   3.201502e+00   5.629286e+00   1.821702e+01   2.703070e+06   3.749990e+05   2.729178e+06  -1.235735e+12   2.083749e+12   9.376236e+11   3.859485e+06   5.159259e-17   0.000000e+00   0.000000e+00
      112000   1.119990e-06   3.413702e+00   5.665864e+00   1.843825e+01   2.600902e+06   5.382932e+05   2.800210e+06  -1.312515e+12   1.995707e+12   8.354769e+11   3.859486e+06   4.895789e-17   0.000000e+00   0.000000e+00
      120000   1.199990e-06   3.617516e+00   5.715213e+00   1.866483e+01   2.493855e+06   6.941181e+05   2.862607e+06  -1.358002e+12   1.897863e+12   7.229001e+11   3.859486e+06   4.563282e-17   0.000000e+00   0.000000e+00
      128000   1.279990e-06   3.812654e+00   5.776707e+00   1.889602e+01   2.384383e+06   8.418360e+05   2.915762e+06  -1.374130e+12   1.794172e+12   6.057108e+11   3.859487e+06   4.185248e-17   0.000000e+00   0.000000e+00
      136000   1.359990e-06   3.999012e+00   5.849681e+00   1.913110e+01   2.274717e+06   9.810806e+05   2.959524e+06  -1.362903e+12   1.685735e+12   4.887365e+11   3.859487e+06   3.775389e-17   0.000000e+00   0.000000e+00
      144000   1.439990e-06   4.176658e+00   5.933447e+00   1.936930e+01   2.166893e+06   1.111613e+06   2.994084e+06  -1.328859e+12   1.576672e+12   3.763723e+11   3.859488e+06   3.358983e-17   0.000000e+00   0.000000e+00
      152000   1.519990e-06   4.345810e+00   6.027306e+00   1.960992e+01   2.062618e+06   1.233409e+06   3.019927e+06  -1.274998e+12   1.468425e+12   2.711008e+11   3.859488e+06   2.947638e-17   0.000000e+00   0.000000e+00
      160000   1.599990e-06   4.506839e+00   6.130530e+00   1.985227e+01   1.968206e+06   1.341028e+06   3.037015e+06  -6.473634e+11   7.293775e+11   9.747661e+10   3.859489e+06   7.351562e-18   0.000000e+00   0.000000e+00
      168000   1.679990e-06   4.664783e+00   6.237242e+00   2.009516e+01   2.001612e+06   1.302885e+06   3.031781e+06   8.359001e+11  -9.420166e+11  -1.470396e+11   3.859489e+06   1.229219e-17   0.000000e+00   0.000000e+00
      176000   1.759990e-06   4.827482e+00   6.338603e+00   2.033720e+01   2.064587e+06   1.232978e+06   3.018758e+06   7.396644e+11  -8.047590e+11  -1.771720e+11   3.859489e+06   9.374573e-18   0.000000e+00   0.000000e+00
      184000   1.839990e-06   4.994917e+00   6.434815e+00   2.057811e+01   2.120063e+06   1.174155e+06   3.003723e+06   6.473859e+11  -6.654615e+11  -1.968007e+11   3.859489e+06   6.886309e-18   0.000000e+00   0.000000e+00
      192000   1.919990e-06   5.166500e+00   6.526763e+00   2.081776e+01   2.168361e+06   1.126358e+06   2.987505e+06   5.604499e+11  -5.298286e+11  -2.070205e+11   3.859489e+06   4.875538e-18   0.000000e+00   0.000000e+00
      200000   1.999990e-06   5.341670e+00   6.615322e+00   2.105610e+01   2.209752e+06   1.089435e+06   2.970822e+06   4.760860e+11  -3.950322e+11  -2.092572e+11   3.859489e+06   3.260908e-18   0.000000e+00   0.000000e+00
      208000   2.079990e-06   5.519889e+00   6.701345e+00   2.129310e+01   2.244640e+06   1.062855e+06   2.954249e+06   3.958249e+11  -2.688072e+11  -2.040379e+11   3.859489e+06   2.068704e-18   0.000000e+00   0.000000e+00
      216000   2.159990e-06   5.700643e+00   6.785643e+00   2.152880e+01   2.273208e+06   1.046149e+06   2.938325e+06   3.195081e+11  -1.499359e+11  -1.938014e+11   3.859489e+06   1.239591e-18   0.000000e+00   0.000000e+00
      224000   2.239990e-06   5.883442e+00   6.868978e+00   2.176326e+01   2.295784e+06   1.038744e+06   2.923362e+06   2.450581e+11  -3.574555e+10  -1.797482e+11   3.859489e+06   7.159661e-19   0.000000e+00   0.000000e+00
      232000   2.319990e-06   6.067811e+00   6.952077e+00   2.199657e+01   2.312483e+06   1.040103e+06   2.909685e+06   1.724072e+11   6.788893e+10  -1.612888e+11   3.859489e+06   4.613947e-19   0.000000e+00   0.000000e+00
      240000   2.399990e-06   6.253288e+00   7.035610e+00   2.222884e+01   2.323491e+06   1.049554e+06   2.897496e+06   1.024983e+11   1.676598e+11  -1.429238e+11   3.859489e+06   4.513911e-19   0.000000e+00   0.000000e+00
      248000   2.479990e-06   6.439425e+00   7.120201e+00   2.246021e+01   2.329072e+06   1.066326e+06   2.886872e+06   3.529513e+10   2.548094e+11  -1.225943e+11   3.859489e+06   6.208012e-19   0.000000e+00   0.000000e+00
      256000   2.559990e-06   6.625789e+00   7.206421e+00   2.269079e+01   2.329127e+06   1.090274e+06   2.877869e+06  -3.027673e+10   3.351246e+11  -1.024571e+11   3.859489e+06   9.458651e-19   0.000000e+00   0.000000e+00
      264000   2.639990e-06   6.811951e+00   7.294805e+00   2.292071e+01   2.324043e+06   1.120437e+06   2.870384e+06  -9.914303e+10   4.210797e+11  -8.409280e+10   3.859489e+06   1.484736e-18   0.000000e+00   0.000000e+00
      272000   2.719990e-06   6.997500e+00   7.385839e+00   2.315009e+01   2.313833e+06   1.156259e+06   2.864420e+06  -1.592741e+11   4.802305e+11  -6.519117e+10   3.859489e+06   1.989537e-18   0.000000e+00   0.000000e+00
      280000   2.799990e-06   7.182022e+00   7.479965e+00   2.337905e+01   2.298523e+06   1.197485e+06   2.859804e+06  -2.163708e+11   5.348598e+11  -5.005594e+10   3.859489e+06   2.564185e-18   0.000000e+00   0.000000e+00
      288000   2.879990e-06   7.365138e+00   7.577552e+00   2.360769e+01   2.278529e+06   1.242977e+06   2.856391e+06  -2.813639e+11   5.976260e+11  -3.561668e+10   3.859489e+06   3.345445e-18   0.000000e+00   0.000000e+00
      296000   2.959990e-06   7.546463e+00   7.678944e+00   2.383610e+01   2.253922e+06   1.292285e+06   2.854031e+06  -3.315379e+11   6.317054e+11  -2.420372e+10   3.859489e+06   3.895694e-18   0.000000e+00   0.000000e+00
      304000   3.039990e-06   7.725655e+00   7.784393e+00   2.406436e+01   2.225202e+06   1.344397e+06   2.852496e+06  -3.776033e+11   6.561884e+11  -1.469870e+10   3.859489e+06   4.383753e-18   0.000000e+00   0.000000e+00
      312000   3.119990e-06   7.902390e+00   7.894109e+00   2.429252e+01   2.192376e+06   1.399108e+06   2.851604e+06  -4.334349e+11   6.950582e+11  -7.786044e+09   3.859490e+06   5.130242e-18   0.000000e+00   0.000000e+00
      320000   3.199990e-06   8.076364e+00   8.008256e+00   2.452063e+01   2.156475e+06   1.454687e+06   2.851168e+06  -4.735255e+11   7.083494e+11  -3.252553e+09   3.859490e+06   5.550504e-18   0.000000e+00   0.000000e+00
      328000   3.279990e-06   8.247334e+00   8.126897e+00   2.474871e+01   2.117251e+06   1.511501e+06   2.851013e+06  -5.124399e+11   7.194487e+11  -8.685200e+08   3.859490e+06   5.964803e-18   0.000000e+00   0.000000e+00
      336000   3.359990e-06   8.415032e+00   8.250131e+00   2.497679e+01   2.074850e+06   1.569232e+06   2.850994e+06  -5.442171e+11   7.187084e+11   4.759000e+08   3.859490e+06   6.213457e-18   0.000000e+00   0.000000e+00
      344000   3.439990e-06   8.579255e+00   8.377956e+00   2.520487e+01   2.030324e+06   1.626371e+06   2.851028e+06  -5.748646e+11   7.175372e+11   6.607316e+07   3.859490e+06   6.462781e-18   0.000000e+00   0.000000e+00
      352000   3.519990e-06   8.739834e+00   8.510329e+00   2.543295e+01   1.983891e+06   1.682746e+06   2.851001e+06  -5.935535e+11   7.009068e+11  -6.646112e+08   3.859490e+06   6.449382e-18   0.000000e+00   0.000000e+00
      360000   3.599990e-06   8.896630e+00   8.647168e+00   2.566103e+01   1.936092e+06   1.737608e+06   2.850953e+06  -5.905028e+11   6.591911e+11  -7.505745e+08   3.859490e+06   5.988188e-18   0.000000e+00   0.000000e+00
      368000   3.679990e-06   9.049596e+00   8.788285e+00   2.588910e+01   1.888076e+06   1.789824e+06   2.850853e+06  -5.980056e+11   6.320336e+11  -7.512896e+08   3.859490e+06   5.788210e-18   0.000000e+00   0.000000e+00
      376000   3.759990e-06   9.198743e+00   8.933442e+00   2.611717e+01   1.840553e+06   1.838707e+06   2.850822e+06  -5.948349e+11   5.957203e+11  -1.834213e+08   3.859490e+06   5.418445e-18   0.000000e+00   0.000000e+00
      384000   3.839990e-06   9.344128e+00   9.082363e+00   2.634524e+01   1.794228e+06   1.883714e+06   2.850971e+06  -5.774912e+11   5.454183e+11   3.067494e+09   3.859490e+06   4.824161e-18   0.000000e+00   0.000000e+00
      392000   3.919990e-06   9.485858e+00   9.234732e+00   2.657334e+01   1.749555e+06   1.924572e+06   2.851446e+06  -5.382950e+11   4.765519e+11   8.635412e+09   3.859490e+06   3.952286e-18   0.000000e+00   0.000000e+00
      400000   3.999990e-06   9.624139e+00   9.390153e+00   2.680149e+01   1.708011e+06   1.960065e+06   2.852456e+06  -4.957629e+11   4.070290e+11   1.716746e+10   3.859490e+06   3.148102e-18   0.000000e+00   0.000000e+00
      408000   4.079990e-06   9.759257e+00   9.548176e+00   2.702975e+01   1.670664e+06   1.989487e+06   2.854205e+06  -4.390607e+11   3.291351e+11   2.757899e+10   3.859490e+06   2.307962e-18   0.000000e+00   0.000000e+00
      416000   4.159990e-06   9.891578e+00   9.708295e+00   2.725819e+01   1.638422e+06   2.012259e+06   2.856931e+06  -3.676166e+11   2.411346e+11   4.098378e+10   3.859490e+06   1.490683e-18   0.000000e+00   0.000000e+00
      424000   4.239990e-06   1.002156e+01   9.869951e+00   2.748689e+01   1.612363e+06   2.027820e+06   2.860752e+06  -2.798686e+11   1.440632e+11   5.562057e+10   3.859490e+06   7.812350e-19   0.000000e+00   0.000000e+00
      432000   4.319990e-06   1.014975e+01   1.003254e+01   2.771594e+01   1.593706e+06   2.035476e+06   2.865764e+06  -1.826071e+11   4.378382e+10   7.045295e+10   3.859490e+06   3.075865e-19   0.000000e+00   0.000000e+00
