     timestep     time              x             y              z              vx             vy             vz             ax             ay             az         v_magnitude      ELoss        Electronic      Nuclear
           0   0.000000e+00   1.000000e-01   9.196362e+00   2.080450e+01  -1.663195e+05  -3.813887e+05   2.073212e+06   0.000000e+00   0.000000e+00   0.000000e+00   2.114552e+06   0.000000e+00   0.000000e+00   0.000000e+00
        8000   7.999000e-08   8.803438e-02   9.164669e+00   2.097024e+01  -1.338700e+05  -4.091861e+05   2.070260e+06   3.700046e+11  -2.896966e+11  -3.333160e+10   2.114552e+06   2.390632e-18   0.000000e+00   0.000000e+00
       16000   1.599900e-07   7.843742e-02   9.131118e+00   2.113576e+01  -1.068295e+05  -4.284258e+05   2.067938e+06   3.106581e+11  -1.998568e+11  -2.535616e+10   2.114552e+06   1.476708e-18   0.000000e+00   0.000000e+00
       24000   2.399900e-07   7.084165e-02   9.096264e+00   2.130112e+01  -8.359797e+04  -4.422219e+05   2.066103e+06   2.687611e+11  -1.426578e+11  -1.965905e+10   2.114552e+06   1.001421e-18   0.000000e+00   0.000000e+00
       32000   3.199900e-07   6.498439e-02   9.060464e+00   2.146635e+01  -6.322816e+04  -4.522760e+05   2.064650e+06   2.407013e+11  -1.090410e+11  -1.651458e+10   2.114552e+06   7.550727e-19   0.000000e+00   0.000000e+00
       40000   3.999900e-07   6.066862e-02   9.023966e+00   2.163147e+01  -4.498677e+04  -4.598180e+05   2.063462e+06   2.163956e+11  -8.101092e+10  -1.333429e+10   2.114552e+06   5.769951e-19   0.000000e+00   0.000000e+00
       48000   4.799900e-07   5.774217e-02   8.986942e+00   2.179651e+01  -2.841913e+04  -4.655295e+05   2.062475e+06   1.986224e+11  -6.293588e+10  -1.146845e+10   2.114552e+06   4.690191e-19   0.000000e+00   0.000000e+00
       56000   5.599900e-07   5.608439e-02   8.949519e+00   2.196147e+01  -1.322384e+04  -4.698424e+05   2.061651e+06   1.828825e+11  -4.726430e+10  -9.598137e+09   2.114552e+06   3.853111e-19   0.000000e+00   0.000000e+00
       64000   6.399900e-07   5.559701e-02   8.911794e+00   2.212637e+01   8.655566e+02  -4.731234e+05   2.060942e+06   1.698071e+11  -3.513300e+10  -8.136530e+09   2.114552e+06   3.245914e-19   0.000000e+00   0.000000e+00
       72000   7.199900e-07   5.619847e-02   8.873841e+00   2.229122e+01   1.403010e+04  -4.755794e+05   2.060329e+06   1.595625e+11  -2.668271e+10  -7.245521e+09   2.114552e+06   2.824723e-19   0.000000e+00   0.000000e+00
       80000   7.999900e-07   5.782066e-02   8.835720e+00   2.245603e+01   2.640523e+04  -4.773607e+05   2.059796e+06   1.503636e+11  -1.887725e+10  -6.302280e+09   2.114552e+06   2.477950e-19   0.000000e+00   0.000000e+00
       88000   8.799900e-07   6.040555e-02   8.797477e+00   2.262079e+01   3.811355e+04  -4.786116e+05   2.059322e+06   1.425430e+11  -1.237809e+10  -5.514880e+09   2.114552e+06   2.208327e-19   0.000000e+00   0.000000e+00
       96000   9.599900e-07   6.390366e-02   8.759154e+00   2.278552e+01   4.924377e+04  -4.794178e+05   2.058899e+06   1.357657e+11  -7.925089e+09  -5.092458e+09   2.114552e+06   1.994940e-19   0.000000e+00   0.000000e+00
      104000   1.039990e-06   6.827164e-02   8.720781e+00   2.295022e+01   5.987632e+04  -4.798309e+05   2.058521e+06   1.298650e+11  -3.049270e+09  -4.488079e+09   2.114552e+06   1.819723e-19   0.000000e+00   0.000000e+00
      112000   1.119990e-06   7.347167e-02   8.682389e+00   2.311488e+01   7.005326e+04  -4.799172e+05   2.058179e+06   1.248464e+11   1.102665e+09  -3.992147e+09   2.114552e+06   1.680709e-19   0.000000e+00   0.000000e+00
      120000   1.199990e-06   7.947068e-02   8.644003e+00   2.327953e+01   7.985276e+04  -4.797008e+05   2.057873e+06   1.200650e+11   4.313143e+09  -3.653459e+09   2.114552e+06   1.556170e-19   0.000000e+00   0.000000e+00
      128000   1.279990e-06   8.623917e-02   8.605644e+00   2.344415e+01   8.930441e+04  -4.792228e+05   2.057596e+06   1.159626e+11   7.625101e+09  -3.257061e+09   2.114552e+06   1.455838e-19   0.000000e+00   0.000000e+00
      136000   1.359990e-06   9.375124e-02   8.567333e+00   2.360874e+01   9.845365e+04  -4.785025e+05   2.057346e+06   1.124339e+11   1.077359e+10  -2.874680e+09   2.114552e+06   1.375014e-19   0.000000e+00   0.000000e+00
      144000   1.439990e-06   1.019840e-01   8.529090e+00   2.377332e+01   1.073189e+05  -4.775415e+05   2.057126e+06   1.090629e+11   1.350979e+10  -2.553516e+09   2.114552e+06   1.301560e-19   0.000000e+00   0.000000e+00
      152000   1.519990e-06   1.109154e-01   8.490933e+00   2.393788e+01   1.159307e+05  -4.763513e+05   2.056935e+06   1.063156e+11   1.623588e+10  -2.232032e+09   2.114552e+06   1.246393e-19   0.000000e+00   0.000000e+00
      160000   1.599990e-06   1.205270e-01   8.452880e+00   2.410243e+01   1.243215e+05  -4.749469e+05   2.056769e+06   1.036249e+11   1.900738e+10  -1.874397e+09   2.114552e+06   1.195910e-19   0.000000e+00   0.000000e+00
      168000   1.679990e-06   1.308016e-01   8.414947e+00   2.426697e+01   1.325107e+05  -4.733225e+05   2.056632e+06   1.011468e+11   2.157199e+10  -1.552257e+09   2.114552e+06   1.152342e-19   0.000000e+00   0.000000e+00
      176000   1.759990e-06   1.417238e-01   8.377154e+00   2.443149e+01   1.405120e+05  -4.714876e+05   2.056523e+06   9.883516e+10   2.440465e+10  -1.157746e+09   2.114552e+06   1.116460e-19   0.000000e+00   0.000000e+00
      184000   1.839990e-06   1.532787e-01   8.339515e+00   2.459601e+01   1.483333e+05  -4.694332e+05   2.056444e+06   9.678104e+10   2.693605e+10  -8.320531e+08   2.114552e+06   1.087108e-19   0.000000e+00   0.000000e+00
      192000   1.919990e-06   1.654529e-01   8.302050e+00   2.476053e+01   1.559946e+05  -4.671539e+05   2.056396e+06   9.478324e+10   2.983645e+10  -4.120602e+08   2.114552e+06   1.063565e-19   0.000000e+00   0.000000e+00
      200000   1.999990e-06   1.782341e-01   8.264777e+00   2.492504e+01   1.635089e+05  -4.646497e+05   2.056379e+06   9.295155e+10   3.292008e+10   4.765512e+07   2.114552e+06   1.047352e-19   0.000000e+00   0.000000e+00
      208000   2.079990e-06   1.916103e-01   8.227713e+00   2.508955e+01   1.708723e+05  -4.618983e+05   2.056400e+06   9.124598e+10   3.587446e+10   4.760917e+08   2.114552e+06   1.035428e-19   0.000000e+00   0.000000e+00
      216000   2.159990e-06   2.055694e-01   8.190880e+00   2.525406e+01   1.780769e+05  -4.588753e+05   2.056466e+06   8.894283e+10   3.959440e+10   1.133170e+09   2.114552e+06   1.021082e-19   0.000000e+00   0.000000e+00
      224000   2.239990e-06   2.200984e-01   8.154301e+00   2.541858e+01   1.851261e+05  -4.555626e+05   2.056580e+06   8.704870e+10   4.336773e+10   1.770816e+09   2.114552e+06   1.019093e-19   0.000000e+00   0.000000e+00
      232000   2.319990e-06   2.351847e-01   8.117998e+00   2.558312e+01   1.920095e+05  -4.519371e+05   2.056749e+06   8.523455e+10   4.736484e+10   2.450559e+09   2.114552e+06   1.024798e-19   0.000000e+00   0.000000e+00
      240000   2.399990e-06   2.508156e-01   8.082000e+00   2.574766e+01   1.987320e+05  -4.479669e+05   2.056979e+06   8.282028e+10   5.180689e+10   3.280942e+09   2.114552e+06   1.029058e-19   0.000000e+00   0.000000e+00
      248000   2.479990e-06   2.669775e-01   8.046334e+00   2.591223e+01   2.052924e+05  -4.436141e+05   2.057278e+06   8.069782e+10   5.713273e+10   4.266966e+09   2.114552e+06   1.054969e-19   0.000000e+00   0.000000e+00
      256000   2.559990e-06   2.836572e-01   8.011033e+00   2.607683e+01   2.116745e+05  -4.388285e+05   2.057657e+06   7.884949e+10   6.266510e+10   5.253018e+09   2.114552e+06   1.095602e-19   0.000000e+00   0.000000e+00
      264000   2.639990e-06   3.008397e-01   7.976134e+00   2.624146e+01   2.178471e+05  -4.335646e+05   2.058129e+06   7.594963e+10   6.930271e+10   6.560278e+09   2.114552e+06   1.143261e-19   0.000000e+00   0.000000e+00
      272000   2.719990e-06   3.185074e-01   7.941678e+00   2.640613e+01   2.238001e+05  -4.277436e+05   2.058708e+06   7.287305e+10   7.651774e+10   7.976407e+09   2.114552e+06   1.209481e-19   0.000000e+00   0.000000e+00
      280000   2.799990e-06   3.366414e-01   7.907712e+00   2.657086e+01   2.295037e+05  -4.213025e+05   2.059408e+06   6.953302e+10   8.456157e+10   9.550334e+09   2.114552e+06   1.300780e-19   0.000000e+00   0.000000e+00
      288000   2.879990e-06   3.552196e-01   7.874288e+00   2.673564e+01   2.348956e+05  -4.141719e+05   2.060247e+06   6.542862e+10   9.415157e+10   1.146764e+10   2.114552e+06   1.430050e-19   0.000000e+00   0.000000e+00
      296000   2.959990e-06   3.742156e-01   7.841466e+00   2.690050e+01   2.399367e+05  -4.062370e+05   2.061245e+06   6.035144e+10   1.051520e+11   1.369864e+10   2.114552e+06   1.603453e-19   0.000000e+00   0.000000e+00
      304000   3.039990e-06   3.935983e-01   7.809316e+00   2.706545e+01   2.445488e+05  -3.973564e+05   2.062434e+06   5.461602e+10   1.171059e+11   1.608616e+10   2.114552e+06   1.826255e-19   0.000000e+00   0.000000e+00
      312000   3.119990e-06   4.133289e-01   7.777918e+00   2.723050e+01   2.486133e+05  -3.873703e+05   2.063847e+06   4.690401e+10   1.325200e+11   1.922311e+10   2.114552e+06   2.168287e-19   0.000000e+00   0.000000e+00
      320000   3.199990e-06   4.333591e-01   7.747370e+00   2.739567e+01   2.520221e+05  -3.760933e+05   2.065519e+06   3.812048e+10   1.498070e+11   2.262601e+10   2.114552e+06   2.628860e-19   0.000000e+00   0.000000e+00
      328000   3.279990e-06   4.536307e-01   7.717784e+00   2.756099e+01   2.546200e+05  -3.632965e+05   2.067490e+06   2.671523e+10   1.705225e+11   2.667403e+10   2.114552e+06   3.285423e-19   0.000000e+00   0.000000e+00
      336000   3.359990e-06   4.740713e-01   7.689291e+00   2.772648e+01   2.561980e+05  -3.486981e+05   2.069807e+06   1.208976e+10   1.952995e+11   3.140562e+10   2.114552e+06   4.230139e-19   0.000000e+00   0.000000e+00
      344000   3.439990e-06   4.945879e-01   7.662050e+00   2.789217e+01   2.564727e+05  -3.319313e+05   2.072528e+06  -5.642329e+09   2.245366e+11   3.665974e+10   2.114552e+06   5.578425e-19   0.000000e+00   0.000000e+00
      352000   3.519990e-06   5.150604e-01   7.636255e+00   2.805810e+01   2.550122e+05  -3.124493e+05   2.075735e+06  -3.085951e+10   2.625207e+11   4.330739e+10   2.114552e+06   7.727399e-19   0.000000e+00   0.000000e+00
      360000   3.599990e-06   5.353318e-01   7.612143e+00   2.822430e+01   2.513590e+05  -2.897395e+05   2.079471e+06  -6.212283e+10   3.071997e+11   5.031280e+10   2.114552e+06   1.085270e-18   0.000000e+00   0.000000e+00
      368000   3.679990e-06   5.552015e-01   7.590003e+00   2.839083e+01   2.448396e+05  -2.630299e+05   2.083795e+06  -1.024405e+11   3.622496e+11   5.776260e+10   2.114552e+06   1.562334e-18   0.000000e+00   0.000000e+00
      376000   3.759990e-06   5.744054e-01   7.570191e+00   2.855772e+01   2.345305e+05  -2.313202e+05   2.088736e+06  -1.574219e+11   4.330362e+11   6.563415e+10   2.114552e+06   2.333006e-18   0.000000e+00   0.000000e+00
      384000   3.839990e-06   5.925926e-01   7.553160e+00   2.872504e+01   2.191748e+05  -1.932961e+05   2.094261e+06  -2.306307e+11   5.217336e+11   7.229317e+10   2.114552e+06   3.560965e-18   0.000000e+00   0.000000e+00
      392000   3.919990e-06   6.092933e-01   7.539478e+00   2.889282e+01   1.970584e+05  -1.472866e+05   2.100192e+06  -3.263097e+11   6.315072e+11   7.490733e+10   2.114552e+06   5.502558e-18   0.000000e+00   0.000000e+00
      400000   3.999990e-06   6.238883e-01   7.529857e+00   2.906107e+01   1.661469e+05  -9.139589e+04   2.106033e+06  -4.521229e+11   7.709791e+11   6.913054e+10   2.114552e+06   8.655185e-18   0.000000e+00   0.000000e+00
      408000   4.079990e-06   6.355749e-01   7.525182e+00   2.922975e+01   1.239166e+05  -2.322821e+04   2.110791e+06  -6.093579e+11   9.388694e+11   4.611086e+10   2.114553e+06   1.351604e-17   0.000000e+00   0.000000e+00
      416000   4.159990e-06   6.433428e-01   7.526537e+00   2.939872e+01   6.776596e+04   5.977415e+04   2.112621e+06  -7.997238e+11   1.142577e+12  -6.666152e+09   2.114553e+06   2.094956e-17   0.000000e+00   0.000000e+00
      424000   4.239990e-06   6.460138e-01   7.535179e+00   2.956762e+01  -3.527902e+03   1.591116e+05   2.108556e+06  -9.860915e+11   1.349769e+12  -1.034902e+11   2.114553e+06   3.021111e-17   0.000000e+00   0.000000e+00
      432000   4.319990e-06   6.424162e-01   7.552426e+00   2.973583e+01  -8.814549e+04   2.743903e+05   2.094822e+06  -1.112296e+12   1.521185e+12  -2.460383e+11   2.114554e+06   3.890141e-17   0.000000e+00   0.000000e+00
      440000   4.399990e-06   6.322445e-01   7.578681e+00   2.990261e+01  -1.486647e+05   3.581056e+05   2.078701e+06   3.390673e+10  -4.962933e+10   1.097479e+10   2.114554e+06   3.965166e-20   0.000000e+00   0.000000e+00
      448000   4.479990e-06   6.222784e-01   7.604432e+00   3.006948e+01  -8.612784e+04   2.637462e+05   2.096273e+06   1.042259e+12  -1.591409e+12   2.430658e+11   2.114555e+06   3.961679e-17   0.000000e+00   0.000000e+00
      456000   4.559990e-06   6.185932e-01   7.620624e+00   3.023780e+01  -7.813654e+03   1.439392e+05   2.109636e+06   9.088800e+11  -1.380473e+12   9.756808e+10   2.114555e+06   2.952819e-17   0.000000e+00   0.000000e+00
      464000   4.639990e-06   6.207157e-01   7.628018e+00   3.040676e+01   5.891538e+04   4.464881e+04   2.113263e+06   7.637661e+11  -1.104620e+12   2.053902e+09   2.114556e+06   1.942713e-17   0.000000e+00   0.000000e+00
      472000   4.719990e-06   6.277252e-01   7.628344e+00   3.057577e+01   1.145960e+05  -3.309530e+04   2.111189e+06   6.324615e+11  -8.471551e+11  -4.760501e+10   2.114556e+06   1.206385e-17   0.000000e+00   0.000000e+00
      480000   4.799990e-06   6.388023e-01   7.623212e+00   3.074448e+01   1.609703e+05  -9.255950e+04   2.106388e+06   5.307897e+11  -6.484413e+11  -6.905361e+10   2.114556e+06   7.615441e-18   0.000000e+00   0.000000e+00
      488000   4.879990e-06   6.532845e-01   7.613908e+00   3.091276e+01   2.000055e+05  -1.380190e+05   2.100547e+06   4.500439e+11  -4.972967e+11  -7.552467e+10   2.114556e+06   4.907011e-18   0.000000e+00   0.000000e+00
      496000   4.959990e-06   6.706526e-01   7.601404e+00   3.108056e+01   2.333633e+05  -1.731162e+05   2.094498e+06   3.866311e+11  -3.858300e+11  -7.496588e+10   2.114557e+06   3.274248e-18   0.000000e+00   0.000000e+00
      504000   5.039990e-06   6.905055e-01   7.586413e+00   3.124789e+01   2.623240e+05  -2.005732e+05   2.088613e+06   3.391272e+11  -3.049523e+11  -7.187751e+10   2.114557e+06   2.296172e-18   0.000000e+00   0.000000e+00
      512000   5.119990e-06   7.125327e-01   7.569463e+00   3.141475e+01   2.878400e+05  -2.223491e+05   2.083041e+06   3.001216e+11  -2.421620e+11  -6.731985e+10   2.114557e+06   1.650708e-18   0.000000e+00   0.000000e+00
      520000   5.199990e-06   7.364850e-01   7.550953e+00   3.158118e+01   3.105475e+05  -2.397582e+05   2.077842e+06   2.685618e+11  -1.950595e+11  -6.264539e+10   2.114557e+06   1.229010e-18   0.000000e+00   0.000000e+00
      528000   5.279990e-06   7.621598e-01   7.531190e+00   3.174722e+01   3.309836e+05  -2.538505e+05   2.073007e+06   2.431557e+11  -1.590176e+11  -5.829519e+10   2.114557e+06   9.458368e-19   0.000000e+00   0.000000e+00
      536000   5.359990e-06   7.893931e-01   7.510404e+00   3.191287e+01   3.495707e+05  -2.654005e+05   2.068505e+06   2.221927e+11  -1.305967e+11  -5.430579e+10   2.114557e+06   7.472572e-19   0.000000e+00   0.000000e+00
      544000   5.439990e-06   8.180504e-01   7.488779e+00   3.207818e+01   3.666215e+05  -2.749260e+05   2.064305e+06   2.043762e+11  -1.079981e+11  -5.068032e+10   2.114557e+06   6.032175e-19   0.000000e+00   0.000000e+00
      552000   5.519990e-06   8.480172e-01   7.466460e+00   3.224317e+01   3.823476e+05  -2.828040e+05   2.060384e+06   1.892701e+11  -8.978643e+10  -4.744671e+10   2.114557e+06   4.969472e-19   0.000000e+00   0.000000e+00
      560000   5.599990e-06   8.791963e-01   7.443565e+00   3.240785e+01   3.969563e+05  -2.893798e+05   2.056705e+06   1.762356e+11  -7.484135e+10  -4.454456e+10   2.114557e+06   4.162518e-19   0.000000e+00   0.000000e+00
      568000   5.679990e-06   9.115049e-01   7.420188e+00   3.257225e+01   4.106092e+05  -2.948930e+05   2.053238e+06   1.651817e+11  -6.293536e+10  -4.207208e+10   2.114557e+06   3.556257e-19   0.000000e+00   0.000000e+00
      576000   5.759990e-06   9.448713e-01   7.396406e+00   3.273638e+01   4.234225e+05  -2.995032e+05   2.049966e+06   1.553922e+11  -5.263090e+10  -3.978572e+10   2.114557e+06   3.069786e-19   0.000000e+00   0.000000e+00
      584000   5.839990e-06   9.792331e-01   7.372287e+00   3.290025e+01   4.355088e+05  -3.033674e+05   2.046864e+06   1.466019e+11  -4.370615e+10  -3.766992e+10   2.114557e+06   2.673579e-19   0.000000e+00   0.000000e+00
      592000   5.919990e-06   1.014535e+00   7.347885e+00   3.306388e+01   4.469373e+05  -3.065749e+05   2.043920e+06   1.390830e+11  -3.648748e+10  -3.588561e+10   2.114557e+06   2.365719e-19   0.000000e+00   0.000000e+00
      600000   5.999990e-06   1.050728e+00   7.323250e+00   3.322728e+01   4.577887e+05  -3.092343e+05   2.041116e+06   1.323114e+11  -3.024287e+10  -3.425704e+10   2.114557e+06   2.110573e-19   0.000000e+00   0.000000e+00
      608000   6.079990e-06   1.087768e+00   7.298420e+00   3.339046e+01   4.681329e+05  -3.114377e+05   2.038433e+06   1.263601e+11  -2.522959e+10  -3.287358e+10   2.114557e+06   1.904798e-19   0.000000e+00   0.000000e+00
      616000   6.159990e-06   1.125617e+00   7.273430e+00   3.355343e+01   4.780197e+05  -3.132362e+05   2.035861e+06   1.209246e+11  -2.015640e+10  -3.149423e+10   2.114557e+06   1.725654e-19   0.000000e+00   0.000000e+00
      624000   6.239990e-06   1.164240e+00   7.248311e+00   3.371620e+01   4.874890e+05  -3.146893e+05   2.033390e+06   1.158504e+11  -1.622857e+10  -3.028568e+10   2.114557e+06   1.572806e-19   0.000000e+00   0.000000e+00
      632000   6.319990e-06   1.203605e+00   7.223088e+00   3.387878e+01   4.965753e+05  -3.158455e+05   2.031011e+06   1.112600e+11  -1.264550e+10  -2.916916e+10   2.114557e+06   1.442221e-19   0.000000e+00   0.000000e+00
      640000   6.399990e-06   1.243682e+00   7.197784e+00   3.404116e+01   5.053025e+05  -3.167174e+05   2.028721e+06   1.068780e+11  -9.445828e+09  -2.809517e+10   2.114557e+06   1.325021e-19   0.000000e+00   0.000000e+00
      648000   6.479990e-06   1.284444e+00   7.172419e+00   3.420337e+01   5.136981e+05  -3.173670e+05   2.026510e+06   1.030325e+11  -6.636036e+09  -2.715680e+10   2.114557e+06   1.227619e-19   0.000000e+00   0.000000e+00
      656000   6.559990e-06   1.325866e+00   7.147011e+00   3.436541e+01   5.218125e+05  -3.177988e+05   2.024368e+06   9.992592e+10  -4.060662e+09  -2.639489e+10   2.114557e+06   1.152344e-19   0.000000e+00   0.000000e+00
      664000   6.639990e-06   1.367927e+00   7.121576e+00   3.452727e+01   5.296654e+05  -3.180335e+05   2.022291e+06   9.655850e+10  -1.901410e+09  -2.558896e+10   2.114557e+06   1.075177e-19   0.000000e+00   0.000000e+00
      672000   6.719990e-06   1.410606e+00   7.096130e+00   3.468898e+01   5.372711e+05  -3.180989e+05   2.020273e+06   9.359778e+10   3.220981e+08  -2.484062e+10   2.114557e+06   1.010092e-19   0.000000e+00   0.000000e+00
      680000   6.799990e-06   1.453884e+00   7.070685e+00   3.485052e+01   5.446535e+05  -3.179931e+05   2.018312e+06   9.114212e+10   2.220467e+09  -2.424536e+10   2.114557e+06   9.585994e-20   0.000000e+00   0.000000e+00
      688000   6.879990e-06   1.497746e+00   7.045254e+00   3.501191e+01   5.518461e+05  -3.177580e+05   2.016394e+06   8.862557e+10   4.193354e+09  -2.359416e+10   2.114557e+06   9.078781e-20   0.000000e+00   0.000000e+00
      696000   6.959990e-06   1.542174e+00   7.019848e+00   3.517314e+01   5.588379e+05  -3.173863e+05   2.014526e+06   8.630148e+10   5.430604e+09  -2.308476e+10   2.114557e+06   8.628091e-20   0.000000e+00   0.000000e+00
      704000   7.039990e-06   1.587155e+00   6.994475e+00   3.533423e+01   5.656400e+05  -3.169101e+05   2.012702e+06   8.372865e+10   6.532004e+09  -2.250216e+10   2.114557e+06   8.142501e-20   0.000000e+00   0.000000e+00
      712000   7.119990e-06   1.632672e+00   6.969145e+00   3.549518e+01   5.722602e+05  -3.163196e+05   2.010923e+06   8.170244e+10   8.355681e+09  -2.193616e+10   2.114557e+06   7.783591e-20   0.000000e+00   0.000000e+00
      720000   7.199990e-06   1.678712e+00   6.943867e+00   3.565598e+01   5.787174e+05  -3.156092e+05   2.009186e+06   7.971695e+10   9.586356e+09  -2.145545e+10   2.114557e+06   7.439681e-20   0.000000e+00   0.000000e+00
      728000   7.279990e-06   1.725263e+00   6.918650e+00   3.581665e+01   5.850251e+05  -3.148097e+05   2.007484e+06   7.791034e+10   1.026548e+10  -2.109495e+10   2.114557e+06   7.130950e-20   0.000000e+00   0.000000e+00
      736000   7.359990e-06   1.772313e+00   6.893499e+00   3.597718e+01   5.912027e+05  -3.139358e+05   2.005810e+06   7.657367e+10   1.170565e+10  -2.073759e+10   2.114557e+06   6.926512e-20   0.000000e+00   0.000000e+00
      744000   7.439990e-06   1.819852e+00   6.868423e+00   3.613758e+01   5.972569e+05  -3.129642e+05   2.004168e+06   7.480046e+10   1.247012e+10  -2.034377e+10   2.114557e+06   6.639884e-20   0.000000e+00   0.000000e+00
      752000   7.519990e-06   1.867870e+00   6.843426e+00   3.629785e+01   6.031717e+05  -3.119683e+05   2.002551e+06   7.325177e+10   1.269007e+10  -2.008660e+10   2.114557e+06   6.387658e-20   0.000000e+00   0.000000e+00
      760000   7.599990e-06   1.916356e+00   6.818510e+00   3.645799e+01   6.089571e+05  -3.109311e+05   2.000961e+06   7.153636e+10   1.314906e+10  -1.972756e+10   2.114557e+06   6.117512e-20   0.000000e+00   0.000000e+00
      768000   7.679990e-06   1.965300e+00   6.793678e+00   3.661800e+01   6.146215e+05  -3.098487e+05   1.999396e+06   6.994798e+10   1.366264e+10  -1.938492e+10   2.114557e+06   5.875853e-20   0.000000e+00   0.000000e+00
      776000   7.759990e-06   2.014692e+00   6.768935e+00   3.677789e+01   6.201712e+05  -3.087247e+05   1.997856e+06   6.873513e+10   1.430757e+10  -1.912571e+10   2.114557e+06   5.703357e-20   0.000000e+00   0.000000e+00
      784000   7.839990e-06   2.064525e+00   6.744283e+00   3.693766e+01   6.256276e+05  -3.075539e+05   1.996334e+06   6.761348e+10   1.479700e+10  -1.890963e+10   2.114557e+06   5.545116e-20   0.000000e+00   0.000000e+00
      792000   7.919990e-06   2.114790e+00   6.719726e+00   3.709731e+01   6.309985e+05  -3.063578e+05   1.994827e+06   6.670128e+10   1.528170e+10  -1.875184e+10   2.114557e+06   5.422442e-20   0.000000e+00   0.000000e+00
      800000   7.999990e-06   2.165482e+00   6.695266e+00   3.725683e+01   6.362894e+05  -3.051417e+05   1.993333e+06   6.568886e+10   1.531003e+10  -1.862476e+10   2.114557e+06   5.273884e-20   0.000000e+00   0.000000e+00
      808000   8.079990e-06   2.216594e+00   6.670904e+00   3.741624e+01   6.414965e+05  -3.039071e+05   1.991852e+06   6.473386e+10   1.578096e+10  -1.844040e+10   2.114557e+06   5.148138e-20   0.000000e+00   0.000000e+00
      816000   8.159990e-06   2.268120e+00   6.646642e+00   3.757553e+01   6.466363e+05  -3.026414e+05   1.990382e+06   6.372533e+10   1.585173e+10  -1.829281e+10   2.114557e+06   5.005167e-20   0.000000e+00   0.000000e+00
      824000   8.239990e-06   2.320054e+00   6.622482e+00   3.773470e+01   6.517032e+05  -3.013533e+05   1.988924e+06   6.287091e+10   1.624135e+10  -1.813983e+10   2.114557e+06   4.896120e-20   0.000000e+00   0.000000e+00
      832000   8.319990e-06   2.372391e+00   6.598426e+00   3.789376e+01   6.567012e+05  -3.000418e+05   1.987478e+06   6.234336e+10   1.695403e+10  -1.803995e+10   2.114557e+06   4.846553e-20   0.000000e+00   0.000000e+00
      840000   8.399990e-06   2.425124e+00   6.574475e+00   3.805270e+01   6.616279e+05  -2.987405e+05   1.986040e+06   6.126648e+10   1.626500e+10  -1.796367e+10   2.114557e+06   4.675579e-20   0.000000e+00   0.000000e+00
      848000   8.479990e-06   2.478250e+00   6.550628e+00   3.821152e+01   6.665013e+05  -2.974231e+05   1.984607e+06   6.067354e+10   1.653602e+10  -1.789813e+10   2.114557e+06   4.604741e-20   0.000000e+00   0.000000e+00
      856000   8.559990e-06   2.531763e+00   6.526887e+00   3.837023e+01   6.713231e+05  -2.961133e+05   1.983177e+06   6.006486e+10   1.646601e+10  -1.787388e+10   2.114557e+06   4.522145e-20   0.000000e+00   0.000000e+00
      864000   8.639990e-06   2.585660e+00   6.503249e+00   3.852883e+01   6.760998e+05  -2.948248e+05   1.981746e+06   5.950825e+10   1.618003e+10  -1.789493e+10   2.114557e+06   4.441216e-20   0.000000e+00   0.000000e+00
      872000   8.719990e-06   2.639938e+00   6.479715e+00   3.868731e+01   6.808320e+05  -2.935319e+05   1.980317e+06   5.878056e+10   1.611241e+10  -1.782045e+10   2.114557e+06   4.343286e-20   0.000000e+00   0.000000e+00
      880000   8.799990e-06   2.694593e+00   6.456285e+00   3.884568e+01   6.855282e+05  -2.922339e+05   1.978889e+06   5.845707e+10   1.598896e+10  -1.788954e+10   2.114557e+06   4.300824e-20   0.000000e+00   0.000000e+00
      888000   8.879990e-06   2.749622e+00   6.432958e+00   3.900394e+01   6.901876e+05  -2.909425e+05   1.977459e+06   5.792372e+10   1.607138e+10  -1.785238e+10   2.114557e+06   4.235381e-20   0.000000e+00   0.000000e+00
      896000   8.959990e-06   2.805021e+00   6.409734e+00   3.916208e+01   6.947998e+05  -2.896592e+05   1.976032e+06   5.738564e+10   1.588625e+10  -1.784885e+10   2.114557e+06   4.162043e-20   0.000000e+00   0.000000e+00
      904000   9.039990e-06   2.860789e+00   6.386612e+00   3.932010e+01   6.993775e+05  -2.883925e+05   1.974602e+06   5.697109e+10   1.531251e+10  -1.794197e+10   2.114557e+06   4.095297e-20   0.000000e+00   0.000000e+00
      912000   9.119990e-06   2.916921e+00   6.363589e+00   3.947801e+01   7.039193e+05  -2.871711e+05   1.973165e+06   5.671926e+10   1.559905e+10  -1.796411e+10   2.114557e+06   4.074842e-20   0.000000e+00   0.000000e+00
      920000   9.199990e-06   2.973415e+00   6.340664e+00   3.963581e+01   7.084415e+05  -2.859534e+05   1.971723e+06   5.649782e+10   1.543781e+10  -1.806079e+10   2.114557e+06   4.046197e-20   0.000000e+00   0.000000e+00
      928000   9.279990e-06   3.030271e+00   6.317837e+00   3.979349e+01   7.129484e+05  -2.847284e+05   1.970275e+06   5.622479e+10   1.533206e+10  -1.812938e+10   2.114557e+06   4.012215e-20   0.000000e+00   0.000000e+00
      936000   9.359990e-06   3.087486e+00   6.295107e+00   3.995105e+01   7.174218e+05  -2.835440e+05   1.968822e+06   5.567915e+10   1.448318e+10  -1.820316e+10   2.114557e+06   3.922081e-20   0.000000e+00   0.000000e+00
      944000   9.439990e-06   3.145058e+00   6.272470e+00   4.010850e+01   7.218761e+05  -2.823812e+05   1.967360e+06   5.568781e+10   1.455276e+10  -1.834450e+10   2.114557e+06   3.930852e-20   0.000000e+00   0.000000e+00
      952000   9.519990e-06   3.202986e+00   6.249926e+00   4.026583e+01   7.263221e+05  -2.812321e+05   1.965888e+06   5.521977e+10   1.370049e+10  -1.844169e+10   2.114557e+06   3.852862e-20   0.000000e+00   0.000000e+00
      960000   9.599990e-06   3.261269e+00   6.227471e+00   4.042304e+01   7.307375e+05  -2.801531e+05   1.964405e+06   5.514733e+10   1.310015e+10  -1.864592e+10   2.114557e+06   3.835073e-20   0.000000e+00   0.000000e+00
      968000   9.679990e-06   3.319904e+00   6.205100e+00   4.058013e+01   7.351452e+05  -2.791207e+05   1.962907e+06   5.488320e+10   1.262384e+10  -1.875968e+10   2.114557e+06   3.795167e-20   0.000000e+00   0.000000e+00
      976000   9.759990e-06   3.378891e+00   6.182811e+00   4.073710e+01   7.395313e+05  -2.781039e+05   1.961403e+06   5.471655e+10   1.249689e+10  -1.885851e+10   2.114557e+06   3.776059e-20   0.000000e+00   0.000000e+00
      984000   9.839990e-06   3.438229e+00   6.160602e+00   4.089396e+01   7.439009e+05  -2.771327e+05   1.959888e+06   5.454508e+10   1.200516e+10  -1.900572e+10   2.114557e+06   3.748902e-20   0.000000e+00   0.000000e+00
      992000   9.919990e-06   3.497915e+00   6.138466e+00   4.105069e+01   7.482494e+05  -2.762546e+05   1.958356e+06   5.430371e+10   1.118373e+10  -1.917074e+10   2.114557e+06   3.706869e-20   0.000000e+00   0.000000e+00
     1000000   9.999990e-06   3.557948e+00   6.116401e+00   4.120729e+01   7.525869e+05  -2.753809e+05   1.956816e+06   5.425737e+10   1.068967e+10  -1.936289e+10   2.114557e+06   3.697787e-20   0.000000e+00   0.000000e+00
     1008000   1.007999e-05   3.618329e+00   6.094404e+00   4.136378e+01   7.569246e+05  -2.745634e+05   1.955257e+06   5.419019e+10   9.903046e+09  -1.958763e+10   2.114557e+06   3.681919e-20   0.000000e+00   0.000000e+00
     1016000   1.015999e-05   3.679056e+00   6.072470e+00   4.152013e+01   7.612550e+05  -2.737957e+05   1.953683e+06   5.418248e+10   9.207845e+09  -1.982184e+10   2.114557e+06   3.676648e-20   0.000000e+00   0.000000e+00
     1024000   1.023999e-05   3.740130e+00   6.050595e+00   4.167636e+01   7.656004e+05  -2.730811e+05   1.952084e+06   5.440557e+10   8.750534e+09  -2.011352e+10   2.114557e+06   3.706442e-20   0.000000e+00   0.000000e+00
     1032000   1.031999e-05   3.801552e+00   6.028776e+00   4.183247e+01   7.699544e+05  -2.723994e+05   1.950466e+06   5.450414e+10   8.199819e+09  -2.037054e+10   2.114557e+06   3.719162e-20   0.000000e+00   0.000000e+00
     1040000   1.039999e-05   3.863323e+00   6.007009e+00   4.198844e+01   7.743165e+05  -2.717883e+05   1.948824e+06   5.461162e+10   7.153047e+09  -2.070096e+10   2.114557e+06   3.729096e-20   0.000000e+00   0.000000e+00
     1048000   1.047999e-05   3.925443e+00   5.985288e+00   4.214428e+01   7.786896e+05  -2.712402e+05   1.947157e+06   5.460683e+10   6.066037e+09  -2.099285e+10   2.114557e+06   3.726164e-20   0.000000e+00   0.000000e+00
     1056000   1.055999e-05   3.987913e+00   5.963609e+00   4.229998e+01   7.830693e+05  -2.707501e+05   1.945468e+06   5.487755e+10   6.077203e+09  -2.124295e+10   2.114557e+06   3.769611e-20   0.000000e+00   0.000000e+00
     1064000   1.063999e-05   4.050734e+00   5.941965e+00   4.245555e+01   7.874611e+05  -2.703534e+05   1.943750e+06   5.486142e+10   4.245489e+09  -2.163520e+10   2.114557e+06   3.765463e-20   0.000000e+00   0.000000e+00
     1072000   1.071999e-05   4.113907e+00   5.920350e+00   4.261098e+01   7.918569e+05  -2.700333e+05   1.942008e+06   5.495864e+10   3.476026e+09  -2.192612e+10   2.114557e+06   3.784205e-20   0.000000e+00   0.000000e+00
     1080000   1.079999e-05   4.177432e+00   5.898757e+00   4.276627e+01   7.962602e+05  -2.697918e+05   1.940240e+06   5.528324e+10   2.723267e+09  -2.230914e+10   2.114557e+06   3.835970e-20   0.000000e+00   0.000000e+00
     1088000   1.087999e-05   4.241309e+00   5.877181e+00   4.292142e+01   8.006806e+05  -2.696226e+05   1.938444e+06   5.525661e+10   1.504634e+09  -2.261462e+10   2.114557e+06   3.842034e-20   0.000000e+00   0.000000e+00
     1096000   1.095999e-05   4.305541e+00   5.855616e+00   4.307642e+01   8.051031e+05  -2.695166e+05   1.936626e+06   5.529989e+10   9.283664e+08  -2.286031e+10   2.114557e+06   3.857712e-20   0.000000e+00   0.000000e+00
     1104000   1.103999e-05   4.370127e+00   5.834057e+00   4.323128e+01   8.095497e+05  -2.694654e+05   1.934779e+06   5.558060e+10   2.019999e+08  -2.322787e+10   2.114557e+06   3.908600e-20   0.000000e+00   0.000000e+00
     1112000   1.111999e-05   4.435069e+00   5.812500e+00   4.338599e+01   8.140044e+05  -2.694764e+05   1.932907e+06   5.582207e+10  -3.868396e+08  -2.356224e+10   2.114557e+06   3.954541e-20   0.000000e+00   0.000000e+00
     1120000   1.119999e-05   4.500367e+00   5.790938e+00   4.354054e+01   8.184680e+05  -2.695735e+05   1.931008e+06   5.594594e+10  -1.475696e+09  -2.391898e+10   2.114557e+06   3.989878e-20   0.000000e+00   0.000000e+00
     1128000   1.127999e-05   4.566024e+00   5.769366e+00   4.369495e+01   8.229409e+05  -2.697517e+05   1.929081e+06   5.578633e+10  -3.067970e+09  -2.422730e+10   2.114557e+06   3.994461e-20   0.000000e+00   0.000000e+00
     1136000   1.135999e-05   4.632039e+00   5.747777e+00   4.384920e+01   8.274333e+05  -2.699924e+05   1.927124e+06   5.620765e+10  -3.667383e+09  -2.464720e+10   2.114557e+06   4.071732e-20   0.000000e+00   0.000000e+00
     1144000   1.143999e-05   4.698414e+00   5.726165e+00   4.400329e+01   8.319369e+05  -2.703520e+05   1.925134e+06   5.644766e+10  -4.934080e+09  -2.508645e+10   2.114557e+06   4.136119e-20   0.000000e+00   0.000000e+00
     1152000   1.151999e-05   4.765150e+00   5.704520e+00   4.415722e+01   8.364661e+05  -2.707652e+05   1.923112e+06   5.674531e+10  -5.728746e+09  -2.548818e+10   2.114557e+06   4.203420e-20   0.000000e+00   0.000000e+00
     1160000   1.159999e-05   4.832249e+00   5.682840e+00   4.431098e+01   8.410187e+05  -2.712508e+05   1.921057e+06   5.692308e+10  -6.795399e+09  -2.587981e+10   2.114557e+06   4.261246e-20   0.000000e+00   0.000000e+00
     1168000   1.167999e-05   4.899713e+00   5.661117e+00   4.446459e+01   8.455875e+05  -2.718068e+05   1.918972e+06   5.740699e+10  -6.750694e+09  -2.625232e+10   2.114557e+06   4.341100e-20   0.000000e+00   0.000000e+00
     1176000   1.175999e-05   4.967543e+00   5.639347e+00   4.461802e+01   8.501762e+05  -2.724374e+05   1.916854e+06   5.733411e+10  -8.835378e+09  -2.668495e+10   2.114557e+06   4.391761e-20   0.000000e+00   0.000000e+00
     1184000   1.183999e-05   5.035740e+00   5.617522e+00   4.477128e+01   8.547674e+05  -2.731995e+05   1.914702e+06   5.749701e+10  -1.002274e+10  -2.709807e+10   2.114557e+06   4.459959e-20   0.000000e+00   0.000000e+00
     1192000   1.191999e-05   5.104306e+00   5.595633e+00   4.492437e+01   8.593685e+05  -2.740568e+05   1.912519e+06   5.760809e+10  -1.115238e+10  -2.748361e+10   2.114557e+06   4.522160e-20   0.000000e+00   0.000000e+00
     1200000   1.199999e-05   5.173240e+00   5.573671e+00   4.507728e+01   8.639796e+05  -2.750072e+05   1.910304e+06   5.766940e+10  -1.256430e+10  -2.789107e+10   2.114557e+06   4.590145e-20   0.000000e+00   0.000000e+00
     1208000   1.207999e-05   5.242543e+00   5.551630e+00   4.523002e+01   8.686064e+05  -2.760397e+05   1.908055e+06   5.795443e+10  -1.332118e+10  -2.830983e+10   2.114557e+06   4.672092e-20   0.000000e+00   0.000000e+00
     1216000   1.215999e-05   5.312217e+00   5.529502e+00   4.538257e+01   8.732502e+05  -2.771662e+05   1.905771e+06   5.817823e+10  -1.459318e+10  -2.878039e+10   2.114557e+06   4.767267e-20   0.000000e+00   0.000000e+00
     1224000   1.223999e-05   5.382264e+00   5.507281e+00   4.553494e+01   8.779190e+05  -2.783853e+05   1.903447e+06   5.850768e+10  -1.580493e+10  -2.929676e+10   2.114557e+06   4.880647e-20   0.000000e+00   0.000000e+00
     1232000   1.231999e-05   5.452685e+00   5.484958e+00   4.568712e+01   8.826076e+05  -2.796978e+05   1.901085e+06   5.875089e+10  -1.702013e+10  -2.978007e+10   2.114557e+06   4.985083e-20   0.000000e+00   0.000000e+00
     1240000   1.239999e-05   5.523482e+00   5.462528e+00   4.583911e+01   8.873234e+05  -2.810901e+05   1.898683e+06   5.910830e+10  -1.799501e+10  -3.028750e+10   2.114557e+06   5.100058e-20   0.000000e+00   0.000000e+00
     1248000   1.247999e-05   5.594657e+00   5.439982e+00   4.599091e+01   8.920609e+05  -2.825580e+05   1.896243e+06   5.935435e+10  -1.874652e+10  -3.071580e+10   2.114557e+06   5.189335e-20   0.000000e+00   0.000000e+00
     1256000   1.255999e-05   5.666212e+00   5.417315e+00   4.614251e+01   8.968166e+05  -2.841243e+05   1.893764e+06   5.952722e+10  -2.011536e+10  -3.120780e+10   2.114557e+06   5.301586e-20   0.000000e+00   0.000000e+00
     1264000   1.263999e-05   5.738148e+00   5.394520e+00   4.629391e+01   9.015815e+05  -2.857950e+05   1.891249e+06   5.958517e+10  -2.169204e+10  -3.168293e+10   2.114557e+06   5.412204e-20   0.000000e+00   0.000000e+00
     1272000   1.271999e-05   5.810465e+00   5.371585e+00   4.644511e+01   9.063517e+05  -2.875922e+05   1.888695e+06   5.967909e+10  -2.309992e+10  -3.215636e+10   2.114557e+06   5.524749e-20   0.000000e+00   0.000000e+00
     1280000   1.279999e-05   5.883165e+00   5.348503e+00   4.659610e+01   9.111365e+05  -2.894910e+05   1.886101e+06   5.984522e+10  -2.455751e+10  -3.267921e+10   2.114557e+06   5.657469e-20   0.000000e+00   0.000000e+00
     1288000   1.287999e-05   5.956248e+00   5.325264e+00   4.674688e+01   9.159454e+05  -2.914762e+05   1.883464e+06   6.012580e+10  -2.555776e+10  -3.319489e+10   2.114557e+06   5.784312e-20   0.000000e+00   0.000000e+00
     1296000   1.295999e-05   6.029716e+00   5.301863e+00   4.689745e+01   9.207688e+05  -2.935572e+05   1.880787e+06   6.042779e+10  -2.657563e+10  -3.373133e+10   2.114557e+06   5.919348e-20   0.000000e+00   0.000000e+00
     1304000   1.303999e-05   6.103571e+00   5.278292e+00   4.704781e+01   9.256037e+05  -2.957388e+05   1.878070e+06   6.052922e+10  -2.773047e+10  -3.419840e+10   2.114557e+06   6.034290e-20   0.000000e+00   0.000000e+00
     1312000   1.311999e-05   6.177813e+00   5.254542e+00   4.719794e+01   9.304536e+05  -2.980068e+05   1.875313e+06   6.074677e+10  -2.887407e+10  -3.472842e+10   2.114557e+06   6.171781e-20   0.000000e+00   0.000000e+00
     1320000   1.319999e-05   6.252444e+00   5.230607e+00   4.734786e+01   9.353095e+05  -3.003933e+05   1.872514e+06   6.080874e+10  -3.041388e+10  -3.525263e+10   2.114557e+06   6.317739e-20   0.000000e+00   0.000000e+00
     1328000   1.327999e-05   6.327463e+00   5.206476e+00   4.749755e+01   9.401802e+05  -3.028966e+05   1.869670e+06   6.096130e+10  -3.192781e+10  -3.582738e+10   2.114557e+06   6.483414e-20   0.000000e+00   0.000000e+00
     1336000   1.335999e-05   6.402872e+00   5.182141e+00   4.764700e+01   9.450584e+05  -3.054991e+05   1.866785e+06   6.117151e+10  -3.313636e+10  -3.639076e+10   2.114557e+06   6.639582e-20   0.000000e+00   0.000000e+00
     1344000   1.343999e-05   6.478673e+00   5.157594e+00   4.779623e+01   9.499507e+05  -3.081998e+05   1.863855e+06   6.117374e+10  -3.432072e+10  -3.685351e+10   2.114557e+06   6.762442e-20   0.000000e+00   0.000000e+00
     1352000   1.351999e-05   6.554865e+00   5.132826e+00   4.794522e+01   9.548515e+05  -3.110176e+05   1.860881e+06   6.126881e+10  -3.607896e+10  -3.746814e+10   2.114557e+06   6.957503e-20   0.000000e+00   0.000000e+00
     1360000   1.359999e-05   6.631449e+00   5.107828e+00   4.809397e+01   9.597534e+05  -3.139493e+05   1.857864e+06   6.129321e+10  -3.725751e+10  -3.795932e+10   2.114557e+06   7.093726e-20   0.000000e+00   0.000000e+00
     1368000   1.367999e-05   6.708426e+00   5.082592e+00   4.824248e+01   9.646642e+05  -3.169695e+05   1.854806e+06   6.137837e+10  -3.868676e+10  -3.853340e+10   2.114557e+06   7.269186e-20   0.000000e+00   0.000000e+00
     1376000   1.375999e-05   6.785795e+00   5.057109e+00   4.839074e+01   9.695722e+05  -3.201050e+05   1.851705e+06   6.129840e+10  -3.964449e+10  -3.894980e+10   2.114557e+06   7.374187e-20   0.000000e+00   0.000000e+00
     1384000   1.383999e-05   6.863558e+00   5.031372e+00   4.853875e+01   9.744835e+05  -3.233569e+05   1.848560e+06   6.138831e+10  -4.140685e+10  -3.960436e+10   2.114557e+06   7.595302e-20   0.000000e+00   0.000000e+00
     1392000   1.391999e-05   6.941713e+00   5.005369e+00   4.868651e+01   9.793936e+05  -3.267271e+05   1.845369e+06   6.137340e+10  -4.278303e+10  -4.014753e+10   2.114557e+06   7.764786e-20   0.000000e+00   0.000000e+00
     1400000   1.399999e-05   7.020260e+00   4.979092e+00   4.883401e+01   9.842938e+05  -3.302139e+05   1.842139e+06   6.128906e+10  -4.421460e+10  -4.067373e+10   2.114557e+06   7.933593e-20   0.000000e+00   0.000000e+00
     1408000   1.407999e-05   7.099200e+00   4.952532e+00   4.898125e+01   9.891919e+05  -3.338120e+05   1.838864e+06   6.125018e+10  -4.556329e+10  -4.121985e+10   2.114557e+06   8.107056e-20   0.000000e+00   0.000000e+00
     1416000   1.415999e-05   7.178531e+00   4.925680e+00   4.912822e+01   9.940910e+05  -3.375127e+05   1.835543e+06   6.127051e+10  -4.682388e+10  -4.179255e+10   2.114557e+06   8.286389e-20   0.000000e+00   0.000000e+00
     1424000   1.423999e-05   7.258254e+00   4.898527e+00   4.927493e+01   9.989859e+05  -3.413316e+05   1.832176e+06   6.110415e+10  -4.869640e+10  -4.238878e+10   2.114557e+06   8.511172e-20   0.000000e+00   0.000000e+00
     1432000   1.431999e-05   7.338369e+00   4.871063e+00   4.942137e+01   1.003871e+06  -3.452712e+05   1.828765e+06   6.099194e+10  -4.981747e+10  -4.288606e+10   2.114557e+06   8.661060e-20   0.000000e+00   0.000000e+00
     1440000   1.439999e-05   7.418873e+00   4.843281e+00   4.956753e+01   1.008740e+06  -3.493155e+05   1.825314e+06   6.081544e+10  -5.130480e+10  -4.342730e+10   2.114557e+06   8.850214e-20   0.000000e+00   0.000000e+00
     1448000   1.447999e-05   7.499767e+00   4.815170e+00   4.971342e+01   1.013603e+06  -3.534760e+05   1.821816e+06   6.070340e+10  -5.279300e+10  -4.401657e+10   2.114557e+06   9.057915e-20   0.000000e+00   0.000000e+00
     1456000   1.455999e-05   7.581043e+00   4.786727e+00   4.985903e+01   1.017889e+06  -3.572401e+05   1.818690e+06   2.581115e+10  -2.273365e+10  -1.891155e+10   2.114557e+06   1.660866e-20   0.000000e+00   0.000000e+00
