     timestep     time              x             y              z              vx             vy             vz             ax             ay             az         v_magnitude      ELoss        Electronic      Nuclear
           0   0.000000e+00   1.000000e-01   7.167608e+00   2.015619e+01   1.853506e+05  -5.844895e+05   1.396437e+06   0.000000e+00   0.000000e+00   0.000000e+00   1.525130e+06   0.000000e+00   0.000000e+00   0.000000e+00
        8000   7.999000e-08   1.203274e-01   7.117595e+00   2.026554e+01   3.163015e+05  -6.563396e+05   1.339849e+06   1.405210e+12  -5.895000e+11  -6.204842e+11   1.525131e+06   1.516934e-17   0.000000e+00   0.000000e+00
       16000   1.599900e-07   1.497497e-01   7.063634e+00   2.037091e+01   4.154761e+05  -6.887336e+05   1.295782e+06   1.096089e+12  -2.755502e+11  -4.978956e+11   1.525131e+06   8.546439e-18   0.000000e+00   0.000000e+00
       24000   2.399900e-07   1.862740e-01   7.007856e+00   2.047307e+01   4.953166e+05  -7.038574e+05   1.259076e+06   9.058875e+11  -1.348039e+11  -4.317242e+11   1.525131e+06   5.744376e-18   0.000000e+00   0.000000e+00
       32000   3.199900e-07   2.286560e-01   6.951255e+00   2.057249e+01   5.626261e+05  -7.096341e+05   1.227150e+06   7.762414e+11  -2.660745e+10  -3.712730e+11   1.525132e+06   4.152537e-18   0.000000e+00   0.000000e+00
       40000   3.999900e-07   2.760282e-01   6.894462e+00   2.066952e+01   6.203353e+05  -7.095883e+05   1.199039e+06   6.707006e+11   1.714283e+10  -3.368440e+11   1.525132e+06   3.157913e-18   0.000000e+00   0.000000e+00
       48000   4.799900e-07   3.277146e-01   6.837793e+00   2.076440e+01   6.708639e+05  -7.065734e+05   1.173338e+06   5.938945e+11   5.421876e+10  -3.069092e+11   1.525132e+06   2.520526e-18   0.000000e+00   0.000000e+00
       56000   5.599900e-07   3.832087e-01   6.781463e+00   2.085731e+01   7.156610e+05  -7.014377e+05   1.149714e+06   5.291922e+11   6.993740e+10  -2.867338e+11   1.525132e+06   2.057185e-18   0.000000e+00   0.000000e+00
       64000   6.399900e-07   4.420976e-01   6.725591e+00   2.094839e+01   7.558890e+05  -6.951364e+05   1.127584e+06   4.775819e+11   8.509062e+10  -2.676930e+11   1.525132e+06   1.720057e-18   0.000000e+00   0.000000e+00
       72000   7.199900e-07   5.040461e-01   6.670259e+00   2.103776e+01   7.922733e+05  -6.880466e+05   1.106762e+06   4.352629e+11   9.331349e+10  -2.535689e+11   1.525132e+06   1.470571e-18   0.000000e+00   0.000000e+00
       80000   7.999900e-07   5.687773e-01   6.615519e+00   2.112550e+01   8.255009e+05  -6.803748e+05   1.087045e+06   3.974375e+11   9.807119e+10  -2.404294e+11   1.525132e+06   1.262821e-18   0.000000e+00   0.000000e+00
       88000   8.799900e-07   6.360539e-01   6.561404e+00   2.121171e+01   8.559969e+05  -6.724265e+05   1.068242e+06   3.660423e+11   1.018620e+11  -2.291938e+11   1.525132e+06   1.103198e-18   0.000000e+00   0.000000e+00
       96000   9.599900e-07   7.056739e-01   6.507936e+00   2.129644e+01   8.841244e+05  -6.642843e+05   1.050276e+06   3.385796e+11   1.033650e+11  -2.196385e+11   1.525132e+06   9.724738e-19   0.000000e+00   0.000000e+00
      104000   1.039990e-06   7.774606e-01   6.455125e+00   2.137977e+01   9.102128e+05  -6.559893e+05   1.033063e+06   3.137416e+11   1.033485e+11  -2.108047e+11   1.525132e+06   8.603655e-19   0.000000e+00   0.000000e+00
      112000   1.119990e-06   8.512599e-01   6.402979e+00   2.146175e+01   9.345006e+05  -6.476315e+05   1.016519e+06   2.932122e+11   1.047933e+11  -2.027883e+11   1.525132e+06   7.736561e-19   0.000000e+00   0.000000e+00
      120000   1.199990e-06   9.269375e-01   6.351504e+00   2.154243e+01   9.571996e+05  -6.392217e+05   1.000597e+06   2.747696e+11   1.055417e+11  -1.954270e+11   1.525133e+06   6.994207e-19   0.000000e+00   0.000000e+00
      128000   1.279990e-06   1.004373e+00   6.300704e+00   2.162186e+01   9.784753e+05  -6.307836e+05   9.852549e+05   2.580584e+11   1.058229e+11  -1.885312e+11   1.525133e+06   6.350276e-19   0.000000e+00   0.000000e+00
      136000   1.359990e-06   1.083460e+00   6.250580e+00   2.170009e+01   9.984851e+05  -6.223223e+05   9.704492e+05   2.427354e+11   1.058909e+11  -1.818419e+11   1.525133e+06   5.782304e-19   0.000000e+00   0.000000e+00
      144000   1.439990e-06   1.164101e+00   6.201132e+00   2.177715e+01   1.017338e+06  -6.138755e+05   9.561436e+05   2.286246e+11   1.053056e+11  -1.756461e+11   1.525133e+06   5.278605e-19   0.000000e+00   0.000000e+00
      152000   1.519990e-06   1.246206e+00   6.152360e+00   2.185308e+01   1.035145e+06  -6.054233e+05   9.423196e+05   2.164712e+11   1.056414e+11  -1.699217e+11   1.525133e+06   4.868642e-19   0.000000e+00   0.000000e+00
      160000   1.599990e-06   1.329698e+00   6.104264e+00   2.192793e+01   1.051991e+06  -5.969858e+05   9.289526e+05   2.051028e+11   1.055941e+11  -1.644080e+11   1.525133e+06   4.496262e-19   0.000000e+00   0.000000e+00
      168000   1.679990e-06   1.414501e+00   6.056842e+00   2.200173e+01   1.067956e+06  -5.885665e+05   9.160181e+05   1.946112e+11   1.056855e+11  -1.589843e+11   1.525133e+06   4.164095e-19   0.000000e+00   0.000000e+00
      176000   1.759990e-06   1.500550e+00   6.010094e+00   2.207451e+01   1.083122e+06  -5.801238e+05   9.035113e+05   1.850530e+11   1.057147e+11  -1.539623e+11   1.525133e+06   3.873054e-19   0.000000e+00   0.000000e+00
      184000   1.839990e-06   1.587782e+00   5.964023e+00   2.214630e+01   1.097561e+06  -5.716577e+05   8.914020e+05   1.760646e+11   1.057913e+11  -1.489391e+11   1.525133e+06   3.606844e-19   0.000000e+00   0.000000e+00
      192000   1.919990e-06   1.676141e+00   5.918630e+00   2.221714e+01   1.111323e+06  -5.631586e+05   8.796837e+05   1.680533e+11   1.065192e+11  -1.441128e+11   1.525133e+06   3.381790e-19   0.000000e+00   0.000000e+00
      200000   1.999990e-06   1.765577e+00   5.873918e+00   2.228706e+01   1.124454e+06  -5.546351e+05   8.683394e+05   1.602046e+11   1.065024e+11  -1.394295e+11   1.525133e+06   3.162831e-19   0.000000e+00   0.000000e+00
      208000   2.079990e-06   1.856038e+00   5.829889e+00   2.235609e+01   1.136992e+06  -5.460779e+05   8.573674e+05   1.532029e+11   1.072619e+11  -1.348506e+11   1.525133e+06   2.978606e-19   0.000000e+00   0.000000e+00
      216000   2.159990e-06   1.947480e+00   5.786547e+00   2.242425e+01   1.148969e+06  -5.374960e+05   8.467571e+05   1.462806e+11   1.071444e+11  -1.304763e+11   1.525133e+06   2.796008e-19   0.000000e+00   0.000000e+00
      224000   2.239990e-06   2.039859e+00   5.743890e+00   2.249158e+01   1.160417e+06  -5.289042e+05   8.364945e+05   1.400158e+11   1.078782e+11  -1.260247e+11   1.525133e+06   2.640377e-19   0.000000e+00   0.000000e+00
      232000   2.319990e-06   2.133134e+00   5.701924e+00   2.255810e+01   1.171387e+06  -5.202540e+05   8.265696e+05   1.341064e+11   1.082176e+11  -1.219371e+11   1.525133e+06   2.496930e-19   0.000000e+00   0.000000e+00
      240000   2.399990e-06   2.227269e+00   5.660651e+00   2.262384e+01   1.181903e+06  -5.115415e+05   8.169821e+05   1.288482e+11   1.096646e+11  -1.177353e+11   1.525133e+06   2.380697e-19   0.000000e+00   0.000000e+00
      248000   2.479990e-06   2.322228e+00   5.620080e+00   2.268882e+01   1.192005e+06  -5.027208e+05   8.077287e+05   1.235657e+11   1.102949e+11  -1.137052e+11   1.525133e+06   2.261499e-19   0.000000e+00   0.000000e+00
      256000   2.559990e-06   2.417978e+00   5.580216e+00   2.275308e+01   1.201681e+06  -4.938874e+05   7.987918e+05   1.184463e+11   1.106260e+11  -1.097877e+11   1.525133e+06   2.147120e-19   0.000000e+00   0.000000e+00
      264000   2.639990e-06   2.514487e+00   5.541060e+00   2.281664e+01   1.210964e+06  -4.850056e+05   7.901690e+05   1.137064e+11   1.114465e+11  -1.058530e+11   1.525133e+06   2.048133e-19   0.000000e+00   0.000000e+00
      272000   2.719990e-06   2.611723e+00   5.502617e+00   2.287952e+01   1.219880e+06  -4.760453e+05   7.818588e+05   1.094268e+11   1.128581e+11  -1.020154e+11   1.525133e+06   1.967674e-19   0.000000e+00   0.000000e+00
      280000   2.799990e-06   2.709658e+00   5.464895e+00   2.294174e+01   1.228455e+06  -4.669916e+05   7.738519e+05   1.050697e+11   1.135241e+11  -9.828534e+10   1.525133e+06   1.881896e-19   0.000000e+00   0.000000e+00
      288000   2.879990e-06   2.808266e+00   5.427899e+00   2.300334e+01   1.236684e+06  -4.578971e+05   7.661409e+05   1.010957e+11   1.149043e+11  -9.451108e+10   1.525133e+06   1.812882e-19   0.000000e+00   0.000000e+00
      296000   2.959990e-06   2.907520e+00   5.391636e+00   2.306433e+01   1.244616e+06  -4.486551e+05   7.587292e+05   9.722750e+10   1.161337e+11  -9.081845e+10   1.525133e+06   1.747468e-19   0.000000e+00   0.000000e+00
      304000   3.039990e-06   3.007397e+00   5.356117e+00   2.312474e+01   1.252247e+06  -4.393042e+05   7.516118e+05   9.363678e+10   1.177586e+11  -8.717825e+10   1.525133e+06   1.694056e-19   0.000000e+00   0.000000e+00
      312000   3.119990e-06   3.107873e+00   5.321352e+00   2.318460e+01   1.259608e+06  -4.297896e+05   7.447819e+05   8.982519e+10   1.183970e+11  -8.359277e+10   1.525133e+06   1.629022e-19   0.000000e+00   0.000000e+00
      320000   3.199990e-06   3.208925e+00   5.287348e+00   2.324392e+01   1.266642e+06  -4.203057e+05   7.382360e+05   8.590791e+10   1.182075e+11  -8.009765e+10   1.525133e+06   1.555882e-19   0.000000e+00   0.000000e+00
      328000   3.279990e-06   3.310527e+00   5.254102e+00   2.330272e+01   1.273374e+06  -4.108181e+05   7.319677e+05   8.269894e+10   1.197201e+11  -7.667451e+10   1.525133e+06   1.515663e-19   0.000000e+00   0.000000e+00
      336000   3.359990e-06   3.412658e+00   5.221620e+00   2.336104e+01   1.279850e+06  -4.012324e+05   7.259658e+05   7.951710e+10   1.210134e+11  -7.330268e+10   1.525133e+06   1.475850e-19   0.000000e+00   0.000000e+00
      344000   3.439990e-06   3.515297e+00   5.189910e+00   2.341889e+01   1.286086e+06  -3.915007e+05   7.202356e+05   7.660072e+10   1.228970e+11  -6.997797e+10   1.525133e+06   1.449392e-19   0.000000e+00   0.000000e+00
      352000   3.519990e-06   3.618425e+00   5.158984e+00   2.347628e+01   1.292088e+06  -3.816279e+05   7.147722e+05   7.354519e+10   1.240707e+11  -6.670343e+10   1.525133e+06   1.414849e-19   0.000000e+00   0.000000e+00
      360000   3.599990e-06   3.722025e+00   5.128854e+00   2.353326e+01   1.297864e+06  -3.716046e+05   7.095704e+05   7.072135e+10   1.259676e+11  -6.338524e+10   1.525133e+06   1.394414e-19   0.000000e+00   0.000000e+00
      368000   3.679990e-06   3.826077e+00   5.099529e+00   2.358982e+01   1.303400e+06  -3.614897e+05   7.046305e+05   6.762480e+10   1.266312e+11  -6.012517e+10   1.525133e+06   1.357244e-19   0.000000e+00   0.000000e+00
      376000   3.759990e-06   3.930563e+00   5.071017e+00   2.364600e+01   1.308698e+06  -3.513064e+05   6.999454e+05   6.464003e+10   1.272203e+11  -5.700549e+10   1.525133e+06   1.323027e-19   0.000000e+00   0.000000e+00
      384000   3.839990e-06   4.035462e+00   5.043321e+00   2.370182e+01   1.313758e+06  -3.410899e+05   6.955061e+05   6.192412e+10   1.283295e+11  -5.403428e+10   1.525133e+06   1.301162e-19   0.000000e+00   0.000000e+00
      392000   3.919990e-06   4.140758e+00   5.016446e+00   2.375729e+01   1.318610e+06  -3.307493e+05   6.913058e+05   5.941658e+10   1.303562e+11  -5.096417e+10   1.525133e+06   1.295427e-19   0.000000e+00   0.000000e+00
      400000   3.999990e-06   4.246435e+00   4.990406e+00   2.381244e+01   1.323262e+06  -3.202462e+05   6.873513e+05   5.690345e+10   1.320361e+11  -4.803057e+10   1.525133e+06   1.287475e-19   0.000000e+00   0.000000e+00
      408000   4.079990e-06   4.352475e+00   4.965209e+00   2.386727e+01   1.327705e+06  -3.096548e+05   6.836250e+05   5.420029e+10   1.327568e+11  -4.513147e+10   1.525133e+06   1.266208e-19   0.000000e+00   0.000000e+00
      416000   4.159990e-06   4.458862e+00   4.940863e+00   2.392182e+01   1.331940e+06  -2.989763e+05   6.801321e+05   5.162141e+10   1.339428e+11  -4.221340e+10   1.525133e+06   1.254359e-19   0.000000e+00   0.000000e+00
      424000   4.239990e-06   4.565579e+00   4.917374e+00   2.397610e+01   1.335962e+06  -2.882474e+05   6.768669e+05   4.895878e+10   1.342837e+11  -3.944635e+10   1.525133e+06   1.231818e-19   0.000000e+00   0.000000e+00
      432000   4.319990e-06   4.672611e+00   4.894747e+00   2.403013e+01   1.339796e+06  -2.773924e+05   6.738177e+05   4.699781e+10   1.376038e+11  -3.680075e+10   1.525133e+06   1.260545e-19   0.000000e+00   0.000000e+00
      440000   4.399990e-06   4.779942e+00   4.872994e+00   2.408392e+01   1.343435e+06  -2.664452e+05   6.709852e+05   4.408397e+10   1.365813e+11  -3.402798e+10   1.525133e+06   1.218968e-19   0.000000e+00   0.000000e+00
      448000   4.479990e-06   4.887555e+00   4.852119e+00   2.413749e+01   1.346883e+06  -2.554026e+05   6.683613e+05   4.192554e+10   1.387157e+11  -3.148031e+10   1.525133e+06   1.232137e-19   0.000000e+00   0.000000e+00
      456000   4.559990e-06   4.995437e+00   4.832130e+00   2.419086e+01   1.350135e+06  -2.443125e+05   6.659405e+05   3.944177e+10   1.389207e+11  -2.899878e+10   1.525133e+06   1.215592e-19   0.000000e+00   0.000000e+00
      464000   4.639990e-06   5.103573e+00   4.813036e+00   2.424405e+01   1.353218e+06  -2.330230e+05   6.637268e+05   3.739848e+10   1.419004e+11  -2.642956e+10   1.525133e+06   1.245702e-19   0.000000e+00   0.000000e+00
      472000   4.719990e-06   5.211947e+00   4.794848e+00   2.429706e+01   1.356110e+06  -2.216711e+05   6.617090e+05   3.500527e+10   1.423288e+11  -2.405981e+10   1.525133e+06   1.236109e-19   0.000000e+00   0.000000e+00
      480000   4.799990e-06   5.320545e+00   4.777571e+00   2.434992e+01   1.358815e+06  -2.102486e+05   6.598849e+05   3.257188e+10   1.425829e+11  -2.164181e+10   1.525133e+06   1.224759e-19   0.000000e+00   0.000000e+00
      488000   4.879990e-06   5.429352e+00   4.761208e+00   2.440265e+01   1.361334e+06  -1.987739e+05   6.582466e+05   3.052741e+10   1.448283e+11  -1.939958e+10   1.525133e+06   1.248535e-19   0.000000e+00   0.000000e+00
      496000   4.959990e-06   5.538354e+00   4.745771e+00   2.445525e+01   1.363681e+06  -1.871772e+05   6.567881e+05   2.803370e+10   1.444448e+11  -1.704055e+10   1.525133e+06   1.229324e-19   0.000000e+00   0.000000e+00
      504000   5.039990e-06   5.647536e+00   4.731259e+00   2.450774e+01   1.365837e+06  -1.755598e+05   6.555142e+05   2.595046e+10   1.463370e+11  -1.487836e+10   1.525133e+06   1.249983e-19   0.000000e+00   0.000000e+00
      512000   5.119990e-06   5.756884e+00   4.717683e+00   2.456014e+01   1.367823e+06  -1.638201e+05   6.544119e+05   2.372893e+10   1.474249e+11  -1.269168e+10   1.525133e+06   1.258324e-19   0.000000e+00   0.000000e+00
      520000   5.199990e-06   5.866383e+00   4.705052e+00   2.461245e+01   1.369638e+06  -1.519313e+05   6.534834e+05   2.155940e+10   1.488994e+11  -1.056777e+10   1.525133e+06   1.274536e-19   0.000000e+00   0.000000e+00
      528000   5.279990e-06   5.976021e+00   4.693373e+00   2.466470e+01   1.371269e+06  -1.400298e+05   6.527203e+05   1.923860e+10   1.487235e+11  -8.511048e+09   1.525133e+06   1.264098e-19   0.000000e+00   0.000000e+00
      536000   5.359990e-06   6.085782e+00   4.682650e+00   2.471689e+01   1.372729e+06  -1.280377e+05   6.521145e+05   1.718154e+10   1.505605e+11  -6.606126e+09   1.525133e+06   1.289088e-19   0.000000e+00   0.000000e+00
      544000   5.439990e-06   6.195652e+00   4.672887e+00   2.476904e+01   1.374006e+06  -1.160598e+05   6.516667e+05   1.477461e+10   1.490434e+11  -4.607004e+09   1.525133e+06   1.258060e-19   0.000000e+00   0.000000e+00
      552000   5.519990e-06   6.305618e+00   4.664089e+00   2.482116e+01   1.375118e+06  -1.038902e+05   6.513746e+05   1.280123e+10   1.524668e+11  -2.706832e+09   1.525133e+06   1.312059e-19   0.000000e+00   0.000000e+00
      560000   5.599990e-06   6.415667e+00   4.656267e+00   2.487326e+01   1.376058e+06  -9.162920e+04   6.512295e+05   1.074212e+10   1.543915e+11  -9.747231e+08   1.525133e+06   1.342075e-19   0.000000e+00   0.000000e+00
      568000   5.679990e-06   6.525783e+00   4.649432e+00   2.492536e+01   1.376827e+06  -7.926834e+04   6.512252e+05   8.407441e+09   1.533311e+11   8.890066e+08   1.525133e+06   1.321286e-19   0.000000e+00   0.000000e+00
      576000   5.759990e-06   6.635954e+00   4.643580e+00   2.497746e+01   1.377411e+06  -6.700112e+04   6.513677e+05   6.263096e+09   1.545232e+11   2.650744e+09   1.525133e+06   1.340428e-19   0.000000e+00   0.000000e+00
      584000   5.839990e-06   6.746165e+00   4.638716e+00   2.502958e+01   1.377827e+06  -5.460784e+04   6.516451e+05   4.138926e+09   1.555485e+11   4.284061e+09   1.525133e+06   1.357639e-19   0.000000e+00   0.000000e+00
      592000   5.919990e-06   6.856402e+00   4.634846e+00   2.508173e+01   1.378070e+06  -4.213986e+04   6.520572e+05   1.910687e+09   1.556986e+11   6.024470e+09   1.525133e+06   1.360510e-19   0.000000e+00   0.000000e+00
      600000   5.999990e-06   6.966651e+00   4.631974e+00   2.513392e+01   1.378137e+06  -2.962048e+04   6.526031e+05  -2.461108e+08   1.575738e+11   7.672097e+09   1.525133e+06   1.394483e-19   0.000000e+00   0.000000e+00
      608000   6.079990e-06   7.076899e+00   4.630110e+00   2.518615e+01   1.378033e+06  -1.699421e+04   6.532741e+05  -2.356608e+09   1.580514e+11   9.083006e+09   1.525133e+06   1.404564e-19   0.000000e+00   0.000000e+00
      616000   6.159990e-06   7.187132e+00   4.629256e+00   2.523844e+01   1.377757e+06  -4.354579e+03   6.540620e+05  -4.541997e+09   1.579367e+11   1.061943e+10   1.525133e+06   1.405076e-19   0.000000e+00   0.000000e+00
      624000   6.239990e-06   7.297336e+00   4.629410e+00   2.529080e+01   1.377308e+06   8.193338e+03   6.549697e+05  -6.682860e+09   1.562371e+11   1.209904e+10   1.525133e+06   1.378389e-19   0.000000e+00   0.000000e+00
      632000   6.319990e-06   7.407497e+00   4.630572e+00   2.534324e+01   1.376688e+06   2.089915e+04   6.559906e+05  -8.833042e+09   1.596984e+11   1.344995e+10   1.525133e+06   1.443459e-19   0.000000e+00   0.000000e+00
      640000   6.399990e-06   7.517601e+00   4.632756e+00   2.539576e+01   1.375894e+06   3.370345e+04   6.571229e+05  -1.106010e+10   1.604791e+11   1.492733e+10   1.525133e+06   1.462295e-19   0.000000e+00   0.000000e+00
      648000   6.479990e-06   7.627635e+00   4.635965e+00   2.544838e+01   1.374927e+06   4.651314e+04   6.583634e+05  -1.314451e+10   1.601894e+11   1.613409e+10   1.525133e+06   1.462018e-19   0.000000e+00   0.000000e+00
      656000   6.559990e-06   7.737585e+00   4.640199e+00   2.550111e+01   1.373789e+06   5.934766e+04   6.597067e+05  -1.531108e+10   1.603654e+11   1.745798e+10   1.525133e+06   1.471128e-19   0.000000e+00   0.000000e+00
      664000   6.639990e-06   7.847437e+00   4.645460e+00   2.555394e+01   1.372479e+06   7.218131e+04   6.611516e+05  -1.745032e+10   1.606626e+11   1.868503e+10   1.525133e+06   1.482883e-19   0.000000e+00   0.000000e+00
      672000   6.719990e-06   7.957177e+00   4.651749e+00   2.560689e+01   1.370997e+06   8.505932e+04   6.626949e+05  -1.961929e+10   1.610857e+11   1.991323e+10   1.525133e+06   1.497672e-19   0.000000e+00   0.000000e+00
      680000   6.799990e-06   8.066792e+00   4.659070e+00   2.565997e+01   1.369343e+06   9.795503e+04   6.643306e+05  -2.169622e+10   1.612296e+11   2.094830e+10   1.525133e+06   1.507449e-19   0.000000e+00   0.000000e+00
      688000   6.879990e-06   8.176267e+00   4.667423e+00   2.571319e+01   1.367519e+06   1.108716e+05   6.660556e+05  -2.377742e+10   1.605992e+11   2.208593e+10   1.525133e+06   1.504128e-19   0.000000e+00   0.000000e+00
      696000   6.959990e-06   8.285590e+00   4.676806e+00   2.576654e+01   1.365537e+06   1.236795e+05   6.678648e+05  -2.575786e+10   1.594120e+11   2.314476e+10   1.525133e+06   1.491023e-19   0.000000e+00   0.000000e+00
      704000   7.039990e-06   8.394748e+00   4.687215e+00   2.582005e+01   1.363381e+06   1.365454e+05   6.697604e+05  -2.784049e+10   1.596782e+11   2.411928e+10   1.525133e+06   1.504618e-19   0.000000e+00   0.000000e+00
      712000   7.119990e-06   8.503727e+00   4.698648e+00   2.587371e+01   1.361073e+06   1.492655e+05   6.717368e+05  -2.998256e+10   1.601537e+11   2.516359e+10   1.525133e+06   1.522958e-19   0.000000e+00   0.000000e+00
      720000   7.199990e-06   8.612515e+00   4.711102e+00   2.592753e+01   1.358593e+06   1.620865e+05   6.737844e+05  -3.207739e+10   1.605494e+11   2.605805e+10   1.525133e+06   1.539922e-19   0.000000e+00   0.000000e+00
      728000   7.279990e-06   8.721098e+00   4.724582e+00   2.598152e+01   1.355945e+06   1.749111e+05   6.759079e+05  -3.412078e+10   1.604976e+11   2.691692e+10   1.525133e+06   1.549120e-19   0.000000e+00   0.000000e+00
      736000   7.359990e-06   8.829462e+00   4.739087e+00   2.603568e+01   1.353140e+06   1.877035e+05   6.780938e+05  -3.599113e+10   1.592705e+11   2.773315e+10   1.525133e+06   1.536981e-19   0.000000e+00   0.000000e+00
      744000   7.439990e-06   8.937596e+00   4.754612e+00   2.609001e+01   1.350185e+06   2.004156e+05   6.803417e+05  -3.794195e+10   1.589824e+11   2.846567e+10   1.525133e+06   1.542229e-19   0.000000e+00   0.000000e+00
      752000   7.519990e-06   9.045488e+00   4.771154e+00   2.614453e+01   1.347075e+06   2.131057e+05   6.826471e+05  -3.981293e+10   1.580203e+11   2.923362e+10   1.525133e+06   1.535776e-19   0.000000e+00   0.000000e+00
      760000   7.599990e-06   9.153124e+00   4.788708e+00   2.619924e+01   1.343809e+06   2.257555e+05   6.850128e+05  -4.182619e+10   1.583243e+11   2.987408e+10   1.525133e+06   1.552493e-19   0.000000e+00   0.000000e+00
      768000   7.679990e-06   9.260492e+00   4.807277e+00   2.625413e+01   1.340378e+06   2.384679e+05   6.874237e+05  -4.368370e+10   1.579985e+11   3.036753e+10   1.525133e+06   1.557289e-19   0.000000e+00   0.000000e+00
      776000   7.759990e-06   9.367581e+00   4.826859e+00   2.630923e+01   1.336817e+06   2.510419e+05   6.898763e+05  -4.536664e+10   1.566642e+11   3.090104e+10   1.525133e+06   1.543990e-19   0.000000e+00   0.000000e+00
      784000   7.839990e-06   9.474379e+00   4.847442e+00   2.636452e+01   1.333118e+06   2.635420e+05   6.923683e+05  -4.712358e+10   1.558656e+11   3.140585e+10   1.525133e+06   1.540873e-19   0.000000e+00   0.000000e+00
      792000   7.919990e-06   9.580877e+00   4.869022e+00   2.642001e+01   1.329288e+06   2.759395e+05   6.948967e+05  -4.861752e+10   1.541302e+11   3.179806e+10   1.525133e+06   1.520136e-19   0.000000e+00   0.000000e+00
      800000   7.999990e-06   9.687062e+00   4.891592e+00   2.647570e+01   1.325318e+06   2.882952e+05   6.974588e+05  -5.060949e+10   1.546290e+11   3.225303e+10   1.525133e+06   1.541468e-19   0.000000e+00   0.000000e+00
      808000   8.079990e-06   9.792924e+00   4.915146e+00   2.653160e+01   1.321225e+06   3.005556e+05   7.000451e+05  -5.197788e+10   1.529606e+11   3.242872e+10   1.525133e+06   1.521217e-19   0.000000e+00   0.000000e+00
      816000   8.159990e-06   9.898455e+00   4.939677e+00   2.658771e+01   1.317023e+06   3.126881e+05   7.026442e+05  -5.318501e+10   1.508470e+11   3.255999e+10   1.525133e+06   1.492832e-19   0.000000e+00   0.000000e+00
      824000   8.239990e-06   1.000364e+01   4.965175e+00   2.664402e+01   1.312692e+06   3.247741e+05   7.052617e+05  -5.462314e+10   1.495164e+11   3.281695e+10   1.525133e+06   1.480072e-19   0.000000e+00   0.000000e+00
      832000   8.319990e-06   1.010848e+01   4.991632e+00   2.670055e+01   1.308284e+06   3.366150e+05   7.078948e+05  -5.584429e+10   1.478924e+11   3.288291e+10   1.525133e+06   1.460807e-19   0.000000e+00   0.000000e+00
      840000   8.399990e-06   1.021297e+01   5.019034e+00   2.675729e+01   1.303756e+06   3.484303e+05   7.105271e+05  -5.738453e+10   1.475399e+11   3.294498e+10   1.525133e+06   1.464971e-19   0.000000e+00   0.000000e+00
      848000   8.479990e-06   1.031708e+01   5.047379e+00   2.681423e+01   1.299116e+06   3.601809e+05   7.131620e+05  -5.846195e+10   1.458301e+11   3.284510e+10   1.525133e+06   1.443493e-19   0.000000e+00   0.000000e+00
      856000   8.559990e-06   1.042082e+01   5.076658e+00   2.687139e+01   1.294392e+06   3.717838e+05   7.157914e+05  -5.963963e+10   1.444053e+11   3.284445e+10   1.525133e+06   1.428113e-19   0.000000e+00   0.000000e+00
      864000   8.639990e-06   1.052418e+01   5.106862e+00   2.692876e+01   1.289581e+06   3.832733e+05   7.184101e+05  -6.065034e+10   1.430130e+11   3.257293e+10   1.525133e+06   1.411512e-19   0.000000e+00   0.000000e+00
      872000   8.719990e-06   1.062715e+01   5.137978e+00   2.698634e+01   1.284705e+06   3.946062e+05   7.210062e+05  -6.115148e+10   1.399260e+11   3.238006e+10   1.525133e+06   1.365293e-19   0.000000e+00   0.000000e+00
      880000   8.799990e-06   1.072973e+01   5.169992e+00   2.704412e+01   1.279784e+06   4.057287e+05   7.235806e+05  -6.218483e+10   1.390126e+11   3.203788e+10   1.525133e+06   1.356919e-19   0.000000e+00   0.000000e+00
      888000   8.879990e-06   1.083192e+01   5.202894e+00   2.710211e+01   1.274777e+06   4.167815e+05   7.261327e+05  -6.263506e+10   1.364227e+11   3.165742e+10   1.525133e+06   1.318743e-19   0.000000e+00   0.000000e+00
      896000   8.959990e-06   1.093370e+01   5.236671e+00   2.716030e+01   1.269736e+06   4.276362e+05   7.286487e+05  -6.334205e+10   1.349823e+11   3.115985e+10   1.525133e+06   1.300078e-19   0.000000e+00   0.000000e+00
      904000   9.039990e-06   1.103507e+01   5.271313e+00   2.721869e+01   1.264650e+06   4.383572e+05   7.311188e+05  -6.353719e+10   1.322343e+11   3.061976e+10   1.525133e+06   1.258457e-19   0.000000e+00   0.000000e+00
      912000   9.119990e-06   1.113604e+01   5.306801e+00   2.727728e+01   1.259562e+06   4.488255e+05   7.335470e+05  -6.387678e+10   1.300622e+11   3.010272e+10   1.525133e+06   1.227196e-19   0.000000e+00   0.000000e+00
      920000   9.199990e-06   1.123660e+01   5.343120e+00   2.733606e+01   1.254451e+06   4.591198e+05   7.359302e+05  -6.386185e+10   1.273294e+11   2.942173e+10   1.525133e+06   1.185408e-19   0.000000e+00   0.000000e+00
      928000   9.279990e-06   1.133675e+01   5.380255e+00   2.739503e+01   1.249345e+06   4.691934e+05   7.382583e+05  -6.362470e+10   1.241597e+11   2.876296e+10   1.525133e+06   1.136906e-19   0.000000e+00   0.000000e+00
      936000   9.359990e-06   1.143650e+01   5.418183e+00   2.745418e+01   1.244279e+06   4.789952e+05   7.405164e+05  -6.333206e+10   1.214078e+11   2.788484e+10   1.525133e+06   1.094172e-19   0.000000e+00   0.000000e+00
      944000   9.439990e-06   1.153584e+01   5.456889e+00   2.751351e+01   1.239216e+06   4.886200e+05   7.427150e+05  -6.323555e+10   1.193266e+11   2.700546e+10   1.525133e+06   1.062710e-19   0.000000e+00   0.000000e+00
      952000   9.519990e-06   1.163477e+01   5.496358e+00   2.757301e+01   1.234162e+06   4.980859e+05   7.448395e+05  -6.321179e+10   1.174296e+11   2.621203e+10   1.525133e+06   1.035011e-19   0.000000e+00   0.000000e+00
      960000   9.599990e-06   1.173331e+01   5.536577e+00   2.763268e+01   1.229138e+06   5.073564e+05   7.468877e+05  -6.247056e+10   1.145118e+11   2.501956e+10   1.525133e+06   9.884536e-20   0.000000e+00   0.000000e+00
      968000   9.679990e-06   1.183144e+01   5.577528e+00   2.769251e+01   1.224174e+06   5.163896e+05   7.488477e+05  -6.184777e+10   1.116722e+11   2.409860e+10   1.525133e+06   9.455932e-20   0.000000e+00   0.000000e+00
      976000   9.759990e-06   1.192918e+01   5.619194e+00   2.775249e+01   1.219265e+06   5.252036e+05   7.507236e+05  -6.087121e+10   1.086806e+11   2.282982e+10   1.525133e+06   8.986054e-20   0.000000e+00   0.000000e+00
      984000   9.839990e-06   1.202652e+01   5.661555e+00   2.781262e+01   1.214435e+06   5.337796e+05   7.525014e+05  -5.954776e+10   1.049880e+11   2.163002e+10   1.525133e+06   8.424834e-20   0.000000e+00   0.000000e+00
      992000   9.919990e-06   1.212349e+01   5.704589e+00   2.787289e+01   1.209727e+06   5.420337e+05   7.541828e+05  -5.831007e+10   1.018681e+11   2.031795e+10   1.525133e+06   7.950656e-20   0.000000e+00   0.000000e+00
     1000000   9.999990e-06   1.222008e+01   5.748275e+00   2.793329e+01   1.205114e+06   5.500601e+05   7.557552e+05  -5.705427e+10   9.879491e+10   1.907217e+10   1.525133e+06   7.496460e-20   0.000000e+00   0.000000e+00
     1008000   1.007999e-05   1.231631e+01   5.792593e+00   2.799381e+01   1.200602e+06   5.578472e+05   7.572276e+05  -5.563306e+10   9.586711e+10   1.758267e+10   1.525133e+06   7.056802e-20   0.000000e+00   0.000000e+00
     1016000   1.015999e-05   1.241218e+01   5.837523e+00   2.805444e+01   1.196227e+06   5.653698e+05   7.585709e+05  -5.391449e+10   9.249460e+10   1.608345e+10   1.525133e+06   6.567114e-20   0.000000e+00   0.000000e+00
     1024000   1.023999e-05   1.250771e+01   5.883045e+00   2.811518e+01   1.191979e+06   5.726471e+05   7.597990e+05  -5.225156e+10   8.948971e+10   1.452597e+10   1.525133e+06   6.135093e-20   0.000000e+00   0.000000e+00
     1032000   1.031999e-05   1.260290e+01   5.929140e+00   2.817601e+01   1.187880e+06   5.796644e+05   7.608962e+05  -5.019786e+10   8.590986e+10   1.291928e+10   1.525133e+06   5.640697e-20   0.000000e+00   0.000000e+00
     1040000   1.039999e-05   1.269777e+01   5.975784e+00   2.823692e+01   1.183956e+06   5.863835e+05   7.618621e+05  -4.787870e+10   8.209482e+10   1.121901e+10   1.525133e+06   5.131137e-20   0.000000e+00   0.000000e+00
     1048000   1.047999e-05   1.279234e+01   6.022954e+00   2.829790e+01   1.180213e+06   5.928151e+05   7.626920e+05  -4.548514e+10   7.839259e+10   9.453276e+09   1.525133e+06   4.652571e-20   0.000000e+00   0.000000e+00
     1056000   1.055999e-05   1.288661e+01   6.070626e+00   2.835894e+01   1.176675e+06   5.989366e+05   7.633759e+05  -4.291443e+10   7.458887e+10   7.627181e+09   1.525133e+06   4.181727e-20   0.000000e+00   0.000000e+00
     1064000   1.063999e-05   1.298061e+01   6.118776e+00   2.842004e+01   1.173342e+06   6.047617e+05   7.639137e+05  -4.021993e+10   7.076866e+10   5.751467e+09   1.525133e+06   3.731026e-20   0.000000e+00   0.000000e+00
     1072000   1.071999e-05   1.307435e+01   6.167379e+00   2.848117e+01   1.170236e+06   6.102778e+05   7.642910e+05  -3.743605e+10   6.715869e+10   3.694425e+09   1.525133e+06   3.320025e-20   0.000000e+00   0.000000e+00
     1080000   1.079999e-05   1.316786e+01   6.216413e+00   2.854232e+01   1.167354e+06   6.155014e+05   7.645095e+05  -3.458840e+10   6.343787e+10   1.740791e+09   1.525133e+06   2.926894e-20   0.000000e+00   0.000000e+00
     1088000   1.087999e-05   1.326114e+01   6.265852e+00   2.860348e+01   1.164708e+06   6.204231e+05   7.645675e+05  -3.152292e+10   5.949255e+10  -2.557308e+08   1.525133e+06   2.539938e-20   0.000000e+00   0.000000e+00
     1096000   1.095999e-05   1.335422e+01   6.315672e+00   2.866465e+01   1.162315e+06   6.250298e+05   7.644558e+05  -2.822210e+10   5.557981e+10  -2.532539e+09   1.525133e+06   2.180724e-20   0.000000e+00   0.000000e+00
     1104000   1.103999e-05   1.344711e+01   6.365848e+00   2.872579e+01   1.160195e+06   6.293155e+05   7.641605e+05  -2.465820e+10   5.141602e+10  -4.905440e+09   1.525133e+06   1.835403e-20   0.000000e+00   0.000000e+00
     1112000   1.111999e-05   1.353986e+01   6.416353e+00   2.878691e+01   1.158363e+06   6.332675e+05   7.636750e+05  -2.114030e+10   4.747059e+10  -7.298159e+09   1.525133e+06   1.542889e-20   0.000000e+00   0.000000e+00
     1120000   1.119999e-05   1.363246e+01   6.467162e+00   2.884797e+01   1.156817e+06   6.368990e+05   7.629983e+05  -1.742741e+10   4.325482e+10  -9.683641e+09   1.525133e+06   1.271045e-20   0.000000e+00   0.000000e+00
     1128000   1.127999e-05   1.372495e+01   6.518248e+00   2.890898e+01   1.155577e+06   6.401920e+05   7.621209e+05  -1.359170e+10   3.918299e+10  -1.230561e+10   1.525133e+06   1.048604e-20   0.000000e+00   0.000000e+00
     1136000   1.135999e-05   1.381736e+01   6.569584e+00   2.896991e+01   1.154653e+06   6.431513e+05   7.610292e+05  -9.486234e+09   3.485612e+10  -1.506438e+10   1.525133e+06   8.583230e-21   0.000000e+00   0.000000e+00
     1144000   1.143999e-05   1.390971e+01   6.621143e+00   2.903074e+01   1.154055e+06   6.457739e+05   7.597141e+05  -5.490194e+09   3.078950e+10  -1.783178e+10   1.525133e+06   7.262196e-21   0.000000e+00   0.000000e+00
     1152000   1.151999e-05   1.400202e+01   6.672899e+00   2.909146e+01   1.153787e+06   6.480581e+05   7.581735e+05  -1.146941e+09   2.627998e+10  -2.071770e+10   1.525133e+06   6.281988e-21   0.000000e+00   0.000000e+00
     1160000   1.159999e-05   1.409432e+01   6.724823e+00   2.915204e+01   1.153874e+06   6.499805e+05   7.563947e+05   3.368190e+09   2.162542e+10  -2.372115e+10   1.525133e+06   5.836607e-21   0.000000e+00   0.000000e+00
     1168000   1.167999e-05   1.418665e+01   6.776886e+00   2.921247e+01   1.154313e+06   6.515520e+05   7.543696e+05   7.828546e+09   1.721933e+10  -2.685139e+10   1.525133e+06   6.044360e-21   0.000000e+00   0.000000e+00
     1176000   1.175999e-05   1.427902e+01   6.829061e+00   2.927273e+01   1.155132e+06   6.527393e+05   7.520854e+05   1.275383e+10   1.224691e+10  -3.021783e+10   1.525133e+06   6.867769e-21   0.000000e+00   0.000000e+00
     1184000   1.183999e-05   1.437148e+01   6.881315e+00   2.933280e+01   1.156332e+06   6.535562e+05   7.495281e+05   1.725412e+10   8.091864e+09  -3.367447e+10   1.525133e+06   8.388266e-21   0.000000e+00   0.000000e+00
     1192000   1.191999e-05   1.446405e+01   6.933620e+00   2.939265e+01   1.157919e+06   6.539956e+05   7.466894e+05   2.239318e+10   2.889443e+09  -3.725666e+10   1.525133e+06   1.063333e-20   0.000000e+00   0.000000e+00
     1200000   1.199999e-05   1.455676e+01   6.985944e+00   2.945226e+01   1.159908e+06   6.540430e+05   7.435550e+05   2.727672e+10  -1.676513e+09  -4.107557e+10   1.525133e+06   1.363737e-20   0.000000e+00   0.000000e+00
     1208000   1.207999e-05   1.464964e+01   7.038256e+00   2.951161e+01   1.162298e+06   6.537019e+05   7.401145e+05   3.249187e+10  -6.828856e+09  -4.499461e+10   1.525133e+06   1.751920e-20   0.000000e+00   0.000000e+00
     1216000   1.215999e-05   1.474274e+01   7.090525e+00   2.957067e+01   1.165105e+06   6.529535e+05   7.363523e+05   3.769701e+10  -1.190630e+10  -4.908882e+10   1.525133e+06   2.225733e-20   0.000000e+00   0.000000e+00
     1224000   1.223999e-05   1.483607e+01   7.142718e+00   2.962942e+01   1.168329e+06   6.518031e+05   7.322516e+05   4.296240e+10  -1.697961e+10  -5.343355e+10   1.525133e+06   2.795364e-20   0.000000e+00   0.000000e+00
     1232000   1.231999e-05   1.492968e+01   7.194803e+00   2.968782e+01   1.171975e+06   6.502399e+05   7.278014e+05   4.821865e+10  -2.215300e+10  -5.785400e+10   1.525133e+06   3.452948e-20   0.000000e+00   0.000000e+00
     1240000   1.239999e-05   1.502360e+01   7.246745e+00   2.974586e+01   1.176059e+06   6.482410e+05   7.229799e+05   5.384299e+10  -2.779068e+10  -6.266761e+10   1.525133e+06   4.257370e-20   0.000000e+00   0.000000e+00
     1248000   1.247999e-05   1.511786e+01   7.298509e+00   2.980349e+01   1.180581e+06   6.458017e+05   7.177743e+05   5.811831e+10  -3.243041e+10  -6.641320e+10   1.525133e+06   4.953410e-20   0.000000e+00   0.000000e+00
     1256000   1.255999e-05   1.521248e+01   7.350080e+00   2.986072e+01   1.184572e+06   6.435937e+05   7.131677e+05   4.123212e+10  -2.260639e+10  -4.808553e+10   1.525133e+06   2.534665e-20   0.000000e+00   0.000000e+00
     1264000   1.263999e-05   1.530735e+01   7.401506e+00   2.991764e+01   1.187089e+06   6.422487e+05   7.101882e+05   1.789079e+10  -7.994143e+09  -2.267530e+10   1.525133e+06   5.034025e-21   0.000000e+00   0.000000e+00
     1272000   1.271999e-05   1.540235e+01   7.452882e+00   2.997441e+01   1.187475e+06   6.423984e+05   7.094084e+05  -9.374049e+09   1.220356e+10   4.640350e+09   1.525133e+06   1.446555e-21   0.000000e+00   0.000000e+00
     1280000   1.279999e-05   1.549729e+01   7.504333e+00   3.003120e+01   1.185764e+06   6.440765e+05   7.107473e+05  -2.763659e+10   2.583413e+10   2.269629e+10   1.525133e+06   1.090460e-20   0.000000e+00   0.000000e+00
     1288000   1.287999e-05   1.559206e+01   7.555947e+00   3.008814e+01   1.183364e+06   6.463372e+05   7.126918e+05  -3.235370e+10   3.068004e+10   2.589701e+10   1.525133e+06   1.489595e-20   0.000000e+00   0.000000e+00
     1296000   1.295999e-05   1.568662e+01   7.607759e+00   3.014524e+01   1.180557e+06   6.490226e+05   7.149033e+05  -3.758788e+10   3.612180e+10   2.927783e+10   1.525133e+06   2.002894e-20   0.000000e+00   0.000000e+00
     1304000   1.303999e-05   1.578094e+01   7.659802e+00   3.020253e+01   1.177332e+06   6.521351e+05   7.173845e+05  -4.283630e+10   4.144879e+10   3.262183e+10   1.525133e+06   2.586888e-20   0.000000e+00   0.000000e+00
     1312000   1.311999e-05   1.587498e+01   7.712111e+00   3.026003e+01   1.173687e+06   6.556663e+05   7.201329e+05  -4.830060e+10   4.686460e+10   3.605213e+10   1.525133e+06   3.265874e-20   0.000000e+00   0.000000e+00
     1320000   1.319999e-05   1.596872e+01   7.764720e+00   3.031776e+01   1.169597e+06   6.596412e+05   7.231517e+05  -5.398717e+10   5.255202e+10   3.938016e+10   1.525133e+06   4.049226e-20   0.000000e+00   0.000000e+00
     1328000   1.327999e-05   1.606210e+01   7.817666e+00   3.037574e+01   1.165046e+06   6.640702e+05   7.264377e+05  -5.990575e+10   5.829606e+10   4.278458e+10   1.525133e+06   4.940375e-20   0.000000e+00   0.000000e+00
     1336000   1.335999e-05   1.615511e+01   7.870984e+00   3.043400e+01   1.160012e+06   6.689625e+05   7.299947e+05  -6.594946e+10   6.401018e+10   4.613990e+10   1.525133e+06   5.925294e-20   0.000000e+00   0.000000e+00
     1344000   1.343999e-05   1.624769e+01   7.924712e+00   3.049255e+01   1.154490e+06   6.743128e+05   7.338176e+05  -7.213868e+10   6.971355e+10   4.943291e+10   1.525133e+06   7.007806e-20   0.000000e+00   0.000000e+00
     1352000   1.351999e-05   1.633981e+01   7.978887e+00   3.055141e+01   1.148455e+06   6.801411e+05   7.378967e+05  -7.863407e+10   7.569356e+10   5.261647e+10   1.525133e+06   8.225733e-20   0.000000e+00   0.000000e+00
     1360000   1.359999e-05   1.643143e+01   8.033547e+00   3.061062e+01   1.141889e+06   6.864454e+05   7.422363e+05  -8.552945e+10   8.186229e+10   5.587345e+10   1.525133e+06   9.602495e-20   0.000000e+00   0.000000e+00
     1368000   1.367999e-05   1.652250e+01   8.088731e+00   3.067018e+01   1.134769e+06   6.932347e+05   7.468319e+05  -9.264726e+10   8.812827e+10   5.896887e+10   1.525133e+06   1.110904e-19   0.000000e+00   0.000000e+00
     1376000   1.375999e-05   1.661298e+01   8.144478e+00   3.073012e+01   1.127062e+06   7.005384e+05   7.516714e+05  -1.000565e+11   9.448057e+10   6.197236e+10   1.525133e+06   1.276246e-19   0.000000e+00   0.000000e+00
     1384000   1.383999e-05   1.670282e+01   8.200831e+00   3.079045e+01   1.118754e+06   7.083515e+05   7.567435e+05  -1.077651e+11   1.009485e+11   6.482494e+10   1.525133e+06   1.457094e-19   0.000000e+00   0.000000e+00
     1392000   1.391999e-05   1.679196e+01   8.257829e+00   3.085120e+01   1.109810e+06   7.166931e+05   7.620404e+05  -1.158707e+11   1.075866e+11   6.756622e+10   1.525134e+06   1.656550e-19   0.000000e+00   0.000000e+00
     1400000   1.399999e-05   1.688037e+01   8.315515e+00   3.091239e+01   1.100203e+06   7.255596e+05   7.675598e+05  -1.243495e+11   1.142594e+11   7.023302e+10   1.525134e+06   1.874201e-19   0.000000e+00   0.000000e+00
     1408000   1.407999e-05   1.696798e+01   8.373933e+00   3.097402e+01   1.089901e+06   7.349776e+05   7.732763e+05  -1.332728e+11   1.212041e+11   7.264181e+10   1.525134e+06   2.113905e-19   0.000000e+00   0.000000e+00
     1416000   1.415999e-05   1.705473e+01   8.433127e+00   3.103611e+01   1.078873e+06   7.449457e+05   7.791805e+05  -1.424762e+11   1.279224e+11   7.497468e+10   1.525134e+06   2.369169e-19   0.000000e+00   0.000000e+00
     1424000   1.423999e-05   1.714058e+01   8.493139e+00   3.109869e+01   1.067096e+06   7.554498e+05   7.852610e+05  -1.520203e+11   1.347661e+11   7.693202e+10   1.525134e+06   2.644036e-19   0.000000e+00   0.000000e+00
     1432000   1.431999e-05   1.722545e+01   8.554014e+00   3.116176e+01   1.054515e+06   7.665300e+05   7.914933e+05  -1.624267e+11   1.420771e+11   7.880745e+10   1.525134e+06   2.957143e-19   0.000000e+00   0.000000e+00
     1440000   1.439999e-05   1.730928e+01   8.615799e+00   3.122533e+01   1.041102e+06   7.781759e+05   7.978609e+05  -1.730553e+11   1.491805e+11   8.031474e+10   1.525134e+06   3.286286e-19   0.000000e+00   0.000000e+00
     1448000   1.447999e-05   1.739200e+01   8.678537e+00   3.128942e+01   1.026826e+06   7.903818e+05   8.043372e+05  -1.838991e+11   1.559381e+11   8.153583e+10   1.525134e+06   3.629757e-19   0.000000e+00   0.000000e+00
     1456000   1.455999e-05   1.747354e+01   8.742275e+00   3.135403e+01   1.011630e+06   8.031722e+05   8.108955e+05  -1.958867e+11   1.635332e+11   8.240311e+10   1.525134e+06   4.028757e-19   0.000000e+00   0.000000e+00
     1464000   1.463999e-05   1.755383e+01   8.807060e+00   3.141917e+01   9.954806e+05   8.165342e+05   8.175102e+05  -2.080593e+11   1.706651e+11   8.289302e+10   1.525134e+06   4.442339e-19   0.000000e+00   0.000000e+00
     1472000   1.471999e-05   1.763279e+01   8.872936e+00   3.148483e+01   9.783380e+05   8.304590e+05   8.241512e+05  -2.204822e+11   1.772573e+11   8.311829e+10   1.525134e+06   4.871225e-19   0.000000e+00   0.000000e+00
     1480000   1.479999e-05   1.771034e+01   8.939948e+00   3.155103e+01   9.601556e+05   8.449377e+05   8.307913e+05  -2.341351e+11   1.846450e+11   8.280493e+10   1.525134e+06   5.365877e-19   0.000000e+00   0.000000e+00
     1488000   1.487999e-05   1.778639e+01   9.008141e+00   3.161776e+01   9.408731e+05   8.599834e+05   8.373883e+05  -2.480622e+11   1.914976e+11   8.205439e+10   1.525134e+06   5.879633e-19   0.000000e+00   0.000000e+00
     1496000   1.495999e-05   1.786085e+01   9.077560e+00   3.168501e+01   9.204577e+05   8.755594e+05   8.439112e+05  -2.623981e+11   1.978328e+11   8.094821e+10   1.525134e+06   6.417741e-19   0.000000e+00   0.000000e+00
     1504000   1.503999e-05   1.793363e+01   9.148244e+00   3.175278e+01   8.988589e+05   8.916465e+05   8.503248e+05  -2.776303e+11   2.042123e+11   7.934199e+10   1.525134e+06   7.007907e-19   0.000000e+00   0.000000e+00
     1512000   1.511999e-05   1.800464e+01   9.220236e+00   3.182106e+01   8.760256e+05   9.082228e+05   8.565883e+05  -2.933327e+11   2.102445e+11   7.707253e+10   1.525134e+06   7.630428e-19   0.000000e+00   0.000000e+00
     1520000   1.519999e-05   1.807376e+01   9.293573e+00   3.188983e+01   8.519164e+05   9.252628e+05   8.626473e+05  -3.094699e+11   2.156606e+11   7.430767e+10   1.525134e+06   8.281249e-19   0.000000e+00   0.000000e+00
     1528000   1.527999e-05   1.814090e+01   9.368291e+00   3.195908e+01   8.264244e+05   9.427821e+05   8.684572e+05  -3.271262e+11   2.215435e+11   7.079158e+10   1.525134e+06   9.026540e-19   0.000000e+00   0.000000e+00
     1536000   1.535999e-05   1.820595e+01   9.444428e+00   3.202877e+01   7.995512e+05   9.607012e+05   8.739591e+05  -3.451127e+11   2.265835e+11   6.665989e+10   1.525134e+06   9.798718e-19   0.000000e+00   0.000000e+00
     1544000   1.543999e-05   1.826879e+01   9.522014e+00   3.209890e+01   7.712122e+05   9.789990e+05   8.791054e+05  -3.629957e+11   2.303916e+11   6.187590e+10   1.525134e+06   1.057128e-18   0.000000e+00   0.000000e+00
     1552000   1.551999e-05   1.832931e+01   9.601077e+00   3.216942e+01   7.413677e+05   9.976110e+05   8.838439e+05  -3.828426e+11   2.345091e+11   5.643568e+10   1.525134e+06   1.147184e-18   0.000000e+00   0.000000e+00
     1560000   1.559999e-05   1.838737e+01   9.681639e+00   3.224030e+01   7.099519e+05   1.016488e+06   8.881189e+05  -4.025336e+11   2.371632e+11   5.034045e+10   1.525134e+06   1.237201e-18   0.000000e+00   0.000000e+00
     1568000   1.567999e-05   1.844286e+01   9.763720e+00   3.231151e+01   6.769240e+05   1.035552e+06   8.918739e+05  -4.233641e+11   2.393907e+11   4.337612e+10   1.525134e+06   1.335883e-18   0.000000e+00   0.000000e+00
     1576000   1.575999e-05   1.849563e+01   9.847331e+00   3.238299e+01   6.422247e+05   1.054739e+06   8.950462e+05  -4.440949e+11   2.400082e+11   3.582533e+10   1.525134e+06   1.434949e-18   0.000000e+00   0.000000e+00
     1584000   1.583999e-05   1.854557e+01   9.932478e+00   3.245470e+01   6.058225e+05   1.073950e+06   8.975772e+05  -4.662401e+11   2.401946e+11   2.730067e+10   1.525134e+06   1.545388e-18   0.000000e+00   0.000000e+00
     1592000   1.591999e-05   1.859252e+01   1.001916e+01   3.252658e+01   5.676178e+05   1.093129e+06   8.993964e+05  -4.886532e+11   2.388119e+11   1.814440e+10   1.525134e+06   1.659261e-18   0.000000e+00   0.000000e+00
     1600000   1.599999e-05   1.863634e+01   1.010737e+01   3.259858e+01   5.276004e+05   1.112141e+06   9.004524e+05  -5.114142e+11   2.360397e+11   8.124804e+09   1.525134e+06   1.777947e-18   0.000000e+00   0.000000e+00
     1608000   1.607999e-05   1.867688e+01   1.019710e+01   3.267063e+01   4.857815e+05   1.130854e+06   9.006786e+05  -5.341636e+11   2.315206e+11  -2.582122e+09   1.525135e+06   1.899050e-18   0.000000e+00   0.000000e+00
     1616000   1.615999e-05   1.871401e+01   1.028830e+01   3.274266e+01   4.420444e+05   1.149172e+06   9.000195e+05  -5.582546e+11   2.257186e+11  -1.401369e+10   1.525135e+06   2.032704e-18   0.000000e+00   0.000000e+00
     1624000   1.623999e-05   1.874756e+01   1.038095e+01   3.281461e+01   3.964130e+05   1.166935e+06   8.984186e+05  -5.820272e+11   2.178250e+11  -2.611309e+10   1.525135e+06   2.167690e-18   0.000000e+00   0.000000e+00
     1632000   1.631999e-05   1.877738e+01   1.047499e+01   3.288638e+01   3.488592e+05   1.183991e+06   8.958233e+05  -6.066701e+11   2.081951e+11  -3.890771e+10   1.525135e+06   2.313490e-18   0.000000e+00   0.000000e+00
     1640000   1.639999e-05   1.880333e+01   1.057036e+01   3.295791e+01   2.993577e+05   1.200177e+06   8.921861e+05  -6.307998e+11   1.960781e+11  -5.210720e+10   1.525135e+06   2.460078e-18   0.000000e+00   0.000000e+00
     1648000   1.647999e-05   1.882523e+01   1.066699e+01   3.302911e+01   2.479464e+05   1.215302e+06   8.874693e+05  -6.539468e+11   1.814704e+11  -6.579702e+10   1.525135e+06   2.604844e-18   0.000000e+00   0.000000e+00
     1656000   1.655999e-05   1.884295e+01   1.076478e+01   3.309988e+01   1.946538e+05   1.229169e+06   8.816406e+05  -6.786612e+11   1.649076e+11  -8.006709e+10   1.525135e+06   2.768891e-18   0.000000e+00   0.000000e+00
     1664000   1.663999e-05   1.885632e+01   1.086362e+01   3.317014e+01   1.394315e+05   1.241589e+06   8.746730e+05  -7.015679e+11   1.452446e+11  -9.433037e+10   1.525135e+06   2.925806e-18   0.000000e+00   0.000000e+00
     1672000   1.671999e-05   1.886521e+01   1.096339e+01   3.323979e+01   8.243606e+04   1.252328e+06   8.665541e+05  -7.230611e+11   1.227992e+11  -1.086754e+11   1.525135e+06   3.079977e-18   0.000000e+00   0.000000e+00
     1680000   1.679999e-05   1.886947e+01   1.106394e+01   3.330876e+01   2.375427e+04   1.261165e+06   8.572853e+05  -7.436172e+11   9.762218e+10  -1.230020e+11   1.525136e+06   3.236405e-18   0.000000e+00   0.000000e+00
     1688000   1.687999e-05   1.886897e+01   1.116512e+01   3.337693e+01  -3.660811e+04   1.267871e+06   8.468783e+05  -7.652661e+11   6.954053e+10  -1.371829e+11   1.525136e+06   3.413800e-18   0.000000e+00   0.000000e+00
     1696000   1.695999e-05   1.886357e+01   1.126674e+01   3.344423e+01  -9.858948e+04   1.272205e+06   8.353522e+05  -7.846668e+11   3.830555e+10  -1.509376e+11   1.525136e+06   3.585610e-18   0.000000e+00   0.000000e+00
     1704000   1.703999e-05   1.885315e+01   1.136860e+01   3.351056e+01  -1.619953e+05   1.273922e+06   8.227513e+05  -8.001778e+11   4.121974e+09  -1.639249e+11   1.525136e+06   3.738135e-18   0.000000e+00   0.000000e+00
     1712000   1.711999e-05   1.883762e+01   1.147049e+01   3.357584e+01  -2.266025e+05   1.272790e+06   8.091343e+05  -8.145141e+11  -3.284802e+10  -1.764297e+11   1.525136e+06   3.897635e-18   0.000000e+00   0.000000e+00
     1720000   1.719999e-05   1.881687e+01   1.157217e+01   3.363999e+01  -2.922378e+05   1.268583e+06   7.945663e+05  -8.264746e+11  -7.280076e+10  -1.877327e+11   1.525136e+06   4.054318e-18   0.000000e+00   0.000000e+00
     1728000   1.727999e-05   1.879083e+01   1.167337e+01   3.370295e+01  -3.587435e+05   1.261075e+06   7.791247e+05  -8.351647e+11  -1.152862e+11  -1.979373e+11   1.525137e+06   4.202052e-18   0.000000e+00   0.000000e+00
     1736000   1.735999e-05   1.875945e+01   1.177384e+01   3.376463e+01  -4.258761e+05   1.250050e+06   7.629198e+05  -8.424968e+11  -1.606451e+11  -2.070689e+11   1.525137e+06   4.361821e-18   0.000000e+00   0.000000e+00
     1744000   1.743999e-05   1.872268e+01   1.187328e+01   3.382500e+01  -4.933842e+05   1.235317e+06   7.460604e+05  -8.444064e+11  -2.078670e+11  -2.142281e+11   1.525137e+06   4.494276e-18   0.000000e+00   0.000000e+00
     1752000   1.751999e-05   1.868051e+01   1.197139e+01   3.388399e+01  -5.609081e+05   1.216739e+06   7.286779e+05  -8.431104e+11  -2.567405e+11  -2.202798e+11   1.525137e+06   4.623983e-18   0.000000e+00   0.000000e+00
     1760000   1.759999e-05   1.863294e+01   1.206786e+01   3.394157e+01  -6.282195e+05   1.194144e+06   7.109185e+05  -8.388589e+11  -3.081125e+11  -2.237223e+11   1.525137e+06   4.755069e-18   0.000000e+00   0.000000e+00
     1768000   1.767999e-05   1.858001e+01   1.216235e+01   3.399773e+01  -6.950311e+05   1.167405e+06   6.929236e+05  -8.307648e+11  -3.604358e+11  -2.260340e+11   1.525138e+06   4.881172e-18   0.000000e+00   0.000000e+00
     1776000   1.775999e-05   1.852177e+01   1.225453e+01   3.405244e+01  -7.609000e+05   1.136505e+06   6.748587e+05  -8.164001e+11  -4.125186e+11  -2.257668e+11   1.525138e+06   4.973492e-18   0.000000e+00   0.000000e+00
     1784000   1.783999e-05   1.845830e+01   1.234407e+01   3.410571e+01  -8.255073e+05   1.101427e+06   6.568430e+05  -7.979918e+11  -4.645083e+11  -2.239759e+11   1.525138e+06   5.057949e-18   0.000000e+00   0.000000e+00
     1792000   1.791999e-05   1.838973e+01   1.243065e+01   3.415754e+01  -8.884552e+05   1.062225e+06   6.390411e+05  -7.750228e+11  -5.153764e+11  -2.208283e+11   1.525138e+06   5.126946e-18   0.000000e+00   0.000000e+00
     1800000   1.799999e-05   1.831620e+01   1.251392e+01   3.420796e+01  -9.494492e+05   1.018948e+06   6.215615e+05  -7.491534e+11  -5.668611e+11  -2.150578e+11   1.525139e+06   5.204126e-18   0.000000e+00   0.000000e+00
     1808000   1.807999e-05   1.823788e+01   1.259357e+01   3.425700e+01  -1.008167e+06   9.716583e+05   6.045896e+05  -7.181096e+11  -6.150263e+11  -2.090168e+11   1.525139e+06   5.253516e-18   0.000000e+00   0.000000e+00
     1816000   1.815999e-05   1.815497e+01   1.266929e+01   3.430471e+01  -1.064196e+06   9.206208e+05   5.882121e+05  -6.820062e+11  -6.606162e+11  -1.999312e+11   1.525139e+06   5.275327e-18   0.000000e+00   0.000000e+00
     1824000   1.823999e-05   1.806769e+01   1.274078e+01   3.435114e+01  -1.117231e+06   8.660283e+05   5.725725e+05  -6.433493e+11  -7.037537e+11  -1.908753e+11   1.525139e+06   5.298203e-18   0.000000e+00   0.000000e+00
     1832000   1.831999e-05   1.797629e+01   1.280776e+01   3.439634e+01  -1.167018e+06   8.081505e+05   5.576855e+05  -6.007483e+11  -7.428834e+11  -1.805908e+11   1.525140e+06   5.297011e-18   0.000000e+00   0.000000e+00
     1840000   1.839999e-05   1.788106e+01   1.287000e+01   3.444039e+01  -1.213238e+06   7.473368e+05   5.436854e+05  -5.548074e+11  -7.772132e+11  -1.697007e+11   1.525140e+06   5.270584e-18   0.000000e+00   0.000000e+00
     1848000   1.847999e-05   1.778228e+01   1.292727e+01   3.448336e+01  -1.255690e+06   6.839493e+05   5.305739e+05  -5.062796e+11  -8.067541e+11  -1.582098e+11   1.525140e+06   5.223139e-18   0.000000e+00   0.000000e+00
     1856000   1.855999e-05   1.768025e+01   1.297938e+01   3.452531e+01  -1.294196e+06   6.183531e+05   5.184101e+05  -4.561748e+11  -8.321130e+11  -1.462756e+11   1.525140e+06   5.165444e-18   0.000000e+00   0.000000e+00
     1864000   1.863999e-05   1.757531e+01   1.302616e+01   3.456633e+01  -1.328672e+06   5.508517e+05   5.071958e+05  -4.055232e+11  -8.544423e+11  -1.343210e+11   1.525141e+06   5.113109e-18   0.000000e+00   0.000000e+00
     1872000   1.871999e-05   1.746778e+01   1.306747e+01   3.460649e+01  -1.359030e+06   4.818242e+05   4.969293e+05  -3.532445e+11  -8.704187e+11  -1.220938e+11   1.525141e+06   5.027693e-18   0.000000e+00   0.000000e+00
     1880000   1.879999e-05   1.735798e+01   1.310322e+01   3.464586e+01  -1.385182e+06   4.117637e+05   4.876239e+05  -3.007506e+11  -8.808955e+11  -1.104638e+11   1.525141e+06   4.922992e-18   0.000000e+00   0.000000e+00
     1888000   1.887999e-05   1.724626e+01   1.313333e+01   3.468453e+01  -1.407155e+06   3.410255e+05   4.792426e+05  -2.487078e+11  -8.868177e+11  -9.918636e+10   1.525141e+06   4.808183e-18   0.000000e+00   0.000000e+00
     1896000   1.895999e-05   1.713295e+01   1.315778e+01   3.472257e+01  -1.424993e+06   2.699972e+05   4.717561e+05  -1.975404e+11  -8.884601e+11  -8.818854e+10   1.525142e+06   4.685040e-18   0.000000e+00   0.000000e+00
     1904000   1.903999e-05   1.701837e+01   1.317654e+01   3.476003e+01  -1.438790e+06   1.990650e+05   4.650961e+05  -1.476932e+11  -8.847803e+11  -7.818275e+10   1.525142e+06   4.542733e-18   0.000000e+00   0.000000e+00
     1912000   1.911999e-05   1.690284e+01   1.318963e+01   3.479700e+01  -1.448687e+06   1.283983e+05   4.592156e+05  -9.976565e+10  -8.799800e+11  -6.866776e+10   1.525142e+06   4.420989e-18   0.000000e+00   0.000000e+00
     1920000   1.919999e-05   1.678668e+01   1.319710e+01   3.483353e+01  -1.454794e+06   5.849845e+04   4.541043e+05  -5.349545e+10  -8.675448e+11  -5.960579e+10   1.525142e+06   4.252986e-18   0.000000e+00   0.000000e+00
     1928000   1.927999e-05   1.667017e+01   1.319902e+01   3.486968e+01  -1.457310e+06  -1.036677e+04   4.496648e+05  -9.886693e+09  -8.534994e+11  -5.170228e+10   1.525142e+06   4.097129e-18   0.000000e+00   0.000000e+00
     1936000   1.935999e-05   1.655360e+01   1.319547e+01   3.490549e+01  -1.456429e+06  -7.807369e+04   4.458448e+05   3.155563e+10  -8.380432e+11  -4.365540e+10   1.525143e+06   3.951375e-18   0.000000e+00   0.000000e+00
     1944000   1.943999e-05   1.643723e+01   1.318657e+01   3.494103e+01  -1.452343e+06  -1.443492e+05   4.426321e+05   7.011457e+10  -8.182351e+11  -3.676727e+10   1.525143e+06   3.786415e-18   0.000000e+00   0.000000e+00
     1952000   1.951999e-05   1.632130e+01   1.317242e+01   3.497633e+01  -1.445291e+06  -2.089373e+05   4.399302e+05   1.058693e+11  -7.969669e+11  -3.068143e+10   1.525143e+06   3.626892e-18   0.000000e+00   0.000000e+00
     1960000   1.959999e-05   1.620606e+01   1.315318e+01   3.501143e+01  -1.435477e+06  -2.718113e+05   4.377045e+05   1.389903e+11  -7.739700e+11  -2.478899e+10   1.525143e+06   3.468085e-18   0.000000e+00   0.000000e+00
     1968000   1.967999e-05   1.609169e+01   1.312899e+01   3.504637e+01  -1.423146e+06  -3.327103e+05   4.359154e+05   1.691216e+11  -7.495987e+11  -1.997804e+10   1.525143e+06   3.310847e-18   0.000000e+00   0.000000e+00
     1976000   1.975999e-05   1.597841e+01   1.310000e+01   3.508119e+01  -1.408493e+06  -3.916835e+05   4.345042e+05   1.967023e+11  -7.245664e+11  -1.551489e+10   1.525143e+06   3.159732e-18   0.000000e+00   0.000000e+00
     1984000   1.983999e-05   1.586639e+01   1.306638e+01   3.511590e+01  -1.391777e+06  -4.485145e+05   4.334227e+05   2.211124e+11  -6.971490e+11  -1.139063e+10   1.525144e+06   2.997848e-18   0.000000e+00   0.000000e+00
     1992000   1.991999e-05   1.575578e+01   1.302829e+01   3.515054e+01  -1.373167e+06  -5.032796e+05   4.326485e+05   2.436953e+11  -6.718266e+11  -8.036739e+09   1.525144e+06   2.862063e-18   0.000000e+00   0.000000e+00
     2000000   1.999999e-05   1.564673e+01   1.298591e+01   3.518513e+01  -1.352841e+06  -5.560151e+05   4.321246e+05   2.638273e+11  -6.460027e+11  -5.243711e+09   1.525144e+06   2.728427e-18   0.000000e+00   0.000000e+00
     2008000   2.007999e-05   1.553937e+01   1.293939e+01   3.521969e+01  -1.331033e+06  -6.065807e+05   4.318279e+05   2.811346e+11  -6.185826e+11  -2.353161e+09   1.525144e+06   2.586863e-18   0.000000e+00   0.000000e+00
     2016000   2.015999e-05   1.543380e+01   1.288891e+01   3.525423e+01  -1.307900e+06  -6.550373e+05   4.317266e+05   2.971905e+11  -5.936106e+11  -3.179990e+08   1.525144e+06   2.469253e-18   0.000000e+00   0.000000e+00
     2024000   2.023999e-05   1.533013e+01   1.283464e+01   3.528877e+01  -1.283615e+06  -7.013996e+05   4.317825e+05   3.102257e+11  -5.667554e+11   1.603579e+09   1.525144e+06   2.339026e-18   0.000000e+00   0.000000e+00
     2032000   2.031999e-05   1.522845e+01   1.277674e+01   3.532332e+01  -1.258327e+06  -7.457106e+05   4.319661e+05   3.215425e+11  -5.408912e+11   2.919354e+09   1.525144e+06   2.218600e-18   0.000000e+00   0.000000e+00
     2040000   2.039999e-05   1.512882e+01   1.271538e+01   3.535788e+01  -1.232186e+06  -7.880039e+05   4.322424e+05   3.314316e+11  -5.160848e+11   3.961289e+09   1.525144e+06   2.107912e-18   0.000000e+00   0.000000e+00
     2048000   2.047999e-05   1.503132e+01   1.265071e+01   3.539248e+01  -1.205325e+06  -8.283282e+05   4.325858e+05   3.397477e+11  -4.919373e+11   4.679762e+09   1.525144e+06   2.002835e-18   0.000000e+00   0.000000e+00
     2056000   2.055999e-05   1.493599e+01   1.258290e+01   3.542710e+01  -1.177885e+06  -8.667028e+05   4.329875e+05   3.458462e+11  -4.673855e+11   5.280094e+09   1.525145e+06   1.894324e-18   0.000000e+00   0.000000e+00
     2064000   2.063999e-05   1.484287e+01   1.251209e+01   3.546176e+01  -1.149913e+06  -9.032809e+05   4.334167e+05   3.527648e+11  -4.464717e+11   5.451338e+09   1.525145e+06   1.814331e-18   0.000000e+00   0.000000e+00
     2072000   2.071999e-05   1.475201e+01   1.243842e+01   3.549645e+01  -1.121528e+06  -9.380920e+05   4.338485e+05   3.568475e+11  -4.241618e+11   5.335241e+09   1.525145e+06   1.721723e-18   0.000000e+00   0.000000e+00
     2080000   2.079999e-05   1.466344e+01   1.236204e+01   3.553117e+01  -1.092797e+06  -9.712198e+05   4.342738e+05   3.610310e+11  -4.039138e+11   5.175109e+09   1.525145e+06   1.644595e-18   0.000000e+00   0.000000e+00
     2088000   2.087999e-05   1.457717e+01   1.228307e+01   3.556593e+01  -1.063804e+06  -1.002717e+06   4.346779e+05   3.633150e+11  -3.833426e+11   4.864779e+09   1.525145e+06   1.563108e-18   0.000000e+00   0.000000e+00
     2096000   2.095999e-05   1.449323e+01   1.220164e+01   3.560072e+01  -1.034690e+06  -1.032580e+06   4.350441e+05   3.643482e+11  -3.632997e+11   4.261561e+09   1.525145e+06   1.483440e-18   0.000000e+00   0.000000e+00
     2104000   2.103999e-05   1.441162e+01   1.211789e+01   3.563554e+01  -1.005474e+06  -1.060920e+06   4.353594e+05   3.653222e+11  -3.447732e+11   3.555256e+09   1.525145e+06   1.413890e-18   0.000000e+00   0.000000e+00
     2112000   2.111999e-05   1.433235e+01   1.203194e+01   3.567038e+01  -9.762714e+05  -1.087754e+06   4.356072e+05   3.649722e+11  -3.265015e+11   2.665608e+09   1.525145e+06   1.343702e-18   0.000000e+00   0.000000e+00
     2120000   2.119999e-05   1.425542e+01   1.194389e+01   3.570523e+01  -9.470497e+05  -1.113220e+06   4.357825e+05   3.650002e+11  -3.098283e+11   1.763876e+09   1.525145e+06   1.284345e-18   0.000000e+00   0.000000e+00
     2128000   2.127999e-05   1.418083e+01   1.185386e+01   3.574010e+01  -9.177894e+05  -1.137428e+06   4.358774e+05   3.655985e+11  -2.947669e+11   6.161750e+08   1.525145e+06   1.235760e-18   0.000000e+00   0.000000e+00
     2136000   2.135999e-05   1.410857e+01   1.176194e+01   3.577497e+01  -8.886001e+05  -1.160374e+06   4.358779e+05   3.640169e+11  -2.789899e+11  -6.082734e+08   1.525145e+06   1.178574e-18   0.000000e+00   0.000000e+00
     2144000   2.143999e-05   1.403865e+01   1.166823e+01   3.580984e+01  -8.595796e+05  -1.182071e+06   4.357729e+05   3.625689e+11  -2.643878e+11  -1.988225e+09   1.525145e+06   1.128241e-18   0.000000e+00   0.000000e+00
     2152000   2.151999e-05   1.397104e+01   1.157283e+01   3.584469e+01  -8.306165e+05  -1.202677e+06   4.355605e+05   3.612068e+11  -2.506596e+11  -3.297339e+09   1.525145e+06   1.083139e-18   0.000000e+00   0.000000e+00
     2160000   2.159999e-05   1.390574e+01   1.147583e+01   3.587952e+01  -8.018226e+05  -1.222177e+06   4.352387e+05   3.582867e+11  -2.367421e+11  -4.724866e+09   1.525145e+06   1.033423e-18   0.000000e+00   0.000000e+00
     2168000   2.167999e-05   1.384274e+01   1.137731e+01   3.591432e+01  -7.731812e+05  -1.240651e+06   4.347923e+05   3.573634e+11  -2.249439e+11  -6.367477e+09   1.525145e+06   9.993033e-19   0.000000e+00   0.000000e+00
     2176000   2.175999e-05   1.378203e+01   1.127735e+01   3.594909e+01  -7.447710e+05  -1.258108e+06   4.342234e+05   3.522451e+11  -2.112434e+11  -7.883908e+09   1.525145e+06   9.455882e-19   0.000000e+00   0.000000e+00
     2184000   2.183999e-05   1.372357e+01   1.117604e+01   3.598380e+01  -7.166214e+05  -1.274588e+06   4.335289e+05   3.515159e+11  -2.008589e+11  -9.473406e+09   1.525146e+06   9.188906e-19   0.000000e+00   0.000000e+00
     2192000   2.191999e-05   1.366736e+01   1.107344e+01   3.601845e+01  -6.886485e+05  -1.290194e+06   4.327023e+05   3.479204e+11  -1.894404e+11  -1.113600e+10   1.525146e+06   8.800200e-19   0.000000e+00   0.000000e+00
     2200000   2.199999e-05   1.361338e+01   1.096963e+01   3.605303e+01  -6.608966e+05  -1.304946e+06   4.317427e+05   3.458283e+11  -1.794058e+11  -1.286998e+10   1.525146e+06   8.513834e-19   0.000000e+00   0.000000e+00
     2208000   2.207999e-05   1.356161e+01   1.086467e+01   3.608752e+01  -6.333532e+05  -1.318893e+06   4.306434e+05   3.433716e+11  -1.696433e+11  -1.454679e+10   1.525146e+06   8.230607e-19   0.000000e+00   0.000000e+00
     2216000   2.215999e-05   1.351204e+01   1.075863e+01   3.612193e+01  -6.060033e+05  -1.332080e+06   4.294081e+05   3.401517e+11  -1.600046e+11  -1.631197e+10   1.525146e+06   7.932318e-19   0.000000e+00   0.000000e+00
     2224000   2.223999e-05   1.346465e+01   1.065156e+01   3.615622e+01  -5.789583e+05  -1.344494e+06   4.280336e+05   3.362682e+11  -1.505504e+11  -1.805334e+10   1.525146e+06   7.623966e-19   0.000000e+00   0.000000e+00
     2232000   2.231999e-05   1.341940e+01   1.054353e+01   3.619041e+01  -5.521216e+05  -1.356213e+06   4.265187e+05   3.344074e+11  -1.423693e+11  -1.980746e+10   1.525146e+06   7.423494e-19   0.000000e+00   0.000000e+00
     2240000   2.239999e-05   1.337630e+01   1.043459e+01   3.622446e+01  -5.255353e+05  -1.367250e+06   4.248645e+05   3.305803e+11  -1.337615e+11  -2.154216e+10   1.525146e+06   7.151733e-19   0.000000e+00   0.000000e+00
     2248000   2.247999e-05   1.333531e+01   1.032479e+01   3.625838e+01  -4.992236e+05  -1.377626e+06   4.230755e+05   3.273500e+11  -1.257577e+11  -2.322266e+10   1.525146e+06   6.920482e-19   0.000000e+00   0.000000e+00
     2256000   2.255999e-05   1.329642e+01   1.021418e+01   3.629215e+01  -4.731369e+05  -1.387387e+06   4.211501e+05   3.251540e+11  -1.184926e+11  -2.505432e+10   1.525146e+06   6.745736e-19   0.000000e+00   0.000000e+00
     2264000   2.263999e-05   1.325960e+01   1.010282e+01   3.632576e+01  -4.473007e+05  -1.396551e+06   4.190926e+05   3.212809e+11  -1.108928e+11  -2.662199e+10   1.525146e+06   6.512303e-19   0.000000e+00   0.000000e+00
     2272000   2.271999e-05   1.322484e+01   9.990749e+00   3.635920e+01  -4.217309e+05  -1.405139e+06   4.168912e+05   3.183075e+11  -1.039486e+11  -2.835498e+10   1.525146e+06   6.327497e-19   0.000000e+00   0.000000e+00
     2280000   2.279999e-05   1.319212e+01   9.878013e+00   3.639246e+01  -3.964520e+05  -1.413165e+06   4.145611e+05   3.138128e+11  -9.678379e+10  -2.981143e+10   1.525146e+06   6.092460e-19   0.000000e+00   0.000000e+00
     2288000   2.287999e-05   1.316140e+01   9.764657e+00   3.642553e+01  -3.714503e+05  -1.420658e+06   4.120996e+05   3.114179e+11  -9.059633e+10  -3.161632e+10   1.525146e+06   5.949802e-19   0.000000e+00   0.000000e+00
     2296000   2.295999e-05   1.313268e+01   9.650721e+00   3.645839e+01  -3.466073e+05  -1.427669e+06   4.095051e+05   3.093595e+11  -8.464291e+10  -3.324692e+10   1.525146e+06   5.825681e-19   0.000000e+00   0.000000e+00
     2304000   2.303999e-05   1.310594e+01   9.536243e+00   3.649105e+01  -3.219837e+05  -1.434197e+06   4.067856e+05   3.059853e+11  -7.855711e+10  -3.476801e+10   1.525146e+06   5.659496e-19   0.000000e+00   0.000000e+00
     2312000   2.311999e-05   1.308116e+01   9.421262e+00   3.652348e+01  -2.976309e+05  -1.440251e+06   4.039350e+05   3.028823e+11  -7.280448e+10  -3.641332e+10   1.525146e+06   5.511410e-19   0.000000e+00   0.000000e+00
     2320000   2.319999e-05   1.305831e+01   9.305815e+00   3.655567e+01  -2.735115e+05  -1.445853e+06   4.009645e+05   3.000498e+11  -6.727620e+10  -3.791715e+10   1.525146e+06   5.378593e-19   0.000000e+00   0.000000e+00
     2328000   2.327999e-05   1.303739e+01   9.189937e+00   3.658763e+01  -2.495995e+05  -1.451025e+06   3.978668e+05   2.978139e+11  -6.203088e+10  -3.939313e+10   1.525146e+06   5.272082e-19   0.000000e+00   0.000000e+00
     2336000   2.335999e-05   1.301837e+01   9.073662e+00   3.661933e+01  -2.259095e+05  -1.455777e+06   3.946515e+05   2.944281e+11  -5.678907e+10  -4.094034e+10   1.525146e+06   5.131798e-19   0.000000e+00   0.000000e+00
     2344000   2.343999e-05   1.300124e+01   8.957024e+00   3.665077e+01  -2.024791e+05  -1.460118e+06   3.913174e+05   2.917678e+11  -5.182759e+10  -4.241211e+10   1.525146e+06   5.021093e-19   0.000000e+00   0.000000e+00
     2352000   2.351999e-05   1.298597e+01   8.840053e+00   3.668194e+01  -1.792050e+05  -1.464075e+06   3.878688e+05   2.893504e+11  -4.702606e+10  -4.381828e+10   1.525146e+06   4.922580e-19   0.000000e+00   0.000000e+00
     2360000   2.359999e-05   1.297256e+01   8.722782e+00   3.671282e+01  -1.562036e+05  -1.467643e+06   3.843104e+05   2.861829e+11  -4.229843e+10  -4.521179e+10   1.525146e+06   4.803730e-19   0.000000e+00   0.000000e+00
     2368000   2.367999e-05   1.296097e+01   8.605240e+00   3.674342e+01  -1.334279e+05  -1.470843e+06   3.806410e+05   2.840114e+11  -3.780982e+10  -4.654371e+10   1.525146e+06   4.721048e-19   0.000000e+00   0.000000e+00
     2376000   2.375999e-05   1.295120e+01   8.487457e+00   3.677372e+01  -1.107945e+05  -1.473691e+06   3.768705e+05   2.831934e+11  -3.353821e+10  -4.788870e+10   1.525146e+06   4.685101e-19   0.000000e+00   0.000000e+00
     2384000   2.383999e-05   1.294324e+01   8.369459e+00   3.680372e+01  -8.830157e+04  -1.476194e+06   3.729940e+05   2.790814e+11  -2.908297e+10  -4.903020e+10   1.525146e+06   4.546114e-19   0.000000e+00   0.000000e+00
     2392000   2.391999e-05   1.293707e+01   8.251275e+00   3.683340e+01  -6.606146e+04  -1.478353e+06   3.690237e+05   2.766867e+11  -2.489746e+10  -5.020849e+10   1.525146e+06   4.465441e-19   0.000000e+00   0.000000e+00
     2400000   2.399999e-05   1.293267e+01   8.132931e+00   3.686276e+01  -4.402501e+04  -1.480183e+06   3.649558e+05   2.743136e+11  -2.084558e+10  -5.145233e+10   1.525146e+06   4.388873e-19   0.000000e+00   0.000000e+00
     2408000   2.407999e-05   1.293002e+01   8.014454e+00   3.689179e+01  -2.220939e+04  -1.481689e+06   3.607976e+05   2.717544e+11  -1.686818e+10  -5.254228e+10   1.525146e+06   4.308512e-19   0.000000e+00   0.000000e+00
     2416000   2.415999e-05   1.292911e+01   7.895869e+00   3.692049e+01  -5.552930e+02  -1.482883e+06   3.565531e+05   2.690237e+11  -1.299123e+10  -5.360865e+10   1.525146e+06   4.225629e-19   0.000000e+00   0.000000e+00
     2424000   2.423999e-05   1.292992e+01   7.777201e+00   3.694884e+01   2.087433e+04  -1.483770e+06   3.522250e+05   2.663002e+11  -9.207397e+09  -5.456671e+10   1.525146e+06   4.145041e-19   0.000000e+00   0.000000e+00
     2432000   2.431999e-05   1.293244e+01   7.658474e+00   3.697684e+01   4.211889e+04  -1.484357e+06   3.478234e+05   2.651301e+11  -5.476074e+09  -5.547271e+10   1.525146e+06   4.112716e-19   0.000000e+00   0.000000e+00
     2440000   2.439999e-05   1.293666e+01   7.539712e+00   3.700449e+01   6.325174e+04  -1.484649e+06   3.433466e+05   2.627542e+11  -1.859536e+09  -5.644355e+10   1.525146e+06   4.047046e-19   0.000000e+00   0.000000e+00
     2448000   2.447999e-05   1.294256e+01   7.420938e+00   3.703177e+01   8.417334e+04  -1.484657e+06   3.387936e+05   2.600317e+11   1.649541e+09  -5.737425e+10   1.525146e+06   3.973194e-19   0.000000e+00   0.000000e+00
     2456000   2.455999e-05   1.295012e+01   7.302174e+00   3.705869e+01   1.049273e+05  -1.484383e+06   3.341691e+05   2.589289e+11   5.195610e+09  -5.822120e+10   1.525146e+06   3.947965e-19   0.000000e+00   0.000000e+00
     2464000   2.463999e-05   1.295935e+01   7.183444e+00   3.708524e+01   1.256578e+05  -1.483822e+06   3.294773e+05   2.583410e+11   8.768407e+09  -5.903624e+10   1.525146e+06   3.939079e-19   0.000000e+00   0.000000e+00
     2472000   2.471999e-05   1.297022e+01   7.064770e+00   3.711141e+01   1.462271e+05  -1.482985e+06   3.247211e+05   2.554189e+11   1.207896e+10  -5.985312e+10   1.525146e+06   3.864276e-19   0.000000e+00   0.000000e+00
     2480000   2.479999e-05   1.298274e+01   6.946173e+00   3.713719e+01   1.665650e+05  -1.481888e+06   3.199017e+05   2.534698e+11   1.540127e+10  -6.062976e+10   1.525146e+06   3.819052e-19   0.000000e+00   0.000000e+00
     2488000   2.487999e-05   1.299687e+01   6.827675e+00   3.716259e+01   1.868546e+05  -1.480513e+06   3.150218e+05   2.533029e+11   1.891425e+10  -6.135242e+10   1.525147e+06   3.826009e-19   0.000000e+00   0.000000e+00
     2496000   2.495999e-05   1.301263e+01   6.709298e+00   3.718759e+01   2.069984e+05  -1.478874e+06   3.100876e+05   2.499710e+11   2.198556e+10  -6.201170e+10   1.525147e+06   3.743656e-19   0.000000e+00   0.000000e+00
     2504000   2.503999e-05   1.302999e+01   6.591062e+00   3.721220e+01   2.269240e+05  -1.476986e+06   3.051047e+05   2.480280e+11   2.518367e+10  -6.255858e+10   1.525147e+06   3.701702e-19   0.000000e+00   0.000000e+00
     2512000   2.511999e-05   1.304893e+01   6.472987e+00   3.723641e+01   2.467025e+05  -1.474843e+06   3.000778e+05   2.467335e+11   2.842646e+10  -6.313213e+10   1.525147e+06   3.679596e-19   0.000000e+00   0.000000e+00
     2520000   2.519999e-05   1.306946e+01   6.355094e+00   3.726021e+01   2.663683e+05  -1.472444e+06   2.950079e+05   2.448242e+11   3.154414e+10  -6.361114e+10   1.525147e+06   3.640885e-19   0.000000e+00   0.000000e+00
     2528000   2.527999e-05   1.309155e+01   6.237403e+00   3.728361e+01   2.858778e+05  -1.469797e+06   2.899005e+05   2.429609e+11   3.461983e+10  -6.406458e+10   1.525147e+06   3.604605e-19   0.000000e+00   0.000000e+00
     2536000   2.535999e-05   1.311519e+01   6.119933e+00   3.730660e+01   3.052407e+05  -1.466906e+06   2.847601e+05   2.411005e+11   3.766196e+10  -6.442798e+10   1.525147e+06   3.569084e-19   0.000000e+00   0.000000e+00
     2544000   2.543999e-05   1.314038e+01   6.002704e+00   3.732917e+01   3.244722e+05  -1.463768e+06   2.795923e+05   2.400037e+11   4.083644e+10  -6.473282e+10   1.525147e+06   3.555684e-19   0.000000e+00   0.000000e+00
     2552000   2.551999e-05   1.316711e+01   5.885737e+00   3.735133e+01   3.436232e+05  -1.460375e+06   2.744076e+05   2.391901e+11   4.405682e+10  -6.505345e+10   1.525147e+06   3.551494e-19   0.000000e+00   0.000000e+00
     2560000   2.559999e-05   1.319536e+01   5.769051e+00   3.737308e+01   3.626772e+05  -1.456732e+06   2.692004e+05   2.371422e+11   4.701579e+10  -6.506683e+10   1.525147e+06   3.512027e-19   0.000000e+00   0.000000e+00
     2568000   2.567999e-05   1.322513e+01   5.652666e+00   3.739440e+01   3.816006e+05  -1.452848e+06   2.639833e+05   2.361267e+11   5.016117e+10  -6.526520e+10   1.525147e+06   3.503679e-19   0.000000e+00   0.000000e+00
     2576000   2.575999e-05   1.325641e+01   5.536602e+00   3.741531e+01   4.004246e+05  -1.448716e+06   2.587533e+05   2.347336e+11   5.319111e+10  -6.544323e+10   1.525147e+06   3.485773e-19   0.000000e+00   0.000000e+00
     2584000   2.583999e-05   1.328920e+01   5.420879e+00   3.743580e+01   4.191954e+05  -1.444327e+06   2.535106e+05   2.342930e+11   5.649051e+10  -6.557186e+10   1.525147e+06   3.495415e-19   0.000000e+00   0.000000e+00
     2592000   2.591999e-05   1.332348e+01   5.305516e+00   3.745587e+01   4.378590e+05  -1.439693e+06   2.482664e+05   2.323417e+11   5.935589e+10  -6.556687e+10   1.525147e+06   3.462963e-19   0.000000e+00   0.000000e+00
     2600000   2.599999e-05   1.335925e+01   5.190534e+00   3.747553e+01   4.563856e+05  -1.434825e+06   2.430285e+05   2.316920e+11   6.261171e+10  -6.543846e+10   1.525147e+06   3.467370e-19   0.000000e+00   0.000000e+00
     2608000   2.607999e-05   1.339650e+01   5.075952e+00   3.749476e+01   4.748879e+05  -1.429688e+06   2.377942e+05   2.301430e+11   6.556934e+10  -6.538352e+10   1.525147e+06   3.448128e-19   0.000000e+00   0.000000e+00
     2616000   2.615999e-05   1.343523e+01   4.961790e+00   3.751357e+01   4.932961e+05  -1.424304e+06   2.325702e+05   2.294521e+11   6.881978e+10  -6.521437e+10   1.525147e+06   3.453578e-19   0.000000e+00   0.000000e+00
     2624000   2.623999e-05   1.347543e+01   4.848070e+00   3.753197e+01   5.116026e+05  -1.418677e+06   2.273591e+05   2.282311e+11   7.188059e+10  -6.504114e+10   1.525147e+06   3.445131e-19   0.000000e+00   0.000000e+00
     2632000   2.631999e-05   1.351709e+01   4.734809e+00   3.754995e+01   5.298652e+05  -1.412784e+06   2.221632e+05   2.278587e+11   7.526656e+10  -6.480968e+10   1.525147e+06   3.461840e-19   0.000000e+00   0.000000e+00
     2640000   2.639999e-05   1.356021e+01   4.622032e+00   3.756752e+01   5.481425e+05  -1.406602e+06   2.169900e+05   2.280609e+11   7.892210e+10  -6.450672e+10   1.525147e+06   3.496401e-19   0.000000e+00   0.000000e+00
     2648000   2.647999e-05   1.360478e+01   4.509758e+00   3.758467e+01   5.662500e+05  -1.400198e+06   2.118464e+05   2.259600e+11   8.167517e+10  -6.413991e+10   1.525147e+06   3.465084e-19   0.000000e+00   0.000000e+00
     2656000   2.655999e-05   1.365080e+01   4.398007e+00   3.760141e+01   5.842659e+05  -1.393545e+06   2.067306e+05   2.248162e+11   8.480470e+10  -6.371886e+10   1.525147e+06   3.462369e-19   0.000000e+00   0.000000e+00
     2664000   2.663999e-05   1.369826e+01   4.286798e+00   3.761775e+01   6.022035e+05  -1.386636e+06   2.016509e+05   2.232437e+11   8.775678e+10  -6.323207e+10   1.525147e+06   3.447969e-19   0.000000e+00   0.000000e+00
     2672000   2.671999e-05   1.374716e+01   4.176152e+00   3.763368e+01   6.200600e+05  -1.379472e+06   1.966107e+05   2.226074e+11   9.111850e+10  -6.273274e+10   1.525147e+06   3.462246e-19   0.000000e+00   0.000000e+00
     2680000   2.679999e-05   1.379747e+01   4.066089e+00   3.764921e+01   6.378196e+05  -1.372057e+06   1.916184e+05   2.215534e+11   9.432653e+10  -6.204539e+10   1.525147e+06   3.464540e-19   0.000000e+00   0.000000e+00
     2688000   2.687999e-05   1.384920e+01   3.956629e+00   3.766434e+01   6.554878e+05  -1.364391e+06   1.866734e+05   2.205964e+11   9.756908e+10  -6.147242e+10   1.525147e+06   3.471729e-19   0.000000e+00   0.000000e+00
     2696000   2.695999e-05   1.390235e+01   3.847793e+00   3.767908e+01   6.730574e+05  -1.356475e+06   1.817791e+05   2.198173e+11   1.009149e+11  -6.084578e+10   1.525147e+06   3.485420e-19   0.000000e+00   0.000000e+00
     2704000   2.703999e-05   1.395689e+01   3.739601e+00   3.769342e+01   6.905790e+05  -1.348283e+06   1.769368e+05   2.185275e+11   1.040277e+11  -6.019682e+10   1.525147e+06   3.485082e-19   0.000000e+00   0.000000e+00
     2712000   2.711999e-05   1.401284e+01   3.632076e+00   3.770739e+01   7.080472e+05  -1.339816e+06   1.721526e+05   2.178765e+11   1.075032e+11  -5.943432e+10   1.525147e+06   3.505244e-19   0.000000e+00   0.000000e+00
     2720000   2.719999e-05   1.407018e+01   3.525238e+00   3.772097e+01   7.254388e+05  -1.331082e+06   1.674294e+05   2.168260e+11   1.107950e+11  -5.862817e+10   1.525147e+06   3.514591e-19   0.000000e+00   0.000000e+00
     2728000   2.727999e-05   1.412891e+01   3.419109e+00   3.773418e+01   7.427098e+05  -1.322104e+06   1.627737e+05   2.151397e+11   1.137490e+11  -5.773446e+10   1.525147e+06   3.505118e-19   0.000000e+00   0.000000e+00
     2736000   2.735999e-05   1.418901e+01   3.313708e+00   3.774702e+01   7.598638e+05  -1.312881e+06   1.581929e+05   2.140135e+11   1.170243e+11  -5.677588e+10   1.525147e+06   3.514234e-19   0.000000e+00   0.000000e+00
     2744000   2.743999e-05   1.425048e+01   3.209056e+00   3.775949e+01   7.769721e+05  -1.303368e+06   1.536911e+05   2.138817e+11   1.209199e+11  -5.580321e+10   1.525147e+06   3.556872e-19   0.000000e+00   0.000000e+00
     2752000   2.751999e-05   1.431332e+01   3.105176e+00   3.777161e+01   7.940076e+05  -1.293578e+06   1.492729e+05   2.128024e+11   1.243004e+11  -5.475743e+10   1.525147e+06   3.571043e-19   0.000000e+00   0.000000e+00
     2760000   2.759999e-05   1.437752e+01   3.002090e+00   3.778338e+01   8.109557e+05  -1.283518e+06   1.449367e+05   2.110856e+11   1.273055e+11  -5.368933e+10   1.525147e+06   3.566142e-19   0.000000e+00   0.000000e+00
     2768000   2.767999e-05   1.444307e+01   2.899819e+00   3.779480e+01   8.278091e+05  -1.273191e+06   1.406782e+05   2.093123e+11   1.302668e+11  -5.271252e+10   1.525147e+06   3.561281e-19   0.000000e+00   0.000000e+00
     2776000   2.775999e-05   1.450997e+01   2.798385e+00   3.780589e+01   8.445618e+05  -1.262599e+06   1.365066e+05   2.091151e+11   1.343011e+11  -5.158396e+10   1.525147e+06   3.609871e-19   0.000000e+00   0.000000e+00
     2784000   2.783999e-05   1.457820e+01   2.697811e+00   3.781664e+01   8.612461e+05  -1.251716e+06   1.324252e+05   2.088642e+11   1.383747e+11  -5.042156e+10   1.525147e+06   3.659585e-19   0.000000e+00   0.000000e+00
     2792000   2.791999e-05   1.464777e+01   2.598120e+00   3.782708e+01   8.779043e+05  -1.240509e+06   1.284347e+05   2.078698e+11   1.420098e+11  -4.924455e+10   1.525147e+06   3.686904e-19   0.000000e+00   0.000000e+00
     2800000   2.799999e-05   1.471866e+01   2.499338e+00   3.783720e+01   8.944945e+05  -1.229000e+06   1.245442e+05   2.069054e+11   1.457229e+11  -4.802791e+10   1.525147e+06   3.717725e-19   0.000000e+00   0.000000e+00
     2808000   2.807999e-05   1.479088e+01   2.401487e+00   3.784701e+01   9.109610e+05  -1.217227e+06   1.207554e+05   2.047563e+11   1.486053e+11  -4.668958e+10   1.525147e+06   3.708588e-19   0.000000e+00   0.000000e+00
     2816000   2.815999e-05   1.486441e+01   2.304589e+00   3.785652e+01   9.273196e+05  -1.205175e+06   1.170713e+05   2.039589e+11   1.525243e+11  -4.540787e+10   1.525147e+06   3.749830e-19   0.000000e+00   0.000000e+00
     2824000   2.823999e-05   1.493925e+01   2.208667e+00   3.786574e+01   9.435918e+05  -1.192824e+06   1.134915e+05   2.028934e+11   1.563045e+11  -4.409277e+10   1.525147e+06   3.784359e-19   0.000000e+00   0.000000e+00
     2832000   2.831999e-05   1.501538e+01   2.113744e+00   3.787468e+01   9.597331e+05  -1.180204e+06   1.100270e+05   2.014810e+11   1.598571e+11  -4.274824e+10   1.525147e+06   3.808750e-19   0.000000e+00   0.000000e+00
     2840000   2.839999e-05   1.509280e+01   2.019843e+00   3.788335e+01   9.757933e+05  -1.167272e+06   1.066687e+05   2.002879e+11   1.636584e+11  -4.129627e+10   1.525147e+06   3.843957e-19   0.000000e+00   0.000000e+00
     2848000   2.847999e-05   1.517151e+01   1.926990e+00   3.789175e+01   9.918032e+05  -1.153995e+06   1.034260e+05   1.998108e+11   1.681621e+11  -3.977830e+10   1.525147e+06   3.910099e-19   0.000000e+00   0.000000e+00
     2856000   2.855999e-05   1.525149e+01   1.835212e+00   3.789990e+01   1.007720e+06  -1.140401e+06   1.002995e+05   1.982081e+11   1.717754e+11  -3.833331e+10   1.525147e+06   3.936857e-19   0.000000e+00   0.000000e+00
     2864000   2.863999e-05   1.533274e+01   1.744534e+00   3.790780e+01   1.023523e+06  -1.126505e+06   9.727698e+04   1.967416e+11   1.755531e+11  -3.708402e+10   1.525147e+06   3.972642e-19   0.000000e+00   0.000000e+00
     2872000   2.871999e-05   1.541525e+01   1.654980e+00   3.791547e+01   1.039212e+06  -1.112298e+06   9.437160e+04   1.953153e+11   1.794573e+11  -3.563914e+10   1.525147e+06   4.013082e-19   0.000000e+00   0.000000e+00
     2880000   2.879999e-05   1.549901e+01   1.566574e+00   3.792291e+01   1.054790e+06  -1.097773e+06   9.158344e+04   1.941160e+11   1.836781e+11  -3.400275e+10   1.525147e+06   4.066408e-19   0.000000e+00   0.000000e+00
     2888000   2.887999e-05   1.558401e+01   1.479344e+00   3.793012e+01   1.070257e+06  -1.082922e+06   8.891182e+04   1.926685e+11   1.877437e+11  -3.252974e+10   1.525147e+06   4.114157e-19   0.000000e+00   0.000000e+00
     2896000   2.895999e-05   1.567025e+01   1.393315e+00   3.793713e+01   1.085582e+06  -1.067768e+06   8.636363e+04   1.906725e+11   1.913422e+11  -3.103977e+10   1.525147e+06   4.142412e-19   0.000000e+00   0.000000e+00
     2904000   2.903999e-05   1.575770e+01   1.308510e+00   3.794395e+01   1.100761e+06  -1.052309e+06   8.393625e+04   1.888533e+11   1.951845e+11  -2.963031e+10   1.525147e+06   4.182147e-19   0.000000e+00   0.000000e+00
     2912000   2.911999e-05   1.584637e+01   1.224953e+00   3.795057e+01   1.115793e+06  -1.036541e+06   8.162710e+04   1.872863e+11   1.993907e+11  -2.811958e+10   1.525147e+06   4.237227e-19   0.000000e+00   0.000000e+00
     2920000   2.919999e-05   1.593623e+01   1.142672e+00   3.795701e+01   1.130693e+06  -1.020439e+06   7.944161e+04   1.857887e+11   2.037931e+11  -2.657117e+10   1.525147e+06   4.300628e-19   0.000000e+00   0.000000e+00
     2928000   2.927999e-05   1.602727e+01   1.061693e+00   3.796328e+01   1.145482e+06  -1.003971e+06   7.738064e+04   1.840960e+11   2.081202e+11  -2.495946e+10   1.525147e+06   4.360762e-19   0.000000e+00   0.000000e+00
     2936000   2.935999e-05   1.611950e+01   9.820461e-01   3.796939e+01   1.160140e+06  -9.871469e+05   7.544477e+04   1.822017e+11   2.123403e+11  -2.342937e+10   1.525147e+06   4.417155e-19   0.000000e+00   0.000000e+00
     2944000   2.943999e-05   1.621289e+01   9.037586e-01   3.797536e+01   1.174644e+06  -9.699823e+05   7.363117e+04   1.802235e+11   2.165879e+11  -2.188100e+10   1.525147e+06   4.475139e-19   0.000000e+00   0.000000e+00
     2952000   2.951999e-05   1.630744e+01   8.268574e-01   3.798118e+01   1.188975e+06  -9.524907e+05   7.193750e+04   1.780616e+11   2.207339e+11  -2.033753e+10   1.525148e+06   4.529678e-19   0.000000e+00   0.000000e+00
     2960000   2.959999e-05   1.640312e+01   7.513688e-01   3.798687e+01   1.203127e+06  -9.346700e+05   7.036837e+04   1.756408e+11   2.246727e+11  -1.879672e+10   1.525148e+06   4.576619e-19   0.000000e+00   0.000000e+00
     2968000   2.967999e-05   1.649993e+01   6.773193e-01   3.799244e+01   1.217115e+06  -9.164904e+05   6.892441e+04   1.742785e+11   2.301371e+11  -1.737828e+10   1.525148e+06   4.686286e-19   0.000000e+00   0.000000e+00
     2976000   2.975999e-05   1.659786e+01   6.047392e-01   3.799790e+01   1.230935e+06  -8.979442e+05   6.760628e+04   1.718016e+11   2.343271e+11  -1.572294e+10   1.525148e+06   4.744225e-19   0.000000e+00   0.000000e+00
     2984000   2.983999e-05   1.669688e+01   5.336577e-01   3.800326e+01   1.244568e+06  -8.790431e+05   6.640344e+04   1.690478e+11   2.382610e+11  -1.428999e+10   1.525148e+06   4.793394e-19   0.000000e+00   0.000000e+00
     2992000   2.991999e-05   1.679698e+01   4.641017e-01   3.800853e+01   1.257998e+06  -8.597957e+05   6.532019e+04   1.666841e+11   2.429088e+11  -1.279111e+10   1.525148e+06   4.871958e-19   0.000000e+00   0.000000e+00
     3000000   2.999999e-05   1.689815e+01   3.961004e-01   3.801371e+01   1.271234e+06  -8.401778e+05   6.435687e+04   1.640730e+11   2.473838e+11  -1.130819e+10   1.525148e+06   4.944501e-19   0.000000e+00   0.000000e+00
     3008000   3.007999e-05   1.700037e+01   3.296826e-01   3.801883e+01   1.284250e+06  -8.202091e+05   6.351469e+04   1.613971e+11   2.519524e+11  -9.758030e+09   1.525148e+06   5.021697e-19   0.000000e+00   0.000000e+00
     3016000   3.015999e-05   1.710363e+01   2.648764e-01   3.802388e+01   1.297038e+06  -7.998913e+05   6.279233e+04   1.584027e+11   2.561983e+11  -8.321582e+09   1.525148e+06   5.087474e-19   0.000000e+00   0.000000e+00
     3024000   3.023999e-05   1.720789e+01   2.017097e-01   3.802888e+01   1.309592e+06  -7.792160e+05   6.218145e+04   1.554524e+11   2.607076e+11  -6.927205e+09   1.525148e+06   5.164998e-19   0.000000e+00   0.000000e+00
     3032000   3.031999e-05   1.731316e+01   1.402114e-01   3.803383e+01   1.321904e+06  -7.581831e+05   6.168217e+04   1.523542e+11   2.651812e+11  -5.523554e+09   1.525148e+06   5.242409e-19   0.000000e+00   0.000000e+00
     3040000   3.039999e-05   1.741939e+01   8.040980e-02   3.803875e+01   1.333958e+06  -7.368001e+05   6.129454e+04   1.490159e+11   2.694422e+11  -4.159712e+09   1.525148e+06   5.312934e-19   0.000000e+00   0.000000e+00
     3048000   3.047999e-05   1.752658e+01   2.233271e-02   3.804364e+01   1.345743e+06  -7.150731e+05   6.101618e+04   1.454825e+11   2.735520e+11  -2.808540e+09   1.525148e+06   5.379140e-19   0.000000e+00   0.000000e+00
