     timestep     time              x             y              z              vx             vy             vz             ax             ay             az         v_magnitude      ELoss        Electronic      Nuclear
           0   0.000000e+00   1.000000e-01   2.039495e+01   1.402477e+01   4.476614e+05   2.615545e+06   8.420931e+05   0.000000e+00   0.000000e+00   0.000000e+00   2.783989e+06   0.000000e+00   0.000000e+00   0.000000e+00
        8000   7.999000e-08   1.358129e-01   2.060420e+01   1.409214e+01   4.476614e+05   2.615545e+06   8.420931e+05   0.000000e+00   0.000000e+00   0.000000e+00   2.783989e+06   0.000000e+00   0.000000e+00   0.000000e+00
       16000   1.599900e-07   1.716258e-01   2.081344e+01   1.415951e+01   4.476614e+05   2.615545e+06   8.420931e+05   0.000000e+00   0.000000e+00   0.000000e+00   2.783989e+06   0.000000e+00   0.000000e+00   0.000000e+00
       24000   2.399900e-07   2.074387e-01   2.102268e+01   1.422687e+01   4.476614e+05   2.615545e+06   8.420931e+05   0.000000e+00   0.000000e+00   0.000000e+00   2.783989e+06   0.000000e+00   0.000000e+00   0.000000e+00
       32000   3.199900e-07   2.432516e-01   2.123193e+01   1.429424e+01   4.476614e+05   2.615545e+06   8.420931e+05   0.000000e+00   0.000000e+00   0.000000e+00   2.783989e+06   0.000000e+00   0.000000e+00   0.000000e+00
       40000   3.999900e-07   2.790646e-01   2.144117e+01   1.436161e+01   4.476614e+05   2.615545e+06   8.420931e+05   0.000000e+00   0.000000e+00   0.000000e+00   2.783989e+06   0.000000e+00   0.000000e+00   0.000000e+00
       48000   4.799900e-07   3.148775e-01   2.165041e+01   1.442898e+01   4.476614e+05   2.615545e+06   8.420931e+05   0.000000e+00   0.000000e+00   0.000000e+00   2.783989e+06   0.000000e+00   0.000000e+00   0.000000e+00
       56000   5.599900e-07   3.506904e-01   2.185966e+01   1.449634e+01   4.476614e+05   2.615545e+06   8.420931e+05   0.000000e+00   0.000000e+00   0.000000e+00   2.783989e+06   0.000000e+00   0.000000e+00   0.000000e+00
       64000   6.399900e-07   3.865033e-01   2.206890e+01   1.456371e+01   4.476614e+05   2.615545e+06   8.420931e+05   0.000000e+00   0.000000e+00   0.000000e+00   2.783989e+06   0.000000e+00   0.000000e+00   0.000000e+00
       72000   7.199900e-07   4.223162e-01   2.227815e+01   1.463108e+01   4.476614e+05   2.615545e+06   8.420931e+05   0.000000e+00   0.000000e+00   0.000000e+00   2.783989e+06   0.000000e+00   0.000000e+00   0.000000e+00
       80000   7.999900e-07   4.581291e-01   2.248739e+01   1.469845e+01   4.476614e+05   2.615545e+06   8.420931e+05   0.000000e+00   0.000000e+00   0.000000e+00   2.783989e+06   0.000000e+00   0.000000e+00   0.000000e+00
       88000   8.799900e-07   4.939420e-01   2.269663e+01   1.476581e+01   4.476614e+05   2.615545e+06   8.420931e+05   0.000000e+00   0.000000e+00   0.000000e+00   2.783989e+06   0.000000e+00   0.000000e+00   0.000000e+00
       96000   9.599900e-07   5.297549e-01   2.290588e+01   1.483318e+01   4.476614e+05   2.615545e+06   8.420931e+05   0.000000e+00   0.000000e+00   0.000000e+00   2.783989e+06   0.000000e+00   0.000000e+00   0.000000e+00
      104000   1.039990e-06   5.655679e-01   2.311512e+01   1.490055e+01   4.476614e+05   2.615545e+06   8.420931e+05   0.000000e+00   0.000000e+00   0.000000e+00   2.783989e+06   0.000000e+00   0.000000e+00   0.000000e+00
      112000   1.119990e-06   6.013808e-01   2.332436e+01   1.496792e+01   4.476614e+05   2.615545e+06   8.420931e+05   0.000000e+00   0.000000e+00   0.000000e+00   2.783989e+06   0.000000e+00   0.000000e+00   0.000000e+00
      120000   1.199990e-06   6.371937e-01   2.353361e+01   1.503528e+01   4.476614e+05   2.615545e+06   8.420931e+05   0.000000e+00   0.000000e+00   0.000000e+00   2.783989e+06   0.000000e+00   0.000000e+00   0.000000e+00
      128000   1.279990e-06   6.730066e-01   2.374285e+01   1.510265e+01   4.476614e+05   2.615545e+06   8.420931e+05   0.000000e+00   0.000000e+00   0.000000e+00   2.783989e+06   0.000000e+00   0.000000e+00   0.000000e+00
      136000   1.359990e-06   7.088195e-01   2.395209e+01   1.517002e+01   4.476614e+05   2.615545e+06   8.420931e+05   0.000000e+00   0.000000e+00   0.000000e+00   2.783989e+06   0.000000e+00   0.000000e+00   0.000000e+00
      144000   1.439990e-06   7.446324e-01   2.416134e+01   1.523739e+01   4.476614e+05   2.615545e+06   8.420931e+05   0.000000e+00   0.000000e+00   0.000000e+00   2.783989e+06   0.000000e+00   0.000000e+00   0.000000e+00
      152000   1.519990e-06   7.804453e-01   2.437058e+01   1.530475e+01   4.476614e+05   2.615545e+06   8.420931e+05   0.000000e+00   0.000000e+00   0.000000e+00   2.783989e+06   0.000000e+00   0.000000e+00   0.000000e+00
      160000   1.599990e-06   8.162582e-01   2.457982e+01   1.537212e+01   4.476614e+05   2.615545e+06   8.420931e+05   0.000000e+00   0.000000e+00   0.000000e+00   2.783989e+06   0.000000e+00   0.000000e+00   0.000000e+00
      168000   1.679990e-06   8.520711e-01   2.478907e+01   1.543949e+01   4.476614e+05   2.615545e+06   8.420931e+05   0.000000e+00   0.000000e+00   0.000000e+00   2.783989e+06   0.000000e+00   0.000000e+00   0.000000e+00
      176000   1.759990e-06   8.878841e-01   2.499831e+01   1.550686e+01   4.476614e+05   2.615545e+06   8.420931e+05   0.000000e+00   0.000000e+00   0.000000e+00   2.783989e+06   0.000000e+00   0.000000e+00   0.000000e+00
      184000   1.839990e-06   9.236970e-01   2.520756e+01   1.557422e+01   4.476614e+05   2.615545e+06   8.420931e+05   0.000000e+00   0.000000e+00   0.000000e+00   2.783989e+06   0.000000e+00   0.000000e+00   0.000000e+00
      192000   1.919990e-06   9.595099e-01   2.541680e+01   1.564159e+01   4.476614e+05   2.615545e+06   8.420931e+05   0.000000e+00   0.000000e+00   0.000000e+00   2.783989e+06   0.000000e+00   0.000000e+00   0.000000e+00
      200000   1.999990e-06   9.953228e-01   2.562604e+01   1.570896e+01   4.476614e+05   2.615545e+06   8.420931e+05   0.000000e+00   0.000000e+00   0.000000e+00   2.783989e+06   0.000000e+00   0.000000e+00   0.000000e+00
      208000   2.079990e-06   1.031136e+00   2.583529e+01   1.577633e+01   4.476614e+05   2.615545e+06   8.420931e+05   0.000000e+00   0.000000e+00   0.000000e+00   2.783989e+06   0.000000e+00   0.000000e+00   0.000000e+00
      216000   2.159990e-06   1.066949e+00   2.604453e+01   1.584369e+01   4.476614e+05   2.615545e+06   8.420931e+05   0.000000e+00   0.000000e+00   0.000000e+00   2.783989e+06   0.000000e+00   0.000000e+00   0.000000e+00
      224000   2.239990e-06   1.102762e+00   2.625377e+01   1.591106e+01   4.476614e+05   2.615545e+06   8.420931e+05   0.000000e+00   0.000000e+00   0.000000e+00   2.783989e+06   0.000000e+00   0.000000e+00   0.000000e+00
      232000   2.319990e-06   1.138574e+00   2.646302e+01   1.597843e+01   4.476614e+05   2.615545e+06   8.420931e+05   0.000000e+00   0.000000e+00   0.000000e+00   2.783989e+06   0.000000e+00   0.000000e+00   0.000000e+00
      240000   2.399990e-06   1.174387e+00   2.667226e+01   1.604580e+01   4.476614e+05   2.615545e+06   8.420931e+05   0.000000e+00   0.000000e+00   0.000000e+00   2.783989e+06   0.000000e+00   0.000000e+00   0.000000e+00
      248000   2.479990e-06   1.210200e+00   2.688150e+01   1.611316e+01   4.476614e+05   2.615545e+06   8.420931e+05   0.000000e+00   0.000000e+00   0.000000e+00   2.783989e+06   0.000000e+00   0.000000e+00   0.000000e+00
      256000   2.559990e-06   1.246013e+00   2.709075e+01   1.618053e+01   4.476614e+05   2.615545e+06   8.420931e+05   0.000000e+00   0.000000e+00   0.000000e+00   2.783989e+06   0.000000e+00   0.000000e+00   0.000000e+00
      264000   2.639990e-06   1.281826e+00   2.729999e+01   1.624790e+01   4.476614e+05   2.615545e+06   8.420931e+05   0.000000e+00   0.000000e+00   0.000000e+00   2.783989e+06   0.000000e+00   0.000000e+00   0.000000e+00
      272000   2.719990e-06   1.317639e+00   2.750923e+01   1.631527e+01   4.476614e+05   2.615545e+06   8.420931e+05   0.000000e+00   0.000000e+00   0.000000e+00   2.783989e+06   0.000000e+00   0.000000e+00   0.000000e+00
      280000   2.799990e-06   1.353452e+00   2.771848e+01   1.638263e+01   4.476614e+05   2.615545e+06   8.420931e+05   0.000000e+00   0.000000e+00   0.000000e+00   2.783989e+06   0.000000e+00   0.000000e+00   0.000000e+00
      288000   2.879990e-06   1.389265e+00   2.792772e+01   1.645000e+01   4.476614e+05   2.615545e+06   8.420931e+05   0.000000e+00   0.000000e+00   0.000000e+00   2.783989e+06   0.000000e+00   0.000000e+00   0.000000e+00
      296000   2.959990e-06   1.425078e+00   2.813697e+01   1.651737e+01   4.476614e+05   2.615545e+06   8.420931e+05   0.000000e+00   0.000000e+00   0.000000e+00   2.783989e+06   0.000000e+00   0.000000e+00   0.000000e+00
      304000   3.039990e-06   1.460891e+00   2.834621e+01   1.658474e+01   4.476614e+05   2.615545e+06   8.420931e+05   0.000000e+00   0.000000e+00   0.000000e+00   2.783989e+06   0.000000e+00   0.000000e+00   0.000000e+00
      312000   3.119990e-06   1.496704e+00   2.855545e+01   1.665210e+01   4.476614e+05   2.615545e+06   8.420931e+05   0.000000e+00   0.000000e+00   0.000000e+00   2.783989e+06   0.000000e+00   0.000000e+00   0.000000e+00
      320000   3.199990e-06   1.532516e+00   2.876470e+01   1.671947e+01   4.476614e+05   2.615545e+06   8.420931e+05   0.000000e+00   0.000000e+00   0.000000e+00   2.783989e+06   0.000000e+00   0.000000e+00   0.000000e+00
      328000   3.279990e-06   1.568329e+00   2.897394e+01   1.678684e+01   4.476614e+05   2.615545e+06   8.420931e+05   0.000000e+00   0.000000e+00   0.000000e+00   2.783989e+06   0.000000e+00   0.000000e+00   0.000000e+00
      336000   3.359990e-06   1.604142e+00   2.918318e+01   1.685420e+01   4.476614e+05   2.615545e+06   8.420931e+05   0.000000e+00   0.000000e+00   0.000000e+00   2.783989e+06   0.000000e+00   0.000000e+00   0.000000e+00
      344000   3.439990e-06   1.639955e+00   2.939243e+01   1.692157e+01   4.476614e+05   2.615545e+06   8.420931e+05   0.000000e+00   0.000000e+00   0.000000e+00   2.783989e+06   0.000000e+00   0.000000e+00   0.000000e+00
      352000   3.519990e-06   1.675768e+00   2.960167e+01   1.698894e+01   4.476614e+05   2.615545e+06   8.420931e+05   0.000000e+00   0.000000e+00   0.000000e+00   2.783989e+06   0.000000e+00   0.000000e+00   0.000000e+00
      360000   3.599990e-06   1.711581e+00   2.981091e+01   1.705631e+01   4.476614e+05   2.615545e+06   8.420931e+05   0.000000e+00   0.000000e+00   0.000000e+00   2.783989e+06   0.000000e+00   0.000000e+00   0.000000e+00
      368000   3.679990e-06   1.747394e+00   3.002016e+01   1.712367e+01   4.476614e+05   2.615545e+06   8.420931e+05   0.000000e+00   0.000000e+00   0.000000e+00   2.783989e+06   0.000000e+00   0.000000e+00   0.000000e+00
      376000   3.759990e-06   1.783207e+00   3.022940e+01   1.719104e+01   4.476614e+05   2.615545e+06   8.420931e+05   0.000000e+00   0.000000e+00   0.000000e+00   2.783989e+06   0.000000e+00   0.000000e+00   0.000000e+00
      384000   3.839990e-06   1.819020e+00   3.043864e+01   1.725841e+01   4.476614e+05   2.615545e+06   8.420931e+05   0.000000e+00   0.000000e+00   0.000000e+00   2.783989e+06   0.000000e+00   0.000000e+00   0.000000e+00
      392000   3.919990e-06   1.854833e+00   3.064789e+01   1.732578e+01   4.476614e+05   2.615545e+06   8.420931e+05   0.000000e+00   0.000000e+00   0.000000e+00   2.783989e+06   0.000000e+00   0.000000e+00   0.000000e+00
      400000   3.999990e-06   1.890646e+00   3.085713e+01   1.739314e+01   4.476614e+05   2.615545e+06   8.420931e+05   0.000000e+00   0.000000e+00   0.000000e+00   2.783989e+06   0.000000e+00   0.000000e+00   0.000000e+00
      408000   4.079990e-06   1.926459e+00   3.106638e+01   1.746051e+01   4.476614e+05   2.615545e+06   8.420931e+05   0.000000e+00   0.000000e+00   0.000000e+00   2.783989e+06   0.000000e+00   0.000000e+00   0.000000e+00
      416000   4.159990e-06   1.962271e+00   3.127562e+01   1.752788e+01   4.476614e+05   2.615545e+06   8.420931e+05   0.000000e+00   0.000000e+00   0.000000e+00   2.783989e+06   0.000000e+00   0.000000e+00   0.000000e+00
      424000   4.239990e-06   1.998084e+00   3.148486e+01   1.759525e+01   4.476614e+05   2.615545e+06   8.420931e+05   0.000000e+00   0.000000e+00   0.000000e+00   2.783989e+06   0.000000e+00   0.000000e+00   0.000000e+00
      432000   4.319990e-06   2.033897e+00   3.169411e+01   1.766261e+01   4.476614e+05   2.615545e+06   8.420931e+05   0.000000e+00   0.000000e+00   0.000000e+00   2.783989e+06   0.000000e+00   0.000000e+00   0.000000e+00
      440000   4.399990e-06   2.069710e+00   3.190335e+01   1.772998e+01   4.476614e+05   2.615545e+06   8.420931e+05   0.000000e+00   0.000000e+00   0.000000e+00   2.783989e+06   0.000000e+00   0.000000e+00   0.000000e+00
      448000   4.479990e-06   2.105523e+00   3.211259e+01   1.779735e+01   4.476614e+05   2.615545e+06   8.420931e+05   0.000000e+00   0.000000e+00   0.000000e+00   2.783989e+06   0.000000e+00   0.000000e+00   0.000000e+00
      456000   4.559990e-06   2.141336e+00   3.232184e+01   1.786472e+01   4.476614e+05   2.615545e+06   8.420931e+05   0.000000e+00   0.000000e+00   0.000000e+00   2.783989e+06   0.000000e+00   0.000000e+00   0.000000e+00
      464000   4.639990e-06   2.177149e+00   3.253108e+01   1.793208e+01   4.476614e+05   2.615545e+06   8.420931e+05   0.000000e+00   0.000000e+00   0.000000e+00   2.783989e+06   0.000000e+00   0.000000e+00   0.000000e+00
      472000   4.719990e-06   2.212962e+00   3.274032e+01   1.799945e+01   4.476614e+05   2.615545e+06   8.420931e+05   0.000000e+00   0.000000e+00   0.000000e+00   2.783989e+06   0.000000e+00   0.000000e+00   0.000000e+00
      480000   4.799990e-06   2.248775e+00   3.294957e+01   1.806682e+01   4.476614e+05   2.615545e+06   8.420931e+05   0.000000e+00   0.000000e+00   0.000000e+00   2.783989e+06   0.000000e+00   0.000000e+00   0.000000e+00
      488000   4.879990e-06   2.284588e+00   3.315881e+01   1.813419e+01   4.476614e+05   2.615545e+06   8.420931e+05   0.000000e+00   0.000000e+00   0.000000e+00   2.783989e+06   0.000000e+00   0.000000e+00   0.000000e+00
      496000   4.959990e-06   2.320401e+00   3.336805e+01   1.820155e+01   4.476614e+05   2.615545e+06   8.420931e+05   0.000000e+00   0.000000e+00   0.000000e+00   2.783989e+06   0.000000e+00   0.000000e+00   0.000000e+00
      504000   5.039990e-06   2.356213e+00   3.357730e+01   1.826892e+01   4.476614e+05   2.615545e+06   8.420931e+05   0.000000e+00   0.000000e+00   0.000000e+00   2.783989e+06   0.000000e+00   0.000000e+00   0.000000e+00
      512000   5.119990e-06   2.392026e+00   3.378654e+01   1.833629e+01   4.476614e+05   2.615545e+06   8.420931e+05   0.000000e+00   0.000000e+00   0.000000e+00   2.783989e+06   0.000000e+00   0.000000e+00   0.000000e+00
      520000   5.199990e-06   2.427839e+00   3.399579e+01   1.840366e+01   4.476614e+05   2.615545e+06   8.420931e+05   0.000000e+00   0.000000e+00   0.000000e+00   2.783989e+06   0.000000e+00   0.000000e+00   0.000000e+00
      528000   5.279990e-06   2.463652e+00   3.420503e+01   1.847102e+01   4.476614e+05   2.615545e+06   8.420931e+05   0.000000e+00   0.000000e+00   0.000000e+00   2.783989e+06   0.000000e+00   0.000000e+00   0.000000e+00
      536000   5.359990e-06   2.499465e+00   3.441427e+01   1.853839e+01   4.476614e+05   2.615545e+06   8.420931e+05   0.000000e+00   0.000000e+00   0.000000e+00   2.783989e+06   0.000000e+00   0.000000e+00   0.000000e+00
      544000   5.439990e-06   2.535278e+00   3.462352e+01   1.860576e+01   4.476614e+05   2.615545e+06   8.420931e+05   0.000000e+00   0.000000e+00   0.000000e+00   2.783989e+06   0.000000e+00   0.000000e+00   0.000000e+00
      552000   5.519990e-06   2.571091e+00   3.483276e+01   1.867313e+01   4.476614e+05   2.615545e+06   8.420931e+05   0.000000e+00   0.000000e+00   0.000000e+00   2.783989e+06   0.000000e+00   0.000000e+00   0.000000e+00
      560000   5.599990e-06   2.606904e+00   3.504200e+01   1.874049e+01   4.476614e+05   2.615545e+06   8.420931e+05   0.000000e+00   0.000000e+00   0.000000e+00   2.783989e+06   0.000000e+00   0.000000e+00   0.000000e+00
      568000   5.679990e-06   2.642717e+00   3.525125e+01   1.880786e+01   4.476614e+05   2.615545e+06   8.420931e+05   0.000000e+00   0.000000e+00   0.000000e+00   2.783989e+06   0.000000e+00   0.000000e+00   0.000000e+00
      576000   5.759990e-06   2.678530e+00   3.546049e+01   1.887523e+01   4.476614e+05   2.615545e+06   8.420931e+05   0.000000e+00   0.000000e+00   0.000000e+00   2.783989e+06   0.000000e+00   0.000000e+00   0.000000e+00
      584000   5.839990e-06   2.714343e+00   3.566973e+01   1.894260e+01   4.476614e+05   2.615545e+06   8.420931e+05   0.000000e+00   0.000000e+00   0.000000e+00   2.783989e+06   0.000000e+00   0.000000e+00   0.000000e+00
      592000   5.919990e-06   2.750155e+00   3.587898e+01   1.900996e+01   4.476614e+05   2.615545e+06   8.420931e+05   0.000000e+00   0.000000e+00   0.000000e+00   2.783989e+06   0.000000e+00   0.000000e+00   0.000000e+00
      600000   5.999990e-06   2.785968e+00   3.608822e+01   1.907733e+01   4.476614e+05   2.615545e+06   8.420931e+05   0.000000e+00   0.000000e+00   0.000000e+00   2.783989e+06   0.000000e+00   0.000000e+00   0.000000e+00
      608000   6.079990e-06   2.821781e+00   3.629746e+01   1.914470e+01   4.476614e+05   2.615545e+06   8.420931e+05   0.000000e+00   0.000000e+00   0.000000e+00   2.783989e+06   0.000000e+00   0.000000e+00   0.000000e+00
      616000   6.159990e-06   2.857594e+00   3.650671e+01   1.921207e+01   4.476614e+05   2.615545e+06   8.420931e+05   0.000000e+00   0.000000e+00   0.000000e+00   2.783989e+06   0.000000e+00   0.000000e+00   0.000000e+00
      624000   6.239990e-06   2.893407e+00   3.671595e+01   1.927943e+01   4.476614e+05   2.615545e+06   8.420931e+05   0.000000e+00   0.000000e+00   0.000000e+00   2.783989e+06   0.000000e+00   0.000000e+00   0.000000e+00
      632000   6.319990e-06   2.929220e+00   3.692520e+01   1.934680e+01   4.476614e+05   2.615545e+06   8.420931e+05   0.000000e+00   0.000000e+00   0.000000e+00   2.783989e+06   0.000000e+00   0.000000e+00   0.000000e+00
      640000   6.399990e-06   2.965033e+00   3.713444e+01   1.941417e+01   4.476614e+05   2.615545e+06   8.420931e+05   0.000000e+00   0.000000e+00   0.000000e+00   2.783989e+06   0.000000e+00   0.000000e+00   0.000000e+00
      648000   6.479990e-06   3.000846e+00   3.734368e+01   1.948154e+01   4.476614e+05   2.615545e+06   8.420931e+05   0.000000e+00   0.000000e+00   0.000000e+00   2.783989e+06   0.000000e+00   0.000000e+00   0.000000e+00
      656000   6.559990e-06   3.036659e+00   3.755293e+01   1.954890e+01   4.476615e+05   2.615545e+06   8.420926e+05   5.337817e+06   9.277633e+06  -3.165400e+07   2.783989e+06   1.973096e-27   0.000000e+00   0.000000e+00
      664000   6.639990e-06   3.072472e+00   3.776217e+01   1.961627e+01   4.476617e+05   2.615545e+06   8.420915e+05  -1.956670e+05  -3.347740e+05   1.143829e+06   2.783989e+06   2.539259e-30   0.000000e+00   0.000000e+00
      672000   6.719990e-06   3.108285e+00   3.797141e+01   1.968364e+01   4.476649e+05   2.615551e+06   8.420730e+05   7.443881e+07   1.247186e+08  -4.269600e+08   2.783989e+06   3.594487e-25   0.000000e+00   0.000000e+00
      680000   6.799990e-06   3.144098e+00   3.818066e+01   1.975100e+01   4.476700e+05   2.615559e+06   8.420439e+05   3.502495e+07   5.738914e+07  -1.968832e+08   2.783989e+06   7.656628e-26   0.000000e+00   0.000000e+00
      688000   6.879990e-06   3.179912e+00   3.838990e+01   1.981836e+01   4.476776e+05   2.615571e+06   8.420017e+05   7.012335e+07   1.125318e+08  -3.868491e+08   2.783989e+06   2.957144e-25   0.000000e+00   0.000000e+00
      696000   6.959990e-06   3.215727e+00   3.859915e+01   1.988572e+01   4.476847e+05   2.615583e+06   8.419623e+05   8.681578e+07   1.371901e+08  -4.723468e+08   2.783989e+06   4.409864e-25   0.000000e+00   0.000000e+00
      704000   7.039990e-06   3.251541e+00   3.880840e+01   1.995308e+01   4.476869e+05   2.615586e+06   8.419505e+05   3.937524e+07   6.114123e+07  -2.108770e+08   2.783989e+06   8.790537e-26   0.000000e+00   0.000000e+00
      712000   7.119990e-06   3.287357e+00   3.901764e+01   2.002043e+01   4.476882e+05   2.615588e+06   8.419435e+05   7.188928e+01  -2.329036e+01   3.412818e+01   2.783989e+06   1.214960e-38   0.000000e+00   0.000000e+00
      720000   7.199990e-06   3.323172e+00   3.922689e+01   2.008779e+01   4.476882e+05   2.615588e+06   8.419435e+05   1.294631e+02  -9.405356e+00  -3.962090e+01   2.783989e+06   3.254468e-38   0.000000e+00   0.000000e+00
      728000   7.279990e-06   3.358987e+00   3.943614e+01   2.015514e+01   4.476882e+05   2.615588e+06   8.419435e+05   6.447221e+01  -1.007481e+01  -2.983452e+00   2.783989e+06   7.547398e-39   0.000000e+00   0.000000e+00
      736000   7.359990e-06   3.394802e+00   3.964538e+01   2.022250e+01   4.476882e+05   2.615588e+06   8.419435e+05   1.438417e+02  -2.462018e+01   1.998604e-19   2.783989e+06   3.763469e-38   0.000000e+00   0.000000e+00
      744000   7.439990e-06   3.430617e+00   3.985463e+01   2.028986e+01   4.476882e+05   2.615588e+06   8.419435e+05   1.750685e+02  -2.996501e+01  -1.180555e-19   2.783989e+06   5.577197e-38   0.000000e+00   0.000000e+00
      752000   7.519990e-06   3.466432e+00   4.006388e+01   2.035721e+01   4.476882e+05   2.615588e+06   8.419435e+05   3.247284e+01  -5.558103e+00  -4.451422e-20   2.783989e+06   1.922166e-39   0.000000e+00   0.000000e+00
      760000   7.599990e-06   3.502247e+00   4.027313e+01   2.042457e+01   4.476882e+05   2.615588e+06   8.419435e+05   1.038524e+02  -1.777554e+01  -4.404639e-20   2.783989e+06   1.959668e-38   0.000000e+00   0.000000e+00
      768000   7.679990e-06   3.538062e+00   4.048237e+01   2.049192e+01   4.476882e+05   2.615588e+06   8.419435e+05   2.375822e+01  -4.066494e+00  -8.686963e-21   2.783989e+06   1.029476e-39   0.000000e+00   0.000000e+00
      776000   7.759990e-06   3.573877e+00   4.069162e+01   2.055928e+01   4.476882e+05   2.615588e+06   8.419435e+05   1.025114e+02  -1.754602e+01  -2.080452e-20   2.783989e+06   1.912156e-38   0.000000e+00   0.000000e+00
      784000   7.839990e-06   3.609692e+00   4.090087e+01   2.062663e+01   4.476882e+05   2.615588e+06   8.419435e+05   8.654038e+01  -1.481239e+01  -1.414884e-20   2.783989e+06   1.362299e-38   0.000000e+00   0.000000e+00
      792000   7.919990e-06   3.645507e+00   4.111011e+01   2.069399e+01   4.476882e+05   2.615588e+06   8.419435e+05   7.633175e+00  -1.306506e+00   2.265224e-21   2.783989e+06   1.070167e-40   0.000000e+00   0.000000e+00
      800000   7.999990e-06   3.681322e+00   4.131936e+01   2.076134e+01   4.476882e+05   2.615588e+06   8.419435e+05   4.617157e+01  -7.902798e+00  -7.676361e-20   2.783989e+06   3.881489e-39   0.000000e+00   0.000000e+00
      808000   8.079990e-06   3.717137e+00   4.152861e+01   2.082870e+01   4.476882e+05   2.615588e+06   8.419435e+05   1.043218e+02  -1.785588e+01   5.107563e-20   2.783989e+06   1.979995e-38   0.000000e+00   0.000000e+00
      816000   8.159990e-06   3.752952e+00   4.173786e+01   2.089606e+01   4.476882e+05   2.615588e+06   8.419435e+05   1.007523e+02  -1.724492e+01  -1.414325e-20   2.783989e+06   1.847102e-38   0.000000e+00   0.000000e+00
      824000   8.239990e-06   3.788767e+00   4.194710e+01   2.096341e+01   4.476882e+05   2.615588e+06   8.419435e+05   8.700617e+01  -1.489211e+01  -1.065509e-20   2.783989e+06   1.377696e-38   0.000000e+00   0.000000e+00
      832000   8.319990e-06   3.824582e+00   4.215635e+01   2.103077e+01   4.476882e+05   2.615588e+06   8.419435e+05   9.771257e+01  -1.672464e+01  -7.364807e-20   2.783989e+06   1.737499e-38   0.000000e+00   0.000000e+00
      840000   8.399990e-06   3.860397e+00   4.236560e+01   2.109812e+01   4.476882e+05   2.615588e+06   8.419435e+05   2.103432e+02  -3.600268e+01   4.008890e-19   2.783989e+06   8.046614e-38   0.000000e+00   0.000000e+00
      848000   8.479990e-06   3.896213e+00   4.257484e+01   2.116548e+01   4.476882e+05   2.615588e+06   8.419435e+05   3.728042e+01  -6.380975e+00  -7.173929e-20   2.783989e+06   2.530719e-39   0.000000e+00   0.000000e+00
      856000   8.559990e-06   3.932028e+00   4.278409e+01   2.123283e+01   4.476882e+05   2.615588e+06   8.419435e+05   1.351399e+02  -2.313075e+01  -6.135567e-20   2.783989e+06   3.322748e-38   0.000000e+00   0.000000e+00
      864000   8.639990e-06   3.967843e+00   4.299334e+01   2.130019e+01   4.476882e+05   2.615588e+06   8.419435e+05   1.732248e+02  -2.964942e+01   1.405946e-19   2.783989e+06   5.458771e-38   0.000000e+00   0.000000e+00
      872000   8.719990e-06   4.003658e+00   4.320258e+01   2.136754e+01   4.476882e+05   2.615588e+06   8.419435e+05   1.275458e+02  -2.183093e+01  -5.834968e-20   2.783989e+06   2.960935e-38   0.000000e+00   0.000000e+00
      880000   8.799990e-06   4.039473e+00   4.341183e+01   2.143490e+01   4.476882e+05   2.615588e+06   8.419435e+05   9.216360e+01  -1.577487e+01   4.722024e-20   2.783989e+06   1.545409e-38   0.000000e+00   0.000000e+00
      888000   8.879990e-06   4.075288e+00   4.362108e+01   2.150225e+01   4.476882e+05   2.615588e+06   8.419435e+05   1.032783e+02  -1.767727e+01   3.400297e-20   2.783989e+06   1.940921e-38   0.000000e+00   0.000000e+00
      896000   8.959990e-06   4.111103e+00   4.383033e+01   2.156961e+01   4.476882e+05   2.615588e+06   8.419435e+05   7.036510e+01  -1.204380e+01   4.280507e-20   2.783989e+06   9.012679e-39   0.000000e+00   0.000000e+00
      904000   9.039990e-06   4.146918e+00   4.403957e+01   2.163697e+01   4.476882e+05   2.615588e+06   8.419435e+05   5.585134e+01  -9.559604e+00  -4.788342e-20   2.783989e+06   5.677112e-39   0.000000e+00   0.000000e+00
      912000   9.119990e-06   4.182733e+00   4.424882e+01   2.170432e+01   4.476882e+05   2.615588e+06   8.419435e+05   1.465838e+02  -2.508952e+01  -1.784362e-20   2.783989e+06   3.910305e-38   0.000000e+00   0.000000e+00
      920000   9.199990e-06   4.218548e+00   4.445807e+01   2.177168e+01   4.476882e+05   2.615588e+06   8.419435e+05   1.448265e+02  -2.478873e+01  -5.114755e-20   2.783989e+06   3.814615e-38   0.000000e+00   0.000000e+00
      928000   9.279990e-06   4.254363e+00   4.466731e+01   2.183903e+01   4.476882e+05   2.615588e+06   8.419435e+05   1.330771e+02  -2.277769e+01   5.054370e-20   2.783989e+06   3.221287e-38   0.000000e+00   0.000000e+00
      936000   9.359990e-06   4.290178e+00   4.487656e+01   2.190639e+01   4.476882e+05   2.615588e+06   8.419435e+05   8.942122e+01  -1.530548e+01  -2.391297e-20   2.783989e+06   1.455258e-38   0.000000e+00   0.000000e+00
      944000   9.439990e-06   4.325993e+00   4.508581e+01   2.197374e+01   4.476882e+05   2.615588e+06   8.419435e+05   8.624207e+00  -1.476133e+00   6.197418e-21   2.783989e+06   1.363742e-40   0.000000e+00   0.000000e+00
      952000   9.519990e-06   4.361808e+00   4.529506e+01   2.204110e+01   4.476882e+05   2.615588e+06   8.419435e+05   2.970479e+00  -5.084319e-01  -6.401850e-22   2.783989e+06   1.634922e-41   0.000000e+00   0.000000e+00
      960000   9.599990e-06   4.397623e+00   4.550430e+01   2.210845e+01   4.476882e+05   2.615588e+06   8.419435e+05   1.260917e+02  -2.158206e+01   2.484081e-20   2.783989e+06   2.893375e-38   0.000000e+00   0.000000e+00
      968000   9.679990e-06   4.433438e+00   4.571355e+01   2.217581e+01   4.476882e+05   2.615588e+06   8.419435e+05   8.619828e+01  -1.475383e+01  -5.982454e-20   2.783989e+06   1.352309e-38   0.000000e+00   0.000000e+00
      976000   9.759990e-06   4.469253e+00   4.592280e+01   2.224316e+01   4.476882e+05   2.615588e+06   8.419435e+05   1.063409e+02  -1.820148e+01   3.850542e-20   2.783989e+06   2.057888e-38   0.000000e+00   0.000000e+00
      984000   9.839990e-06   4.505069e+00   4.613204e+01   2.231052e+01   4.476882e+05   2.615588e+06   8.419435e+05   6.493427e+01  -1.111425e+01   6.111029e-20   2.783989e+06   7.669840e-39   0.000000e+00   0.000000e+00
      992000   9.919990e-06   4.540884e+00   4.634129e+01   2.237788e+01   4.476882e+05   2.615588e+06   8.419435e+05   9.020159e+01  -1.543905e+01  -1.199122e-19   2.783989e+06   1.479705e-38   0.000000e+00   0.000000e+00
     1000000   9.999990e-06   4.576699e+00   4.655054e+01   2.244523e+01   4.476882e+05   2.615588e+06   8.419435e+05   6.389428e+01  -1.093625e+01  -9.484665e-21   2.783989e+06   7.425457e-39   0.000000e+00   0.000000e+00
     1008000   1.007999e-05   4.612514e+00   4.675978e+01   2.251259e+01   4.476882e+05   2.615588e+06   8.419435e+05   5.497808e+01  -9.410135e+00   9.754232e-20   2.783989e+06   5.505315e-39   0.000000e+00   0.000000e+00
     1016000   1.015999e-05   4.648329e+00   4.696903e+01   2.257994e+01   4.476882e+05   2.615588e+06   8.419435e+05   7.564131e+01  -1.294689e+01   8.344332e-21   2.783989e+06   1.041081e-38   0.000000e+00   0.000000e+00
     1024000   1.023999e-05   4.684144e+00   4.717828e+01   2.264730e+01   4.476882e+05   2.615588e+06   8.419435e+05  -3.783357e+01   6.475653e+00   2.620873e-20   2.783989e+06   2.599882e-39   0.000000e+00   0.000000e+00
     1032000   1.031999e-05   4.719959e+00   4.738753e+01   2.271465e+01   4.476882e+05   2.615588e+06   8.419435e+05   1.096890e+02  -1.877455e+01   6.688918e-20   2.783989e+06   2.188690e-38   0.000000e+00   0.000000e+00
     1040000   1.039999e-05   4.755774e+00   4.759677e+01   2.278201e+01   4.476882e+05   2.615588e+06   8.419435e+05   6.769776e+01  -1.158726e+01   3.598963e-20   2.783989e+06   8.337611e-39   0.000000e+00   0.000000e+00
     1048000   1.047999e-05   4.791589e+00   4.780602e+01   2.284936e+01   4.476882e+05   2.615588e+06   8.419435e+05   8.417079e+01  -1.440681e+01   1.819995e-20   2.783989e+06   1.288617e-38   0.000000e+00   0.000000e+00
     1056000   1.055999e-05   4.827404e+00   4.801527e+01   2.291672e+01   4.476882e+05   2.615588e+06   8.419435e+05   7.094582e+01  -1.214320e+01   2.503710e-20   2.783989e+06   9.156577e-39   0.000000e+00   0.000000e+00
     1064000   1.063999e-05   4.863219e+00   4.822451e+01   2.298407e+01   4.476882e+05   2.615588e+06   8.419435e+05   6.760885e+01  -1.157204e+01   2.468086e-20   2.783989e+06   8.318821e-39   0.000000e+00   0.000000e+00
     1072000   1.071999e-05   4.899034e+00   4.843376e+01   2.305143e+01   4.476882e+05   2.615588e+06   8.419435e+05   8.462394e+01  -1.448437e+01   1.327933e-19   2.783989e+06   1.302557e-38   0.000000e+00   0.000000e+00
     1080000   1.079999e-05   4.934849e+00   4.864301e+01   2.311879e+01   4.476882e+05   2.615588e+06   8.419435e+05   7.612931e+01  -1.303041e+01   5.109016e-20   2.783989e+06   1.054354e-38   0.000000e+00   0.000000e+00
     1088000   1.087999e-05   4.970664e+00   4.885226e+01   2.318614e+01   4.476882e+05   2.615588e+06   8.419435e+05  -2.602834e+01   4.455052e+00   2.702939e-20   2.783989e+06   1.232244e-39   0.000000e+00   0.000000e+00
     1096000   1.095999e-05   5.006479e+00   4.906150e+01   2.325350e+01   4.476882e+05   2.615588e+06   8.419435e+05   5.515295e+01  -9.440066e+00  -1.919905e-20   2.783989e+06   5.539314e-39   0.000000e+00   0.000000e+00
     1104000   1.103999e-05   5.042294e+00   4.927075e+01   2.332085e+01   4.476882e+05   2.615588e+06   8.419435e+05   3.703443e+01  -6.338871e+00  -3.251204e-20   2.783989e+06   2.496096e-39   0.000000e+00   0.000000e+00
     1112000   1.111999e-05   5.078109e+00   4.948000e+01   2.338821e+01   4.476882e+05   2.615588e+06   8.419435e+05   7.596428e-01  -1.300217e-01  -7.454013e-22   2.783989e+06   1.095383e-42   0.000000e+00   0.000000e+00
     1120000   1.119999e-05   5.113924e+00   4.968924e+01   2.345556e+01   4.476861e+05   2.615589e+06   8.419435e+05  -8.895932e+07   1.522634e+07   6.868899e-14   2.783989e+06   1.439399e-26   0.000000e+00   0.000000e+00
     1128000   1.127999e-05   5.149738e+00   4.989849e+01   2.352292e+01   4.476633e+05   2.615593e+06   8.419435e+05   2.386943e+07  -4.085295e+06   4.139806e-14   2.783989e+06   1.027488e-27   0.000000e+00   0.000000e+00
