     timestep     time              x             y              z              vx             vy             vz             ax             ay             az         v_magnitude      ELoss        Electronic      Nuclear
           0   0.000000e+00   1.000000e-01   9.998944e+00   1.193090e+01   1.166832e+06  -1.179132e+05   1.096496e+05   0.000000e+00   0.000000e+00   0.000000e+00   1.177889e+06   0.000000e+00   0.000000e+00   0.000000e+00
        8000   7.999000e-08   1.933876e-01   9.989937e+00   1.193968e+01   1.167840e+06  -1.072584e+05   1.098536e+05   1.197277e+10   1.334581e+11   3.025897e+09   1.177889e+06   6.003357e-20   0.000000e+00   0.000000e+00
       16000   1.599900e-07   2.868517e-01   9.981784e+00   1.194848e+01   1.168748e+06  -9.655949e+04   1.101282e+05   1.070669e+10   1.340031e+11   3.868533e+09   1.177889e+06   6.044416e-20   0.000000e+00   0.000000e+00
       24000   2.399900e-07   3.803844e-01   9.974488e+00   1.195730e+01   1.169552e+06  -8.581865e+04   1.104787e+05   9.412961e+09   1.345245e+11   4.851095e+09   1.177889e+06   6.085367e-20   0.000000e+00   0.000000e+00
       32000   3.199900e-07   4.739774e-01   9.968054e+00   1.196616e+01   1.170254e+06  -7.503757e+04   1.108976e+05   8.122403e+09   1.350085e+11   5.641394e+09   1.177889e+06   6.124169e-20   0.000000e+00   0.000000e+00
       40000   3.999900e-07   5.676223e-01   9.962483e+00   1.197505e+01   1.170851e+06  -6.421718e+04   1.113870e+05   6.806876e+09   1.355008e+11   6.570096e+09   1.177889e+06   6.165901e-20   0.000000e+00   0.000000e+00
       48000   4.799900e-07   6.613107e-01   9.957780e+00   1.198398e+01   1.171343e+06  -5.335887e+04   1.119432e+05   5.492700e+09   1.359569e+11   7.332790e+09   1.177889e+06   6.205424e-20   0.000000e+00   0.000000e+00
       56000   5.599900e-07   7.550343e-01   9.953947e+00   1.199296e+01   1.171729e+06  -4.246458e+04   1.125648e+05   4.155460e+09   1.364019e+11   8.202951e+09   1.177889e+06   6.246136e-20   0.000000e+00   0.000000e+00
       64000   6.399900e-07   8.487845e-01   9.950987e+00   1.200199e+01   1.172008e+06  -3.153452e+04   1.132514e+05   2.815467e+09   1.368399e+11   8.967820e+09   1.177889e+06   6.287397e-20   0.000000e+00   0.000000e+00
       72000   7.199900e-07   9.425527e-01   9.948902e+00   1.201108e+01   1.172179e+06  -2.057010e+04   1.139994e+05   1.463668e+09   1.372697e+11   9.720744e+09   1.177889e+06   6.329536e-20   0.000000e+00   0.000000e+00
       80000   7.999900e-07   1.036330e+00   9.947697e+00   1.202023e+01   1.172242e+06  -9.572592e+03   1.148069e+05   9.848620e+07   1.376493e+11   1.047325e+10   1.177889e+06   6.368780e-20   0.000000e+00   0.000000e+00
       88000   8.799900e-07   1.130108e+00   9.947372e+00   1.202945e+01   1.172195e+06   1.454527e+03   1.156732e+05  -1.272583e+09   1.380389e+11   1.116184e+10   1.177889e+06   6.410195e-20   0.000000e+00   0.000000e+00
       96000   9.599900e-07   1.223879e+00   9.947930e+00   1.203874e+01   1.172038e+06   1.251293e+04   1.165937e+05  -2.657997e+09   1.384063e+11   1.186683e+10   1.177889e+06   6.451379e-20   0.000000e+00   0.000000e+00
      104000   1.039990e-06   1.317632e+00   9.949374e+00   1.204811e+01   1.171769e+06   2.359951e+04   1.175691e+05  -4.045961e+09   1.387391e+11   1.247735e+10   1.177889e+06   6.490288e-20   0.000000e+00   0.000000e+00
      112000   1.119990e-06   1.411359e+00   9.951707e+00   1.205755e+01   1.171390e+06   3.471185e+04   1.185917e+05  -5.449995e+09   1.390639e+11   1.312993e+10   1.177889e+06   6.530479e-20   0.000000e+00   0.000000e+00
      120000   1.199990e-06   1.505051e+00   9.954929e+00   1.206708e+01   1.170898e+06   4.584947e+04   1.196659e+05  -6.852038e+09   1.393453e+11   1.365738e+10   1.177889e+06   6.567146e-20   0.000000e+00   0.000000e+00
      128000   1.279990e-06   1.598699e+00   9.959043e+00   1.207670e+01   1.170293e+06   5.700916e+04   1.207799e+05  -8.266774e+09   1.396471e+11   1.418764e+10   1.177889e+06   6.607368e-20   0.000000e+00   0.000000e+00
      136000   1.359990e-06   1.692295e+00   9.964051e+00   1.208641e+01   1.169574e+06   6.819544e+04   1.219416e+05  -9.704111e+09   1.399940e+11   1.478514e+10   1.177889e+06   6.654203e-20   0.000000e+00   0.000000e+00
      144000   1.439990e-06   1.785828e+00   9.969955e+00   1.209621e+01   1.168741e+06   7.940184e+04   1.231386e+05  -1.112600e+10   1.402190e+11   1.518585e+10   1.177889e+06   6.689191e-20   0.000000e+00   0.000000e+00
      152000   1.519990e-06   1.879290e+00   9.976756e+00   1.210611e+01   1.167793e+06   9.062959e+04   1.243753e+05  -1.257101e+10   1.404759e+11   1.567247e+10   1.177889e+06   6.729750e-20   0.000000e+00   0.000000e+00
      160000   1.599990e-06   1.972672e+00   9.984456e+00   1.211611e+01   1.166729e+06   1.018787e+05   1.256491e+05  -1.402992e+10   1.407513e+11   1.615418e+10   1.177889e+06   6.773730e-20   0.000000e+00   0.000000e+00
      168000   1.679990e-06   2.065964e+00   9.993057e+00   1.212622e+01   1.165549e+06   1.131463e+05   1.269549e+05  -1.547882e+10   1.409427e+11   1.649699e+10   1.177889e+06   6.809780e-20   0.000000e+00   0.000000e+00
      176000   1.759990e-06   2.159157e+00   1.000256e+01   1.213643e+01   1.164251e+06   1.244317e+05   1.282913e+05  -1.694929e+10   1.411752e+11   1.688950e+10   1.177889e+06   6.852010e-20   0.000000e+00   0.000000e+00
      184000   1.839990e-06   2.252241e+00   1.001297e+01   1.214675e+01   1.162837e+06   1.357331e+05   1.296567e+05  -1.842276e+10   1.413618e+11   1.724074e+10   1.177889e+06   6.891058e-20   0.000000e+00   0.000000e+00
      192000   1.919990e-06   2.345207e+00   1.002428e+01   1.215717e+01   1.161304e+06   1.470495e+05   1.310483e+05  -1.990341e+10   1.415527e+11   1.754205e+10   1.177889e+06   6.931572e-20   0.000000e+00   0.000000e+00
      200000   1.999990e-06   2.438046e+00   1.003649e+01   1.216771e+01   1.159652e+06   1.583816e+05   1.324630e+05  -2.139338e+10   1.417395e+11   1.781755e+10   1.177889e+06   6.973073e-20   0.000000e+00   0.000000e+00
      208000   2.079990e-06   2.530748e+00   1.004962e+01   1.217837e+01   1.157880e+06   1.697278e+05   1.338981e+05  -2.288775e+10   1.419013e+11   1.805023e+10   1.177889e+06   7.013322e-20   0.000000e+00   0.000000e+00
      216000   2.159990e-06   2.623304e+00   1.006365e+01   1.218914e+01   1.155989e+06   1.810863e+05   1.353509e+05  -2.439214e+10   1.420484e+11   1.828018e+10   1.177889e+06   7.053842e-20   0.000000e+00   0.000000e+00
      224000   2.239990e-06   2.715703e+00   1.007859e+01   1.220003e+01   1.153978e+06   1.924555e+05   1.368205e+05  -2.589980e+10   1.421848e+11   1.844565e+10   1.177889e+06   7.094172e-20   0.000000e+00   0.000000e+00
      232000   2.319990e-06   2.807937e+00   1.009444e+01   1.221103e+01   1.151845e+06   2.038362e+05   1.383020e+05  -2.740779e+10   1.422793e+11   1.856851e+10   1.177889e+06   7.131535e-20   0.000000e+00   0.000000e+00
      240000   2.399990e-06   2.899995e+00   1.011121e+01   1.222215e+01   1.149591e+06   2.152248e+05   1.397930e+05  -2.894131e+10   1.424383e+11   1.870367e+10   1.177889e+06   7.177225e-20   0.000000e+00   0.000000e+00
      248000   2.479990e-06   2.991868e+00   1.012888e+01   1.223340e+01   1.147215e+06   2.266215e+05   1.412916e+05  -3.046186e+10   1.425053e+11   1.876807e+10   1.177889e+06   7.214601e-20   0.000000e+00   0.000000e+00
      256000   2.559990e-06   3.083547e+00   1.014747e+01   1.224476e+01   1.144716e+06   2.380269e+05   1.427965e+05  -3.200708e+10   1.426259e+11   1.884115e+10   1.177889e+06   7.259274e-20   0.000000e+00   0.000000e+00
      264000   2.639990e-06   3.175020e+00   1.016697e+01   1.225624e+01   1.142095e+06   2.494389e+05   1.443028e+05  -3.354178e+10   1.426876e+11   1.882347e+10   1.177889e+06   7.298548e-20   0.000000e+00   0.000000e+00
      272000   2.719990e-06   3.266278e+00   1.018738e+01   1.226785e+01   1.139349e+06   2.608594e+05   1.458096e+05  -3.510986e+10   1.428202e+11   1.883697e+10   1.177889e+06   7.347346e-20   0.000000e+00   0.000000e+00
      280000   2.799990e-06   3.357312e+00   1.020870e+01   1.227957e+01   1.136478e+06   2.722860e+05   1.473138e+05  -3.666041e+10   1.428557e+11   1.877884e+10   1.177889e+06   7.387195e-20   0.000000e+00   0.000000e+00
      288000   2.879990e-06   3.448112e+00   1.023094e+01   1.229142e+01   1.133483e+06   2.837169e+05   1.488118e+05  -3.822224e+10   1.429174e+11   1.865721e+10   1.177889e+06   7.430652e-20   0.000000e+00   0.000000e+00
      296000   2.959990e-06   3.538666e+00   1.025410e+01   1.230338e+01   1.130362e+06   2.951518e+05   1.503004e+05  -3.979102e+10   1.429434e+11   1.855276e+10   1.177889e+06   7.472746e-20   0.000000e+00   0.000000e+00
      304000   3.039990e-06   3.628966e+00   1.027817e+01   1.231547e+01   1.127116e+06   3.065894e+05   1.517790e+05  -4.137891e+10   1.430036e+11   1.841928e+10   1.177889e+06   7.519915e-20   0.000000e+00   0.000000e+00
      312000   3.119990e-06   3.719001e+00   1.030315e+01   1.232767e+01   1.123742e+06   3.180317e+05   1.532461e+05  -4.296634e+10   1.430319e+11   1.823618e+10   1.177889e+06   7.565127e-20   0.000000e+00   0.000000e+00
      320000   3.199990e-06   3.808761e+00   1.032905e+01   1.233999e+01   1.120240e+06   3.294759e+05   1.546981e+05  -4.456332e+10   1.430532e+11   1.803036e+10   1.177889e+06   7.611382e-20   0.000000e+00   0.000000e+00
      328000   3.279990e-06   3.898236e+00   1.035587e+01   1.235242e+01   1.116611e+06   3.409211e+05   1.561308e+05  -4.616918e+10   1.430737e+11   1.778248e+10   1.177889e+06   7.659074e-20   0.000000e+00   0.000000e+00
      336000   3.359990e-06   3.987416e+00   1.038360e+01   1.236497e+01   1.112851e+06   3.523692e+05   1.575473e+05  -4.780800e+10   1.431226e+11   1.759123e+10   1.177889e+06   7.712954e-20   0.000000e+00   0.000000e+00
      344000   3.439990e-06   4.076289e+00   1.041225e+01   1.237763e+01   1.108962e+06   3.638193e+05   1.589387e+05  -4.943444e+10   1.431385e+11   1.726854e+10   1.177889e+06   7.763574e-20   0.000000e+00   0.000000e+00
      352000   3.519990e-06   4.164846e+00   1.044181e+01   1.239040e+01   1.104943e+06   3.752698e+05   1.603041e+05  -5.105978e+10   1.431338e+11   1.687151e+10   1.177889e+06   7.813187e-20   0.000000e+00   0.000000e+00
      360000   3.599990e-06   4.253076e+00   1.047229e+01   1.240327e+01   1.100792e+06   3.867194e+05   1.616425e+05  -5.270619e+10   1.431103e+11   1.655064e+10   1.177890e+06   7.864445e-20   0.000000e+00   0.000000e+00
      368000   3.679990e-06   4.340969e+00   1.050369e+01   1.241626e+01   1.096509e+06   3.981679e+05   1.629520e+05  -5.436807e+10   1.431008e+11   1.618386e+10   1.177890e+06   7.918993e-20   0.000000e+00   0.000000e+00
      376000   3.759990e-06   4.428514e+00   1.053600e+01   1.242935e+01   1.092093e+06   4.096155e+05   1.642306e+05  -5.604274e+10   1.430899e+11   1.578444e+10   1.177890e+06   7.975475e-20   0.000000e+00   0.000000e+00
      384000   3.839990e-06   4.515701e+00   1.056922e+01   1.244253e+01   1.087542e+06   4.210621e+05   1.654770e+05  -5.772801e+10   1.430677e+11   1.535865e+10   1.177890e+06   8.032996e-20   0.000000e+00   0.000000e+00
      392000   3.919990e-06   4.602517e+00   1.060337e+01   1.245582e+01   1.082856e+06   4.325067e+05   1.666878e+05  -5.942882e+10   1.430351e+11   1.493478e+10   1.177890e+06   8.092183e-20   0.000000e+00   0.000000e+00
      400000   3.999990e-06   4.688954e+00   1.063843e+01   1.246920e+01   1.078033e+06   4.439489e+05   1.678634e+05  -6.114692e+10   1.430175e+11   1.445333e+10   1.177890e+06   8.155000e-20   0.000000e+00   0.000000e+00
      408000   4.079990e-06   4.774999e+00   1.067440e+01   1.248268e+01   1.073072e+06   4.553892e+05   1.690022e+05  -6.288999e+10   1.429973e+11   1.400155e+10   1.177890e+06   8.221029e-20   0.000000e+00   0.000000e+00
      416000   4.159990e-06   4.860642e+00   1.071129e+01   1.249624e+01   1.067971e+06   4.668267e+05   1.701004e+05  -6.463348e+10   1.429589e+11   1.346206e+10   1.177890e+06   8.286714e-20   0.000000e+00   0.000000e+00
      424000   4.239990e-06   4.945871e+00   1.074909e+01   1.250989e+01   1.062731e+06   4.782605e+05   1.711554e+05  -6.638224e+10   1.428853e+11   1.291406e+10   1.177890e+06   8.351420e-20   0.000000e+00   0.000000e+00
      432000   4.319990e-06   5.030675e+00   1.078781e+01   1.252363e+01   1.057349e+06   4.896892e+05   1.721662e+05  -6.816519e+10   1.428428e+11   1.234902e+10   1.177890e+06   8.422763e-20   0.000000e+00   0.000000e+00
      440000   4.399990e-06   5.115043e+00   1.082744e+01   1.253744e+01   1.051824e+06   5.011140e+05   1.731309e+05  -6.995373e+10   1.427698e+11   1.175622e+10   1.177890e+06   8.493574e-20   0.000000e+00   0.000000e+00
      448000   4.479990e-06   5.198963e+00   1.086799e+01   1.255133e+01   1.046156e+06   5.125327e+05   1.740468e+05  -7.176210e+10   1.426954e+11   1.113802e+10   1.177890e+06   8.567394e-20   0.000000e+00   0.000000e+00
      456000   4.559990e-06   5.282424e+00   1.090945e+01   1.256528e+01   1.040341e+06   5.239471e+05   1.749138e+05  -7.361041e+10   1.426528e+11   1.050599e+10   1.177890e+06   8.648557e-20   0.000000e+00   0.000000e+00
      464000   4.639990e-06   5.365413e+00   1.095182e+01   1.257931e+01   1.034378e+06   5.353554e+05   1.757298e+05  -7.546664e+10   1.425661e+11   9.888792e+09   1.177890e+06   8.728566e-20   0.000000e+00   0.000000e+00
      472000   4.719990e-06   5.447920e+00   1.099510e+01   1.259340e+01   1.028266e+06   5.467570e+05   1.764923e+05  -7.733161e+10   1.424763e+11   9.166512e+09   1.177890e+06   8.810645e-20   0.000000e+00   0.000000e+00
      480000   4.799990e-06   5.529932e+00   1.103930e+01   1.260755e+01   1.022003e+06   5.581511e+05   1.772010e+05  -7.923156e+10   1.423755e+11   8.511135e+09   1.177890e+06   8.896584e-20   0.000000e+00   0.000000e+00
      488000   4.879990e-06   5.611437e+00   1.108441e+01   1.262175e+01   1.015588e+06   5.695368e+05   1.778538e+05  -8.115466e+10   1.422780e+11   7.800870e+09   1.177890e+06   8.986524e-20   0.000000e+00   0.000000e+00
      496000   4.959990e-06   5.692422e+00   1.113043e+01   1.263600e+01   1.009018e+06   5.809146e+05   1.784489e+05  -8.309586e+10   1.421608e+11   7.073319e+09   1.177890e+06   9.078324e-20   0.000000e+00   0.000000e+00
      504000   5.039990e-06   5.772876e+00   1.117735e+01   1.265030e+01   1.002292e+06   5.922835e+05   1.789860e+05  -8.508211e+10   1.420615e+11   6.350540e+09   1.177890e+06   9.177282e-20   0.000000e+00   0.000000e+00
      512000   5.119990e-06   5.852784e+00   1.122519e+01   1.266464e+01   9.954058e+05   6.036425e+05   1.794632e+05  -8.707164e+10   1.419200e+11   5.588769e+09   1.177890e+06   9.275271e-20   0.000000e+00   0.000000e+00
      520000   5.199990e-06   5.932136e+00   1.127394e+01   1.267901e+01   9.883591e+05   6.149910e+05   1.798792e+05  -8.910175e+10   1.417953e+11   4.792071e+09   1.177890e+06   9.380211e-20   0.000000e+00   0.000000e+00
      528000   5.279990e-06   6.010918e+00   1.132359e+01   1.269342e+01   9.811492e+05   6.263283e+05   1.802313e+05  -9.115541e+10   1.416412e+11   4.013834e+09   1.177890e+06   9.487044e-20   0.000000e+00   0.000000e+00
      536000   5.359990e-06   6.089116e+00   1.137415e+01   1.270785e+01   9.737739e+05   6.376527e+05   1.805201e+05  -9.322183e+10   1.414540e+11   3.206038e+09   1.177890e+06   9.594710e-20   0.000000e+00   0.000000e+00
      544000   5.439990e-06   6.166717e+00   1.142561e+01   1.272230e+01   9.662312e+05   6.489630e+05   1.807443e+05  -9.534633e+10   1.412957e+11   2.385942e+09   1.177890e+06   9.712097e-20   0.000000e+00   0.000000e+00
      552000   5.519990e-06   6.243708e+00   1.147798e+01   1.273677e+01   9.585180e+05   6.602588e+05   1.809024e+05  -9.748804e+10   1.410970e+11   1.568933e+09   1.177890e+06   9.830286e-20   0.000000e+00   0.000000e+00
      560000   5.599990e-06   6.320075e+00   1.153125e+01   1.275124e+01   9.506317e+05   6.715391e+05   1.809940e+05  -9.967179e+10   1.409010e+11   7.232318e+08   1.177890e+06   9.955062e-20   0.000000e+00   0.000000e+00
      568000   5.679990e-06   6.395804e+00   1.158543e+01   1.276572e+01   9.425699e+05   6.828020e+05   1.810182e+05  -1.018756e+11   1.406661e+11  -1.208627e+08   1.177890e+06   1.008122e-19   0.000000e+00   0.000000e+00
      576000   5.759990e-06   6.470882e+00   1.164050e+01   1.278020e+01   9.343295e+05   6.940470e+05   1.809739e+05  -1.041276e+11   1.404346e+11  -9.860002e+08   1.177890e+06   1.021484e-19   0.000000e+00   0.000000e+00
      584000   5.839990e-06   6.545292e+00   1.169647e+01   1.279468e+01   9.259079e+05   7.052720e+05   1.808596e+05  -1.064190e+11   1.401923e+11  -1.875067e+09   1.177890e+06   1.035419e-19   0.000000e+00   0.000000e+00
      592000   5.919990e-06   6.619022e+00   1.175334e+01   1.280914e+01   9.173018e+05   7.164766e+05   1.806736e+05  -1.087446e+11   1.399256e+11  -2.775607e+09   1.177890e+06   1.049785e-19   0.000000e+00   0.000000e+00
      600000   5.999990e-06   6.692056e+00   1.181111e+01   1.282358e+01   9.085079e+05   7.276593e+05   1.804152e+05  -1.111033e+11   1.396353e+11  -3.704690e+09   1.177890e+06   1.064605e-19   0.000000e+00   0.000000e+00
      608000   6.079990e-06   6.764378e+00   1.186977e+01   1.283800e+01   8.995229e+05   7.388186e+05   1.800830e+05  -1.135259e+11   1.393427e+11  -4.606343e+09   1.177890e+06   1.080313e-19   0.000000e+00   0.000000e+00
      616000   6.159990e-06   6.835974e+00   1.192932e+01   1.285239e+01   8.903430e+05   7.499533e+05   1.796768e+05  -1.159840e+11   1.390257e+11  -5.548588e+09   1.177890e+06   1.096538e-19   0.000000e+00   0.000000e+00
      624000   6.239990e-06   6.906828e+00   1.198976e+01   1.286675e+01   8.809646e+05   7.610616e+05   1.791956e+05  -1.184619e+11   1.386579e+11  -6.507406e+09   1.177890e+06   1.112925e-19   0.000000e+00   0.000000e+00
      632000   6.319990e-06   6.976923e+00   1.205109e+01   1.288106e+01   8.713848e+05   7.721409e+05   1.786378e+05  -1.210329e+11   1.383124e+11  -7.445958e+09   1.177890e+06   1.130743e-19   0.000000e+00   0.000000e+00
      640000   6.399990e-06   7.046244e+00   1.211330e+01   1.289533e+01   8.615994e+05   7.831896e+05   1.780031e+05  -1.236274e+11   1.379186e+11  -8.419603e+09   1.177890e+06   1.148837e-19   0.000000e+00   0.000000e+00
      648000   6.479990e-06   7.114773e+00   1.217640e+01   1.290954e+01   8.516043e+05   7.942057e+05   1.772906e+05  -1.262521e+11   1.374734e+11  -9.391186e+09   1.177890e+06   1.167236e-19   0.000000e+00   0.000000e+00
      656000   6.559990e-06   7.182495e+00   1.224038e+01   1.292369e+01   8.413962e+05   8.051861e+05   1.765002e+05  -1.289592e+11   1.370327e+11  -1.037206e+10   1.177890e+06   1.186931e-19   0.000000e+00   0.000000e+00
      664000   6.639990e-06   7.249391e+00   1.230523e+01   1.293778e+01   8.309716e+05   8.161277e+05   1.756311e+05  -1.316954e+11   1.365334e+11  -1.134892e+10   1.177890e+06   1.206910e-19   0.000000e+00   0.000000e+00
      672000   6.719990e-06   7.315444e+00   1.237095e+01   1.295179e+01   8.203248e+05   8.270293e+05   1.746837e+05  -1.344623e+11   1.359817e+11  -1.235219e+10   1.177890e+06   1.227291e-19   0.000000e+00   0.000000e+00
      680000   6.799990e-06   7.380637e+00   1.243755e+01   1.296573e+01   8.094530e+05   8.378864e+05   1.736569e+05  -1.373468e+11   1.354457e+11  -1.331340e+10   1.177890e+06   1.249456e-19   0.000000e+00   0.000000e+00
      688000   6.879990e-06   7.444951e+00   1.250502e+01   1.297958e+01   7.983515e+05   8.486967e+05   1.725498e+05  -1.402270e+11   1.348191e+11  -1.431313e+10   1.177890e+06   1.271437e-19   0.000000e+00   0.000000e+00
      696000   6.959990e-06   7.508367e+00   1.257334e+01   1.299333e+01   7.870157e+05   8.594563e+05   1.713646e+05  -1.431720e+11   1.341639e+11  -1.534143e+10   1.177890e+06   1.294459e-19   0.000000e+00   0.000000e+00
      704000   7.039990e-06   7.570867e+00   1.264253e+01   1.300699e+01   7.754418e+05   8.701617e+05   1.700981e+05  -1.461825e+11   1.334625e+11  -1.632921e+10   1.177890e+06   1.318342e-19   0.000000e+00   0.000000e+00
      712000   7.119990e-06   7.632431e+00   1.271257e+01   1.302055e+01   7.636261e+05   8.808081e+05   1.687513e+05  -1.492320e+11   1.327006e+11  -1.733881e+10   1.177890e+06   1.342808e-19   0.000000e+00   0.000000e+00
      720000   7.199990e-06   7.693040e+00   1.278345e+01   1.303399e+01   7.515629e+05   8.913927e+05   1.673230e+05  -1.523514e+11   1.319012e+11  -1.837011e+10   1.177890e+06   1.368410e-19   0.000000e+00   0.000000e+00
      728000   7.279990e-06   7.752675e+00   1.285519e+01   1.304732e+01   7.392484e+05   9.019107e+05   1.658123e+05  -1.555324e+11   1.310500e+11  -1.940691e+10   1.177890e+06   1.394970e-19   0.000000e+00   0.000000e+00
      736000   7.359990e-06   7.811313e+00   1.292776e+01   1.306052e+01   7.266770e+05   9.123583e+05   1.642184e+05  -1.587612e+11   1.301310e+11  -2.044573e+10   1.177890e+06   1.422244e-19   0.000000e+00   0.000000e+00
      744000   7.439990e-06   7.868936e+00   1.300116e+01   1.307359e+01   7.138447e+05   9.227305e+05   1.625397e+05  -1.620845e+11   1.291745e+11  -2.146955e+10   1.177890e+06   1.451025e-19   0.000000e+00   0.000000e+00
      752000   7.519990e-06   7.925521e+00   1.307539e+01   1.308652e+01   7.007448e+05   9.330229e+05   1.607789e+05  -1.654152e+11   1.281231e+11  -2.256207e+10   1.177890e+06   1.480046e-19   0.000000e+00   0.000000e+00
      760000   7.599990e-06   7.981048e+00   1.315044e+01   1.309931e+01   6.873740e+05   9.432296e+05   1.589336e+05  -1.688551e+11   1.270271e+11  -2.358608e+10   1.177890e+06   1.510707e-19   0.000000e+00   0.000000e+00
      768000   7.679990e-06   8.035494e+00   1.322631e+01   1.311195e+01   6.737280e+05   9.533440e+05   1.570055e+05  -1.723207e+11   1.258351e+11  -2.462579e+10   1.177890e+06   1.541823e-19   0.000000e+00   0.000000e+00
      776000   7.759990e-06   8.088837e+00   1.330298e+01   1.312443e+01   6.598028e+05   9.633601e+05   1.549926e+05  -1.758506e+11   1.245733e+11  -2.568979e+10   1.177890e+06   1.574126e-19   0.000000e+00   0.000000e+00
      784000   7.839990e-06   8.141055e+00   1.338044e+01   1.313675e+01   6.455915e+05   9.732727e+05   1.528951e+05  -1.794360e+11   1.232267e+11  -2.675212e+10   1.177890e+06   1.607408e-19   0.000000e+00   0.000000e+00
      792000   7.919990e-06   8.192124e+00   1.345870e+01   1.314889e+01   6.310917e+05   9.830738e+05   1.507124e+05  -1.830586e+11   1.217814e+11  -2.782036e+10   1.177890e+06   1.641407e-19   0.000000e+00   0.000000e+00
      800000   7.999990e-06   8.242021e+00   1.353773e+01   1.316086e+01   6.162972e+05   9.927574e+05   1.484441e+05  -1.867900e+11   1.202778e+11  -2.888597e+10   1.177890e+06   1.677384e-19   0.000000e+00   0.000000e+00
      808000   8.079990e-06   8.290723e+00   1.361753e+01   1.317264e+01   6.012048e+05   1.002315e+06   1.460897e+05  -1.905548e+11   1.186689e+11  -2.998622e+10   1.177890e+06   1.714178e-19   0.000000e+00   0.000000e+00
      816000   8.159990e-06   8.338206e+00   1.369810e+01   1.318423e+01   5.858086e+05   1.011740e+06   1.436490e+05  -1.943498e+11   1.169400e+11  -3.105217e+10   1.177890e+06   1.751555e-19   0.000000e+00   0.000000e+00
      824000   8.239990e-06   8.384445e+00   1.377941e+01   1.319562e+01   5.701050e+05   1.021024e+06   1.411210e+05  -1.982133e+11   1.151205e+11  -3.215602e+10   1.177890e+06   1.790464e-19   0.000000e+00   0.000000e+00
      832000   8.319990e-06   8.429415e+00   1.386146e+01   1.320681e+01   5.540906e+05   1.030158e+06   1.385078e+05  -2.021483e+11   1.131924e+11  -3.318949e+10   1.177890e+06   1.830659e-19   0.000000e+00   0.000000e+00
      840000   8.399990e-06   8.473091e+00   1.394423e+01   1.321778e+01   5.377611e+05   1.039131e+06   1.358091e+05  -2.060898e+11   1.111344e+11  -3.428038e+10   1.177890e+06   1.871464e-19   0.000000e+00   0.000000e+00
      848000   8.479990e-06   8.515448e+00   1.402771e+01   1.322853e+01   5.211151e+05   1.047936e+06   1.330228e+05  -2.100917e+11   1.089647e+11  -3.537367e+10   1.177890e+06   1.913711e-19   0.000000e+00   0.000000e+00
      856000   8.559990e-06   8.556461e+00   1.411190e+01   1.323906e+01   5.041468e+05   1.056562e+06   1.301493e+05  -2.141357e+11   1.066689e+11  -3.646437e+10   1.177890e+06   1.957119e-19   0.000000e+00   0.000000e+00
      864000   8.639990e-06   8.596103e+00   1.419676e+01   1.324936e+01   4.868542e+05   1.064999e+06   1.271871e+05  -2.181766e+11   1.042272e+11  -3.759035e+10   1.177890e+06   2.001077e-19   0.000000e+00   0.000000e+00
      872000   8.719990e-06   8.634348e+00   1.428229e+01   1.325941e+01   4.692326e+05   1.073236e+06   1.241393e+05  -2.223285e+11   1.016767e+11  -3.865557e+10   1.177890e+06   2.047364e-19   0.000000e+00   0.000000e+00
      880000   8.799990e-06   8.671171e+00   1.436847e+01   1.326922e+01   4.512814e+05   1.081263e+06   1.210023e+05  -2.264380e+11   9.895919e+10  -3.977600e+10   1.177890e+06   2.093712e-19   0.000000e+00   0.000000e+00
      888000   8.879990e-06   8.706545e+00   1.445529e+01   1.327877e+01   4.329982e+05   1.089067e+06   1.177777e+05  -2.306361e+11   9.611679e+10  -4.085617e+10   1.177890e+06   2.142219e-19   0.000000e+00   0.000000e+00
      896000   8.959990e-06   8.740442e+00   1.454272e+01   1.328806e+01   4.143796e+05   1.096637e+06   1.144657e+05  -2.348357e+11   9.311397e+10  -4.193786e+10   1.177890e+06   2.191550e-19   0.000000e+00   0.000000e+00
      904000   9.039990e-06   8.772836e+00   1.463074e+01   1.329708e+01   3.954267e+05   1.103960e+06   1.110644e+05  -2.389834e+11   8.993934e+10  -4.311351e+10   1.177890e+06   2.241149e-19   0.000000e+00   0.000000e+00
      912000   9.119990e-06   8.803701e+00   1.471934e+01   1.330583e+01   3.761405e+05   1.111023e+06   1.075770e+05  -2.431891e+11   8.660657e+10  -4.413504e+10   1.177890e+06   2.292234e-19   0.000000e+00   0.000000e+00
      920000   9.199990e-06   8.833010e+00   1.480850e+01   1.331429e+01   3.565184e+05   1.117812e+06   1.040035e+05  -2.473639e+11   8.310395e+10  -4.523056e+10   1.177890e+06   2.344083e-19   0.000000e+00   0.000000e+00
      928000   9.279990e-06   8.860735e+00   1.489818e+01   1.332246e+01   3.365646e+05   1.124314e+06   1.003386e+05  -2.514685e+11   7.941813e+10  -4.639120e+10   1.177890e+06   2.396044e-19   0.000000e+00   0.000000e+00
      936000   9.359990e-06   8.886851e+00   1.498838e+01   1.333034e+01   3.162783e+05   1.130515e+06   9.658939e+04  -2.556238e+11   7.556452e+10  -4.739478e+10   1.177890e+06   2.449651e-19   0.000000e+00   0.000000e+00
      944000   9.439990e-06   8.911331e+00   1.507906e+01   1.333792e+01   2.956632e+05   1.136401e+06   9.274927e+04  -2.597492e+11   7.154204e+10  -4.853280e+10   1.177890e+06   2.504578e-19   0.000000e+00   0.000000e+00
      952000   9.519990e-06   8.934149e+00   1.517020e+01   1.334518e+01   2.747209e+05   1.141957e+06   8.882004e+04  -2.637910e+11   6.732721e+10  -4.970830e+10   1.177891e+06   2.559593e-19   0.000000e+00   0.000000e+00
      960000   9.599990e-06   8.955278e+00   1.526176e+01   1.335212e+01   2.534565e+05   1.147168e+06   8.480095e+04  -2.677937e+11   6.292073e+10  -5.077565e+10   1.177891e+06   2.615107e-19   0.000000e+00   0.000000e+00
      968000   9.679990e-06   8.974693e+00   1.535373e+01   1.335874e+01   2.318745e+05   1.152020e+06   8.069189e+04  -2.717404e+11   5.833533e+10  -5.196283e+10   1.177891e+06   2.671764e-19   0.000000e+00   0.000000e+00
      976000   9.759990e-06   8.992370e+00   1.544608e+01   1.336503e+01   2.099817e+05   1.156496e+06   7.649151e+04  -2.755558e+11   5.354004e+10  -5.303004e+10   1.177891e+06   2.727366e-19   0.000000e+00   0.000000e+00
      984000   9.839990e-06   9.008282e+00   1.553876e+01   1.337098e+01   1.877837e+05   1.160582e+06   7.220472e+04  -2.793876e+11   4.857447e+10  -5.414274e+10   1.177891e+06   2.785471e-19   0.000000e+00   0.000000e+00
      992000   9.919990e-06   9.022407e+00   1.563176e+01   1.337658e+01   1.652854e+05   1.164262e+06   6.782811e+04  -2.830788e+11   4.340778e+10  -5.526337e+10   1.177891e+06   2.843070e-19   0.000000e+00   0.000000e+00
     1000000   9.999990e-06   9.034720e+00   1.572503e+01   1.338183e+01   1.424956e+05   1.167522e+06   6.336157e+04  -2.866421e+11   3.804494e+10  -5.637788e+10   1.177891e+06   2.900475e-19   0.000000e+00   0.000000e+00
     1008000   1.007999e-05   9.045199e+00   1.581855e+01   1.338672e+01   1.194269e+05   1.170344e+06   5.880573e+04  -2.901024e+11   3.249277e+10  -5.749094e+10   1.177891e+06   2.958320e-19   0.000000e+00   0.000000e+00
     1016000   1.015999e-05   9.053821e+00   1.591228e+01   1.339124e+01   9.608640e+04   1.172715e+06   5.416071e+04  -2.933951e+11   2.674585e+10  -5.858625e+10   1.177891e+06   3.015400e-19   0.000000e+00   0.000000e+00
     1024000   1.023999e-05   9.060566e+00   1.600617e+01   1.339538e+01   7.249031e+04   1.174619e+06   4.942834e+04  -2.965723e+11   2.081550e+10  -5.969722e+10   1.177891e+06   3.073009e-19   0.000000e+00   0.000000e+00
     1032000   1.031999e-05   9.065413e+00   1.610020e+01   1.339914e+01   4.864632e+04   1.176040e+06   4.460620e+04  -2.995562e+11   1.469670e+10  -6.076887e+10   1.177891e+06   3.129508e-19   0.000000e+00   0.000000e+00
     1040000   1.039999e-05   9.068343e+00   1.619432e+01   1.340252e+01   2.456867e+04   1.176965e+06   3.970588e+04  -3.023385e+11   8.395766e+09  -6.176700e+10   1.177891e+06   3.184700e-19   0.000000e+00   0.000000e+00
     1048000   1.047999e-05   9.069338e+00   1.628850e+01   1.340549e+01   2.737836e+02   1.177379e+06   3.472163e+04  -3.049528e+11   1.924449e+09  -6.282382e+10   1.177891e+06   3.239927e-19   0.000000e+00   0.000000e+00
     1056000   1.055999e-05   9.068382e+00   1.638269e+01   1.340807e+01  -2.422032e+04   1.177268e+06   2.965232e+04  -3.073356e+11  -4.712909e+09  -6.388783e+10   1.177891e+06   3.293810e-19   0.000000e+00   0.000000e+00
     1064000   1.063999e-05   9.065458e+00   1.647685e+01   1.341024e+01  -4.889737e+04   1.176621e+06   2.449998e+04  -3.095210e+11  -1.151046e+10  -6.491128e+10   1.177891e+06   3.346953e-19   0.000000e+00   0.000000e+00
     1072000   1.071999e-05   9.060554e+00   1.657094e+01   1.341199e+01  -7.373906e+04   1.175423e+06   1.926579e+04  -3.114610e+11  -1.845769e+10  -6.593201e+10   1.177891e+06   3.398635e-19   0.000000e+00   0.000000e+00
     1080000   1.079999e-05   9.053656e+00   1.666490e+01   1.341332e+01  -9.872667e+04   1.173663e+06   1.395166e+04  -3.131696e+11  -2.554703e+10  -6.691314e+10   1.177891e+06   3.449085e-19   0.000000e+00   0.000000e+00
     1088000   1.087999e-05   9.044754e+00   1.675871e+01   1.341422e+01  -1.238402e+05   1.171332e+06   8.559984e+03  -3.146168e+11  -3.276627e+10  -6.787490e+10   1.177891e+06   3.497849e-19   0.000000e+00   0.000000e+00
     1096000   1.095999e-05   9.033839e+00   1.685230e+01   1.341468e+01  -1.490589e+05   1.168417e+06   3.092949e+03  -3.158021e+11  -4.010493e+10  -6.879288e+10   1.177891e+06   3.544887e-19   0.000000e+00   0.000000e+00
     1104000   1.103999e-05   9.020902e+00   1.694564e+01   1.341471e+01  -1.743607e+05   1.164912e+06  -2.446166e+03  -3.166935e+11  -4.754717e+10  -6.968238e+10   1.177891e+06   3.589646e-19   0.000000e+00   0.000000e+00
     1112000   1.111999e-05   9.005939e+00   1.703867e+01   1.341429e+01  -1.997223e+05   1.160807e+06  -8.055018e+03  -3.173068e+11  -5.508260e+10  -7.053143e+10   1.177891e+06   3.632465e-19   0.000000e+00   0.000000e+00
     1120000   1.119999e-05   8.988946e+00   1.713135e+01   1.341342e+01  -2.251195e+05   1.156097e+06  -1.373063e+04  -3.176080e+11  -6.269235e+10  -7.135696e+10   1.177891e+06   3.672725e-19   0.000000e+00   0.000000e+00
     1128000   1.127999e-05   8.969920e+00   1.722363e+01   1.341209e+01  -2.505302e+05   1.150775e+06  -1.947005e+04  -3.176254e+11  -7.036813e+10  -7.212378e+10   1.177891e+06   3.710903e-19   0.000000e+00   0.000000e+00
     1136000   1.135999e-05   8.948861e+00   1.731546e+01   1.341030e+01  -2.759299e+05   1.144837e+06  -2.526878e+04  -3.173426e+11  -7.809326e+10  -7.285189e+10   1.177891e+06   3.746760e-19   0.000000e+00   0.000000e+00
     1144000   1.143999e-05   8.925772e+00   1.740679e+01   1.340805e+01  -3.012937e+05   1.138280e+06  -3.112409e+04  -3.167238e+11  -8.584376e+10  -7.352737e+10   1.177891e+06   3.779415e-19   0.000000e+00   0.000000e+00
     1152000   1.151999e-05   8.900656e+00   1.749757e+01   1.340532e+01  -3.265958e+05   1.131102e+06  -3.703171e+04  -3.157783e+11  -9.360499e+10  -7.415478e+10   1.177891e+06   3.809071e-19   0.000000e+00   0.000000e+00
     1160000   1.159999e-05   8.873519e+00   1.758775e+01   1.340212e+01  -3.518086e+05   1.123304e+06  -4.298784e+04  -3.144933e+11  -1.013555e+11  -7.473480e+10   1.177891e+06   3.835390e-19   0.000000e+00   0.000000e+00
     1168000   1.167999e-05   8.844370e+00   1.767728e+01   1.339844e+01  -3.769059e+05   1.114886e+06  -4.899001e+04  -3.128574e+11  -1.090755e+11  -7.532240e+10   1.177891e+06   3.858329e-19   0.000000e+00   0.000000e+00
     1176000   1.175999e-05   8.813218e+00   1.776611e+01   1.339428e+01  -4.018634e+05   1.105850e+06  -5.503593e+04  -3.109970e+11  -1.167879e+11  -7.581925e+10   1.177891e+06   3.880268e-19   0.000000e+00   0.000000e+00
     1184000   1.183999e-05   8.780076e+00   1.785420e+01   1.338964e+01  -4.266544e+05   1.096202e+06  -6.112292e+04  -3.087248e+11  -1.244142e+11  -7.632764e+10   1.177892e+06   3.897270e-19   0.000000e+00   0.000000e+00
     1192000   1.191999e-05   8.744958e+00   1.794149e+01   1.338450e+01  -4.512561e+05   1.085944e+06  -6.723924e+04  -3.062714e+11  -1.320078e+11  -7.655343e+10   1.177892e+06   3.913074e-19   0.000000e+00   0.000000e+00
     1200000   1.199999e-05   8.707881e+00   1.802793e+01   1.337888e+01  -4.756467e+05   1.075084e+06  -7.337374e+04  -3.034529e+11  -1.394967e+11  -7.680475e+10   1.177892e+06   3.924881e-19   0.000000e+00   0.000000e+00
     1208000   1.207999e-05   8.668861e+00   1.811349e+01   1.337276e+01  -4.997943e+05   1.063630e+06  -7.953033e+04  -3.002773e+11  -1.468632e+11  -7.710747e+10   1.177892e+06   3.932865e-19   0.000000e+00   0.000000e+00
     1216000   1.215999e-05   8.627920e+00   1.819810e+01   1.336615e+01  -5.236805e+05   1.051590e+06  -8.570466e+04  -2.968318e+11  -1.541129e+11  -7.724001e+10   1.177892e+06   3.937714e-19   0.000000e+00   0.000000e+00
     1224000   1.223999e-05   8.585080e+00   1.828173e+01   1.335905e+01  -5.472787e+05   1.038976e+06  -9.188430e+04  -2.930522e+11  -1.612051e+11  -7.736051e+10   1.177892e+06   3.938563e-19   0.000000e+00   0.000000e+00
     1232000   1.231999e-05   8.540364e+00   1.836432e+01   1.335145e+01  -5.705669e+05   1.025800e+06  -9.806593e+04  -2.890835e+11  -1.681738e+11  -7.721692e+10   1.177892e+06   3.937322e-19   0.000000e+00   0.000000e+00
     1240000   1.239999e-05   8.493798e+00   1.844584e+01   1.334336e+01  -5.935248e+05   1.012073e+06  -1.042406e+05  -2.847958e+11  -1.749600e+11  -7.713006e+10   1.177892e+06   3.932463e-19   0.000000e+00   0.000000e+00
     1248000   1.247999e-05   8.445410e+00   1.852624e+01   1.333477e+01  -6.161302e+05   9.978092e+05  -1.104064e+05  -2.802997e+11  -1.816037e+11  -7.704178e+10   1.177892e+06   3.926266e-19   0.000000e+00   0.000000e+00
     1256000   1.255999e-05   8.395227e+00   1.860547e+01   1.332569e+01  -6.383648e+05   9.830225e+05  -1.165609e+05  -2.755239e+11  -1.880323e+11  -7.683892e+10   1.177892e+06   3.915923e-19   0.000000e+00   0.000000e+00
     1264000   1.263999e-05   8.343282e+00   1.868351e+01   1.331612e+01  -6.602086e+05   9.677291e+05  -1.226962e+05  -2.705370e+11  -1.942694e+11  -7.653448e+10   1.177892e+06   3.903043e-19   0.000000e+00   0.000000e+00
     1272000   1.271999e-05   8.289605e+00   1.876030e+01   1.330606e+01  -6.816450e+05   9.519450e+05  -1.288028e+05  -2.653179e+11  -2.002855e+11  -7.615726e+10   1.177892e+06   3.886983e-19   0.000000e+00   0.000000e+00
     1280000   1.279999e-05   8.234230e+00   1.883581e+01   1.329552e+01  -7.026559e+05   9.356877e+05  -1.348807e+05  -2.599100e+11  -2.061027e+11  -7.578244e+10   1.177892e+06   3.869162e-19   0.000000e+00   0.000000e+00
     1288000   1.287999e-05   8.177192e+00   1.891000e+01   1.328448e+01  -7.232243e+05   9.189760e+05  -1.409233e+05  -2.542886e+11  -2.116705e+11  -7.531452e+10   1.177892e+06   3.847936e-19   0.000000e+00   0.000000e+00
     1296000   1.295999e-05   8.118526e+00   1.898283e+01   1.327297e+01  -7.433383e+05   9.018266e+05  -1.469239e+05  -2.485360e+11  -2.170249e+11  -7.468958e+10   1.177892e+06   3.824848e-19   0.000000e+00   0.000000e+00
     1304000   1.303999e-05   8.058270e+00   1.905428e+01   1.326098e+01  -7.629843e+05   8.842590e+05  -1.528752e+05  -2.426036e+11  -2.221340e+11  -7.406333e+10   1.177892e+06   3.799346e-19   0.000000e+00   0.000000e+00
     1312000   1.311999e-05   7.996461e+00   1.912430e+01   1.324851e+01  -7.821524e+05   8.662908e+05  -1.587697e+05  -2.365469e+11  -2.270151e+11  -7.335423e+10   1.177892e+06   3.772133e-19   0.000000e+00   0.000000e+00
     1320000   1.319999e-05   7.933139e+00   1.919287e+01   1.323557e+01  -8.008311e+05   8.479413e+05  -1.646061e+05  -2.304009e+11  -2.316819e+11  -7.254596e+10   1.177892e+06   3.743823e-19   0.000000e+00   0.000000e+00
     1328000   1.327999e-05   7.868342e+00   1.925996e+01   1.322217e+01  -8.190127e+05   8.292288e+05  -1.703756e+05  -2.241212e+11  -2.360910e+11  -7.170269e+10   1.177892e+06   3.713296e-19   0.000000e+00   0.000000e+00
     1336000   1.335999e-05   7.802110e+00   1.932554e+01   1.320832e+01  -8.366886e+05   8.101727e+05  -1.760755e+05  -2.177546e+11  -2.402639e+11  -7.078557e+10   1.177892e+06   3.681342e-19   0.000000e+00   0.000000e+00
     1344000   1.343999e-05   7.734485e+00   1.938958e+01   1.319400e+01  -8.538506e+05   7.907928e+05  -1.817037e+05  -2.112871e+11  -2.441976e+11  -6.991152e+10   1.177892e+06   3.648186e-19   0.000000e+00   0.000000e+00
     1352000   1.351999e-05   7.665508e+00   1.945206e+01   1.317925e+01  -8.704933e+05   7.711077e+05  -1.872556e+05  -2.047757e+11  -2.478997e+11  -6.890361e+10   1.177892e+06   3.613856e-19   0.000000e+00   0.000000e+00
     1360000   1.359999e-05   7.595220e+00   1.951295e+01   1.316405e+01  -8.866137e+05   7.511353e+05  -1.927233e+05  -1.982052e+11  -2.513623e+11  -6.785239e+10   1.177892e+06   3.578338e-19   0.000000e+00   0.000000e+00
     1368000   1.367999e-05   7.523664e+00   1.957223e+01   1.314841e+01  -9.022074e+05   7.308945e+05  -1.981050e+05  -1.916278e+11  -2.546159e+11  -6.668417e+10   1.177892e+06   3.542412e-19   0.000000e+00   0.000000e+00
     1376000   1.375999e-05   7.450881e+00   1.962989e+01   1.313235e+01  -9.172721e+05   7.104036e+05  -2.033943e+05  -1.850058e+11  -2.576391e+11  -6.552843e+10   1.177892e+06   3.505709e-19   0.000000e+00   0.000000e+00
     1384000   1.383999e-05   7.376914e+00   1.968589e+01   1.311587e+01  -9.318066e+05   6.896800e+05  -2.085872e+05  -1.783528e+11  -2.604112e+11  -6.429515e+10   1.177892e+06   3.467564e-19   0.000000e+00   0.000000e+00
     1392000   1.391999e-05   7.301806e+00   1.974023e+01   1.309898e+01  -9.458108e+05   6.687400e+05  -2.136806e+05  -1.717194e+11  -2.630145e+11  -6.306307e+10   1.177893e+06   3.430253e-19   0.000000e+00   0.000000e+00
     1400000   1.399999e-05   7.225599e+00   1.979289e+01   1.308169e+01  -9.592834e+05   6.476039e+05  -2.186674e+05  -1.651040e+11  -2.653798e+11  -6.164832e+10   1.177893e+06   3.391658e-19   0.000000e+00   0.000000e+00
     1408000   1.407999e-05   7.148335e+00   1.984384e+01   1.306400e+01  -9.722273e+05   6.262836e+05  -2.235483e+05  -1.585026e+11  -2.675849e+11  -6.032042e+10   1.177893e+06   3.354129e-19   0.000000e+00   0.000000e+00
     1416000   1.415999e-05   7.070056e+00   1.989309e+01   1.304592e+01  -9.846431e+05   6.047963e+05  -2.283210e+05  -1.518947e+11  -2.695701e+11  -5.901304e+10   1.177893e+06   3.316005e-19   0.000000e+00   0.000000e+00
     1424000   1.423999e-05   6.990806e+00   1.994061e+01   1.302747e+01  -9.965339e+05   5.831567e+05  -2.329796e+05  -1.453519e+11  -2.713675e+11  -5.752735e+10   1.177893e+06   3.277716e-19   0.000000e+00   0.000000e+00
     1432000   1.431999e-05   6.910625e+00   1.998639e+01   1.300865e+01  -1.007902e+06   5.613803e+05  -2.375221e+05  -1.388544e+11  -2.730042e+11  -5.603075e+10   1.177893e+06   3.240100e-19   0.000000e+00   0.000000e+00
     1440000   1.439999e-05   6.829555e+00   2.003042e+01   1.298947e+01  -1.018751e+06   5.394809e+05  -2.419458e+05  -1.323889e+11  -2.744625e+11  -5.454471e+10   1.177893e+06   3.202681e-19   0.000000e+00   0.000000e+00
     1448000   1.447999e-05   6.747639e+00   2.007270e+01   1.296994e+01  -1.029084e+06   5.174722e+05  -2.462521e+05  -1.259595e+11  -2.757475e+11  -5.307425e+10   1.177893e+06   3.165509e-19   0.000000e+00   0.000000e+00
     1456000   1.455999e-05   6.664916e+00   2.011322e+01   1.295007e+01  -1.038907e+06   4.953649e+05  -2.504351e+05  -1.196162e+11  -2.769081e+11  -5.151574e+10   1.177893e+06   3.129437e-19   0.000000e+00   0.000000e+00
     1464000   1.463999e-05   6.581427e+00   2.015196e+01   1.292987e+01  -1.048224e+06   4.731714e+05  -2.544917e+05  -1.133378e+11  -2.779186e+11  -4.990569e+10   1.177893e+06   3.093839e-19   0.000000e+00   0.000000e+00
     1472000   1.471999e-05   6.497213e+00   2.018892e+01   1.290936e+01  -1.057042e+06   4.509029e+05  -2.584203e+05  -1.070743e+11  -2.787164e+11  -4.834345e+10   1.177893e+06   3.057413e-19   0.000000e+00   0.000000e+00
     1480000   1.479999e-05   6.412314e+00   2.022410e+01   1.288853e+01  -1.065362e+06   4.285723e+05  -2.622233e+05  -1.009326e+11  -2.794844e+11  -4.671772e+10   1.177893e+06   3.023880e-19   0.000000e+00   0.000000e+00
     1488000   1.487999e-05   6.326768e+00   2.025749e+01   1.286740e+01  -1.073192e+06   4.061904e+05  -2.658939e+05  -9.483750e+10  -2.800574e+11  -4.505053e+10   1.177893e+06   2.989604e-19   0.000000e+00   0.000000e+00
     1496000   1.495999e-05   6.240616e+00   2.028909e+01   1.284599e+01  -1.080537e+06   3.837664e+05  -2.694362e+05  -8.879570e+10  -2.805233e+11  -4.345849e+10   1.177893e+06   2.956545e-19   0.000000e+00   0.000000e+00
     1504000   1.503999e-05   6.153895e+00   2.031889e+01   1.282430e+01  -1.087402e+06   3.613108e+05  -2.728447e+05  -8.284151e+10  -2.808538e+11  -4.176137e+10   1.177893e+06   2.923757e-19   0.000000e+00   0.000000e+00
     1512000   1.511999e-05   6.066644e+00   2.034690e+01   1.280234e+01  -1.093793e+06   3.388333e+05  -2.761171e+05  -7.696127e+10  -2.810778e+11  -4.005431e+10   1.177893e+06   2.891894e-19   0.000000e+00   0.000000e+00
     1520000   1.519999e-05   5.978901e+00   2.037311e+01   1.278012e+01  -1.099716e+06   3.163408e+05  -2.792582e+05  -7.114373e+10  -2.811919e+11  -3.837096e+10   1.177893e+06   2.860830e-19   0.000000e+00   0.000000e+00
     1528000   1.527999e-05   5.890702e+00   2.039751e+01   1.275766e+01  -1.105177e+06   2.938436e+05  -2.822610e+05  -6.537071e+10  -2.812106e+11  -3.679772e+10   1.177893e+06   2.830891e-19   0.000000e+00   0.000000e+00
     1536000   1.535999e-05   5.802085e+00   2.042012e+01   1.273496e+01  -1.110182e+06   2.713480e+05  -2.851304e+05  -5.972564e+10  -2.811435e+11  -3.500947e+10   1.177893e+06   2.801740e-19   0.000000e+00   0.000000e+00
     1544000   1.543999e-05   5.713085e+00   2.044093e+01   1.271204e+01  -1.114735e+06   2.488619e+05  -2.878652e+05  -5.412758e+10  -2.809908e+11  -3.331713e+10   1.177893e+06   2.773706e-19   0.000000e+00   0.000000e+00
     1552000   1.551999e-05   5.623739e+00   2.045994e+01   1.268891e+01  -1.118843e+06   2.263923e+05  -2.904629e+05  -4.859300e+10  -2.807459e+11  -3.164454e+10   1.177893e+06   2.746477e-19   0.000000e+00   0.000000e+00
     1560000   1.559999e-05   5.534082e+00   2.047715e+01   1.266557e+01  -1.122512e+06   2.039446e+05  -2.929257e+05  -4.313935e+10  -2.804236e+11  -2.992989e+10   1.177893e+06   2.720185e-19   0.000000e+00   0.000000e+00
     1568000   1.567999e-05   5.444148e+00   2.049257e+01   1.264204e+01  -1.125747e+06   1.815286e+05  -2.952532e+05  -3.773788e+10  -2.799827e+11  -2.825504e+10   1.177893e+06   2.694072e-19   0.000000e+00   0.000000e+00
     1576000   1.575999e-05   5.353974e+00   2.050620e+01   1.261834e+01  -1.128552e+06   1.591485e+05  -2.974467e+05  -3.241063e+10  -2.795101e+11  -2.658408e+10   1.177893e+06   2.669684e-19   0.000000e+00   0.000000e+00
     1584000   1.583999e-05   5.263591e+00   2.051804e+01   1.259446e+01  -1.130934e+06   1.368096e+05  -2.995069e+05  -2.714678e+10  -2.789645e+11  -2.492294e+10   1.177893e+06   2.646164e-19   0.000000e+00   0.000000e+00
     1592000   1.591999e-05   5.173035e+00   2.052809e+01   1.257042e+01  -1.132897e+06   1.145181e+05  -3.014352e+05  -2.193496e+10  -2.783312e+11  -2.330415e+10   1.177893e+06   2.623210e-19   0.000000e+00   0.000000e+00
     1600000   1.599999e-05   5.082339e+00   2.053636e+01   1.254623e+01  -1.134446e+06   9.228045e+04  -3.032330e+05  -1.679589e+10  -2.775947e+11  -2.164446e+10   1.177893e+06   2.600381e-19   0.000000e+00   0.000000e+00
     1608000   1.607999e-05   4.991535e+00   2.054286e+01   1.252190e+01  -1.135585e+06   7.010257e+04  -3.049002e+05  -1.170732e+10  -2.768417e+11  -2.005058e+10   1.177893e+06   2.579362e-19   0.000000e+00   0.000000e+00
     1616000   1.615999e-05   4.900656e+00   2.054758e+01   1.249745e+01  -1.136321e+06   4.798761e+04  -3.064402e+05  -6.679845e+09  -2.760123e+11  -1.845546e+10   1.177893e+06   2.558895e-19   0.000000e+00   0.000000e+00
     1624000   1.623999e-05   4.809734e+00   2.055054e+01   1.247288e+01  -1.136655e+06   2.593993e+04  -3.078546e+05  -1.704612e+09  -2.751251e+11  -1.689087e+10   1.177893e+06   2.539312e-19   0.000000e+00   0.000000e+00
     1632000   1.631999e-05   4.718802e+00   2.055173e+01   1.244820e+01  -1.136594e+06   3.968020e+03  -3.091446e+05   3.215396e+09  -2.741457e+11  -1.534289e+10   1.177893e+06   2.519914e-19   0.000000e+00   0.000000e+00
     1640000   1.639999e-05   4.627890e+00   2.055117e+01   1.242342e+01  -1.136142e+06  -1.792088e+04  -3.103110e+05   8.079850e+09  -2.730918e+11  -1.381376e+10   1.177893e+06   2.500986e-19   0.000000e+00   0.000000e+00
     1648000   1.647999e-05   4.537029e+00   2.054887e+01   1.239855e+01  -1.135303e+06  -3.972598e+04  -3.113555e+05   1.288956e+10  -2.719913e+11  -1.229841e+10   1.177893e+06   2.482987e-19   0.000000e+00   0.000000e+00
     1656000   1.655999e-05   4.446252e+00   2.054482e+01   1.237360e+01  -1.134080e+06  -6.143976e+04  -3.122820e+05   1.766243e+10  -2.708383e+11  -1.085913e+10   1.177893e+06   2.465829e-19   0.000000e+00   0.000000e+00
     1664000   1.663999e-05   4.355587e+00   2.053904e+01   1.234859e+01  -1.132478e+06  -8.305637e+04  -3.130932e+05   2.237765e+10  -2.695828e+11  -9.429653e+09   1.177893e+06   2.448495e-19   0.000000e+00   0.000000e+00
     1672000   1.671999e-05   4.265065e+00   2.053153e+01   1.232351e+01  -1.130501e+06  -1.045727e+05  -3.137916e+05   2.705060e+10  -2.683212e+11  -8.038389e+09   1.177894e+06   2.432722e-19   0.000000e+00   0.000000e+00
     1680000   1.679999e-05   4.174716e+00   2.052231e+01   1.229838e+01  -1.128151e+06  -1.259853e+05  -3.143806e+05   3.167831e+10  -2.670084e+11  -6.678278e+09   1.177894e+06   2.417649e-19   0.000000e+00   0.000000e+00
     1688000   1.687999e-05   4.084571e+00   2.051138e+01   1.227321e+01  -1.125434e+06  -1.472898e+05  -3.148624e+05   3.627152e+10  -2.656217e+11  -5.394540e+09   1.177894e+06   2.402879e-19   0.000000e+00   0.000000e+00
     1696000   1.695999e-05   3.994657e+00   2.049875e+01   1.224801e+01  -1.122350e+06  -1.684804e+05  -3.152422e+05   4.080626e+10  -2.641045e+11  -4.133881e+09   1.177894e+06   2.387299e-19   0.000000e+00   0.000000e+00
     1704000   1.703999e-05   3.905004e+00   2.048442e+01   1.222278e+01  -1.118906e+06  -1.895494e+05  -3.155228e+05   4.530035e+10  -2.626048e+11  -2.887071e+09   1.177894e+06   2.373540e-19   0.000000e+00   0.000000e+00
     1712000   1.711999e-05   3.815642e+00   2.046842e+01   1.219753e+01  -1.115103e+06  -2.104972e+05  -3.157049e+05   4.975560e+10  -2.610304e+11  -1.701441e+09   1.177894e+06   2.359960e-19   0.000000e+00   0.000000e+00
     1720000   1.719999e-05   3.726597e+00   2.045075e+01   1.217227e+01  -1.110945e+06  -2.313168e+05  -3.157945e+05   5.416820e+10  -2.594105e+11  -5.465473e+08   1.177894e+06   2.347023e-19   0.000000e+00   0.000000e+00
     1728000   1.727999e-05   3.637900e+00   2.043141e+01   1.214700e+01  -1.106437e+06  -2.520005e+05  -3.157941e+05   5.853050e+10  -2.576846e+11   5.561454e+08   1.177894e+06   2.333627e-19   0.000000e+00   0.000000e+00
     1736000   1.735999e-05   3.549577e+00   2.041043e+01   1.212174e+01  -1.101582e+06  -2.725455e+05  -3.157065e+05   6.285502e+10  -2.559287e+11   1.620371e+09   1.177894e+06   2.321108e-19   0.000000e+00   0.000000e+00
     1744000   1.743999e-05   3.461656e+00   2.038781e+01   1.209649e+01  -1.096382e+06  -2.929470e+05  -3.155362e+05   6.714590e+10  -2.541138e+11   2.610309e+09   1.177894e+06   2.308954e-19   0.000000e+00   0.000000e+00
     1752000   1.751999e-05   3.374165e+00   2.036356e+01   1.207126e+01  -1.090841e+06  -3.131995e+05  -3.152872e+05   7.136378e+10  -2.521973e+11   3.618487e+09   1.177894e+06   2.296260e-19   0.000000e+00   0.000000e+00
     1760000   1.759999e-05   3.287130e+00   2.033770e+01   1.204605e+01  -1.084963e+06  -3.332981e+05  -3.149617e+05   7.557486e+10  -2.502601e+11   4.491303e+09   1.177894e+06   2.284646e-19   0.000000e+00   0.000000e+00
     1768000   1.767999e-05   3.200579e+00   2.031024e+01   1.202087e+01  -1.078751e+06  -3.532394e+05  -3.145667e+05   7.972411e+10  -2.482573e+11   5.375999e+09   1.177894e+06   2.273106e-19   0.000000e+00   0.000000e+00
     1776000   1.775999e-05   3.114539e+00   2.028119e+01   1.199572e+01  -1.072208e+06  -3.730187e+05  -3.141044e+05   8.384354e+10  -2.462046e+11   6.178116e+09   1.177894e+06   2.262014e-19   0.000000e+00   0.000000e+00
     1784000   1.783999e-05   3.029035e+00   2.025056e+01   1.197061e+01  -1.065337e+06  -3.926287e+05  -3.135809e+05   8.790339e+10  -2.440455e+11   6.925907e+09   1.177894e+06   2.250269e-19   0.000000e+00   0.000000e+00
     1792000   1.791999e-05   2.944093e+00   2.021837e+01   1.194555e+01  -1.058144e+06  -4.120662e+05  -3.129963e+05   9.191738e+10  -2.418596e+11   7.666849e+09   1.177894e+06   2.239257e-19   0.000000e+00   0.000000e+00
     1800000   1.799999e-05   2.859740e+00   2.018464e+01   1.192053e+01  -1.050631e+06  -4.313258e+05  -3.123559e+05   9.589611e+10  -2.396272e+11   8.340789e+09   1.177894e+06   2.228668e-19   0.000000e+00   0.000000e+00
     1808000   1.807999e-05   2.776001e+00   2.014937e+01   1.189557e+01  -1.042803e+06  -4.504013e+05  -3.116636e+05   9.981296e+10  -2.372945e+11   8.957706e+09   1.177894e+06   2.217463e-19   0.000000e+00   0.000000e+00
     1816000   1.815999e-05   2.692900e+00   2.011258e+01   1.187067e+01  -1.034664e+06  -4.692875e+05  -3.109239e+05   1.036436e+11  -2.348188e+11   9.521820e+09   1.177894e+06   2.204796e-19   0.000000e+00   0.000000e+00
     1824000   1.823999e-05   2.610463e+00   2.007429e+01   1.184583e+01  -1.026219e+06  -4.879778e+05  -3.101405e+05   1.074705e+11  -2.323987e+11   1.004869e+10   1.177894e+06   2.194354e-19   0.000000e+00   0.000000e+00
     1832000   1.831999e-05   2.528713e+00   2.003451e+01   1.182105e+01  -1.017471e+06  -5.064674e+05  -3.093177e+05   1.112165e+11  -2.298527e+11   1.051574e+10   1.177894e+06   2.182719e-19   0.000000e+00   0.000000e+00
     1840000   1.839999e-05   2.447675e+00   1.999326e+01   1.179634e+01  -1.008425e+06  -5.247529e+05  -3.084593e+05   1.149121e+11  -2.272636e+11   1.094570e+10   1.177894e+06   2.171404e-19   0.000000e+00   0.000000e+00
     1848000   1.847999e-05   2.367373e+00   1.995055e+01   1.177169e+01  -9.990857e+05  -5.428288e+05  -3.075696e+05   1.185716e+11  -2.246307e+11   1.128936e+10   1.177894e+06   2.160452e-19   0.000000e+00   0.000000e+00
     1856000   1.855999e-05   2.287829e+00   1.990641e+01   1.174713e+01  -9.894563e+05  -5.606917e+05  -3.066521e+05   1.221592e+11  -2.219422e+11   1.163955e+10   1.177894e+06   2.149459e-19   0.000000e+00   0.000000e+00
     1864000   1.863999e-05   2.209068e+00   1.986085e+01   1.172263e+01  -9.795428e+05  -5.783353e+05  -3.057102e+05   1.256730e+11  -2.191569e+11   1.191798e+10   1.177894e+06   2.137722e-19   0.000000e+00   0.000000e+00
     1872000   1.871999e-05   2.131110e+00   1.981388e+01   1.169821e+01  -9.693495e+05  -5.957560e+05  -3.047470e+05   1.291364e+11  -2.163287e+11   1.214169e+10   1.177894e+06   2.126234e-19   0.000000e+00   0.000000e+00
     1880000   1.879999e-05   2.053979e+00   1.976553e+01   1.167387e+01  -9.588828e+05  -6.129456e+05  -3.037696e+05   1.325202e+11  -2.134061e+11   1.229341e+10   1.177894e+06   2.113973e-19   0.000000e+00   0.000000e+00
     1888000   1.887999e-05   1.977696e+00   1.971582e+01   1.164961e+01  -9.481479e+05  -6.299010e+05  -3.027786e+05   1.358473e+11  -2.104797e+11   1.247566e+10   1.177894e+06   2.102509e-19   0.000000e+00   0.000000e+00
     1896000   1.895999e-05   1.902282e+00   1.966475e+01   1.162543e+01  -9.371498e+05  -6.466175e+05  -3.017791e+05   1.390893e+11  -2.074358e+11   1.253732e+10   1.177894e+06   2.089836e-19   0.000000e+00   0.000000e+00
     1904000   1.903999e-05   1.827759e+00   1.961236e+01   1.160133e+01  -9.258950e+05  -6.630907e+05  -3.007721e+05   1.422816e+11  -2.043856e+11   1.259355e+10   1.177894e+06   2.077922e-19   0.000000e+00   0.000000e+00
     1912000   1.911999e-05   1.754146e+00   1.955867e+01   1.157730e+01  -9.143861e+05  -6.793190e+05  -2.997640e+05   1.454136e+11  -2.012939e+11   1.260297e+10   1.177894e+06   2.066127e-19   0.000000e+00   0.000000e+00
     1920000   1.919999e-05   1.681464e+00   1.950368e+01   1.155336e+01  -9.026317e+05  -6.952948e+05  -2.987574e+05   1.484350e+11  -1.980969e+11   1.256207e+10   1.177894e+06   2.053092e-19   0.000000e+00   0.000000e+00
     1928000   1.927999e-05   1.609731e+00   1.944743e+01   1.152950e+01  -8.906374e+05  -7.110151e+05  -2.977540e+05   1.513979e+11  -1.948807e+11   1.249981e+10   1.177894e+06   2.040491e-19   0.000000e+00   0.000000e+00
     1936000   1.935999e-05   1.538968e+00   1.938992e+01   1.150572e+01  -8.784100e+05  -7.264747e+05  -2.967582e+05   1.542690e+11  -1.916017e+11   1.240666e+10   1.177894e+06   2.027389e-19   0.000000e+00   0.000000e+00
     1944000   1.943999e-05   1.469192e+00   1.933120e+01   1.148202e+01  -8.659559e+05  -7.416707e+05  -2.957701e+05   1.570637e+11  -1.882882e+11   1.229678e+10   1.177894e+06   2.014308e-19   0.000000e+00   0.000000e+00
     1952000   1.951999e-05   1.400421e+00   1.927126e+01   1.145840e+01  -8.532823e+05  -7.565981e+05  -2.947943e+05   1.597583e+11  -1.848895e+11   1.210184e+10   1.177894e+06   2.000294e-19   0.000000e+00   0.000000e+00
     1960000   1.959999e-05   1.332672e+00   1.921015e+01   1.143485e+01  -8.403956e+05  -7.712537e+05  -2.938332e+05   1.623776e+11  -1.814702e+11   1.190319e+10   1.177894e+06   1.986469e-19   0.000000e+00   0.000000e+00
     1968000   1.967999e-05   1.265963e+00   1.914787e+01   1.141138e+01  -8.273034e+05  -7.856330e+05  -2.928909e+05   1.649168e+11  -1.780102e+11   1.165572e+10   1.177894e+06   1.972481e-19   0.000000e+00   0.000000e+00
     1976000   1.975999e-05   1.200309e+00   1.908445e+01   1.138799e+01  -8.140121e+05  -7.997336e+05  -2.919683e+05   1.673489e+11  -1.745043e+11   1.141346e+10   1.177894e+06   1.957997e-19   0.000000e+00   0.000000e+00
     1984000   1.983999e-05   1.135726e+00   1.901992e+01   1.136467e+01  -8.005288e+05  -8.135518e+05  -2.910709e+05   1.697109e+11  -1.709632e+11   1.109162e+10   1.177894e+06   1.943478e-19   0.000000e+00   0.000000e+00
     1992000   1.991999e-05   1.072229e+00   1.895429e+01   1.134142e+01  -7.868606e+05  -8.270863e+05  -2.901961e+05   1.719726e+11  -1.673830e+11   1.075518e+10   1.177894e+06   1.928576e-19   0.000000e+00   0.000000e+00
     2000000   1.999999e-05   1.009833e+00   1.888759e+01   1.131824e+01  -7.730147e+05  -8.403342e+05  -2.893474e+05   1.741629e+11  -1.638127e+11   1.045920e+10   1.177894e+06   1.914185e-19   0.000000e+00   0.000000e+00
     2008000   2.007999e-05   9.485514e-01   1.881985e+01   1.129512e+01  -7.589980e+05  -8.532937e+05  -2.885260e+05   1.762701e+11  -1.602104e+11   1.011133e+10   1.177894e+06   1.899616e-19   0.000000e+00   0.000000e+00
     2016000   2.015999e-05   8.883978e-01   1.875108e+01   1.127207e+01  -7.448175e+05  -8.659632e+05  -2.877327e+05   1.782857e+11  -1.565906e+11   9.768883e+09   1.177894e+06   1.884948e-19   0.000000e+00   0.000000e+00
     2024000   2.023999e-05   8.293849e-01   1.868130e+01   1.124908e+01  -7.304807e+05  -8.783405e+05  -2.869693e+05   1.801126e+11  -1.528321e+11   9.301709e+09   1.177894e+06   1.867666e-19   0.000000e+00   0.000000e+00
     2032000   2.031999e-05   7.715247e-01   1.861055e+01   1.122616e+01  -7.159981e+05  -8.904206e+05  -2.862398e+05   1.819259e+11  -1.491570e+11   8.920037e+09   1.177895e+06   1.852282e-19   0.000000e+00   0.000000e+00
     2040000   2.039999e-05   7.148288e-01   1.853884e+01   1.120329e+01  -7.013767e+05  -9.022029e+05  -2.855455e+05   1.835962e+11  -1.454104e+11   8.471658e+09   1.177895e+06   1.835542e-19   0.000000e+00   0.000000e+00
     2048000   2.047999e-05   6.593080e-01   1.846620e+01   1.118047e+01  -6.866236e+05  -9.136871e+05  -2.848849e+05   1.852024e+11  -1.416880e+11   8.050782e+09   1.177895e+06   1.819391e-19   0.000000e+00   0.000000e+00
     2056000   2.055999e-05   6.049723e-01   1.839266e+01   1.115770e+01  -6.717480e+05  -9.248713e+05  -2.842592e+05   1.866704e+11  -1.379119e+11   7.580247e+09   1.177895e+06   1.802104e-19   0.000000e+00   0.000000e+00
     2064000   2.063999e-05   5.518314e-01   1.831823e+01   1.113499e+01  -6.567558e+05  -9.357557e+05  -2.836699e+05   1.880770e+11  -1.341658e+11   7.139413e+09   1.177895e+06   1.785441e-19   0.000000e+00   0.000000e+00
     2072000   2.071999e-05   4.998942e-01   1.824295e+01   1.111231e+01  -6.416584e+05  -9.463375e+05  -2.831176e+05   1.893698e+11  -1.303984e+11   6.674227e+09   1.177895e+06   1.768224e-19   0.000000e+00   0.000000e+00
     2080000   2.079999e-05   4.491688e-01   1.816683e+01   1.108969e+01  -6.264599e+05  -9.566191e+05  -2.826016e+05   1.905772e+11  -1.266410e+11   6.219714e+09   1.177895e+06   1.751084e-19   0.000000e+00   0.000000e+00
     2088000   2.087999e-05   3.996630e-01   1.808990e+01   1.106710e+01  -6.111704e+05  -9.665984e+05  -2.821242e+05   1.916902e+11  -1.228709e+11   5.709886e+09   1.177895e+06   1.733660e-19   0.000000e+00   0.000000e+00
     2096000   2.095999e-05   3.513838e-01   1.801218e+01   1.104454e+01  -5.957961e+05  -9.762764e+05  -2.816865e+05   1.926531e+11  -1.190814e+11   5.232387e+09   1.177895e+06   1.715213e-19   0.000000e+00   0.000000e+00
     2104000   2.103999e-05   3.043376e-01   1.793370e+01   1.102203e+01  -5.803483e+05  -9.856516e+05  -2.812875e+05   1.935339e+11  -1.153075e+11   4.747516e+09   1.177895e+06   1.696857e-19   0.000000e+00   0.000000e+00
     2112000   2.111999e-05   2.585300e-01   1.785448e+01   1.099954e+01  -5.648324e+05  -9.947261e+05  -2.809273e+05   1.943467e+11  -1.115640e+11   4.277909e+09   1.177895e+06   1.678868e-19   0.000000e+00   0.000000e+00
     2120000   2.119999e-05   2.139660e-01   1.777455e+01   1.097708e+01  -5.492567e+05  -1.003501e+06  -2.806054e+05   1.950271e+11  -1.078012e+11   3.770932e+09   1.177895e+06   1.660001e-19   0.000000e+00   0.000000e+00
     2128000   2.127999e-05   1.706502e-01   1.769393e+01   1.095464e+01  -5.336298e+05  -1.011975e+06  -2.803229e+05   1.956462e+11  -1.040747e+11   3.274309e+09   1.177895e+06   1.641580e-19   0.000000e+00   0.000000e+00
     2136000   2.135999e-05   1.285864e-01   1.761264e+01   1.093222e+01  -5.179586e+05  -1.020152e+06  -2.800799e+05   1.961207e+11  -1.003451e+11   2.800433e+09   1.177895e+06   1.622217e-19   0.000000e+00   0.000000e+00
     2144000   2.143999e-05   8.777778e-02   1.753071e+01   1.090983e+01  -5.022522e+05  -1.028032e+06  -2.798747e+05   1.965360e+11  -9.665263e+10   2.325503e+09   1.177895e+06   1.603275e-19   0.000000e+00   0.000000e+00
     2152000   2.151999e-05   4.822687e-02   1.744817e+01   1.088744e+01  -4.865164e+05  -1.035616e+06  -2.797079e+05   1.968396e+11  -9.297265e+10   1.851380e+09   1.177895e+06   1.583879e-19   0.000000e+00   0.000000e+00
     2160000   2.159999e-05   9.935654e-03   1.736502e+01   1.086507e+01  -4.707618e+05  -1.042907e+06  -2.795775e+05   1.970150e+11  -8.930792e+10   1.403091e+09   1.177895e+06   1.563815e-19   0.000000e+00   0.000000e+00
