     timestep     time              x             y              z              vx             vy             vz             ax             ay             az         v_magnitude      ELoss        Electronic      Nuclear
           0   0.000000e+00   1.000000e-01   8.345700e+00   2.055099e+01   1.144151e+05  -2.306796e+05   8.300569e+05   0.000000e+00   0.000000e+00   0.000000e+00   8.690790e+05   0.000000e+00   0.000000e+00   0.000000e+00
        8000   7.999000e-08   1.102104e-01   8.326903e+00   2.061714e+01   1.403981e+05  -2.386293e+05   8.237978e+05   3.095317e+11  -7.823800e+10  -7.541468e+10   8.690790e+05   1.957953e-19   0.000000e+00   0.000000e+00
       16000   1.599900e-07   1.224060e-01   8.307595e+00   2.068281e+01   1.641528e+05  -2.436815e+05   8.179069e+05   2.841066e+11  -4.915207e+10  -7.166276e+10   8.690791e+05   1.605905e-19   0.000000e+00   0.000000e+00
       24000   2.399900e-07   1.364216e-01   8.287974e+00   2.074802e+01   1.859605e+05  -2.465357e+05   8.123653e+05   2.626898e+11  -2.562893e+10  -6.790989e+10   8.690791e+05   1.351305e-19   0.000000e+00   0.000000e+00
       32000   3.199900e-07   1.521184e-01   8.268186e+00   2.081279e+01   2.061895e+05  -2.479078e+05   8.070478e+05   2.429251e+11  -6.306566e+09  -6.400043e+10   8.690792e+05   1.148879e-19   0.000000e+00   0.000000e+00
       40000   3.999900e-07   1.693751e-01   8.248343e+00   2.087715e+01   2.250307e+05  -2.480446e+05   8.019562e+05   2.281196e+11   2.344426e+09  -6.328506e+10   8.690792e+05   1.019718e-19   0.000000e+00   0.000000e+00
       48000   4.799900e-07   1.880902e-01   8.228523e+00   2.094111e+01   2.426465e+05  -2.472608e+05   7.970467e+05   2.135467e+11   1.473354e+10  -6.043914e+10   8.690792e+05   9.000595e-20   0.000000e+00   0.000000e+00
       56000   5.599900e-07   2.081719e-01   8.208796e+00   2.100468e+01   2.591967e+05  -2.457321e+05   7.922951e+05   1.993239e+11   2.584521e+10  -5.719167e+10   8.690792e+05   7.944799e-20   0.000000e+00   0.000000e+00
       64000   6.399900e-07   2.295333e-01   8.189227e+00   2.106789e+01   2.746851e+05  -2.434336e+05   7.877734e+05   1.879085e+11   3.131077e+10  -5.584498e+10   8.690792e+05   7.169726e-20   0.000000e+00   0.000000e+00
       72000   7.199900e-07   2.520974e-01   8.169858e+00   2.113073e+01   2.892740e+05  -2.406955e+05   7.833805e+05   1.773173e+11   3.684558e+10  -5.415552e+10   8.690793e+05   6.500783e-20   0.000000e+00   0.000000e+00
       80000   7.999900e-07   2.757970e-01   8.150723e+00   2.119323e+01   3.030944e+05  -2.376601e+05   7.790701e+05   1.682399e+11   3.880769e+10  -5.361420e+10   8.690793e+05   5.946500e-20   0.000000e+00   0.000000e+00
       88000   8.799900e-07   3.005722e-01   8.131843e+00   2.125539e+01   3.161765e+05  -2.342823e+05   7.748826e+05   1.592005e+11   4.481601e+10  -5.140851e+10   8.690793e+05   5.457264e-20   0.000000e+00   0.000000e+00
       96000   9.599900e-07   3.263665e-01   8.113247e+00   2.131721e+01   3.285702e+05  -2.305807e+05   7.708262e+05   1.508656e+11   4.774589e+10  -5.002473e+10   8.690793e+05   5.010879e-20   0.000000e+00   0.000000e+00
      104000   1.039990e-06   3.531272e-01   8.094955e+00   2.137872e+01   3.403504e+05  -2.267007e+05   7.668555e+05   1.437052e+11   4.916432e+10  -4.924563e+10   8.690793e+05   4.638081e-20   0.000000e+00   0.000000e+00
      112000   1.119990e-06   3.808074e-01   8.076979e+00   2.143991e+01   3.515643e+05  -2.226596e+05   7.629706e+05   1.369782e+11   5.129503e+10  -4.814743e+10   8.690793e+05   4.314041e-20   0.000000e+00   0.000000e+00
      120000   1.199990e-06   4.093644e-01   8.059331e+00   2.150080e+01   3.622714e+05  -2.185059e+05   7.591531e+05   1.304043e+11   5.360190e+10  -4.680108e+10   8.690793e+05   4.015017e-20   0.000000e+00   0.000000e+00
      128000   1.279990e-06   4.387571e-01   8.042024e+00   2.156138e+01   3.724709e+05  -2.141804e+05   7.554410e+05   1.246140e+11   5.443711e+10  -4.600692e+10   8.690793e+05   3.749379e-20   0.000000e+00   0.000000e+00
      136000   1.359990e-06   4.689475e-01   8.025064e+00   2.162167e+01   3.822148e+05  -2.097812e+05   7.517996e+05   1.191298e+11   5.577126e+10  -4.500296e+10   8.690794e+05   3.516308e-20   0.000000e+00   0.000000e+00
      144000   1.439990e-06   4.999008e-01   8.008460e+00   2.168167e+01   3.915516e+05  -2.053202e+05   7.482178e+05   1.143217e+11   5.567653e+10  -4.454741e+10   8.690794e+05   3.302757e-20   0.000000e+00   0.000000e+00
      152000   1.519990e-06   5.315843e-01   7.992217e+00   2.174139e+01   4.004721e+05  -2.007468e+05   7.447293e+05   1.091487e+11   5.747673e+10  -4.320035e+10   8.690794e+05   3.107994e-20   0.000000e+00   0.000000e+00
      160000   1.599990e-06   5.639664e-01   7.976342e+00   2.180083e+01   4.090216e+05  -1.961365e+05   7.413035e+05   1.045776e+11   5.856801e+10  -4.220542e+10   8.690794e+05   2.937832e-20   0.000000e+00   0.000000e+00
      168000   1.679990e-06   5.970185e-01   7.960838e+00   2.186000e+01   4.172249e+05  -1.914520e+05   7.379488e+05   1.005290e+11   5.848651e+10  -4.166374e+10   8.690794e+05   2.776757e-20   0.000000e+00   0.000000e+00
      176000   1.759990e-06   6.307133e-01   7.945711e+00   2.191890e+01   4.250901e+05  -1.867103e+05   7.346677e+05   9.628592e+10   5.961050e+10  -4.056276e+10   8.690794e+05   2.632502e-20   0.000000e+00   0.000000e+00
      184000   1.839990e-06   6.650246e-01   7.930965e+00   2.197755e+01   4.326404e+05  -1.819372e+05   7.314507e+05   9.249011e+10   5.967118e+10  -3.986381e+10   8.690794e+05   2.493228e-20   0.000000e+00   0.000000e+00
      192000   1.919990e-06   6.999277e-01   7.916602e+00   2.203594e+01   4.398887e+05  -1.771302e+05   7.283006e+05   8.883665e+10   6.034248e+10  -3.898065e+10   8.690794e+05   2.374691e-20   0.000000e+00   0.000000e+00
      200000   1.999990e-06   7.353993e-01   7.902626e+00   2.209408e+01   4.468542e+05  -1.722706e+05   7.252194e+05   8.532153e+10   6.087675e+10  -3.811107e+10   8.690794e+05   2.262902e-20   0.000000e+00   0.000000e+00
      208000   2.079990e-06   7.714170e-01   7.889040e+00   2.215197e+01   4.535463e+05  -1.673809e+05   7.222039e+05   8.205024e+10   6.114588e+10  -3.735623e+10   8.690794e+05   2.158900e-20   0.000000e+00   0.000000e+00
      216000   2.159990e-06   8.079599e-01   7.875845e+00   2.220963e+01   4.599818e+05  -1.624812e+05   7.192466e+05   7.878559e+10   6.188031e+10  -3.640676e+10   8.690794e+05   2.067068e-20   0.000000e+00   0.000000e+00
      224000   2.239990e-06   8.450073e-01   7.863045e+00   2.226705e+01   4.661633e+05  -1.575187e+05   7.163649e+05   7.576388e+10   6.215270e+10  -3.563549e+10   8.690794e+05   1.978144e-20   0.000000e+00   0.000000e+00
      232000   2.319990e-06   8.825396e-01   7.850642e+00   2.232425e+01   4.721037e+05  -1.525368e+05   7.135473e+05   7.278392e+10   6.238443e+10  -3.481975e+10   8.690794e+05   1.892402e-20   0.000000e+00   0.000000e+00
      240000   2.399990e-06   9.205378e-01   7.838639e+00   2.238122e+01   4.778137e+05  -1.475330e+05   7.107933e+05   6.994630e+10   6.277487e+10  -3.398995e+10   8.690794e+05   1.817220e-20   0.000000e+00   0.000000e+00
      248000   2.479990e-06   9.589838e-01   7.827038e+00   2.243798e+01   4.832986e+05  -1.424954e+05   7.081077e+05   6.721623e+10   6.308264e+10  -3.318200e+10   8.690794e+05   1.746266e-20   0.000000e+00   0.000000e+00
      256000   2.559990e-06   9.978600e-01   7.815840e+00   2.249452e+01   4.885709e+05  -1.374474e+05   7.054827e+05   6.460202e+10   6.309514e+10  -3.244631e+10   8.690795e+05   1.675076e-20   0.000000e+00   0.000000e+00
      264000   2.639990e-06   1.037150e+00   7.805048e+00   2.255086e+01   4.936358e+05  -1.323504e+05   7.029268e+05   6.205275e+10   6.379854e+10  -3.156461e+10   8.690795e+05   1.622305e-20   0.000000e+00   0.000000e+00
      272000   2.719990e-06   1.076836e+00   7.794665e+00   2.260699e+01   4.985002e+05  -1.272303e+05   7.004349e+05   5.953064e+10   6.406512e+10  -3.073081e+10   8.690795e+05   1.563267e-20   0.000000e+00   0.000000e+00
      280000   2.799990e-06   1.116904e+00   7.784691e+00   2.266293e+01   5.031688e+05  -1.220993e+05   6.980058e+05   5.718788e+10   6.433375e+10  -2.997106e+10   8.690795e+05   1.511403e-20   0.000000e+00   0.000000e+00
      288000   2.879990e-06   1.157338e+00   7.775129e+00   2.271867e+01   5.076481e+05  -1.169358e+05   6.956425e+05   5.480569e+10   6.485079e+10  -2.909332e+10   8.690795e+05   1.465586e-20   0.000000e+00   0.000000e+00
      296000   2.959990e-06   1.198123e+00   7.765982e+00   2.277423e+01   5.119416e+05  -1.117402e+05   6.933463e+05   5.253852e+10   6.502511e+10  -2.831292e+10   8.690795e+05   1.417278e-20   0.000000e+00   0.000000e+00
      304000   3.039990e-06   1.239244e+00   7.757251e+00   2.282961e+01   5.160526e+05  -1.065293e+05   6.911153e+05   5.033479e+10   6.555457e+10  -2.747999e+10   8.690795e+05   1.380155e-20   0.000000e+00   0.000000e+00
      312000   3.119990e-06   1.280687e+00   7.748939e+00   2.288481e+01   5.199955e+05  -1.012642e+05   6.889480e+05   4.824437e+10   6.605873e+10  -2.670361e+10   8.690795e+05   1.347083e-20   0.000000e+00   0.000000e+00
      320000   3.199990e-06   1.322439e+00   7.741049e+00   2.293985e+01   5.237644e+05  -9.597725e+04   6.868467e+05   4.604235e+10   6.627094e+10  -2.584968e+10   8.690795e+05   1.306255e-20   0.000000e+00   0.000000e+00
      328000   3.279990e-06   1.364485e+00   7.733584e+00   2.299471e+01   5.273652e+05  -9.066175e+04   6.848106e+05   4.398462e+10   6.660393e+10  -2.505431e+10   8.690795e+05   1.273236e-20   0.000000e+00   0.000000e+00
      336000   3.359990e-06   1.406813e+00   7.726545e+00   2.304942e+01   5.308078e+05  -8.528303e+04   6.828390e+05   4.199687e+10   6.735685e+10  -2.423383e+10   8.690795e+05   1.253134e-20   0.000000e+00   0.000000e+00
      344000   3.439990e-06   1.449410e+00   7.719939e+00   2.310397e+01   5.340853e+05  -7.988241e+04   6.809338e+05   3.998906e+10   6.788682e+10  -2.340101e+10   8.690795e+05   1.229008e-20   0.000000e+00   0.000000e+00
      352000   3.519990e-06   1.492262e+00   7.713766e+00   2.315837e+01   5.372076e+05  -7.443294e+04   6.790927e+05   3.807303e+10   6.834008e+10  -2.262769e+10   8.690795e+05   1.206554e-20   0.000000e+00   0.000000e+00
      360000   3.599990e-06   1.535359e+00   7.708030e+00   2.321262e+01   5.401713e+05  -6.895336e+04   6.773179e+05   3.606927e+10   6.871428e+10  -2.177034e+10   8.690795e+05   1.181931e-20   0.000000e+00   0.000000e+00
      368000   3.679990e-06   1.578686e+00   7.702734e+00   2.326674e+01   5.429815e+05  -6.344100e+04   6.756075e+05   3.418998e+10   6.908540e+10  -2.099091e+10   8.690795e+05   1.161150e-20   0.000000e+00   0.000000e+00
      376000   3.759990e-06   1.622232e+00   7.697880e+00   2.332072e+01   5.456393e+05  -5.789577e+04   6.739622e+05   3.224852e+10   6.956241e+10  -2.013262e+10   8.690795e+05   1.143293e-20   0.000000e+00   0.000000e+00
      384000   3.839990e-06   1.665984e+00   7.693472e+00   2.337458e+01   5.481449e+05  -5.231493e+04   6.723834e+05   3.039654e+10   6.995010e+10  -1.933750e+10   8.690795e+05   1.126317e-20   0.000000e+00   0.000000e+00
      392000   3.919990e-06   1.709931e+00   7.689511e+00   2.342831e+01   5.505033e+05  -4.670385e+04   6.708681e+05   2.855169e+10   7.019630e+10  -1.854210e+10   8.690795e+05   1.107328e-20   0.000000e+00   0.000000e+00
      400000   3.999990e-06   1.754061e+00   7.685999e+00   2.348192e+01   5.527150e+05  -4.107889e+04   6.694160e+05   2.674589e+10   7.041994e+10  -1.776179e+10   8.690795e+05   1.089728e-20   0.000000e+00   0.000000e+00
      408000   4.079990e-06   1.798361e+00   7.682939e+00   2.353541e+01   5.547802e+05  -3.544389e+04   6.680283e+05   2.491298e+10   7.046526e+10  -1.695079e+10   8.690795e+05   1.068542e-20   0.000000e+00   0.000000e+00
      416000   4.159990e-06   1.842822e+00   7.680331e+00   2.358880e+01   5.567059e+05  -2.974394e+04   6.667031e+05   2.320407e+10   7.164116e+10  -1.617946e+10   8.690795e+05   1.079332e-20   0.000000e+00   0.000000e+00
      424000   4.239990e-06   1.887431e+00   7.678181e+00   2.364209e+01   5.584916e+05  -2.399716e+04   6.654400e+05   2.145161e+10   7.202024e+10  -1.540666e+10   8.690795e+05   1.070562e-20   0.000000e+00   0.000000e+00
      432000   4.319990e-06   1.932177e+00   7.676492e+00   2.369528e+01   5.601370e+05  -1.820843e+04   6.642396e+05   1.968125e+10   7.264408e+10  -1.460528e+10   8.690795e+05   1.069357e-20   0.000000e+00   0.000000e+00
      440000   4.399990e-06   1.977049e+00   7.675269e+00   2.374837e+01   5.616421e+05  -1.236041e+04   6.631023e+05   1.794977e+10   7.339796e+10  -1.383505e+10   8.690795e+05   1.073547e-20   0.000000e+00   0.000000e+00
      448000   4.479990e-06   2.022036e+00   7.674516e+00   2.380137e+01   5.630079e+05  -6.469834e+03   6.620268e+05   1.617910e+10   7.374268e+10  -1.303844e+10   8.690795e+05   1.067887e-20   0.000000e+00   0.000000e+00
      456000   4.559990e-06   2.067126e+00   7.674234e+00   2.385429e+01   5.642337e+05  -5.563599e+02   6.610138e+05   1.446892e+10   7.408882e+10  -1.228805e+10   8.690795e+05   1.064203e-20   0.000000e+00   0.000000e+00
      464000   4.639990e-06   2.112310e+00   7.674427e+00   2.390714e+01   5.653234e+05   5.388080e+03   6.600603e+05   1.277269e+10   7.440481e+10  -1.154674e+10   8.690795e+05   1.061119e-20   0.000000e+00   0.000000e+00
      472000   4.719990e-06   2.157574e+00   7.675097e+00   2.395991e+01   5.662771e+05   1.134789e+04   6.591667e+05   1.107348e+10   7.458509e+10  -1.079694e+10   8.690795e+05   1.055586e-20   0.000000e+00   0.000000e+00
      480000   4.799990e-06   2.202910e+00   7.676243e+00   2.401261e+01   5.670963e+05   1.733268e+04   6.583317e+05   9.395390e+09   7.538255e+10  -1.007792e+10   8.690795e+05   1.068361e-20   0.000000e+00   0.000000e+00
      488000   4.879990e-06   2.248306e+00   7.677872e+00   2.406524e+01   5.677794e+05   2.339363e+04   6.575550e+05   7.683359e+09   7.613681e+10  -9.342961e+09   8.690795e+05   1.081237e-20   0.000000e+00   0.000000e+00
      496000   4.959990e-06   2.293751e+00   7.679988e+00   2.411782e+01   5.683274e+05   2.949006e+04   6.568360e+05   6.048803e+09   7.588541e+10  -8.640676e+09   8.690795e+05   1.067904e-20   0.000000e+00   0.000000e+00
      504000   5.039990e-06   2.339235e+00   7.682591e+00   2.417034e+01   5.687421e+05   3.560879e+04   6.561735e+05   4.338493e+09   7.681256e+10  -7.928735e+09   8.690795e+05   1.088281e-20   0.000000e+00   0.000000e+00
      512000   5.119990e-06   2.384747e+00   7.685686e+00   2.422280e+01   5.690242e+05   4.175329e+04   6.555665e+05   2.733764e+09   7.663774e+10  -7.253873e+09   8.690795e+05   1.079473e-20   0.000000e+00   0.000000e+00
      520000   5.199990e-06   2.430275e+00   7.689273e+00   2.427523e+01   5.691761e+05   4.792771e+04   6.550121e+05   1.067249e+09   7.763377e+10  -6.607819e+09   8.690796e+05   1.104645e-20   0.000000e+00   0.000000e+00
      528000   5.279990e-06   2.475811e+00   7.693356e+00   2.432761e+01   5.691960e+05   5.414741e+04   6.545099e+05  -5.564453e+08   7.778179e+10  -5.950857e+09   8.690796e+05   1.107180e-20   0.000000e+00   0.000000e+00
      536000   5.359990e-06   2.521343e+00   7.697937e+00   2.437995e+01   5.690861e+05   6.039044e+04   6.540591e+05  -2.210465e+09   7.841370e+10  -5.316693e+09   8.690796e+05   1.124667e-20   0.000000e+00   0.000000e+00
      544000   5.439990e-06   2.566861e+00   7.703019e+00   2.443226e+01   5.688438e+05   6.667727e+04   6.536591e+05  -3.840246e+09   7.866567e+10  -4.682334e+09   8.690796e+05   1.132510e-20   0.000000e+00   0.000000e+00
      552000   5.519990e-06   2.612355e+00   7.708605e+00   2.448454e+01   5.684711e+05   7.298702e+04   6.533091e+05  -5.498095e+09   7.933013e+10  -4.078465e+09   8.690796e+05   1.153461e-20   0.000000e+00   0.000000e+00
      560000   5.599990e-06   2.657813e+00   7.714699e+00   2.453679e+01   5.679684e+05   7.934073e+04   6.530056e+05  -7.057014e+09   7.944317e+10  -3.514295e+09   8.690796e+05   1.159510e-20   0.000000e+00   0.000000e+00
      568000   5.679990e-06   2.703227e+00   7.721300e+00   2.458902e+01   5.673420e+05   8.569938e+04   6.527465e+05  -8.654004e+09   7.974658e+10  -2.948139e+09   8.690796e+05   1.172195e-20   0.000000e+00   0.000000e+00
      576000   5.759990e-06   2.748584e+00   7.728412e+00   2.464123e+01   5.665826e+05   9.210912e+04   6.525331e+05  -1.032641e+10   8.045463e+10  -2.390335e+09   8.690796e+05   1.198064e-20   0.000000e+00   0.000000e+00
      584000   5.839990e-06   2.793876e+00   7.736039e+00   2.469343e+01   5.656901e+05   9.856934e+04   6.523635e+05  -1.198511e+10   8.104830e+10  -1.853189e+09   8.690796e+05   1.221825e-20   0.000000e+00   0.000000e+00
      592000   5.919990e-06   2.839092e+00   7.744183e+00   2.474561e+01   5.646733e+05   1.050366e+05   6.522352e+05  -1.351090e+10   8.100290e+10  -1.347612e+09   8.690796e+05   1.227270e-20   0.000000e+00   0.000000e+00
      600000   5.999990e-06   2.884220e+00   7.752846e+00   2.479778e+01   5.635274e+05   1.115345e+05   6.521474e+05  -1.513441e+10   8.144086e+10  -8.506328e+08   8.690796e+05   1.248475e-20   0.000000e+00   0.000000e+00
      608000   6.079990e-06   2.929253e+00   7.762028e+00   2.484995e+01   5.622619e+05   1.180281e+05   6.520968e+05  -1.656216e+10   8.108000e+10  -3.946961e+08   8.690796e+05   1.245937e-20   0.000000e+00   0.000000e+00
      616000   6.159990e-06   2.974179e+00   7.771730e+00   2.490212e+01   5.608761e+05   1.245173e+05   6.520834e+05  -1.816483e+10   8.173093e+10   1.743459e+07   8.690796e+05   1.275314e-20   0.000000e+00   0.000000e+00
      624000   6.239990e-06   3.018990e+00   7.781953e+00   2.495429e+01   5.593641e+05   1.310532e+05   6.521014e+05  -1.960968e+10   8.159083e+10   4.236703e+08   8.690796e+05   1.281114e-20   0.000000e+00   0.000000e+00
      632000   6.319990e-06   3.063674e+00   7.792699e+00   2.500646e+01   5.577342e+05   1.375914e+05   6.521507e+05  -2.125455e+10   8.237428e+10   7.980898e+08   8.690796e+05   1.316794e-20   0.000000e+00   0.000000e+00
      640000   6.399990e-06   3.108223e+00   7.803970e+00   2.505863e+01   5.559698e+05   1.441995e+05   6.522296e+05  -2.279341e+10   8.260932e+10   1.165690e+09   8.690796e+05   1.336314e-20   0.000000e+00   0.000000e+00
      648000   6.479990e-06   3.152626e+00   7.815770e+00   2.511082e+01   5.540865e+05   1.508119e+05   6.523368e+05  -2.431041e+10   8.283078e+10   1.499651e+09   8.690796e+05   1.356141e-20   0.000000e+00   0.000000e+00
      656000   6.559990e-06   3.196874e+00   7.828101e+00   2.516301e+01   5.520804e+05   1.574487e+05   6.524695e+05  -2.584029e+10   8.308908e+10   1.814218e+09   8.690796e+05   1.378086e-20   0.000000e+00   0.000000e+00
      664000   6.639990e-06   3.240956e+00   7.840961e+00   2.521521e+01   5.499660e+05   1.640582e+05   6.526267e+05  -2.704265e+10   8.237452e+10   2.081435e+09   8.690796e+05   1.368335e-20   0.000000e+00   0.000000e+00
      672000   6.719990e-06   3.284866e+00   7.854349e+00   2.526743e+01   5.477497e+05   1.706407e+05   6.528027e+05  -2.836137e+10   8.218880e+10   2.313486e+09   8.690796e+05   1.376253e-20   0.000000e+00   0.000000e+00
      680000   6.799990e-06   3.328593e+00   7.868264e+00   2.531966e+01   5.454184e+05   1.772284e+05   6.529994e+05  -2.990620e+10   8.248077e+10   2.593465e+09   8.690796e+05   1.401625e-20   0.000000e+00   0.000000e+00
      688000   6.879990e-06   3.372130e+00   7.882706e+00   2.537191e+01   5.429704e+05   1.838263e+05   6.532154e+05  -3.129164e+10   8.246495e+10   2.803497e+09   8.690796e+05   1.416782e-20   0.000000e+00   0.000000e+00
      696000   6.959990e-06   3.415466e+00   7.897676e+00   2.542418e+01   5.404106e+05   1.904322e+05   6.534457e+05  -3.276020e+10   8.286513e+10   2.944159e+09   8.690796e+05   1.446077e-20   0.000000e+00   0.000000e+00
      704000   7.039990e-06   3.458592e+00   7.913176e+00   2.547646e+01   5.377343e+05   1.970636e+05   6.536874e+05  -3.416262e+10   8.296297e+10   3.092469e+09   8.690796e+05   1.466267e-20   0.000000e+00   0.000000e+00
      712000   7.119990e-06   3.501500e+00   7.929207e+00   2.552877e+01   5.349472e+05   2.037046e+05   6.539384e+05  -3.547782e+10   8.298347e+10   3.172667e+09   8.690796e+05   1.483641e-20   0.000000e+00   0.000000e+00
      720000   7.199990e-06   3.544181e+00   7.945768e+00   2.558109e+01   5.320563e+05   2.103430e+05   6.541952e+05  -3.679185e+10   8.297590e+10   3.243717e+09   8.690796e+05   1.500773e-20   0.000000e+00   0.000000e+00
      728000   7.279990e-06   3.586627e+00   7.962861e+00   2.563344e+01   5.290762e+05   2.169461e+05   6.544556e+05  -3.773429e+10   8.216576e+10   3.268146e+09   8.690796e+05   1.489241e-20   0.000000e+00   0.000000e+00
      736000   7.359990e-06   3.628830e+00   7.980479e+00   2.568580e+01   5.259987e+05   2.235302e+05   6.547205e+05  -3.918937e+10   8.242978e+10   3.342034e+09   8.690796e+05   1.517598e-20   0.000000e+00   0.000000e+00
      744000   7.439990e-06   3.670784e+00   7.998625e+00   2.573819e+01   5.228178e+05   2.301142e+05   6.549874e+05  -4.033607e+10   8.216533e+10   3.329972e+09   8.690796e+05   1.526256e-20   0.000000e+00   0.000000e+00
      752000   7.519990e-06   3.712479e+00   8.017297e+00   2.579060e+01   5.195407e+05   2.366922e+05   6.552508e+05  -4.168364e+10   8.249691e+10   3.250752e+09   8.690796e+05   1.556201e-20   0.000000e+00   0.000000e+00
      760000   7.599990e-06   3.753908e+00   8.036496e+00   2.584303e+01   5.161624e+05   2.432743e+05   6.555100e+05  -4.277417e+10   8.206326e+10   3.225916e+09   8.690797e+05   1.559948e-20   0.000000e+00   0.000000e+00
      768000   7.679990e-06   3.795062e+00   8.056221e+00   2.589548e+01   5.126969e+05   2.498238e+05   6.557663e+05  -4.386097e+10   8.167484e+10   3.176663e+09   8.690797e+05   1.565450e-20   0.000000e+00   0.000000e+00
      776000   7.759990e-06   3.835937e+00   8.076468e+00   2.594795e+01   5.091428e+05   2.563604e+05   6.560125e+05  -4.493565e+10   8.151752e+10   3.019588e+09   8.690797e+05   1.577963e-20   0.000000e+00   0.000000e+00
      784000   7.839990e-06   3.876523e+00   8.097237e+00   2.600045e+01   5.055078e+05   2.628657e+05   6.562492e+05  -4.563154e+10   8.053425e+10   2.891412e+09   8.690797e+05   1.560303e-20   0.000000e+00   0.000000e+00
      792000   7.919990e-06   3.916816e+00   8.118525e+00   2.605295e+01   5.018049e+05   2.693225e+05   6.564729e+05  -4.691086e+10   8.078776e+10   2.714853e+09   8.690797e+05   1.589099e-20   0.000000e+00   0.000000e+00
      800000   7.999990e-06   3.956809e+00   8.140329e+00   2.610548e+01   4.980029e+05   2.757896e+05   6.566830e+05  -4.787255e+10   8.046953e+10   2.509729e+09   8.690797e+05   1.596154e-20   0.000000e+00   0.000000e+00
      808000   8.079990e-06   3.996495e+00   8.162650e+00   2.615802e+01   4.941345e+05   2.822143e+05   6.568757e+05  -4.883592e+10   8.014842e+10   2.302676e+09   8.690797e+05   1.603539e-20   0.000000e+00   0.000000e+00
      816000   8.159990e-06   4.035868e+00   8.185484e+00   2.621058e+01   4.901765e+05   2.886352e+05   6.570512e+05  -4.984313e+10   7.995937e+10   2.059102e+09   8.690797e+05   1.615922e-20   0.000000e+00   0.000000e+00
      824000   8.239990e-06   4.074922e+00   8.208830e+00   2.626315e+01   4.861612e+05   2.950052e+05   6.572052e+05  -5.050104e+10   7.924169e+10   1.787903e+09   8.690797e+05   1.606957e-20   0.000000e+00   0.000000e+00
      832000   8.319990e-06   4.113653e+00   8.232683e+00   2.631573e+01   4.820900e+05   3.013239e+05   6.573376e+05  -5.131263e+10   7.877193e+10   1.523614e+09   8.690797e+05   1.608327e-20   0.000000e+00   0.000000e+00
      840000   8.399990e-06   4.152055e+00   8.257040e+00   2.636832e+01   4.779640e+05   3.075924e+05   6.574472e+05  -5.183231e+10   7.794419e+10   1.215338e+09   8.690797e+05   1.594326e-20   0.000000e+00   0.000000e+00
      848000   8.479990e-06   4.190126e+00   8.281896e+00   2.642092e+01   4.737894e+05   3.138065e+05   6.575322e+05  -5.262624e+10   7.753676e+10   9.160104e+08   8.690797e+05   1.597771e-20   0.000000e+00   0.000000e+00
      856000   8.559990e-06   4.227859e+00   8.307249e+00   2.647353e+01   4.695388e+05   3.200137e+05   6.575895e+05  -5.340295e+10   7.728079e+10   5.230229e+08   8.690797e+05   1.605442e-20   0.000000e+00   0.000000e+00
      864000   8.639990e-06   4.265251e+00   8.333097e+00   2.652614e+01   4.652378e+05   3.261817e+05   6.576160e+05  -5.419673e+10   7.703446e+10   1.326322e+08   8.690797e+05   1.614016e-20   0.000000e+00   0.000000e+00
      872000   8.719990e-06   4.302295e+00   8.359438e+00   2.657875e+01   4.608698e+05   3.323352e+05   6.576107e+05  -5.472218e+10   7.633037e+10  -2.241071e+08   8.690797e+05   1.604791e-20   0.000000e+00   0.000000e+00
      880000   8.799990e-06   4.338989e+00   8.386268e+00   2.663135e+01   4.564740e+05   3.384125e+05   6.575774e+05  -5.515210e+10   7.558951e+10  -6.156579e+08   8.690797e+05   1.592969e-20   0.000000e+00   0.000000e+00
      888000   8.879990e-06   4.375330e+00   8.413582e+00   2.668396e+01   4.520420e+05   3.444342e+05   6.575125e+05  -5.564945e+10   7.495859e+10  -1.007314e+09   8.690797e+05   1.585830e-20   0.000000e+00   0.000000e+00
      896000   8.959990e-06   4.411315e+00   8.441376e+00   2.673655e+01   4.475821e+05   3.503936e+05   6.574148e+05  -5.597041e+10   7.417662e+10  -1.429198e+09   8.690797e+05   1.571317e-20   0.000000e+00   0.000000e+00
      904000   9.039990e-06   4.446942e+00   8.469644e+00   2.678914e+01   4.430805e+05   3.563106e+05   6.572838e+05  -5.656613e+10   7.375020e+10  -1.847824e+09   8.690797e+05   1.572287e-20   0.000000e+00   0.000000e+00
      912000   9.119990e-06   4.482207e+00   8.498385e+00   2.684172e+01   4.385369e+05   3.621906e+05   6.571171e+05  -5.700713e+10   7.320155e+10  -2.302636e+09   8.690797e+05   1.567075e-20   0.000000e+00   0.000000e+00
      920000   9.199990e-06   4.517108e+00   8.527593e+00   2.689428e+01   4.339836e+05   3.679959e+05   6.569146e+05  -5.699299e+10   7.212264e+10  -2.750318e+09   8.690797e+05   1.538670e-20   0.000000e+00   0.000000e+00
      928000   9.279990e-06   4.551644e+00   8.557263e+00   2.694682e+01   4.294104e+05   3.737430e+05   6.566753e+05  -5.732075e+10   7.153510e+10  -3.230710e+09   8.690797e+05   1.530652e-20   0.000000e+00   0.000000e+00
      936000   9.359990e-06   4.585813e+00   8.587390e+00   2.699935e+01   4.248130e+05   3.794414e+05   6.563975e+05  -5.761108e+10   7.092846e+10  -3.716002e+09   8.690797e+05   1.521613e-20   0.000000e+00   0.000000e+00
      944000   9.439990e-06   4.619614e+00   8.617971e+00   2.705185e+01   4.202087e+05   3.850686e+05   6.560841e+05  -5.781081e+10   7.014153e+10  -4.140647e+09   8.690797e+05   1.506217e-20   0.000000e+00   0.000000e+00
      952000   9.519990e-06   4.653046e+00   8.649000e+00   2.710432e+01   4.155727e+05   3.906558e+05   6.557339e+05  -5.792679e+10   6.938318e+10  -4.623923e+09   8.690797e+05   1.490182e-20   0.000000e+00   0.000000e+00
      960000   9.599990e-06   4.686106e+00   8.680474e+00   2.715676e+01   4.109381e+05   3.961749e+05   6.553434e+05  -5.793585e+10   6.859990e+10  -5.141477e+09   8.690798e+05   1.471629e-20   0.000000e+00   0.000000e+00
      968000   9.679990e-06   4.718796e+00   8.712386e+00   2.720917e+01   4.063011e+05   4.016312e+05   6.549133e+05  -5.799549e+10   6.780515e+10  -5.602198e+09   8.690798e+05   1.454066e-20   0.000000e+00   0.000000e+00
      976000   9.759990e-06   4.751114e+00   8.744733e+00   2.726155e+01   4.016658e+05   4.070173e+05   6.544472e+05  -5.788265e+10   6.685086e+10  -6.050752e+09   8.690798e+05   1.429259e-20   0.000000e+00   0.000000e+00
      984000   9.839990e-06   4.783062e+00   8.777507e+00   2.731388e+01   3.970412e+05   4.123293e+05   6.539438e+05  -5.771317e+10   6.599993e+10  -6.574146e+09   8.690798e+05   1.406330e-20   0.000000e+00   0.000000e+00
      992000   9.919990e-06   4.814641e+00   8.810704e+00   2.736618e+01   3.924234e+05   4.175817e+05   6.533981e+05  -5.769724e+10   6.526807e+10  -7.059900e+09   8.690798e+05   1.389723e-20   0.000000e+00   0.000000e+00
     1000000   9.999990e-06   4.845851e+00   8.844318e+00   2.741843e+01   3.878182e+05   4.227657e+05   6.528138e+05  -5.744004e+10   6.432545e+10  -7.533892e+09   8.690798e+05   1.363370e-20   0.000000e+00   0.000000e+00
     1008000   1.007999e-05   4.876693e+00   8.878345e+00   2.747063e+01   3.832331e+05   4.278751e+05   6.521924e+05  -5.718475e+10   6.341301e+10  -8.000228e+09   8.690798e+05   1.338159e-20   0.000000e+00   0.000000e+00
     1016000   1.015999e-05   4.907168e+00   8.912777e+00   2.752278e+01   3.786636e+05   4.329186e+05   6.515329e+05  -5.708732e+10   6.271271e+10  -8.491568e+09   8.690798e+05   1.321539e-20   0.000000e+00   0.000000e+00
     1024000   1.023999e-05   4.937279e+00   8.947610e+00   2.757487e+01   3.741104e+05   4.378996e+05   6.508341e+05  -5.673879e+10   6.181715e+10  -8.977808e+09   8.690798e+05   1.295577e-20   0.000000e+00   0.000000e+00
     1032000   1.031999e-05   4.967027e+00   8.982839e+00   2.762691e+01   3.695799e+05   4.428117e+05   6.500986e+05  -5.656009e+10   6.101700e+10  -9.407041e+09   8.690798e+05   1.275448e-20   0.000000e+00   0.000000e+00
     1040000   1.039999e-05   4.996412e+00   9.018458e+00   2.767889e+01   3.650682e+05   4.476581e+05   6.493282e+05  -5.623585e+10   6.014409e+10  -9.847103e+09   8.690798e+05   1.251094e-20   0.000000e+00   0.000000e+00
     1048000   1.047999e-05   5.025438e+00   9.054462e+00   2.773080e+01   3.605893e+05   4.524346e+05   6.485198e+05  -5.574906e+10   5.923524e+10  -1.032735e+10   8.690798e+05   1.223201e-20   0.000000e+00   0.000000e+00
     1056000   1.055999e-05   5.054108e+00   9.090846e+00   2.778265e+01   3.561483e+05   4.571365e+05   6.476761e+05  -5.527438e+10   5.831628e+10  -1.076551e+10   8.690798e+05   1.195641e-20   0.000000e+00   0.000000e+00
     1064000   1.063999e-05   5.082424e+00   9.127602e+00   2.783443e+01   3.517557e+05   4.617585e+05   6.467973e+05  -5.460750e+10   5.728919e+10  -1.120167e+10   8.690798e+05   1.162451e-20   0.000000e+00   0.000000e+00
     1072000   1.071999e-05   5.110390e+00   9.164725e+00   2.788614e+01   3.474096e+05   4.663035e+05   6.458849e+05  -5.404006e+10   5.632516e+10  -1.159731e+10   8.690798e+05   1.132949e-20   0.000000e+00   0.000000e+00
     1080000   1.079999e-05   5.138010e+00   9.202208e+00   2.793777e+01   3.431157e+05   4.707688e+05   6.449404e+05  -5.339090e+10   5.537440e+10  -1.201541e+10   8.690798e+05   1.102736e-20   0.000000e+00   0.000000e+00
     1088000   1.087999e-05   5.165289e+00   9.240046e+00   2.798933e+01   3.388673e+05   4.751634e+05   6.439631e+05  -5.281656e+10   5.449424e+10  -1.241656e+10   8.690798e+05   1.075829e-20   0.000000e+00   0.000000e+00
     1096000   1.095999e-05   5.192231e+00   9.278232e+00   2.804080e+01   3.346739e+05   4.794759e+05   6.429587e+05  -5.203196e+10   5.336515e+10  -1.271233e+10   8.690798e+05   1.040059e-20   0.000000e+00   0.000000e+00
     1104000   1.103999e-05   5.218839e+00   9.316760e+00   2.809220e+01   3.305341e+05   4.837118e+05   6.419267e+05  -5.149960e+10   5.255799e+10  -1.308637e+10   8.690798e+05   1.016232e-20   0.000000e+00   0.000000e+00
     1112000   1.111999e-05   5.245118e+00   9.355624e+00   2.814351e+01   3.264568e+05   4.878701e+05   6.408654e+05  -5.047011e+10   5.143208e+10  -1.344403e+10   8.690798e+05   9.775604e-21   0.000000e+00   0.000000e+00
     1120000   1.119999e-05   5.271074e+00   9.394817e+00   2.819474e+01   3.224581e+05   4.919424e+05   6.397759e+05  -4.949334e+10   5.037891e+10  -1.379224e+10   8.690798e+05   9.420144e-21   0.000000e+00   0.000000e+00
     1128000   1.127999e-05   5.296712e+00   9.434333e+00   2.824587e+01   3.185102e+05   4.959466e+05   6.386611e+05  -4.892798e+10   4.956867e+10  -1.409089e+10   8.690798e+05   9.186728e-21   0.000000e+00   0.000000e+00
     1136000   1.135999e-05   5.322037e+00   9.474167e+00   2.829692e+01   3.146241e+05   4.998753e+05   6.375234e+05  -4.817739e+10   4.863041e+10  -1.435449e+10   8.690798e+05   8.900140e-21   0.000000e+00   0.000000e+00
     1144000   1.143999e-05   5.347054e+00   9.514311e+00   2.834788e+01   3.108024e+05   5.037293e+05   6.363634e+05  -4.729877e+10   4.765404e+10  -1.462077e+10   8.690798e+05   8.590531e-21   0.000000e+00   0.000000e+00
     1152000   1.151999e-05   5.371768e+00   9.554761e+00   2.839874e+01   3.070559e+05   5.075011e+05   6.351842e+05  -4.635941e+10   4.664437e+10  -1.485725e+10   8.690798e+05   8.269936e-21   0.000000e+00   0.000000e+00
     1160000   1.159999e-05   5.396185e+00   9.595510e+00   2.844951e+01   3.033920e+05   5.111989e+05   6.339785e+05  -4.529611e+10   4.576776e+10  -1.522749e+10   8.690798e+05   7.965512e-21   0.000000e+00   0.000000e+00
     1168000   1.167999e-05   5.420312e+00   9.636550e+00   2.850017e+01   2.998050e+05   5.148099e+05   6.327618e+05  -4.432247e+10   4.460010e+10  -1.528605e+10   8.690798e+05   7.618048e-21   0.000000e+00   0.000000e+00
     1176000   1.175999e-05   5.444156e+00   9.677877e+00   2.855075e+01   2.963031e+05   5.183371e+05   6.315306e+05  -4.322397e+10   4.358497e+10  -1.549295e+10   8.690798e+05   7.291809e-21   0.000000e+00   0.000000e+00
     1184000   1.183999e-05   5.467723e+00   9.719482e+00   2.860122e+01   2.928835e+05   5.217886e+05   6.302823e+05  -4.226030e+10   4.268381e+10  -1.569859e+10   8.690798e+05   7.012169e-21   0.000000e+00   0.000000e+00
     1192000   1.191999e-05   5.491020e+00   9.761361e+00   2.865159e+01   2.895457e+05   5.251627e+05   6.290208e+05  -4.118092e+10   4.167341e+10  -1.583656e+10   8.690798e+05   6.701160e-21   0.000000e+00   0.000000e+00
     1200000   1.199999e-05   5.514053e+00   9.803506e+00   2.870186e+01   2.862918e+05   5.284577e+05   6.277493e+05  -4.016777e+10   4.073202e+10  -1.597040e+10   8.690798e+05   6.417831e-21   0.000000e+00   0.000000e+00
     1208000   1.207999e-05   5.536829e+00   9.845912e+00   2.875203e+01   2.831285e+05   5.316737e+05   6.264671e+05  -3.891329e+10   3.967198e+10  -1.608233e+10   8.690798e+05   6.088808e-21   0.000000e+00   0.000000e+00
     1216000   1.215999e-05   5.559356e+00   9.888572e+00   2.880210e+01   2.800652e+05   5.348062e+05   6.251765e+05  -3.790270e+10   3.875365e+10  -1.617213e+10   8.690798e+05   5.821812e-21   0.000000e+00   0.000000e+00
     1224000   1.223999e-05   5.581641e+00   9.931479e+00   2.885206e+01   2.770843e+05   5.378642e+05   6.238799e+05  -3.661282e+10   3.768974e+10  -1.623244e+10   8.690798e+05   5.502546e-21   0.000000e+00   0.000000e+00
     1232000   1.231999e-05   5.603692e+00   9.974628e+00   2.890192e+01   2.742044e+05   5.408379e+05   6.225802e+05  -3.552851e+10   3.674056e+10  -1.626873e+10   8.690798e+05   5.233843e-21   0.000000e+00   0.000000e+00
     1240000   1.239999e-05   5.625516e+00   1.001801e+01   2.895167e+01   2.714107e+05   5.437379e+05   6.212770e+05  -3.427577e+10   3.572278e+10  -1.629063e+10   8.690798e+05   4.941873e-21   0.000000e+00   0.000000e+00
     1248000   1.247999e-05   5.647121e+00   1.006162e+01   2.900132e+01   2.687193e+05   5.465553e+05   6.199733e+05  -3.297903e+10   3.475024e+10  -1.634071e+10   8.690798e+05   4.661490e-21   0.000000e+00   0.000000e+00
     1256000   1.255999e-05   5.668514e+00   1.010546e+01   2.905087e+01   2.661342e+05   5.492962e+05   6.186648e+05  -3.169050e+10   3.372680e+10  -1.631264e+10   8.690798e+05   4.380719e-21   0.000000e+00   0.000000e+00
     1264000   1.263999e-05   5.689705e+00   1.014951e+01   2.910031e+01   2.636497e+05   5.519540e+05   6.173616e+05  -3.025751e+10   3.265090e+10  -1.626986e+10   8.690798e+05   4.086756e-21   0.000000e+00   0.000000e+00
     1272000   1.271999e-05   5.710701e+00   1.019377e+01   2.914965e+01   2.612774e+05   5.545279e+05   6.160623e+05  -2.908982e+10   3.171679e+10  -1.621153e+10   8.690798e+05   3.847839e-21   0.000000e+00   0.000000e+00
     1280000   1.279999e-05   5.731512e+00   1.023823e+01   2.919888e+01   2.590037e+05   5.570248e+05   6.147684e+05  -2.777267e+10   3.072606e+10  -1.613930e+10   8.690798e+05   3.594779e-21   0.000000e+00   0.000000e+00
     1288000   1.287999e-05   5.752144e+00   1.028289e+01   2.924801e+01   2.568304e+05   5.594437e+05   6.134824e+05  -2.653352e+10   2.975309e+10  -1.602417e+10   8.690798e+05   3.358557e-21   0.000000e+00   0.000000e+00
     1296000   1.295999e-05   5.772608e+00   1.032774e+01   2.929704e+01   2.547660e+05   5.617846e+05   6.122027e+05  -2.506772e+10   2.877117e+10  -1.596984e+10   8.690798e+05   3.113239e-21   0.000000e+00   0.000000e+00
     1304000   1.303999e-05   5.792910e+00   1.037277e+01   2.934596e+01   2.528096e+05   5.640443e+05   6.109346e+05  -2.377824e+10   2.773927e+10  -1.577058e+10   8.690798e+05   2.881052e-21   0.000000e+00   0.000000e+00
     1312000   1.311999e-05   5.813060e+00   1.041798e+01   2.939479e+01   2.509660e+05   5.662192e+05   6.096816e+05  -2.232172e+10   2.665682e+10  -1.556812e+10   8.690798e+05   2.640227e-21   0.000000e+00   0.000000e+00
     1320000   1.319999e-05   5.833067e+00   1.046337e+01   2.944351e+01   2.492358e+05   5.683136e+05   6.084414e+05  -2.092130e+10   2.569175e+10  -1.542732e+10   8.690798e+05   2.430200e-21   0.000000e+00   0.000000e+00
     1328000   1.327999e-05   5.852941e+00   1.050891e+01   2.949214e+01   2.476198e+05   5.703287e+05   6.072144e+05  -1.943332e+10   2.463197e+10  -1.521082e+10   8.690799e+05   2.211861e-21   0.000000e+00   0.000000e+00
     1336000   1.335999e-05   5.872690e+00   1.055462e+01   2.954067e+01   2.461193e+05   5.722595e+05   6.060067e+05  -1.804396e+10   2.363133e+10  -1.498709e+10   8.690799e+05   2.016976e-21   0.000000e+00   0.000000e+00
     1344000   1.343999e-05   5.892323e+00   1.060047e+01   2.958910e+01   2.447337e+05   5.741099e+05   6.048166e+05  -1.652179e+10   2.263919e+10  -1.480438e+10   8.690799e+05   1.827829e-21   0.000000e+00   0.000000e+00
     1352000   1.351999e-05   5.911850e+00   1.064647e+01   2.963744e+01   2.434642e+05   5.758804e+05   6.036445e+05  -1.513881e+10   2.162559e+10  -1.452508e+10   8.690799e+05   1.651639e-21   0.000000e+00   0.000000e+00
     1360000   1.359999e-05   5.931280e+00   1.069261e+01   2.968568e+01   2.423135e+05   5.775704e+05   6.024919e+05  -1.362913e+10   2.062549e+10  -1.429088e+10   8.690799e+05   1.483471e-21   0.000000e+00   0.000000e+00
     1368000   1.367999e-05   5.950623e+00   1.073888e+01   2.973384e+01   2.412798e+05   5.791787e+05   6.013617e+05  -1.220555e+10   1.960145e+10  -1.398125e+10   8.690799e+05   1.325689e-21   0.000000e+00   0.000000e+00
     1376000   1.375999e-05   5.969888e+00   1.078528e+01   2.978190e+01   2.403610e+05   5.807073e+05   6.002545e+05  -1.076451e+10   1.861318e+10  -1.369658e+10   8.690799e+05   1.182424e-21   0.000000e+00   0.000000e+00
     1384000   1.383999e-05   5.989087e+00   1.083179e+01   2.982988e+01   2.396992e+05   5.819228e+05   5.993412e+05  -3.766162e+09   8.324879e+09  -6.576704e+09   8.690799e+05   2.306910e-22   0.000000e+00   0.000000e+00
     1392000   1.391999e-05   6.008261e+00   1.087835e+01   2.987782e+01   2.397788e+05   5.819985e+05   5.992358e+05   5.531047e+09  -6.080032e+09   3.691939e+09   8.690799e+05   1.476256e-22   0.000000e+00   0.000000e+00
     1400000   1.399999e-05   6.027470e+00   1.092488e+01   2.992578e+01   2.405451e+05   5.809606e+05   5.999356e+05   1.300237e+10  -1.955071e+10   1.371904e+10   8.690799e+05   1.345160e-21   0.000000e+00   0.000000e+00
     1408000   1.407999e-05   6.046763e+00   1.097128e+01   2.997383e+01   2.418640e+05   5.788560e+05   6.014377e+05   1.998504e+10  -3.308347e+10   2.380450e+10   8.690799e+05   3.748436e-21   0.000000e+00   0.000000e+00
     1416000   1.415999e-05   6.066182e+00   1.101747e+01   3.002203e+01   2.436341e+05   5.758347e+05   6.036196e+05   2.209515e+10  -3.875271e+10   2.805087e+10   8.690799e+05   5.051921e-21   0.000000e+00   0.000000e+00
     1424000   1.423999e-05   6.085742e+00   1.106341e+01   3.007041e+01   2.453496e+05   5.727650e+05   6.058413e+05   2.079367e+10  -3.798901e+10   2.749414e+10   8.690799e+05   4.787483e-21   0.000000e+00   0.000000e+00
     1432000   1.431999e-05   6.105435e+00   1.110911e+01   3.011896e+01   2.469597e+05   5.697583e+05   6.080182e+05   1.940804e+10  -3.713846e+10   2.691855e+10   8.690799e+05   4.512905e-21   0.000000e+00   0.000000e+00
     1440000   1.439999e-05   6.125252e+00   1.115458e+01   3.016769e+01   2.484608e+05   5.668188e+05   6.101504e+05   1.812083e+10  -3.634736e+10   2.638706e+10   8.690799e+05   4.267710e-21   0.000000e+00   0.000000e+00
     1448000   1.447999e-05   6.145186e+00   1.119981e+01   3.021659e+01   2.498607e+05   5.639444e+05   6.122386e+05   1.690218e+10  -3.548172e+10   2.578496e+10   8.690799e+05   4.019790e-21   0.000000e+00   0.000000e+00
     1456000   1.455999e-05   6.165227e+00   1.124481e+01   3.026565e+01   2.511540e+05   5.611383e+05   6.142844e+05   1.549207e+10  -3.465393e+10   2.532178e+10   8.690799e+05   3.787993e-21   0.000000e+00   0.000000e+00
     1464000   1.463999e-05   6.185368e+00   1.128959e+01   3.031487e+01   2.523433e+05   5.584000e+05   6.162889e+05   1.432056e+10  -3.380192e+10   2.476325e+10   8.690799e+05   3.567446e-21   0.000000e+00   0.000000e+00
     1472000   1.471999e-05   6.205600e+00   1.133415e+01   3.036425e+01   2.534325e+05   5.557330e+05   6.182497e+05   1.295128e+10  -3.289576e+10   2.426043e+10   8.690799e+05   3.344705e-21   0.000000e+00   0.000000e+00
     1480000   1.479999e-05   6.225914e+00   1.137851e+01   3.041379e+01   2.544149e+05   5.531380e+05   6.201704e+05   1.159274e+10  -3.194741e+10   2.373860e+10   8.690799e+05   3.126597e-21   0.000000e+00   0.000000e+00
     1488000   1.487999e-05   6.246303e+00   1.142266e+01   3.046348e+01   2.552907e+05   5.506185e+05   6.220496e+05   1.032350e+10  -3.105862e+10   2.325534e+10   8.690799e+05   2.932789e-21   0.000000e+00   0.000000e+00
     1496000   1.495999e-05   6.266758e+00   1.146661e+01   3.051332e+01   2.560652e+05   5.481710e+05   6.238902e+05   9.036864e+09  -3.009629e+10   2.273462e+10   8.690799e+05   2.736833e-21   0.000000e+00   0.000000e+00
     1504000   1.503999e-05   6.287271e+00   1.151037e+01   3.056330e+01   2.567371e+05   5.457996e+05   6.256905e+05   7.679399e+09  -2.921215e+10   2.233118e+10   8.690799e+05   2.567072e-21   0.000000e+00   0.000000e+00
     1512000   1.511999e-05   6.307833e+00   1.155394e+01   3.061343e+01   2.572989e+05   5.435018e+05   6.274575e+05   6.430314e+09  -2.823350e+10   2.181894e+10   8.690799e+05   2.391583e-21   0.000000e+00   0.000000e+00
     1520000   1.519999e-05   6.328436e+00   1.159733e+01   3.066369e+01   2.577604e+05   5.412834e+05   6.291834e+05   5.105911e+09  -2.722596e+10   2.133062e+10   8.690799e+05   2.223793e-21   0.000000e+00   0.000000e+00
     1528000   1.527999e-05   6.349071e+00   1.164055e+01   3.071409e+01   2.581074e+05   5.391464e+05   6.308736e+05   3.756951e+09  -2.627707e+10   2.091941e+10   8.690799e+05   2.078067e-21   0.000000e+00   0.000000e+00
     1536000   1.535999e-05   6.369731e+00   1.168360e+01   3.076463e+01   2.583584e+05   5.370811e+05   6.325303e+05   2.517638e+09  -2.535547e+10   2.050100e+10   8.690799e+05   1.945818e-21   0.000000e+00   0.000000e+00
     1544000   1.543999e-05   6.390406e+00   1.172648e+01   3.081530e+01   2.584993e+05   5.350979e+05   6.341515e+05   1.037170e+09  -2.424332e+10   2.003378e+10   8.690799e+05   1.801433e-21   0.000000e+00   0.000000e+00
     1552000   1.551999e-05   6.411088e+00   1.176921e+01   3.086609e+01   2.585292e+05   5.331984e+05   6.357373e+05  -2.963374e+08  -2.324532e+10   1.961657e+10   8.690799e+05   1.683314e-21   0.000000e+00   0.000000e+00
     1560000   1.559999e-05   6.431768e+00   1.181180e+01   3.091701e+01   2.584487e+05   5.313803e+05   6.372904e+05  -1.739594e+09  -2.218303e+10   1.920197e+10   8.690799e+05   1.571583e-21   0.000000e+00   0.000000e+00
     1568000   1.567999e-05   6.452437e+00   1.185424e+01   3.096806e+01   2.582576e+05   5.296462e+05   6.388096e+05  -3.038815e+09  -2.117092e+10   1.878165e+10   8.690799e+05   1.474000e-21   0.000000e+00   0.000000e+00
     1576000   1.575999e-05   6.473086e+00   1.189654e+01   3.101922e+01   2.579645e+05   5.279903e+05   6.402971e+05  -4.274431e+09  -2.025426e+10   1.842380e+10   8.690799e+05   1.397132e-21   0.000000e+00   0.000000e+00
     1584000   1.583999e-05   6.493708e+00   1.193872e+01   3.107051e+01   2.575679e+05   5.264175e+05   6.417502e+05  -5.613217e+09  -1.912576e+10   1.794144e+10   8.690799e+05   1.308452e-21   0.000000e+00   0.000000e+00
     1592000   1.591999e-05   6.514294e+00   1.198077e+01   3.112190e+01   2.570662e+05   5.249241e+05   6.431730e+05  -6.916717e+09  -1.818784e+10   1.760847e+10   8.690799e+05   1.252958e-21   0.000000e+00   0.000000e+00
     1600000   1.599999e-05   6.534836e+00   1.202271e+01   3.117341e+01   2.564540e+05   5.235112e+05   6.445674e+05  -8.420570e+09  -1.712226e+10   1.725683e+10   8.690799e+05   1.204161e-21   0.000000e+00   0.000000e+00
     1608000   1.607999e-05   6.555324e+00   1.206453e+01   3.122503e+01   2.557259e+05   5.221813e+05   6.459340e+05  -9.737231e+09  -1.614734e+10   1.690870e+10   8.690799e+05   1.167006e-21   0.000000e+00   0.000000e+00
     1616000   1.615999e-05   6.575749e+00   1.210626e+01   3.127676e+01   2.548943e+05   5.209288e+05   6.472727e+05  -1.103157e+10  -1.513019e+10   1.652108e+10   8.690799e+05   1.134458e-21   0.000000e+00   0.000000e+00
     1624000   1.623999e-05   6.596104e+00   1.214789e+01   3.132860e+01   2.539597e+05   5.197552e+05   6.485821e+05  -1.232525e+10  -1.421661e+10   1.621888e+10   8.690799e+05   1.122651e-21   0.000000e+00   0.000000e+00
     1632000   1.631999e-05   6.616380e+00   1.218942e+01   3.138053e+01   2.529160e+05   5.186613e+05   6.498644e+05  -1.371711e+10  -1.317403e+10   1.585276e+10   8.690799e+05   1.115279e-21   0.000000e+00   0.000000e+00
     1640000   1.639999e-05   6.636568e+00   1.223087e+01   3.143257e+01   2.517659e+05   5.176449e+05   6.511202e+05  -1.501968e+10  -1.222433e+10   1.552603e+10   8.690799e+05   1.120842e-21   0.000000e+00   0.000000e+00
     1648000   1.647999e-05   6.656660e+00   1.227225e+01   3.148471e+01   2.505128e+05   5.167058e+05   6.523483e+05  -1.630809e+10  -1.125371e+10   1.517633e+10   8.690799e+05   1.133282e-21   0.000000e+00   0.000000e+00
     1656000   1.655999e-05   6.676647e+00   1.231355e+01   3.153695e+01   2.491568e+05   5.158403e+05   6.535515e+05  -1.760482e+10  -1.036843e+10   1.489526e+10   8.690799e+05   1.163084e-21   0.000000e+00   0.000000e+00
     1664000   1.663999e-05   6.696522e+00   1.235478e+01   3.158928e+01   2.476957e+05   5.150479e+05   6.547307e+05  -1.892279e+10  -9.443052e+09   1.458725e+10   8.690799e+05   1.200794e-21   0.000000e+00   0.000000e+00
     1672000   1.671999e-05   6.716275e+00   1.239596e+01   3.164170e+01   2.461270e+05   5.143288e+05   6.558866e+05  -2.030027e+10  -8.534094e+09   1.431006e+10   8.690799e+05   1.254786e-21   0.000000e+00   0.000000e+00
     1680000   1.679999e-05   6.735899e+00   1.243708e+01   3.169422e+01   2.444532e+05   5.136847e+05   6.570163e+05  -2.156084e+10  -7.585153e+09   1.395247e+10   8.690799e+05   1.304574e-21   0.000000e+00   0.000000e+00
     1688000   1.687999e-05   6.755385e+00   1.247815e+01   3.174683e+01   2.426674e+05   5.131135e+05   6.581238e+05  -2.302260e+10  -6.701874e+09   1.371424e+10   8.690799e+05   1.388186e-21   0.000000e+00   0.000000e+00
     1696000   1.695999e-05   6.774723e+00   1.251918e+01   3.179952e+01   2.407764e+05   5.126125e+05   6.592079e+05  -2.421829e+10  -5.822474e+09   1.337344e+10   8.690799e+05   1.454118e-21   0.000000e+00   0.000000e+00
     1704000   1.703999e-05   6.793906e+00   1.256017e+01   3.185230e+01   2.387845e+05   5.121752e+05   6.602714e+05  -2.560975e+10  -5.023006e+09   1.315804e+10   8.690799e+05   1.554083e-21   0.000000e+00   0.000000e+00
     1712000   1.711999e-05   6.812926e+00   1.260113e+01   3.190516e+01   2.366815e+05   5.118080e+05   6.613125e+05  -2.674769e+10  -4.278990e+09   1.288455e+10   8.690799e+05   1.636923e-21   0.000000e+00   0.000000e+00
     1720000   1.719999e-05   6.831773e+00   1.264206e+01   3.195811e+01   2.344768e+05   5.115029e+05   6.623332e+05  -2.837239e+10  -3.351570e+09   1.263264e+10   8.690799e+05   1.775278e-21   0.000000e+00   0.000000e+00
     1728000   1.727999e-05   6.850439e+00   1.268297e+01   3.201114e+01   2.321447e+05   5.112704e+05   6.633335e+05  -2.980273e+10  -2.505063e+09   1.236078e+10   8.690799e+05   1.905284e-21   0.000000e+00   0.000000e+00
     1736000   1.735999e-05   6.868913e+00   1.272386e+01   3.206424e+01   2.297059e+05   5.111018e+05   6.643116e+05  -3.115499e+10  -1.716110e+09   1.209313e+10   8.690799e+05   2.037283e-21   0.000000e+00   0.000000e+00
     1744000   1.743999e-05   6.887189e+00   1.276475e+01   3.211743e+01   2.271582e+05   5.109955e+05   6.652688e+05  -3.260087e+10  -9.327879e+08   1.184817e+10   8.690799e+05   2.190544e-21   0.000000e+00   0.000000e+00
     1752000   1.751999e-05   6.905255e+00   1.280563e+01   3.217068e+01   2.244959e+05   5.109494e+05   6.662073e+05  -3.372284e+10  -3.320816e+08   1.161850e+10   8.690799e+05   2.314740e-21   0.000000e+00   0.000000e+00
     1760000   1.759999e-05   6.923106e+00   1.284650e+01   3.222402e+01   2.217454e+05   5.109491e+05   6.671280e+05  -3.506877e+10   3.290722e+08   1.140442e+10   8.690799e+05   2.474214e-21   0.000000e+00   0.000000e+00
     1768000   1.767999e-05   6.940732e+00   1.288738e+01   3.227742e+01   2.188849e+05   5.110014e+05   6.680321e+05  -3.644437e+10   9.732517e+08   1.119677e+10   8.690799e+05   2.646172e-21   0.000000e+00   0.000000e+00
     1776000   1.775999e-05   6.958125e+00   1.292826e+01   3.233090e+01   2.159240e+05   5.110997e+05   6.689199e+05  -3.761927e+10   1.498467e+09   1.099840e+10   8.690799e+05   2.798835e-21   0.000000e+00   0.000000e+00
     1784000   1.783999e-05   6.975277e+00   1.296916e+01   3.238445e+01   2.128617e+05   5.112425e+05   6.697916e+05  -3.893925e+10   2.069096e+09   1.079571e+10   8.690799e+05   2.978353e-21   0.000000e+00   0.000000e+00
     1792000   1.791999e-05   6.992180e+00   1.301006e+01   3.243807e+01   2.096964e+05   5.114282e+05   6.706478e+05  -4.018613e+10   2.555395e+09   1.061661e+10   8.690799e+05   3.154960e-21   0.000000e+00   0.000000e+00
     1800000   1.799999e-05   7.008825e+00   1.305099e+01   3.249175e+01   2.064142e+05   5.116614e+05   6.714877e+05  -4.195015e+10   3.312310e+09   1.037151e+10   8.690799e+05   3.417272e-21   0.000000e+00   0.000000e+00
     1808000   1.807999e-05   7.025203e+00   1.309193e+01   3.254551e+01   2.030220e+05   5.119377e+05   6.723107e+05  -4.297598e+10   3.659694e+09   1.019105e+10   8.690799e+05   3.573433e-21   0.000000e+00   0.000000e+00
     1816000   1.815999e-05   7.041306e+00   1.313290e+01   3.259932e+01   1.995178e+05   5.122549e+05   6.731177e+05  -4.454951e+10   4.231956e+09   9.984288e+09   8.690799e+05   3.824617e-21   0.000000e+00   0.000000e+00
     1824000   1.823999e-05   7.057124e+00   1.317389e+01   3.265320e+01   1.959212e+05   5.126029e+05   6.739088e+05  -4.548683e+10   4.511440e+09   9.792541e+09   8.690799e+05   3.975707e-21   0.000000e+00   0.000000e+00
     1832000   1.831999e-05   7.072651e+00   1.321491e+01   3.270715e+01   1.922324e+05   5.129774e+05   6.746857e+05  -4.682917e+10   4.877275e+09   9.634376e+09   8.690799e+05   4.201806e-21   0.000000e+00   0.000000e+00
     1840000   1.839999e-05   7.087878e+00   1.325597e+01   3.276115e+01   1.884313e+05   5.133821e+05   6.754497e+05  -4.820027e+10   5.235558e+09   9.467203e+09   8.690799e+05   4.439633e-21   0.000000e+00   0.000000e+00
     1848000   1.847999e-05   7.102797e+00   1.329706e+01   3.281522e+01   1.845261e+05   5.138104e+05   6.762018e+05  -4.931709e+10   5.378528e+09   9.371126e+09   8.690799e+05   4.637248e-21   0.000000e+00   0.000000e+00
     1856000   1.855999e-05   7.117400e+00   1.333818e+01   3.286935e+01   1.805220e+05   5.142537e+05   6.769452e+05  -5.074593e+10   5.678454e+09   9.218791e+09   8.690799e+05   4.898234e-21   0.000000e+00   0.000000e+00
     1864000   1.863999e-05   7.131678e+00   1.337934e+01   3.292353e+01   1.764150e+05   5.147134e+05   6.776782e+05  -5.185908e+10   5.768288e+09   9.118976e+09   8.690799e+05   5.104572e-21   0.000000e+00   0.000000e+00
     1872000   1.871999e-05   7.145623e+00   1.342053e+01   3.297777e+01   1.722112e+05   5.151820e+05   6.784030e+05  -5.328245e+10   5.958708e+09   9.000618e+09   8.690799e+05   5.376996e-21   0.000000e+00   0.000000e+00
     1880000   1.879999e-05   7.159229e+00   1.346177e+01   3.303208e+01   1.679043e+05   5.156604e+05   6.791188e+05  -5.436041e+10   5.994509e+09   8.888354e+09   8.690799e+05   5.585228e-21   0.000000e+00   0.000000e+00
     1888000   1.887999e-05   7.172486e+00   1.350304e+01   3.308643e+01   1.635091e+05   5.161423e+05   6.798248e+05  -5.562653e+10   6.080049e+09   8.762997e+09   8.690799e+05   5.836429e-21   0.000000e+00   0.000000e+00
     1896000   1.895999e-05   7.185387e+00   1.354435e+01   3.314085e+01   1.590159e+05   5.166262e+05   6.805227e+05  -5.669164e+10   6.018796e+09   8.677795e+09   8.690799e+05   6.050028e-21   0.000000e+00   0.000000e+00
     1904000   1.903999e-05   7.197926e+00   1.358570e+01   3.319532e+01   1.544379e+05   5.171052e+05   6.812129e+05  -5.775724e+10   5.952157e+09   8.575955e+09   8.690799e+05   6.267256e-21   0.000000e+00   0.000000e+00
     1912000   1.911999e-05   7.210095e+00   1.362709e+01   3.324984e+01   1.497617e+05   5.175744e+05   6.819004e+05  -5.908038e+10   5.799582e+09   8.573539e+09   8.690799e+05   6.545166e-21   0.000000e+00   0.000000e+00
     1920000   1.919999e-05   7.221885e+00   1.366851e+01   3.330442e+01   1.449867e+05   5.180317e+05   6.825847e+05  -6.023557e+10   5.636994e+09   8.516529e+09   8.690799e+05   6.790771e-21   0.000000e+00   0.000000e+00
     1928000   1.927999e-05   7.233290e+00   1.370997e+01   3.335905e+01   1.401207e+05   5.184750e+05   6.832640e+05  -6.148270e+10   5.458079e+09   8.466949e+09   8.690799e+05   7.061794e-21   0.000000e+00   0.000000e+00
     1936000   1.935999e-05   7.244302e+00   1.375147e+01   3.341374e+01   1.351559e+05   5.189022e+05   6.839395e+05  -6.253985e+10   5.183977e+09   8.425739e+09   8.690799e+05   7.293756e-21   0.000000e+00   0.000000e+00
     1944000   1.943999e-05   7.254913e+00   1.379299e+01   3.346848e+01   1.301117e+05   5.193042e+05   6.846123e+05  -6.356569e+10   4.858772e+09   8.395262e+09   8.690799e+05   7.522234e-21   0.000000e+00   0.000000e+00
     1952000   1.951999e-05   7.265117e+00   1.383455e+01   3.352328e+01   1.249729e+05   5.196803e+05   6.852839e+05  -6.469268e+10   4.499696e+09   8.385537e+09   8.690799e+05   7.778795e-21   0.000000e+00   0.000000e+00
     1960000   1.959999e-05   7.274907e+00   1.387614e+01   3.357813e+01   1.197560e+05   5.200241e+05   6.859543e+05  -6.572970e+10   4.090641e+09   8.374226e+09   8.690799e+05   8.018119e-21   0.000000e+00   0.000000e+00
     1968000   1.967999e-05   7.284275e+00   1.391776e+01   3.363303e+01   1.144402e+05   5.203328e+05   6.866273e+05  -6.713962e+10   3.623433e+09   8.444361e+09   8.690799e+05   8.354525e-21   0.000000e+00   0.000000e+00
     1976000   1.975999e-05   7.293215e+00   1.395939e+01   3.368799e+01   1.090238e+05   5.206023e+05   6.873041e+05  -6.826956e+10   3.106224e+09   8.476519e+09   8.690799e+05   8.627543e-21   0.000000e+00   0.000000e+00
     1984000   1.983999e-05   7.301717e+00   1.400105e+01   3.374300e+01   1.035315e+05   5.208193e+05   6.879887e+05  -6.889132e+10   2.369296e+09   8.573534e+09   8.690799e+05   8.778377e-21   0.000000e+00   0.000000e+00
     1992000   1.991999e-05   7.309779e+00   1.404272e+01   3.379807e+01   9.799262e+04   5.209797e+05   6.886781e+05  -6.957836e+10   1.635523e+09   8.663178e+09   8.690799e+05   8.948922e-21   0.000000e+00   0.000000e+00
     2000000   1.999999e-05   7.317393e+00   1.408441e+01   3.385319e+01   9.235682e+04   5.210907e+05   6.893726e+05  -7.111745e+10   1.072319e+09   8.717284e+09   8.690799e+05   9.341795e-21   0.000000e+00   0.000000e+00
     2008000   2.007999e-05   7.324553e+00   1.412610e+01   3.390837e+01   8.664164e+04   5.211427e+05   6.900749e+05  -7.176269e+10   2.296048e+08   8.836769e+09   8.690799e+05   9.511352e-21   0.000000e+00   0.000000e+00
     2016000   2.015999e-05   7.331254e+00   1.416779e+01   3.396360e+01   8.086385e+04   5.211297e+05   6.907856e+05  -7.267947e+10  -5.623707e+08   8.932240e+09   8.690799e+05   9.755835e-21   0.000000e+00   0.000000e+00
     2024000   2.023999e-05   7.337490e+00   1.420948e+01   3.401889e+01   7.501311e+04   5.210490e+05   6.915063e+05  -7.353212e+10  -1.487725e+09   9.097684e+09   8.690799e+05   9.991533e-21   0.000000e+00   0.000000e+00
     2032000   2.031999e-05   7.343255e+00   1.425115e+01   3.407424e+01   6.910875e+04   5.208943e+05   6.922377e+05  -7.407378e+10  -2.384572e+09   9.189491e+09   8.690799e+05   1.014636e-20   0.000000e+00   0.000000e+00
     2040000   2.039999e-05   7.348546e+00   1.429282e+01   3.412965e+01   6.313877e+04   5.206619e+05   6.929824e+05  -7.525025e+10  -3.438196e+09   9.439495e+09   8.690799e+05   1.048559e-20   0.000000e+00   0.000000e+00
     2048000   2.047999e-05   7.353356e+00   1.433446e+01   3.418512e+01   5.711366e+04   5.203502e+05   6.937389e+05  -7.562196e+10  -4.372043e+09   9.505158e+09   8.690799e+05   1.060315e-20   0.000000e+00   0.000000e+00
     2056000   2.055999e-05   7.357682e+00   1.437607e+01   3.424065e+01   5.102855e+04   5.199543e+05   6.945096e+05  -7.646405e+10  -5.504691e+09   9.739386e+09   8.690799e+05   1.086471e-20   0.000000e+00   0.000000e+00
     2064000   2.063999e-05   7.361519e+00   1.441765e+01   3.429624e+01   4.488059e+04   5.194707e+05   6.952955e+05  -7.725686e+10  -6.586968e+09   9.908207e+09   8.690799e+05   1.111627e-20   0.000000e+00   0.000000e+00
     2072000   2.071999e-05   7.364861e+00   1.445918e+01   3.435190e+01   3.867319e+04   5.188951e+05   6.960978e+05  -7.799619e+10  -7.776922e+09   1.013052e+10   8.690799e+05   1.136429e-20   0.000000e+00   0.000000e+00
     2080000   2.079999e-05   7.367705e+00   1.450067e+01   3.440762e+01   3.240090e+04   5.182244e+05   6.969172e+05  -7.853970e+10  -9.051981e+09   1.038255e+10   8.690799e+05   1.156754e-20   0.000000e+00   0.000000e+00
     2088000   2.087999e-05   7.370045e+00   1.454210e+01   3.446341e+01   2.610428e+04   5.174495e+05   6.977568e+05  -7.887192e+10  -1.032462e+10   1.060746e+10   8.690800e+05   1.171613e-20   0.000000e+00   0.000000e+00
     2096000   2.095999e-05   7.371881e+00   1.458346e+01   3.451926e+01   1.977000e+04   5.165683e+05   6.986174e+05  -7.965778e+10  -1.176264e+10   1.095178e+10   8.690800e+05   1.201407e-20   0.000000e+00   0.000000e+00
     2104000   2.103999e-05   7.373207e+00   1.462474e+01   3.457519e+01   1.340138e+04   5.155707e+05   6.995050e+05  -7.953550e+10  -1.317913e+10   1.123756e+10   8.690800e+05   1.205448e-20   0.000000e+00   0.000000e+00
     2112000   2.111999e-05   7.374024e+00   1.466595e+01   3.463118e+01   7.014892e+03   5.144570e+05   7.004176e+05  -8.014013e+10  -1.466829e+10   1.157659e+10   8.690800e+05   1.231963e-20   0.000000e+00   0.000000e+00
     2120000   2.119999e-05   7.374329e+00   1.470705e+01   3.468725e+01   5.919677e+02   5.132251e+05   7.013556e+05  -8.037566e+10  -1.609568e+10   1.184614e+10   8.690800e+05   1.247979e-20   0.000000e+00   0.000000e+00
     2128000   2.127999e-05   7.374119e+00   1.474806e+01   3.474340e+01  -5.850435e+03   5.118727e+05   7.023191e+05  -8.075254e+10  -1.769302e+10   1.222266e+10   8.690800e+05   1.270494e-20   0.000000e+00   0.000000e+00
     2136000   2.135999e-05   7.373392e+00   1.478895e+01   3.479963e+01  -1.232844e+04   5.103943e+05   7.033105e+05  -8.119154e+10  -1.927432e+10   1.256431e+10   8.690800e+05   1.295603e-20   0.000000e+00   0.000000e+00
     2144000   2.143999e-05   7.372146e+00   1.482972e+01   3.485593e+01  -1.881846e+04   5.087842e+05   7.043327e+05  -8.145685e+10  -2.095755e+10   1.296270e+10   8.690800e+05   1.317624e-20   0.000000e+00   0.000000e+00
     2152000   2.151999e-05   7.370380e+00   1.487035e+01   3.491232e+01  -2.534163e+04   5.070388e+05   7.053861e+05  -8.121969e+10  -2.271535e+10   1.341024e+10   8.690800e+05   1.326721e-20   0.000000e+00   0.000000e+00
     2160000   2.159999e-05   7.368093e+00   1.491084e+01   3.496879e+01  -3.184616e+04   5.051545e+05   7.064735e+05  -8.164443e+10  -2.439234e+10   1.376119e+10   8.690800e+05   1.355413e-20   0.000000e+00   0.000000e+00
     2168000   2.167999e-05   7.365284e+00   1.495117e+01   3.502536e+01  -3.837863e+04   5.031318e+05   7.075913e+05  -8.169568e+10  -2.620219e+10   1.420009e+10   8.690800e+05   1.375827e-20   0.000000e+00   0.000000e+00
     2176000   2.175999e-05   7.361952e+00   1.499134e+01   3.508201e+01  -4.491938e+04   5.009640e+05   7.087435e+05  -8.181560e+10  -2.799831e+10   1.460488e+10   8.690800e+05   1.399226e-20   0.000000e+00   0.000000e+00
     2184000   2.183999e-05   7.358097e+00   1.503132e+01   3.513876e+01  -5.145197e+04   4.986519e+05   7.099289e+05  -8.160261e+10  -2.981241e+10   1.502612e+10   8.690800e+05   1.414245e-20   0.000000e+00   0.000000e+00
     2192000   2.191999e-05   7.353720e+00   1.507112e+01   3.519560e+01  -5.797819e+04   4.961932e+05   7.111476e+05  -8.154534e+10  -3.165987e+10   1.544214e+10   8.690800e+05   1.435513e-20   0.000000e+00   0.000000e+00
     2200000   2.199999e-05   7.348821e+00   1.511071e+01   3.525254e+01  -6.448182e+04   4.935795e+05   7.124054e+05  -8.118729e+10  -3.361533e+10   1.594151e+10   8.690800e+05   1.450986e-20   0.000000e+00   0.000000e+00
     2208000   2.207999e-05   7.343403e+00   1.515009e+01   3.530958e+01  -7.096983e+04   4.908133e+05   7.136986e+05  -8.103290e+10  -3.557965e+10   1.641051e+10   8.690800e+05   1.473919e-20   0.000000e+00   0.000000e+00
     2216000   2.215999e-05   7.337466e+00   1.518924e+01   3.536673e+01  -7.743430e+04   4.878917e+05   7.150284e+05  -8.057156e+10  -3.746157e+10   1.683607e+10   8.690800e+05   1.487937e-20   0.000000e+00   0.000000e+00
     2224000   2.223999e-05   7.331015e+00   1.522815e+01   3.542399e+01  -8.385381e+04   4.848135e+05   7.163969e+05  -8.006285e+10  -3.949263e+10   1.735500e+10   8.690800e+05   1.504733e-20   0.000000e+00   0.000000e+00
     2232000   2.231999e-05   7.324050e+00   1.526680e+01   3.548136e+01  -9.024495e+04   4.815741e+05   7.178038e+05  -7.970746e+10  -4.149530e+10   1.781817e+10   8.690800e+05   1.526874e-20   0.000000e+00   0.000000e+00
     2240000   2.239999e-05   7.316577e+00   1.530519e+01   3.553884e+01  -9.659136e+04   4.781762e+05   7.192480e+05  -7.901451e+10  -4.346513e+10   1.828571e+10   8.690800e+05   1.540383e-20   0.000000e+00   0.000000e+00
     2248000   2.247999e-05   7.308597e+00   1.534331e+01   3.559644e+01  -1.028917e+05   4.746188e+05   7.207290e+05  -7.848671e+10  -4.547224e+10   1.873996e+10   8.690800e+05   1.560795e-20   0.000000e+00   0.000000e+00
     2256000   2.255999e-05   7.300116e+00   1.538113e+01   3.565416e+01  -1.091241e+05   4.709038e+05   7.222476e+05  -7.746686e+10  -4.742167e+10   1.921450e+10   8.690800e+05   1.568083e-20   0.000000e+00   0.000000e+00
     2264000   2.263999e-05   7.291138e+00   1.541865e+01   3.571200e+01  -1.153154e+05   4.670275e+05   7.238009e+05  -7.700452e+10  -4.953963e+10   1.969692e+10   8.690800e+05   1.595865e-20   0.000000e+00   0.000000e+00
     2272000   2.271999e-05   7.281667e+00   1.545585e+01   3.576997e+01  -1.214500e+05   4.629808e+05   7.253956e+05  -7.635221e+10  -5.162816e+10   2.016825e+10   8.690800e+05   1.619524e-20   0.000000e+00   0.000000e+00
     2280000   2.279999e-05   7.271708e+00   1.549272e+01   3.582806e+01  -1.275087e+05   4.587701e+05   7.270293e+05  -7.503743e+10  -5.362589e+10   2.067884e+10   8.690800e+05   1.625361e-20   0.000000e+00   0.000000e+00
     2288000   2.287999e-05   7.261267e+00   1.552925e+01   3.588629e+01  -1.335102e+05   4.543860e+05   7.287033e+05  -7.476276e+10  -5.591165e+10   2.116632e+10   8.690800e+05   1.667136e-20   0.000000e+00   0.000000e+00
     2296000   2.295999e-05   7.250348e+00   1.556542e+01   3.594466e+01  -1.394291e+05   4.498357e+05   7.304160e+05  -7.329697e+10  -5.785231e+10   2.163753e+10   8.690800e+05   1.671491e-20   0.000000e+00   0.000000e+00
     2304000   2.303999e-05   7.238961e+00   1.560122e+01   3.600316e+01  -1.452446e+05   4.451277e+05   7.321649e+05  -7.267879e+10  -6.008816e+10   2.211359e+10   8.690800e+05   1.706836e-20   0.000000e+00   0.000000e+00
     2312000   2.311999e-05   7.227110e+00   1.563663e+01   3.606180e+01  -1.510202e+05   4.402370e+05   7.339512e+05  -7.170128e+10  -6.217842e+10   2.254237e+10   8.690801e+05   1.731139e-20   0.000000e+00   0.000000e+00
     2320000   2.319999e-05   7.214800e+00   1.567165e+01   3.612059e+01  -1.567073e+05   4.351800e+05   7.357726e+05  -7.035516e+10  -6.422093e+10   2.299976e+10   8.690801e+05   1.747109e-20   0.000000e+00   0.000000e+00
     2328000   2.327999e-05   7.202039e+00   1.570626e+01   3.617953e+01  -1.622892e+05   4.299603e+05   7.376290e+05  -6.931920e+10  -6.638058e+10   2.344180e+10   8.690801e+05   1.775832e-20   0.000000e+00   0.000000e+00
     2336000   2.335999e-05   7.188836e+00   1.574044e+01   3.623861e+01  -1.677792e+05   4.245707e+05   7.395201e+05  -6.793575e+10  -6.838134e+10   2.384601e+10   8.690801e+05   1.793818e-20   0.000000e+00   0.000000e+00
     2344000   2.343999e-05   7.175198e+00   1.577418e+01   3.629785e+01  -1.731573e+05   4.190221e+05   7.414427e+05  -6.650879e+10  -7.033286e+10   2.421581e+10   8.690801e+05   1.811398e-20   0.000000e+00   0.000000e+00
     2352000   2.351999e-05   7.161133e+00   1.580748e+01   3.635725e+01  -1.784326e+05   4.133191e+05   7.433904e+05  -6.510456e+10  -7.224329e+10   2.454008e+10   8.690801e+05   1.830206e-20   0.000000e+00   0.000000e+00
     2360000   2.359999e-05   7.146652e+00   1.584031e+01   3.641680e+01  -1.835819e+05   4.074617e+05   7.453676e+05  -6.380785e+10  -7.428041e+10   2.489048e+10   8.690801e+05   1.857247e-20   0.000000e+00   0.000000e+00
     2368000   2.367999e-05   7.131762e+00   1.587267e+01   3.647651e+01  -1.886397e+05   4.014355e+05   7.473719e+05  -6.262804e+10  -7.637352e+10   2.521504e+10   8.690801e+05   1.890436e-20   0.000000e+00   0.000000e+00
     2376000   2.375999e-05   7.116473e+00   1.590454e+01   3.653638e+01  -1.935741e+05   3.952543e+05   7.494020e+05  -6.083391e+10  -7.823021e+10   2.554712e+10   8.690801e+05   1.905428e-20   0.000000e+00   0.000000e+00
     2384000   2.383999e-05   7.100794e+00   1.593590e+01   3.659641e+01  -1.983824e+05   3.889156e+05   7.514581e+05  -5.936631e+10  -8.023300e+10   2.585207e+10   8.690801e+05   1.933925e-20   0.000000e+00   0.000000e+00
     2392000   2.391999e-05   7.084735e+00   1.596676e+01   3.665661e+01  -2.030745e+05   3.824152e+05   7.535380e+05  -5.793399e+10  -8.227344e+10   2.614043e+10   8.690801e+05   1.966411e-20   0.000000e+00   0.000000e+00
     2400000   2.399999e-05   7.068305e+00   1.599709e+01   3.671698e+01  -2.076323e+05   3.757607e+05   7.556407e+05  -5.560846e+10  -8.388778e+10   2.643548e+10   8.690801e+05   1.969998e-20   0.000000e+00   0.000000e+00
     2408000   2.407999e-05   7.051517e+00   1.602688e+01   3.677751e+01  -2.120436e+05   3.689576e+05   7.577651e+05  -5.436991e+10  -8.601930e+10   2.666894e+10   8.690801e+05   2.013359e-20   0.000000e+00   0.000000e+00
     2416000   2.415999e-05   7.034382e+00   1.605612e+01   3.683822e+01  -2.163117e+05   3.620109e+05   7.599063e+05  -5.230953e+10  -8.760438e+10   2.684368e+10   8.690801e+05   2.025142e-20   0.000000e+00   0.000000e+00
     2424000   2.423999e-05   7.016912e+00   1.608479e+01   3.689910e+01  -2.204171e+05   3.549398e+05   7.620592e+05  -5.032243e+10  -8.916607e+10   2.697530e+10   8.690801e+05   2.039552e-20   0.000000e+00   0.000000e+00
     2432000   2.431999e-05   6.999119e+00   1.611290e+01   3.696015e+01  -2.243878e+05   3.477182e+05   7.642267e+05  -4.875786e+10  -9.108934e+10   2.712921e+10   8.690801e+05   2.075935e-20   0.000000e+00   0.000000e+00
     2440000   2.439999e-05   6.981014e+00   1.614043e+01   3.702138e+01  -2.282098e+05   3.403664e+05   7.664015e+05  -4.671746e+10  -9.269936e+10   2.725788e+10   8.690801e+05   2.095601e-20   0.000000e+00   0.000000e+00
     2448000   2.447999e-05   6.962609e+00   1.616736e+01   3.708277e+01  -2.318700e+05   3.328862e+05   7.685853e+05  -4.478157e+10  -9.430010e+10   2.733310e+10   8.690801e+05   2.118581e-20   0.000000e+00   0.000000e+00
     2456000   2.455999e-05   6.943918e+00   1.619368e+01   3.714435e+01  -2.353851e+05   3.252741e+05   7.707729e+05  -4.301795e+10  -9.596916e+10   2.736295e+10   8.690801e+05   2.148482e-20   0.000000e+00   0.000000e+00
     2464000   2.463999e-05   6.924952e+00   1.621940e+01   3.720610e+01  -2.387339e+05   3.175394e+05   7.729652e+05  -4.085764e+10  -9.748145e+10   2.742713e+10   8.690801e+05   2.169380e-20   0.000000e+00   0.000000e+00
     2472000   2.471999e-05   6.905725e+00   1.624449e+01   3.726802e+01  -2.419250e+05   3.096755e+05   7.751604e+05  -3.891342e+10  -9.911083e+10   2.745004e+10   8.690802e+05   2.199670e-20   0.000000e+00   0.000000e+00
     2480000   2.479999e-05   6.886248e+00   1.626894e+01   3.733012e+01  -2.449587e+05   3.016877e+05   7.773546e+05  -3.689829e+10  -1.006247e+11   2.742482e+10   8.690802e+05   2.226638e-20   0.000000e+00   0.000000e+00
     2488000   2.487999e-05   6.866536e+00   1.629275e+01   3.739240e+01  -2.478291e+05   2.935812e+05   7.795455e+05  -3.485951e+10  -1.020312e+11   2.734333e+10   8.690802e+05   2.251065e-20   0.000000e+00   0.000000e+00
     2496000   2.495999e-05   6.846600e+00   1.631591e+01   3.745485e+01  -2.505347e+05   2.853645e+05   7.817287e+05  -3.274831e+10  -1.033972e+11   2.724913e+10   8.690802e+05   2.275215e-20   0.000000e+00   0.000000e+00
     2504000   2.503999e-05   6.826455e+00   1.633841e+01   3.751748e+01  -2.530685e+05   2.770396e+05   7.839042e+05  -3.060191e+10  -1.047063e+11   2.712519e+10   8.690802e+05   2.298815e-20   0.000000e+00   0.000000e+00
     2512000   2.511999e-05   6.806114e+00   1.636024e+01   3.758028e+01  -2.554300e+05   2.686124e+05   7.860682e+05  -2.843320e+10  -1.059679e+11   2.697185e+10   8.690802e+05   2.322365e-20   0.000000e+00   0.000000e+00
     2520000   2.519999e-05   6.785591e+00   1.638138e+01   3.764325e+01  -2.576170e+05   2.600866e+05   7.882188e+05  -2.625344e+10  -1.071448e+11   2.677396e+10   8.690802e+05   2.344377e-20   0.000000e+00   0.000000e+00
     2528000   2.527999e-05   6.764900e+00   1.640185e+01   3.770639e+01  -2.596305e+05   2.514715e+05   7.903509e+05  -2.405808e+10  -1.082056e+11   2.652562e+10   8.690802e+05   2.363435e-20   0.000000e+00   0.000000e+00
     2536000   2.535999e-05   6.744055e+00   1.642162e+01   3.776970e+01  -2.614662e+05   2.427768e+05   7.924615e+05  -2.183400e+10  -1.091546e+11   2.623659e+10   8.690802e+05   2.379619e-20   0.000000e+00   0.000000e+00
     2544000   2.543999e-05   6.723070e+00   1.644069e+01   3.783318e+01  -2.631259e+05   2.340042e+05   7.945484e+05  -1.966630e+10  -1.101741e+11   2.593500e+10   8.690802e+05   2.401068e-20   0.000000e+00   0.000000e+00
     2552000   2.551999e-05   6.701959e+00   1.645906e+01   3.789683e+01  -2.646114e+05   2.251515e+05   7.966103e+05  -1.747123e+10  -1.111362e+11   2.560791e+10   8.690802e+05   2.421908e-20   0.000000e+00   0.000000e+00
     2560000   2.559999e-05   6.680737e+00   1.647671e+01   3.796064e+01  -2.659149e+05   2.162316e+05   7.986449e+05  -1.516641e+10  -1.119156e+11   2.525134e+10   8.690802e+05   2.436553e-20   0.000000e+00   0.000000e+00
     2568000   2.567999e-05   6.659418e+00   1.649365e+01   3.802461e+01  -2.670387e+05   2.072421e+05   8.006506e+05  -1.293310e+10  -1.128339e+11   2.489278e+10   8.690802e+05   2.459411e-20   0.000000e+00   0.000000e+00
     2576000   2.575999e-05   6.638015e+00   1.650987e+01   3.808874e+01  -2.679817e+05   1.981860e+05   8.026261e+05  -1.063446e+10  -1.135563e+11   2.448907e+10   8.690802e+05   2.475683e-20   0.000000e+00   0.000000e+00
     2584000   2.583999e-05   6.616545e+00   1.652536e+01   3.815303e+01  -2.687442e+05   1.890698e+05   8.045680e+05  -8.449781e+09  -1.143411e+11   2.404739e+10   8.690802e+05   2.496737e-20   0.000000e+00   0.000000e+00
     2592000   2.591999e-05   6.595021e+00   1.654012e+01   3.821747e+01  -2.693330e+05   1.798934e+05   8.064729e+05  -6.258804e+09  -1.150377e+11   2.357048e+10   8.690802e+05   2.515811e-20   0.000000e+00   0.000000e+00
     2600000   2.599999e-05   6.573457e+00   1.655414e+01   3.828207e+01  -2.697458e+05   1.706657e+05   8.083384e+05  -4.060732e+09  -1.156483e+11   2.306209e+10   8.690802e+05   2.532999e-20   0.000000e+00   0.000000e+00
     2608000   2.607999e-05   6.551866e+00   1.656742e+01   3.834681e+01  -2.699794e+05   1.613974e+05   8.101620e+05  -1.816512e+09  -1.160675e+11   2.251737e+10   8.690803e+05   2.543754e-20   0.000000e+00   0.000000e+00
     2616000   2.615999e-05   6.530265e+00   1.657996e+01   3.841169e+01  -2.700384e+05   1.520909e+05   8.119410e+05   3.298788e+08  -1.167536e+11   2.197990e+10   8.690803e+05   2.567885e-20   0.000000e+00   0.000000e+00
     2624000   2.623999e-05   6.508665e+00   1.659176e+01   3.847672e+01  -2.699245e+05   1.427337e+05   8.136758e+05   2.516251e+09  -1.171694e+11   2.138857e+10   8.690803e+05   2.582046e-20   0.000000e+00   0.000000e+00
     2632000   2.631999e-05   6.487081e+00   1.660280e+01   3.854188e+01  -2.696328e+05   1.333568e+05   8.153617e+05   4.667784e+09  -1.173597e+11   2.073858e+10   8.690803e+05   2.587996e-20   0.000000e+00   0.000000e+00
     2640000   2.639999e-05   6.465528e+00   1.661309e+01   3.860717e+01  -2.691748e+05   1.239569e+05   8.169946e+05   6.798969e+09  -1.176596e+11   2.009190e+10   8.690803e+05   2.600464e-20   0.000000e+00   0.000000e+00
     2648000   2.647999e-05   6.444018e+00   1.662263e+01   3.867260e+01  -2.685447e+05   1.145378e+05   8.185752e+05   8.950663e+09  -1.178096e+11   1.942088e+10   8.690803e+05   2.608230e-20   0.000000e+00   0.000000e+00
     2656000   2.655999e-05   6.422565e+00   1.663142e+01   3.873814e+01  -2.677420e+05   1.051065e+05   8.201021e+05   1.111457e+10  -1.179963e+11   1.875151e+10   8.690803e+05   2.619488e-20   0.000000e+00   0.000000e+00
     2664000   2.663999e-05   6.401184e+00   1.663945e+01   3.880381e+01  -2.667672e+05   9.565886e+04   8.215748e+05   1.322072e+10  -1.181889e+11   1.805413e+10   8.690803e+05   2.632422e-20   0.000000e+00   0.000000e+00
     2672000   2.671999e-05   6.379887e+00   1.664672e+01   3.886959e+01  -2.656225e+05   8.619739e+04   8.229917e+05   1.535850e+10  -1.183637e+11   1.735418e+10   8.690803e+05   2.646549e-20   0.000000e+00   0.000000e+00
     2680000   2.679999e-05   6.358689e+00   1.665324e+01   3.893549e+01  -2.643114e+05   7.673080e+04   8.243497e+05   1.740699e+10  -1.182800e+11   1.659094e+10   8.690803e+05   2.650447e-20   0.000000e+00   0.000000e+00
     2688000   2.687999e-05   6.337602e+00   1.665900e+01   3.900149e+01  -2.628375e+05   6.726735e+04   8.256465e+05   1.947531e+10  -1.184847e+11   1.585321e+10   8.690803e+05   2.668787e-20   0.000000e+00   0.000000e+00
     2696000   2.695999e-05   6.316639e+00   1.666400e+01   3.906759e+01  -2.611980e+05   5.778785e+04   8.268838e+05   2.150947e+10  -1.184970e+11   1.507596e+10   8.690803e+05   2.680109e-20   0.000000e+00   0.000000e+00
     2704000   2.703999e-05   6.295814e+00   1.666825e+01   3.913379e+01  -2.593972e+05   4.831299e+04   8.280577e+05   2.350447e+10  -1.184156e+11   1.427214e+10   8.690803e+05   2.688647e-20   0.000000e+00   0.000000e+00
     2712000   2.711999e-05   6.275140e+00   1.667173e+01   3.920008e+01  -2.574375e+05   3.884748e+04   8.291667e+05   2.547082e+10  -1.181843e+11   1.344537e+10   8.690803e+05   2.692044e-20   0.000000e+00   0.000000e+00
     2720000   2.719999e-05   6.254628e+00   1.667446e+01   3.926645e+01  -2.553235e+05   2.940259e+04   8.302084e+05   2.737567e+10  -1.179326e+11   1.259602e+10   8.690803e+05   2.695523e-20   0.000000e+00   0.000000e+00
     2728000   2.727999e-05   6.234292e+00   1.667644e+01   3.933291e+01  -2.530577e+05   1.997967e+04   8.311819e+05   2.926684e+10  -1.176217e+11   1.173797e+10   8.690804e+05   2.697887e-20   0.000000e+00   0.000000e+00
     2736000   2.735999e-05   6.214143e+00   1.667766e+01   3.939944e+01  -2.506417e+05   1.058444e+04   8.320862e+05   3.112752e+10  -1.172543e+11   1.086796e+10   8.690804e+05   2.699056e-20   0.000000e+00   0.000000e+00
     2744000   2.743999e-05   6.194194e+00   1.667813e+01   3.946604e+01  -2.480768e+05   1.216800e+03   8.329208e+05   3.296278e+10  -1.168506e+11   9.988504e+09   8.690804e+05   2.699924e-20   0.000000e+00   0.000000e+00
     2752000   2.751999e-05   6.174455e+00   1.667786e+01   3.953270e+01  -2.453677e+05  -8.113643e+03   8.336843e+05   3.474465e+10  -1.164022e+11   9.093274e+09   8.690804e+05   2.699736e-20   0.000000e+00   0.000000e+00
     2760000   2.759999e-05   6.154938e+00   1.667684e+01   3.959943e+01  -2.425183e+05  -1.740786e+04   8.343756e+05   3.648748e+10  -1.159488e+11   8.186492e+09   8.690804e+05   2.700307e-20   0.000000e+00   0.000000e+00
     2768000   2.767999e-05   6.135656e+00   1.667507e+01   3.966620e+01  -2.395236e+05  -2.667469e+04   8.349956e+05   3.831754e+10  -1.156333e+11   7.297790e+09   8.690804e+05   2.709413e-20   0.000000e+00   0.000000e+00
     2776000   2.775999e-05   6.116618e+00   1.667257e+01   3.973302e+01  -2.363882e+05  -3.590021e+04   8.355433e+05   4.005567e+10  -1.149691e+11   6.392750e+09   8.690804e+05   2.704080e-20   0.000000e+00   0.000000e+00
     2784000   2.783999e-05   6.097837e+00   1.666933e+01   3.979989e+01  -2.331160e+05  -4.507581e+04   8.360179e+05   4.174005e+10  -1.144747e+11   5.466846e+09   8.690804e+05   2.706510e-20   0.000000e+00   0.000000e+00
     2792000   2.791999e-05   6.079323e+00   1.666536e+01   3.986679e+01  -2.297110e+05  -5.421803e+04   8.364174e+05   4.338744e+10  -1.139837e+11   4.527341e+09   8.690804e+05   2.709907e-20   0.000000e+00   0.000000e+00
     2800000   2.799999e-05   6.061087e+00   1.666066e+01   3.993371e+01  -2.261745e+05  -6.331022e+04   8.367423e+05   4.501037e+10  -1.133030e+11   3.593828e+09   8.690804e+05   2.706483e-20   0.000000e+00   0.000000e+00
     2808000   2.807999e-05   6.043139e+00   1.665523e+01   4.000066e+01  -2.225109e+05  -7.234722e+04   8.369920e+05   4.661546e+10  -1.127482e+11   2.647072e+09   8.690804e+05   2.709346e-20   0.000000e+00   0.000000e+00
     2816000   2.815999e-05   6.025489e+00   1.664908e+01   4.006763e+01  -2.187197e+05  -8.133923e+04   8.371657e+05   4.816070e+10  -1.120487e+11   1.696066e+09   8.690804e+05   2.706629e-20   0.000000e+00   0.000000e+00
     2824000   2.823999e-05   6.008147e+00   1.664222e+01   4.013461e+01  -2.148078e+05  -9.027196e+04   8.372630e+05   4.962390e+10  -1.112589e+11   7.359659e+08   8.690804e+05   2.700148e-20   0.000000e+00   0.000000e+00
     2832000   2.831999e-05   5.991123e+00   1.663464e+01   4.020159e+01  -2.107775e+05  -9.913974e+04   8.372843e+05   5.107631e+10  -1.104853e+11  -2.240475e+08   8.690804e+05   2.695458e-20   0.000000e+00   0.000000e+00
     2840000   2.839999e-05   5.974425e+00   1.662636e+01   4.026857e+01  -2.066341e+05  -1.079479e+05   8.372278e+05   5.250483e+10  -1.097169e+11  -1.187584e+09   8.690805e+05   2.691845e-20   0.000000e+00   0.000000e+00
     2848000   2.847999e-05   5.958064e+00   1.661737e+01   4.033554e+01  -2.023767e+05  -1.166940e+05   8.370944e+05   5.392711e+10  -1.089374e+11  -2.148639e+09   8.690805e+05   2.688961e-20   0.000000e+00   0.000000e+00
     2856000   2.855999e-05   5.942048e+00   1.660769e+01   4.040250e+01  -1.980072e+05  -1.253778e+05   8.368838e+05   5.530832e+10  -1.081469e+11  -3.115887e+09   8.690805e+05   2.686117e-20   0.000000e+00   0.000000e+00
     2864000   2.863999e-05   5.926386e+00   1.659731e+01   4.046944e+01  -1.935287e+05  -1.339966e+05   8.365957e+05   5.663311e+10  -1.073255e+11  -4.089160e+09   8.690805e+05   2.682171e-20   0.000000e+00   0.000000e+00
     2872000   2.871999e-05   5.911086e+00   1.658625e+01   4.053636e+01  -1.889446e+05  -1.425489e+05   8.362300e+05   5.794628e+10  -1.064707e+11  -5.056604e+09   8.690805e+05   2.677904e-20   0.000000e+00   0.000000e+00
     2880000   2.879999e-05   5.896158e+00   1.657450e+01   4.060324e+01  -1.842616e+05  -1.510275e+05   8.357866e+05   5.913371e+10  -1.055274e+11  -6.031821e+09   8.690805e+05   2.668785e-20   0.000000e+00   0.000000e+00
     2888000   2.887999e-05   5.881607e+00   1.656209e+01   4.067008e+01  -1.794811e+05  -1.594325e+05   8.352657e+05   6.037532e+10  -1.045954e+11  -6.991216e+09   8.690805e+05   2.662423e-20   0.000000e+00   0.000000e+00
     2896000   2.895999e-05   5.867443e+00   1.654900e+01   4.073688e+01  -1.746053e+05  -1.677611e+05   8.346677e+05   6.151321e+10  -1.036168e+11  -7.957876e+09   8.690805e+05   2.653216e-20   0.000000e+00   0.000000e+00
     2904000   2.903999e-05   5.853673e+00   1.653525e+01   4.080363e+01  -1.696378e+05  -1.760117e+05   8.339927e+05   6.269095e+10  -1.026634e+11  -8.915023e+09   8.690805e+05   2.646989e-20   0.000000e+00   0.000000e+00
     2912000   2.911999e-05   5.840304e+00   1.652084e+01   4.087032e+01  -1.645780e+05  -1.841850e+05   8.332412e+05   6.379733e+10  -1.016682e+11  -9.872266e+09   8.690805e+05   2.638725e-20   0.000000e+00   0.000000e+00
     2920000   2.919999e-05   5.827343e+00   1.650578e+01   4.093694e+01  -1.594317e+05  -1.922788e+05   8.324130e+05   6.484752e+10  -1.006657e+11  -1.083235e+10   8.690805e+05   2.630019e-20   0.000000e+00   0.000000e+00
     2928000   2.927999e-05   5.814797e+00   1.649008e+01   4.100350e+01  -1.542021e+05  -2.002883e+05   8.315090e+05   6.584635e+10  -9.961302e+10  -1.178283e+10   8.690805e+05   2.619322e-20   0.000000e+00   0.000000e+00
     2936000   2.935999e-05   5.802672e+00   1.647373e+01   4.106998e+01  -1.488952e+05  -2.082142e+05   8.305288e+05   6.682035e+10  -9.853359e+10  -1.272288e+10   8.690805e+05   2.608109e-20   0.000000e+00   0.000000e+00
     2944000   2.943999e-05   5.790975e+00   1.645676e+01   4.113638e+01  -1.435142e+05  -2.160506e+05   8.294738e+05   6.774021e+10  -9.744346e+10  -1.366034e+10   8.690805e+05   2.596260e-20   0.000000e+00   0.000000e+00
     2952000   2.951999e-05   5.779712e+00   1.643917e+01   4.120269e+01  -1.380576e+05  -2.238050e+05   8.283432e+05   6.864548e+10  -9.636168e+10  -1.459425e+10   8.690805e+05   2.585380e-20   0.000000e+00   0.000000e+00
     2960000   2.959999e-05   5.768888e+00   1.642096e+01   4.126891e+01  -1.325307e+05  -2.314707e+05   8.271384e+05   6.952209e+10  -9.528135e+10  -1.552447e+10   8.690806e+05   2.574846e-20   0.000000e+00   0.000000e+00
     2968000   2.967999e-05   5.758509e+00   1.640214e+01   4.133504e+01  -1.269342e+05  -2.390523e+05   8.258588e+05   7.037504e+10  -9.425012e+10  -1.646476e+10   8.690806e+05   2.566469e-20   0.000000e+00   0.000000e+00
     2976000   2.975999e-05   5.748581e+00   1.638271e+01   4.140105e+01  -1.212636e+05  -2.465511e+05   8.245051e+05   7.111975e+10  -9.312627e+10  -1.738741e+10   8.690806e+05   2.553010e-20   0.000000e+00   0.000000e+00
     2984000   2.983999e-05   5.739108e+00   1.636269e+01   4.146695e+01  -1.155433e+05  -2.539568e+05   8.230776e+05   7.188072e+10  -9.201660e+10  -1.830054e+10   8.690806e+05   2.541359e-20   0.000000e+00   0.000000e+00
     2992000   2.991999e-05   5.730095e+00   1.634208e+01   4.153274e+01  -1.097560e+05  -2.612796e+05   8.215763e+05   7.281653e+10  -9.108522e+10  -1.923926e+10   8.690806e+05   2.541379e-20   0.000000e+00   0.000000e+00
     3000000   2.999999e-05   5.721549e+00   1.632089e+01   4.159840e+01  -1.038995e+05  -2.685271e+05   8.199995e+05   7.359286e+10  -9.010052e+10  -2.018054e+10   8.690806e+05   2.536349e-20   0.000000e+00   0.000000e+00
     3008000   3.007999e-05   5.713473e+00   1.629912e+01   4.166394e+01  -9.798858e+04  -2.756876e+05   8.183494e+05   7.422547e+10  -8.902812e+10  -2.110414e+10   8.690806e+05   2.525351e-20   0.000000e+00   0.000000e+00
     3016000   3.015999e-05   5.705872e+00   1.627678e+01   4.172934e+01  -9.202375e+04  -2.827648e+05   8.166252e+05   7.491502e+10  -8.790413e+10  -2.199552e+10   8.690806e+05   2.514869e-20   0.000000e+00   0.000000e+00
     3024000   3.023999e-05   5.698751e+00   1.625388e+01   4.179460e+01  -8.600113e+04  -2.897566e+05   8.148288e+05   7.567580e+10  -8.689201e+10  -2.291179e+10   8.690806e+05   2.511012e-20   0.000000e+00   0.000000e+00
     3032000   3.031999e-05   5.692113e+00   1.623042e+01   4.185971e+01  -7.992222e+04  -2.966657e+05   8.129594e+05   7.627610e+10  -8.581729e+10  -2.381762e+10   8.690806e+05   2.501540e-20   0.000000e+00   0.000000e+00
     3040000   3.039999e-05   5.685964e+00   1.620641e+01   4.192467e+01  -7.379910e+04  -3.034863e+05   8.110184e+05   7.678287e+10  -8.468466e+10  -2.470226e+10   8.690806e+05   2.488327e-20   0.000000e+00   0.000000e+00
     3048000   3.047999e-05   5.680306e+00   1.618187e+01   4.198947e+01  -6.763915e+04  -3.102178e+05   8.090062e+05   7.725431e+10  -8.360511e+10  -2.559962e+10   8.690806e+05   2.476698e-20   0.000000e+00   0.000000e+00
     3056000   3.055999e-05   5.675143e+00   1.615678e+01   4.205411e+01  -6.143475e+04  -3.168597e+05   8.069243e+05   7.783473e+10  -8.248393e+10  -2.646338e+10   8.690806e+05   2.467377e-20   0.000000e+00   0.000000e+00
     3064000   3.063999e-05   5.670478e+00   1.613117e+01   4.211858e+01  -5.518943e+04  -3.234156e+05   8.047718e+05   7.823390e+10  -8.139076e+10  -2.734343e+10   8.690806e+05   2.454735e-20   0.000000e+00   0.000000e+00
     3072000   3.071999e-05   5.666314e+00   1.610504e+01   4.218287e+01  -4.891246e+04  -3.298817e+05   8.025502e+05   7.868615e+10  -8.026352e+10  -2.819587e+10   8.690806e+05   2.443108e-20   0.000000e+00   0.000000e+00
     3080000   3.079999e-05   5.662653e+00   1.607839e+01   4.224698e+01  -4.259115e+04  -3.362593e+05   8.002605e+05   7.923940e+10  -7.914750e+10  -2.903936e+10   8.690806e+05   2.435421e-20   0.000000e+00   0.000000e+00
     3088000   3.087999e-05   5.659500e+00   1.605124e+01   4.231091e+01  -3.623830e+04  -3.425443e+05   7.979044e+05   7.955278e+10  -7.795453e+10  -2.985306e+10   8.690807e+05   2.419095e-20   0.000000e+00   0.000000e+00
     3096000   3.095999e-05   5.656856e+00   1.602359e+01   4.237464e+01  -2.986219e+04  -3.487342e+05   7.954834e+05   7.984519e+10  -7.679588e+10  -3.066923e+10   8.690807e+05   2.403941e-20   0.000000e+00   0.000000e+00
     3104000   3.103999e-05   5.654723e+00   1.599544e+01   4.243818e+01  -2.346369e+04  -3.548347e+05   7.929962e+05   8.001357e+10  -7.564591e+10  -3.148091e+10   8.690807e+05   2.386123e-20   0.000000e+00   0.000000e+00
     3112000   3.111999e-05   5.653102e+00   1.596682e+01   4.250152e+01  -1.705305e+04  -3.608425e+05   7.904449e+05   8.045184e+10  -7.470005e+10  -3.236515e+10   8.690807e+05   2.383316e-20   0.000000e+00   0.000000e+00
     3120000   3.119999e-05   5.651995e+00   1.593771e+01   4.256465e+01  -1.060649e+04  -3.667743e+05   7.878232e+05   8.070796e+10  -7.359761e+10  -3.317693e+10   8.690807e+05   2.370761e-20   0.000000e+00   0.000000e+00
     3128000   3.127999e-05   5.651405e+00   1.590813e+01   4.262757e+01  -4.145521e+03  -3.726175e+05   7.851371e+05   8.078176e+10  -7.248118e+10  -3.397208e+10   8.690807e+05   2.352974e-20   0.000000e+00   0.000000e+00
     3136000   3.135999e-05   5.651332e+00   1.587809e+01   4.269027e+01   2.327790e+03  -3.783697e+05   7.823888e+05   8.104987e+10  -7.134455e+10  -3.474380e+10   8.690807e+05   2.340773e-20   0.000000e+00   0.000000e+00
     3144000   3.143999e-05   5.651778e+00   1.584760e+01   4.275275e+01   8.811044e+03  -3.840396e+05   7.795750e+05   8.112331e+10  -7.037084e+10  -3.558329e+10   8.690807e+05   2.328576e-20   0.000000e+00   0.000000e+00
     3152000   3.151999e-05   5.652743e+00   1.581665e+01   4.281500e+01   1.530895e+04  -3.896280e+05   7.766962e+05   8.132867e+10  -6.932159e+10  -3.637788e+10   8.690807e+05   2.318382e-20   0.000000e+00   0.000000e+00
     3160000   3.159999e-05   5.654228e+00   1.578526e+01   4.287702e+01   2.181983e+04  -3.951325e+05   7.737542e+05   8.141470e+10  -6.829429e+10  -3.717152e+10   8.690807e+05   2.305829e-20   0.000000e+00   0.000000e+00
     3168000   3.167999e-05   5.656234e+00   1.575343e+01   4.293880e+01   2.834883e+04  -4.005550e+05   7.707486e+05   8.177609e+10  -6.726613e+10  -3.796558e+10   8.690807e+05   2.302056e-20   0.000000e+00   0.000000e+00
     3176000   3.175999e-05   5.658764e+00   1.572117e+01   4.300034e+01   3.489751e+04  -4.058955e+05   7.676798e+05   8.182829e+10  -6.628610e+10  -3.876709e+10   8.690807e+05   2.290987e-20   0.000000e+00   0.000000e+00
     3184000   3.183999e-05   5.661818e+00   1.568849e+01   4.306163e+01   4.144642e+04  -4.111554e+05   7.645487e+05   8.190135e+10  -6.518782e+10  -3.949613e+10   8.690807e+05   2.277273e-20   0.000000e+00   0.000000e+00
     3192000   3.191999e-05   5.665396e+00   1.565539e+01   4.312267e+01   4.800368e+04  -4.163323e+05   7.613569e+05   8.200958e+10  -6.426705e+10  -4.031366e+10   8.690807e+05   2.270686e-20   0.000000e+00   0.000000e+00
     3200000   3.199999e-05   5.669498e+00   1.562188e+01   4.318345e+01   5.456612e+04  -4.214347e+05   7.581007e+05   8.204830e+10  -6.329623e+10  -4.109238e+10   8.690807e+05   2.260844e-20   0.000000e+00   0.000000e+00
     3208000   3.207999e-05   5.674126e+00   1.558796e+01   4.324396e+01   6.113008e+04  -4.264586e+05   7.547831e+05   8.213138e+10  -6.228279e+10  -4.184196e+10   8.690807e+05   2.251481e-20   0.000000e+00   0.000000e+00
     3216000   3.215999e-05   5.679279e+00   1.555365e+01   4.330421e+01   6.770281e+04  -4.314038e+05   7.514043e+05   8.211002e+10  -6.138800e+10  -4.264279e+10   8.690807e+05   2.243020e-20   0.000000e+00   0.000000e+00
     3224000   3.223999e-05   5.684958e+00   1.551894e+01   4.336418e+01   7.426859e+04  -4.362776e+05   7.479622e+05   8.203111e+10  -6.045892e+10  -4.341006e+10   8.690808e+05   2.232080e-20   0.000000e+00   0.000000e+00
     3232000   3.231999e-05   5.691162e+00   1.548384e+01   4.342388e+01   8.083395e+04  -4.410751e+05   7.444595e+05   8.214321e+10  -5.945004e+10  -4.414178e+10   8.690808e+05   2.225074e-20   0.000000e+00   0.000000e+00
     3240000   3.239999e-05   5.697892e+00   1.544837e+01   4.348330e+01   8.740946e+04  -4.457926e+05   7.408980e+05   8.224194e+10  -5.849024e+10  -4.489568e+10   8.690808e+05   2.219645e-20   0.000000e+00   0.000000e+00
     3248000   3.247999e-05   5.705148e+00   1.541252e+01   4.354242e+01   9.398799e+04  -4.504398e+05   7.372731e+05   8.219344e+10  -5.764714e+10  -4.569764e+10   8.690808e+05   2.213598e-20   0.000000e+00   0.000000e+00
     3256000   3.255999e-05   5.712930e+00   1.537630e+01   4.360126e+01   1.005569e+05  -4.550179e+05   7.335860e+05   8.205164e+10  -5.672861e+10  -4.643392e+10   8.690808e+05   2.202588e-20   0.000000e+00   0.000000e+00
     3264000   3.263999e-05   5.721237e+00   1.533972e+01   4.365980e+01   1.071230e+05  -4.595205e+05   7.298404e+05   8.209724e+10  -5.583781e+10  -4.720621e+10   8.690808e+05   2.198864e-20   0.000000e+00   0.000000e+00
     3272000   3.271999e-05   5.730070e+00   1.530278e+01   4.371803e+01   1.136875e+05  -4.639533e+05   7.260330e+05   8.187562e+10  -5.501242e+10  -4.797482e+10   8.690808e+05   2.188918e-20   0.000000e+00   0.000000e+00
     3280000   3.279999e-05   5.739427e+00   1.526549e+01   4.377596e+01   1.202480e+05  -4.683134e+05   7.221665e+05   8.199064e+10  -5.404880e+10  -4.870188e+10   8.690808e+05   2.186014e-20   0.000000e+00   0.000000e+00
     3288000   3.287999e-05   5.749309e+00   1.522785e+01   4.383358e+01   1.267879e+05  -4.726066e+05   7.182404e+05   8.155029e+10  -5.326342e+10  -4.944321e+10   8.690808e+05   2.170816e-20   0.000000e+00   0.000000e+00
     3296000   3.295999e-05   5.759713e+00   1.518987e+01   4.389088e+01   1.333097e+05  -4.768313e+05   7.142562e+05   8.154037e+10  -5.233596e+10  -5.015766e+10   8.690808e+05   2.165650e-20   0.000000e+00   0.000000e+00
     3304000   3.303999e-05   5.770638e+00   1.515156e+01   4.394786e+01   1.398072e+05  -4.809882e+05   7.102153e+05   8.106832e+10  -5.154129e+10  -5.086425e+10   8.690808e+05   2.149654e-20   0.000000e+00   0.000000e+00
     3312000   3.311999e-05   5.782081e+00   1.511292e+01   4.400451e+01   1.462846e+05  -4.850769e+05   7.061180e+05   8.101909e+10  -5.061807e+10  -5.155707e+10   8.690808e+05   2.143952e-20   0.000000e+00   0.000000e+00
     3320000   3.319999e-05   5.794043e+00   1.507395e+01   4.406083e+01   1.527539e+05  -4.890934e+05   7.019654e+05   8.073290e+10  -4.978514e+10  -5.225575e+10   8.690808e+05   2.133511e-20   0.000000e+00   0.000000e+00
     3328000   3.327999e-05   5.806521e+00   1.503466e+01   4.411682e+01   1.592031e+05  -4.930458e+05   6.977547e+05   8.045655e+10  -4.903313e+10  -5.300487e+10   8.690808e+05   2.126233e-20   0.000000e+00   0.000000e+00
     3336000   3.335999e-05   5.819515e+00   1.499506e+01   4.417247e+01   1.656281e+05  -4.969366e+05   6.934860e+05   8.000902e+10  -4.831997e+10  -5.373372e+10   8.690808e+05   2.114691e-20   0.000000e+00   0.000000e+00
     3344000   3.343999e-05   5.833021e+00   1.495516e+01   4.422778e+01   1.720257e+05  -5.007658e+05   6.891605e+05   8.000962e+10  -4.738787e+10  -5.440506e+10   8.690808e+05   2.111686e-20   0.000000e+00   0.000000e+00
     3352000   3.351999e-05   5.847039e+00   1.491494e+01   4.428274e+01   1.784227e+05  -5.045228e+05   6.847800e+05   7.991320e+10  -4.653646e+10  -5.510809e+10   8.690808e+05   2.108339e-20   0.000000e+00   0.000000e+00
     3360000   3.359999e-05   5.861568e+00   1.487443e+01   4.433734e+01   1.847998e+05  -5.082152e+05   6.803439e+05   7.950987e+10  -4.577790e+10  -5.579284e+10   8.690808e+05   2.097717e-20   0.000000e+00   0.000000e+00
     3368000   3.367999e-05   5.876606e+00   1.483363e+01   4.439159e+01   1.911462e+05  -5.118469e+05   6.758531e+05   7.914790e+10  -4.501855e+10  -5.647872e+10   8.690809e+05   2.088735e-20   0.000000e+00   0.000000e+00
     3376000   3.375999e-05   5.892151e+00   1.479254e+01   4.444548e+01   1.974839e+05  -5.154121e+05   6.713062e+05   7.907485e+10  -4.411021e+10  -5.712867e+10   8.690809e+05   2.085336e-20   0.000000e+00   0.000000e+00
     3384000   3.383999e-05   5.908203e+00   1.475117e+01   4.449900e+01   2.037974e+05  -5.189161e+05   6.667040e+05   7.868526e+10  -4.352440e+10  -5.792863e+10   8.690809e+05   2.081560e-20   0.000000e+00   0.000000e+00
     3392000   3.391999e-05   5.924758e+00   1.470951e+01   4.455215e+01   2.100800e+05  -5.223650e+05   6.620444e+05   7.838541e+10  -4.273382e+10  -5.859086e+10   8.690809e+05   2.074623e-20   0.000000e+00   0.000000e+00
     3400000   3.399999e-05   5.941815e+00   1.466759e+01   4.460492e+01   2.163421e+05  -5.257570e+05   6.573258e+05   7.809582e+10  -4.197979e+10  -5.928029e+10   8.690809e+05   2.069543e-20   0.000000e+00   0.000000e+00
     3408000   3.407999e-05   5.959372e+00   1.462540e+01   4.465732e+01   2.225725e+05  -5.290868e+05   6.525567e+05   7.766197e+10  -4.126742e+10  -5.994783e+10   8.690809e+05   2.060939e-20   0.000000e+00   0.000000e+00
     3416000   3.415999e-05   5.977426e+00   1.458294e+01   4.470933e+01   2.287686e+05  -5.323619e+05   6.477324e+05   7.723885e+10  -4.058034e+10  -6.063174e+10   8.690809e+05   2.053787e-20   0.000000e+00   0.000000e+00
     3424000   3.423999e-05   5.995974e+00   1.454022e+01   4.476095e+01   2.349329e+05  -5.355796e+05   6.428551e+05   7.686470e+10  -3.986268e+10  -6.130085e+10   8.690809e+05   2.047637e-20   0.000000e+00   0.000000e+00
     3432000   3.431999e-05   6.015015e+00   1.449725e+01   4.481219e+01   2.410744e+05  -5.387357e+05   6.379252e+05   7.661905e+10  -3.908518e+10  -6.196237e+10   8.690809e+05   2.044445e-20   0.000000e+00   0.000000e+00
     3440000   3.439999e-05   6.034545e+00   1.445402e+01   4.486302e+01   2.471944e+05  -5.418327e+05   6.329407e+05   7.637837e+10  -3.834185e+10  -6.265210e+10   8.690809e+05   2.042912e-20   0.000000e+00   0.000000e+00
     3448000   3.447999e-05   6.054565e+00   1.441055e+01   4.491346e+01   2.532928e+05  -5.448708e+05   6.279014e+05   7.604528e+10  -3.761424e+10  -6.331649e+10   8.690809e+05   2.038846e-20   0.000000e+00   0.000000e+00
     3456000   3.455999e-05   6.075072e+00   1.436685e+01   4.496348e+01   2.593740e+05  -5.478494e+05   6.228064e+05   7.579986e+10  -3.691373e+10  -6.403847e+10   8.690809e+05   2.039298e-20   0.000000e+00   0.000000e+00
     3464000   3.463999e-05   6.096064e+00   1.432290e+01   4.501310e+01   2.654150e+05  -5.507776e+05   6.176573e+05   7.524080e+10  -3.624851e+10  -6.465527e+10   8.690809e+05   2.029522e-20   0.000000e+00   0.000000e+00
     3472000   3.471999e-05   6.117537e+00   1.427872e+01   4.506231e+01   2.714089e+05  -5.536545e+05   6.124586e+05   7.462525e+10  -3.566593e+10  -6.531127e+10   8.690809e+05   2.020628e-20   0.000000e+00   0.000000e+00
     3480000   3.479999e-05   6.139488e+00   1.423432e+01   4.511110e+01   2.773606e+05  -5.564820e+05   6.072072e+05   7.421511e+10  -3.500286e+10  -6.597862e+10   8.690809e+05   2.016937e-20   0.000000e+00   0.000000e+00
     3488000   3.487999e-05   6.161914e+00   1.418969e+01   4.515946e+01   2.832818e+05  -5.592556e+05   6.019022e+05   7.396384e+10  -3.426346e+10  -6.664626e+10   8.690809e+05   2.016954e-20   0.000000e+00   0.000000e+00
     3496000   3.495999e-05   6.184813e+00   1.414484e+01   4.520740e+01   2.891882e+05  -5.619676e+05   5.965436e+05   7.354214e+10  -3.359932e+10  -6.730294e+10   8.690809e+05   2.013441e-20   0.000000e+00   0.000000e+00
     3504000   3.503999e-05   6.208183e+00   1.409977e+01   4.525491e+01   2.950586e+05  -5.646276e+05   5.911326e+05   7.317247e+10  -3.293518e+10  -6.798164e+10   8.690809e+05   2.012238e-20   0.000000e+00   0.000000e+00
     3512000   3.511999e-05   6.232021e+00   1.405450e+01   4.530198e+01   3.008992e+05  -5.672342e+05   5.856677e+05   7.298983e+10  -3.214090e+10  -6.862917e+10   8.690809e+05   2.014072e-20   0.000000e+00   0.000000e+00
     3520000   3.519999e-05   6.256327e+00   1.400902e+01   4.534861e+01   3.067246e+05  -5.697773e+05   5.801513e+05   7.264570e+10  -3.143608e+10  -6.928138e+10   8.690809e+05   2.013165e-20   0.000000e+00   0.000000e+00
     3528000   3.527999e-05   6.281096e+00   1.396334e+01   4.539480e+01   3.125180e+05  -5.722682e+05   5.745810e+05   7.215069e+10  -3.084423e+10  -6.996308e+10   8.690810e+05   2.010689e-20   0.000000e+00   0.000000e+00
     3536000   3.535999e-05   6.306328e+00   1.391746e+01   4.544054e+01   3.182600e+05  -5.747137e+05   5.689608e+05   7.154771e+10  -3.025096e+10  -7.057833e+10   8.690810e+05   2.004062e-20   0.000000e+00   0.000000e+00
     3544000   3.543999e-05   6.332017e+00   1.387138e+01   4.548583e+01   3.239633e+05  -5.771082e+05   5.632900e+05   7.100573e+10  -2.962929e+10  -7.119326e+10   8.690810e+05   1.999094e-20   0.000000e+00   0.000000e+00
     3552000   3.551999e-05   6.358161e+00   1.382512e+01   4.553067e+01   3.296217e+05  -5.794562e+05   5.575677e+05   7.039622e+10  -2.909750e+10  -7.185628e+10   8.690810e+05   1.994989e-20   0.000000e+00   0.000000e+00
     3560000   3.559999e-05   6.384755e+00   1.377867e+01   4.557504e+01   3.352266e+05  -5.817611e+05   5.517961e+05   6.977563e+10  -2.848811e+10  -7.242497e+10   8.690810e+05   1.987705e-20   0.000000e+00   0.000000e+00
     3568000   3.567999e-05   6.411796e+00   1.373204e+01   4.561895e+01   3.407929e+05  -5.840143e+05   5.459755e+05   6.942371e+10  -2.782464e+10  -7.309666e+10   8.690810e+05   1.989778e-20   0.000000e+00   0.000000e+00
     3576000   3.575999e-05   6.439281e+00   1.368523e+01   4.566240e+01   3.463316e+05  -5.862129e+05   5.401025e+05   6.905081e+10  -2.713490e+10  -7.372895e+10   8.690810e+05   1.990377e-20   0.000000e+00   0.000000e+00
     3584000   3.583999e-05   6.467208e+00   1.363825e+01   4.570537e+01   3.518334e+05  -5.883604e+05   5.341788e+05   6.843681e+10  -2.659119e+10  -7.436359e+10   8.690810e+05   1.986803e-20   0.000000e+00   0.000000e+00
     3592000   3.591999e-05   6.495573e+00   1.359109e+01   4.574786e+01   3.572970e+05  -5.904576e+05   5.282049e+05   6.864049e+10  -2.550531e+10  -7.494202e+10   8.690810e+05   1.997303e-20   0.000000e+00   0.000000e+00
     3600000   3.599999e-05   6.524375e+00   1.354377e+01   4.578988e+01   3.627324e+05  -5.924978e+05   5.221813e+05   6.770763e+10  -2.518841e+10  -7.561304e+10   8.690810e+05   1.989619e-20   0.000000e+00   0.000000e+00
     3608000   3.607999e-05   6.553609e+00   1.349629e+01   4.583141e+01   3.681164e+05  -5.944956e+05   5.161076e+05   6.732733e+10  -2.447927e+10  -7.621860e+10   8.690810e+05   1.990596e-20   0.000000e+00   0.000000e+00
     3616000   3.615999e-05   6.583273e+00   1.344866e+01   4.587246e+01   3.734797e+05  -5.964310e+05   5.099851e+05   6.675438e+10  -2.390652e+10  -7.684517e+10   8.690810e+05   1.989026e-20   0.000000e+00   0.000000e+00
     3624000   3.623999e-05   6.613365e+00   1.340087e+01   4.591301e+01   3.787948e+05  -5.983218e+05   5.038127e+05   6.613675e+10  -2.335896e+10  -7.746594e+10   8.690810e+05   1.986813e-20   0.000000e+00   0.000000e+00
     3632000   3.631999e-05   6.643879e+00   1.335293e+01   4.595306e+01   3.840563e+05  -6.001717e+05   4.975907e+05   6.545771e+10  -2.285784e+10  -7.809223e+10   8.690810e+05   1.984067e-20   0.000000e+00   0.000000e+00
     3640000   3.639999e-05   6.674812e+00   1.330484e+01   4.599262e+01   3.892680e+05  -6.019792e+05   4.913179e+05   6.483468e+10  -2.232961e+10  -7.872687e+10   8.690810e+05   1.983062e-20   0.000000e+00   0.000000e+00
     3648000   3.647999e-05   6.706161e+00   1.325661e+01   4.603167e+01   3.944373e+05  -6.037394e+05   4.849946e+05   6.431169e+10  -2.172851e+10  -7.935176e+10   8.690810e+05   1.983927e-20   0.000000e+00   0.000000e+00
     3656000   3.655999e-05   6.737921e+00   1.320824e+01   4.607022e+01   3.995650e+05  -6.054506e+05   4.786223e+05   6.387915e+10  -2.105130e+10  -7.995718e+10   8.690810e+05   1.986116e-20   0.000000e+00   0.000000e+00
     3664000   3.663999e-05   6.770089e+00   1.315974e+01   4.610825e+01   4.046342e+05  -6.071227e+05   4.722023e+05   6.342976e+10  -2.037127e+10  -8.054515e+10   8.690810e+05   1.987751e-20   0.000000e+00   0.000000e+00
     3672000   3.671999e-05   6.802663e+00   1.311111e+01   4.614577e+01   4.096945e+05  -6.087227e+05   4.657349e+05   6.287979e+10  -1.975618e+10  -8.113506e+10   8.690810e+05   1.987975e-20   0.000000e+00   0.000000e+00
     3680000   3.679999e-05   6.835639e+00   1.306235e+01   4.618277e+01   4.147119e+05  -6.102726e+05   4.592203e+05   6.248079e+10  -1.903382e+10  -8.171946e+10   8.690810e+05   1.991092e-20   0.000000e+00   0.000000e+00
     3688000   3.687999e-05   6.869015e+00   1.301346e+01   4.621924e+01   4.196781e+05  -6.117765e+05   4.526607e+05   6.167392e+10  -1.856527e+10  -8.227107e+10   8.690811e+05   1.986119e-20   0.000000e+00   0.000000e+00
     3696000   3.695999e-05   6.902786e+00   1.296446e+01   4.625519e+01   4.245900e+05  -6.132381e+05   4.460542e+05   6.112657e+10  -1.794974e+10  -8.286231e+10   8.690811e+05   1.987564e-20   0.000000e+00   0.000000e+00
     3704000   3.703999e-05   6.936949e+00   1.291535e+01   4.629061e+01   4.294554e+05  -6.146507e+05   4.394024e+05   6.050774e+10  -1.736718e+10  -8.343153e+10   8.690811e+05   1.987348e-20   0.000000e+00   0.000000e+00
     3712000   3.711999e-05   6.971498e+00   1.286612e+01   4.632550e+01   4.342682e+05  -6.160201e+05   4.327035e+05   5.980812e+10  -1.686440e+10  -8.403322e+10   8.690811e+05   1.987235e-20   0.000000e+00   0.000000e+00
     3720000   3.719999e-05   7.006430e+00   1.281678e+01   4.635984e+01   4.390264e+05  -6.173472e+05   4.259580e+05   5.925690e+10  -1.622400e+10  -8.458834e+10   8.690811e+05   1.988469e-20   0.000000e+00   0.000000e+00
     3728000   3.727999e-05   7.041741e+00   1.276735e+01   4.639365e+01   4.437392e+05  -6.186235e+05   4.191687e+05   5.860699e+10  -1.565569e+10  -8.514731e+10   8.690811e+05   1.988498e-20   0.000000e+00   0.000000e+00
     3736000   3.735999e-05   7.077427e+00   1.271781e+01   4.642691e+01   4.484167e+05  -6.198432e+05   4.123334e+05   5.821507e+10  -1.491412e+10  -8.572897e+10   8.690811e+05   1.994126e-20   0.000000e+00   0.000000e+00
     3744000   3.743999e-05   7.113486e+00   1.266817e+01   4.645962e+01   4.530550e+05  -6.210082e+05   4.054528e+05   5.776599e+10  -1.420079e+10  -8.629824e+10   8.690811e+05   1.998688e-20   0.000000e+00   0.000000e+00
     3752000   3.751999e-05   7.149915e+00   1.261845e+01   4.649178e+01   4.576541e+05  -6.221184e+05   3.985264e+05   5.721210e+10  -1.355647e+10  -8.686244e+10   8.690811e+05   2.001622e-20   0.000000e+00   0.000000e+00
     3760000   3.759999e-05   7.186710e+00   1.256863e+01   4.652338e+01   4.621982e+05  -6.231845e+05   3.915556e+05   5.641821e+10  -1.307512e+10  -8.740649e+10   8.690811e+05   2.000128e-20   0.000000e+00   0.000000e+00
     3768000   3.767999e-05   7.223865e+00   1.251874e+01   4.655443e+01   4.666837e+05  -6.242073e+05   3.845434e+05   5.575301e+10  -1.247327e+10  -8.790898e+10   8.690811e+05   1.999782e-20   0.000000e+00   0.000000e+00
     3776000   3.775999e-05   7.261378e+00   1.246876e+01   4.658491e+01   4.711310e+05  -6.251722e+05   3.774882e+05   5.541433e+10  -1.165201e+10  -8.845789e+10   8.690811e+05   2.006940e-20   0.000000e+00   0.000000e+00
     3784000   3.783999e-05   7.299245e+00   1.241871e+01   4.661482e+01   4.755319e+05  -6.260840e+05   3.703920e+05   5.460420e+10  -1.114943e+10  -8.895009e+10   8.690811e+05   2.004526e-20   0.000000e+00   0.000000e+00
     3792000   3.791999e-05   7.337462e+00   1.236859e+01   4.664417e+01   4.798863e+05  -6.269421e+05   3.632558e+05   5.411329e+10  -1.041415e+10  -8.946089e+10   8.690811e+05   2.008512e-20   0.000000e+00   0.000000e+00
     3800000   3.799999e-05   7.376025e+00   1.231840e+01   4.667294e+01   4.841884e+05  -6.277514e+05   3.560784e+05   5.343934e+10  -9.817175e+09  -8.997272e+10   8.690811e+05   2.009836e-20   0.000000e+00   0.000000e+00
     3808000   3.807999e-05   7.414931e+00   1.226815e+01   4.670114e+01   4.884330e+05  -6.285150e+05   3.488611e+05   5.254645e+10  -9.395671e+09  -9.049628e+10   8.690811e+05   2.008335e-20   0.000000e+00   0.000000e+00
     3816000   3.815999e-05   7.454173e+00   1.221784e+01   4.672876e+01   4.926123e+05  -6.292411e+05   3.416003e+05   5.193460e+10  -8.756582e+09  -9.102308e+10   8.690811e+05   2.011992e-20   0.000000e+00   0.000000e+00
     3824000   3.823999e-05   7.493747e+00   1.216747e+01   4.675580e+01   4.967408e+05  -6.299163e+05   3.342993e+05   5.131366e+10  -8.099310e+09  -9.150891e+10   8.690811e+05   2.014446e-20   0.000000e+00   0.000000e+00
     3832000   3.831999e-05   7.533650e+00   1.211706e+01   4.678225e+01   5.008199e+05  -6.305392e+05   3.269584e+05   5.065199e+10  -7.475219e+09  -9.200201e+10   8.690811e+05   2.016866e-20   0.000000e+00   0.000000e+00
     3840000   3.839999e-05   7.573877e+00   1.206659e+01   4.680811e+01   5.048500e+05  -6.311086e+05   3.195787e+05   5.000317e+10  -6.818928e+09  -9.245757e+10   8.690812e+05   2.018566e-20   0.000000e+00   0.000000e+00
     3848000   3.847999e-05   7.614425e+00   1.201608e+01   4.683338e+01   5.088197e+05  -6.316318e+05   3.121632e+05   4.926852e+10  -6.236623e+09  -9.292553e+10   8.690812e+05   2.019698e-20   0.000000e+00   0.000000e+00
     3856000   3.855999e-05   7.655287e+00   1.196553e+01   4.685806e+01   5.127277e+05  -6.321103e+05   3.047112e+05   4.847631e+10  -5.693192e+09  -9.337942e+10   8.690812e+05   2.019815e-20   0.000000e+00   0.000000e+00
     3864000   3.863999e-05   7.696460e+00   1.191494e+01   4.688213e+01   5.165798e+05  -6.325395e+05   2.972224e+05   4.782563e+10  -5.036853e+09  -9.384102e+10   8.690812e+05   2.022856e-20   0.000000e+00   0.000000e+00
     3872000   3.871999e-05   7.737938e+00   1.186433e+01   4.690561e+01   5.203853e+05  -6.329100e+05   2.897002e+05   4.740994e+10  -4.152069e+09  -9.423263e+10   8.690812e+05   2.027574e-20   0.000000e+00   0.000000e+00
     3880000   3.879999e-05   7.779720e+00   1.181368e+01   4.692848e+01   5.241577e+05  -6.332106e+05   2.821438e+05   4.689891e+10  -3.363613e+09  -9.467579e+10   8.690812e+05   2.032959e-20   0.000000e+00   0.000000e+00
     3888000   3.887999e-05   7.821802e+00   1.176301e+01   4.695075e+01   5.278757e+05  -6.334596e+05   2.745511e+05   4.623912e+10  -2.695021e+09  -9.512104e+10   8.690812e+05   2.036417e-20   0.000000e+00   0.000000e+00
     3896000   3.895999e-05   7.864179e+00   1.171233e+01   4.697241e+01   5.315477e+05  -6.336486e+05   2.669244e+05   4.556023e+10  -2.029995e+09  -9.554626e+10   8.690812e+05   2.039257e-20   0.000000e+00   0.000000e+00
     3904000   3.903999e-05   7.906849e+00   1.166163e+01   4.699346e+01   5.351823e+05  -6.337704e+05   2.592627e+05   4.490182e+10  -1.321967e+09  -9.591959e+10   8.690812e+05   2.040993e-20   0.000000e+00   0.000000e+00
     3912000   3.911999e-05   7.949807e+00   1.161093e+01   4.701389e+01   5.387571e+05  -6.338409e+05   2.515722e+05   4.442505e+10  -4.739089e+08  -9.633253e+10   8.690812e+05   2.047411e-20   0.000000e+00   0.000000e+00
     3920000   3.919999e-05   7.993049e+00   1.156022e+01   4.703371e+01   5.422933e+05  -6.338429e+05   2.438509e+05   4.389491e+10   3.484197e+08  -9.671058e+10   8.690812e+05   2.052152e-20   0.000000e+00   0.000000e+00
     3928000   3.927999e-05   8.036572e+00   1.150951e+01   4.705291e+01   5.457654e+05  -6.337978e+05   2.360986e+05   4.298486e+10   8.479605e+08  -9.708697e+10   8.690812e+05   2.051147e-20   0.000000e+00   0.000000e+00
     3936000   3.935999e-05   8.080370e+00   1.145881e+01   4.707148e+01   5.491992e+05  -6.336842e+05   2.283128e+05   4.264954e+10   1.825027e+09  -9.752621e+10   8.690812e+05   2.061950e-20   0.000000e+00   0.000000e+00
     3944000   3.943999e-05   8.124442e+00   1.140812e+01   4.708944e+01   5.525575e+05  -6.335316e+05   2.204997e+05   4.135367e+10   2.026918e+09  -9.780536e+10   8.690812e+05   2.052207e-20   0.000000e+00   0.000000e+00
     3952000   3.951999e-05   8.168779e+00   1.135745e+01   4.710676e+01   5.558674e+05  -6.333163e+05   2.126595e+05   4.089129e+10   2.938615e+09  -9.813319e+10   8.690812e+05   2.057798e-20   0.000000e+00   0.000000e+00
     3960000   3.959999e-05   8.213379e+00   1.130679e+01   4.712346e+01   5.591156e+05  -6.330489e+05   2.047948e+05   4.027102e+10   3.705006e+09  -9.849172e+10   8.690812e+05   2.062391e-20   0.000000e+00   0.000000e+00
     3968000   3.967999e-05   8.258236e+00   1.125616e+01   4.713953e+01   5.623051e+05  -6.327271e+05   1.969051e+05   3.943982e+10   4.311612e+09  -9.877358e+10   8.690812e+05   2.061338e-20   0.000000e+00   0.000000e+00
     3976000   3.975999e-05   8.303346e+00   1.120556e+01   4.715497e+01   5.654257e+05  -6.323595e+05   1.889906e+05   3.856834e+10   4.861714e+09  -9.912170e+10   8.690812e+05   2.062421e-20   0.000000e+00   0.000000e+00
     3984000   3.983999e-05   8.348703e+00   1.115499e+01   4.716977e+01   5.684988e+05  -6.319274e+05   1.810502e+05   3.805341e+10   5.752812e+09  -9.940804e+10   8.690812e+05   2.067306e-20   0.000000e+00   0.000000e+00
     3992000   3.991999e-05   8.394304e+00   1.110445e+01   4.718393e+01   5.715119e+05  -6.314411e+05   1.730852e+05   3.727425e+10   6.403027e+09  -9.971638e+10   8.690812e+05   2.069236e-20   0.000000e+00   0.000000e+00
     4000000   3.999999e-05   8.440144e+00   1.105396e+01   4.719746e+01   5.744734e+05  -6.308936e+05   1.650933e+05   3.666372e+10   7.202401e+09  -1.000542e+11   8.690813e+05   2.075279e-20   0.000000e+00   0.000000e+00
     4008000   4.007999e-05   8.486217e+00   1.100351e+01   4.721035e+01   5.773498e+05  -6.303146e+05   1.570762e+05   3.547990e+10   7.488551e+09  -1.003593e+11   8.690813e+05   2.071631e-20   0.000000e+00   0.000000e+00
     4016000   4.015999e-05   8.532519e+00   1.095311e+01   4.722259e+01   5.801682e+05  -6.296785e+05   1.490371e+05   3.472339e+10   8.179188e+09  -1.006127e+11   8.690813e+05   2.073204e-20   0.000000e+00   0.000000e+00
     4024000   4.023999e-05   8.579042e+00   1.090276e+01   4.723419e+01   5.829166e+05  -6.289957e+05   1.409781e+05   3.398580e+10   8.889288e+09  -1.008628e+11   8.690813e+05   2.075356e-20   0.000000e+00   0.000000e+00
     4032000   4.031999e-05   8.625785e+00   1.085247e+01   4.724515e+01   5.856287e+05  -6.282348e+05   1.328995e+05   3.333950e+10   9.687431e+09  -1.011176e+11   8.690813e+05   2.079498e-20   0.000000e+00   0.000000e+00
     4040000   4.039999e-05   8.672741e+00   1.080225e+01   4.725546e+01   5.882726e+05  -6.274253e+05   1.248001e+05   3.275705e+10   1.055035e+10  -1.013654e+11   8.690813e+05   2.084799e-20   0.000000e+00   0.000000e+00
     4048000   4.047999e-05   8.719907e+00   1.075209e+01   4.726512e+01   5.908690e+05  -6.265473e+05   1.166819e+05   3.211932e+10   1.137448e+10  -1.015715e+11   8.690813e+05   2.088169e-20   0.000000e+00   0.000000e+00
     4056000   4.055999e-05   8.767279e+00   1.070200e+01   4.727413e+01   5.934077e+05  -6.256092e+05   1.085480e+05   3.134968e+10   1.207698e+10  -1.017758e+11   8.690813e+05   2.089840e-20   0.000000e+00   0.000000e+00
     4064000   4.063999e-05   8.814851e+00   1.065199e+01   4.728248e+01   5.958935e+05  -6.246074e+05   1.003934e+05   3.058281e+10   1.278801e+10  -1.019639e+11   8.690813e+05   2.091387e-20   0.000000e+00   0.000000e+00
     4072000   4.071999e-05   8.862620e+00   1.060207e+01   4.729019e+01   5.983134e+05  -6.235521e+05   9.222884e+04   2.991386e+10   1.359415e+10  -1.021491e+11   8.690813e+05   2.094770e-20   0.000000e+00   0.000000e+00
     4080000   4.079999e-05   8.910579e+00   1.055222e+01   4.729724e+01   6.006633e+05  -6.224487e+05   8.404545e+04   2.939268e+10   1.454547e+10  -1.023396e+11   8.690813e+05   2.101105e-20   0.000000e+00   0.000000e+00
     4088000   4.087999e-05   8.958725e+00   1.050248e+01   4.730363e+01   6.029744e+05  -6.212655e+05   7.585100e+04   2.841370e+10   1.506040e+10  -1.025182e+11   8.690813e+05   2.100241e-20   0.000000e+00   0.000000e+00
     4096000   4.095999e-05   9.007053e+00   1.045282e+01   4.730937e+01   6.052158e+05  -6.200322e+05   6.764856e+04   2.766067e+10   1.579851e+10  -1.026626e+11   8.690813e+05   2.102090e-20   0.000000e+00   0.000000e+00
     4104000   4.103999e-05   9.055558e+00   1.040327e+01   4.731446e+01   6.073979e+05  -6.187393e+05   5.942981e+04   2.689255e+10   1.652501e+10  -1.028051e+11   8.690813e+05   2.104067e-20   0.000000e+00   0.000000e+00
     4112000   4.111999e-05   9.104235e+00   1.035383e+01   4.731888e+01   6.095200e+05  -6.173863e+05   5.120414e+04   2.612967e+10   1.725882e+10  -1.029424e+11   8.690813e+05   2.106358e-20   0.000000e+00   0.000000e+00
     4120000   4.119999e-05   9.153080e+00   1.030449e+01   4.732265e+01   6.115774e+05  -6.159785e+05   4.296351e+04   2.530628e+10   1.793616e+10  -1.030723e+11   8.690813e+05   2.107857e-20   0.000000e+00   0.000000e+00
     4128000   4.127999e-05   9.202086e+00   1.025527e+01   4.732576e+01   6.135660e+05  -6.145193e+05   3.471572e+04   2.443792e+10   1.857030e+10  -1.031910e+11   8.690813e+05   2.108664e-20   0.000000e+00   0.000000e+00
     4136000   4.135999e-05   9.251249e+00   1.020617e+01   4.732820e+01   6.154903e+05  -6.130042e+05   2.645564e+04   2.367042e+10   1.930763e+10  -1.033102e+11   8.690813e+05   2.111506e-20   0.000000e+00   0.000000e+00
     4144000   4.143999e-05   9.300563e+00   1.015719e+01   4.732999e+01   6.173564e+05  -6.114267e+05   1.818853e+04   2.296820e+10   2.011438e+10  -1.034156e+11   8.690813e+05   2.115300e-20   0.000000e+00   0.000000e+00
     4152000   4.151999e-05   9.350024e+00   1.010834e+01   4.733111e+01   6.191668e+05  -6.097841e+05   9.911342e+03   2.229176e+10   2.095208e+10  -1.035132e+11   8.690814e+05   2.119661e-20   0.000000e+00   0.000000e+00
     4160000   4.159999e-05   9.399628e+00   1.005963e+01   4.733158e+01   6.209136e+05  -6.080840e+05   1.628897e+03   2.146441e+10   2.163968e+10  -1.035563e+11   8.690814e+05   2.120028e-20   0.000000e+00   0.000000e+00
     4168000   4.167999e-05   9.449369e+00   1.001105e+01   4.733137e+01   6.226131e+05  -6.063093e+05  -6.659043e+03   2.082119e+10   2.251889e+10  -1.036155e+11   8.690814e+05   2.124374e-20   0.000000e+00   0.000000e+00
     4176000   4.175999e-05   9.499244e+00   9.962620e+00   4.733051e+01   6.242278e+05  -6.044987e+05  -1.494911e+04   1.968814e+10   2.289349e+10  -1.036393e+11   8.690814e+05   2.120017e-20   0.000000e+00   0.000000e+00
     4184000   4.183999e-05   9.549245e+00   9.914335e+00   4.732898e+01   6.257951e+05  -6.026132e+05  -2.324161e+04   1.917829e+10   2.391374e+10  -1.036576e+11   8.690814e+05   2.125789e-20   0.000000e+00   0.000000e+00
     4192000   4.191999e-05   9.599369e+00   9.866203e+00   4.732679e+01   6.272837e+05  -6.006856e+05  -3.153441e+04   1.816025e+10   2.440616e+10  -1.036619e+11   8.690814e+05   2.123365e-20   0.000000e+00   0.000000e+00
     4200000   4.199999e-05   9.649610e+00   9.818228e+00   4.732394e+01   6.287327e+05  -5.986748e+05  -3.982670e+04   1.780481e+10   2.559454e+10  -1.036605e+11   8.690814e+05   2.131796e-20   0.000000e+00   0.000000e+00
     4208000   4.207999e-05   9.699964e+00   9.770417e+00   4.732042e+01   6.301074e+05  -5.966170e+05  -4.811705e+04   1.664360e+10   2.593314e+10  -1.036017e+11   8.690814e+05   2.125478e-20   0.000000e+00   0.000000e+00
     4216000   4.215999e-05   9.750426e+00   9.722773e+00   4.731624e+01   6.314474e+05  -5.944703e+05  -5.640734e+04   1.636655e+10   2.721607e+10  -1.036150e+11   8.690814e+05   2.136719e-20   0.000000e+00   0.000000e+00
     4224000   4.223999e-05   9.800993e+00   9.675302e+00   4.731139e+01   6.327069e+05  -5.922830e+05  -6.469357e+04   1.557840e+10   2.795597e+10  -1.035868e+11   8.690814e+05   2.138503e-20   0.000000e+00   0.000000e+00
     4232000   4.231999e-05   9.851659e+00   9.628010e+00   4.730589e+01   6.339172e+05  -5.900218e+05  -7.297765e+04   1.467929e+10   2.857448e+10  -1.035142e+11   8.690814e+05   2.137181e-20   0.000000e+00   0.000000e+00
     4240000   4.239999e-05   9.902418e+00   9.580900e+00   4.729972e+01   6.350491e+05  -5.877181e+05  -8.125580e+04   1.371016e+10   2.911311e+10  -1.034239e+11   8.690814e+05   2.134426e-20   0.000000e+00   0.000000e+00
     4248000   4.247999e-05   9.953265e+00   9.533977e+00   4.729289e+01   6.361254e+05  -5.853477e+05  -8.952681e+04   1.319733e+10   3.014904e+10  -1.033504e+11   8.690814e+05   2.140318e-20   0.000000e+00   0.000000e+00
     4256000   4.255999e-05   1.000420e+01   9.487247e+00   4.728539e+01   6.371624e+05  -5.828922e+05  -9.779191e+04   1.273080e+10   3.124383e+10  -1.032838e+11   8.690814e+05   2.147843e-20   0.000000e+00   0.000000e+00
     4264000   4.263999e-05   1.005521e+01   9.440716e+00   4.727724e+01   6.381490e+05  -5.803633e+05  -1.060509e+05   1.193416e+10   3.197822e+10  -1.031894e+11   8.690814e+05   2.149172e-20   0.000000e+00   0.000000e+00
     4272000   4.271999e-05   1.010630e+01   9.394390e+00   4.726843e+01   6.390735e+05  -5.777738e+05  -1.143022e+05   1.130788e+10   3.290396e+10  -1.031004e+11   8.690814e+05   2.154108e-20   0.000000e+00   0.000000e+00
     4280000   4.279999e-05   1.015746e+01   9.348275e+00   4.725895e+01   6.399491e+05  -5.751091e+05  -1.225446e+05   1.058241e+10   3.371383e+10  -1.029588e+11   8.690814e+05   2.155726e-20   0.000000e+00   0.000000e+00
     4288000   4.287999e-05   1.020869e+01   9.302374e+00   4.724882e+01   6.407635e+05  -5.723832e+05  -1.307754e+05   9.640823e+09   3.428074e+10  -1.028049e+11   8.690814e+05   2.153514e-20   0.000000e+00   0.000000e+00
