     timestep     time              x             y              z              vx             vy             vz             ax             ay             az         v_magnitude      ELoss        Electronic      Nuclear
           0   0.000000e+00   1.000000e-01   7.817126e+00   1.609207e+01   2.773899e+06  -1.104138e+06   1.766438e+06   0.000000e+00   0.000000e+00   0.000000e+00   3.468997e+06   0.000000e+00   0.000000e+00   0.000000e+00
        8000   7.999000e-08   3.237220e-01   7.734186e+00   1.623376e+01   2.817688e+06  -9.677143e+05   1.777106e+06   4.907867e+11   1.766433e+12   1.837555e+11   3.468997e+06   1.761841e-17   0.000000e+00   0.000000e+00
       16000   1.599900e-07   5.505757e-01   7.662548e+00   1.637663e+01   2.851924e+06  -8.216767e+05   1.795918e+06   3.617043e+11   1.883291e+12   2.872849e+11   3.468998e+06   1.951378e-17   0.000000e+00   0.000000e+00
       24000   2.399900e-07   7.797337e-01   7.602958e+00   1.652133e+01   2.875052e+06  -6.666488e+05   1.823075e+06   2.137003e+11   1.990293e+12   3.908060e+11   3.468998e+06   2.158714e-17   0.000000e+00   0.000000e+00
       32000   3.199900e-07   1.010251e+00   7.556098e+00   1.666853e+01   2.885704e+06  -5.036344e+05   1.858230e+06   4.990019e+10   2.081958e+12   4.868041e+11   3.468999e+06   2.373753e-17   0.000000e+00   0.000000e+00
       40000   3.999900e-07   1.241083e+00   7.522552e+00   1.681884e+01   2.882766e+06  -3.340669e+05   1.900530e+06  -1.250433e+11   2.153132e+12   5.681630e+11   3.468999e+06   2.581553e-17   0.000000e+00   0.000000e+00
       48000   4.799900e-07   1.471113e+00   7.502776e+00   1.697277e+01   2.865558e+06  -1.596778e+05   1.948599e+06  -3.054612e+11   2.202831e+12   6.297415e+11   3.469000e+06   2.772496e-17   0.000000e+00   0.000000e+00
       56000   5.599900e-07   1.699188e+00   7.497080e+00   1.713072e+01   2.833941e+06   1.757781e+04   2.000609e+06  -4.840432e+11   2.225178e+12   6.661434e+11   3.469000e+06   2.921508e-17   0.000000e+00   0.000000e+00
       64000   6.399900e-07   1.924172e+00   7.505608e+00   1.729291e+01   2.788428e+06   1.955731e+05   2.054359e+06  -6.517523e+11   2.220341e+12   6.732920e+11   3.469001e+06   3.014183e-17   0.000000e+00   0.000000e+00
       72000   7.199900e-07   2.144994e+00   7.528335e+00   1.745940e+01   2.730109e+06   3.722010e+05   2.107592e+06  -8.027359e+11   2.191758e+12   6.528024e+11   3.469002e+06   3.048611e-17   0.000000e+00   0.000000e+00
       80000   7.999900e-07   2.360691e+00   7.565076e+00   1.763006e+01   2.660613e+06   5.456346e+05   2.158101e+06  -9.301933e+11   2.140004e+12   6.057557e+11   3.469002e+06   3.016172e-17   0.000000e+00   0.000000e+00
       88000   8.799900e-07   2.570449e+00   7.615505e+00   1.780457e+01   2.581997e+06   7.141500e+05   2.203920e+06  -1.029955e+12   2.069002e+12   5.362343e+11   3.469003e+06   2.921370e-17   0.000000e+00   0.000000e+00
       96000   9.599900e-07   2.773628e+00   7.679171e+00   1.798252e+01   2.496522e+06   8.763536e+05   2.243517e+06  -1.102440e+12   1.984599e+12   4.515720e+11   3.469004e+06   2.780629e-17   0.000000e+00   0.000000e+00
      104000   1.039990e-06   2.969772e+00   7.755526e+00   1.816334e+01   2.406518e+06   1.031229e+06   2.275791e+06  -1.144145e+12   1.887390e+12   3.546558e+11   3.469004e+06   2.593373e-17   0.000000e+00   0.000000e+00
      112000   1.119990e-06   3.158610e+00   7.843953e+00   1.834643e+01   2.314239e+06   1.178040e+06   2.300112e+06  -1.158863e+12   1.782439e+12   2.530950e+11   3.469005e+06   2.379052e-17   0.000000e+00   0.000000e+00
      120000   1.199990e-06   3.340045e+00   7.943785e+00   1.853114e+01   2.221768e+06   1.316304e+06   2.316266e+06  -1.148943e+12   1.673428e+12   1.510986e+11   3.469005e+06   2.150267e-17   0.000000e+00   0.000000e+00
      128000   1.279990e-06   3.514136e+00   8.054328e+00   1.871682e+01   2.130931e+06   1.445791e+06   2.324397e+06  -1.118289e+12   1.563173e+12   5.292238e+10   3.469006e+06   1.918609e-17   0.000000e+00   0.000000e+00
      136000   1.359990e-06   3.681079e+00   8.174876e+00   1.890284e+01   2.043276e+06   1.566454e+06   2.324919e+06  -1.070463e+12   1.453396e+12  -3.845029e+10   3.469006e+06   1.691739e-17   0.000000e+00   0.000000e+00
      144000   1.439990e-06   3.841178e+00   8.304727e+00   1.908862e+01   1.960044e+06   1.678376e+06   2.318467e+06  -1.008219e+12   1.345207e+12  -1.214517e+11   3.469007e+06   1.474344e-17   0.000000e+00   0.000000e+00
      152000   1.519990e-06   3.994830e+00   8.443189e+00   1.927363e+01   1.882216e+06   1.781769e+06   2.305769e+06  -9.357673e+11   1.239928e+12  -1.942621e+11   3.469007e+06   1.271933e-17   0.000000e+00   0.000000e+00
      160000   1.599990e-06   4.142497e+00   8.589589e+00   1.945740e+01   1.810537e+06   1.876875e+06   2.287642e+06  -8.553588e+11   1.138589e+12  -2.571688e+11   3.469007e+06   1.086834e-17   0.000000e+00   0.000000e+00
      168000   1.679990e-06   4.284693e+00   8.743278e+00   1.963953e+01   1.745509e+06   1.964045e+06   2.264892e+06  -7.691438e+11   1.040783e+12  -3.097631e+11   3.469007e+06   9.189996e-18   0.000000e+00   0.000000e+00
      176000   1.759990e-06   4.421968e+00   8.903629e+00   1.981968e+01   1.687994e+06   2.042846e+06   2.238631e+06  -5.702538e+11   7.878975e+11  -2.889971e+11   3.469008e+06   5.345377e-18   0.000000e+00   0.000000e+00
      184000   1.839990e-06   4.556293e+00   9.067995e+00   1.999845e+01   1.682854e+06   2.047712e+06   2.238055e+06   3.979279e+11  -6.230845e+11   2.708823e+11   3.469008e+06   3.215653e-18   0.000000e+00   0.000000e+00
      192000   1.919990e-06   4.692091e+00   9.229921e+00   2.017832e+01   1.710959e+06   2.001591e+06   2.258378e+06   3.084042e+11  -5.327822e+11   2.385560e+11   3.469008e+06   2.262199e-18   0.000000e+00   0.000000e+00
      200000   1.999990e-06   4.829872e+00   9.388432e+00   2.035973e+01   1.732475e+06   1.962367e+06   2.276326e+06   2.274640e+11  -4.451267e+11   2.106152e+11   3.469008e+06   1.527094e-18   0.000000e+00   0.000000e+00
      208000   2.079990e-06   4.969127e+00   9.544079e+00   2.054248e+01   1.747909e+06   1.929931e+06   2.292203e+06   1.552221e+11  -3.624214e+11   1.867793e+11   3.469008e+06   9.878209e-19   0.000000e+00   0.000000e+00
      216000   2.159990e-06   5.109375e+00   9.697407e+00   2.072643e+01   1.757302e+06   1.904407e+06   2.306325e+06   7.887905e+10  -2.742707e+11   1.663729e+11   3.469008e+06   5.663802e-19   0.000000e+00   0.000000e+00
      224000   2.239990e-06   5.250133e+00   9.848972e+00   2.091145e+01   1.760711e+06   1.885837e+06   2.318951e+06   7.685994e+09  -1.912056e+11   1.496583e+11   3.469008e+06   3.063034e-19   0.000000e+00   0.000000e+00
      232000   2.319990e-06   5.390937e+00   9.999318e+00   2.109743e+01   1.758407e+06   1.873919e+06   2.330332e+06  -6.456985e+10  -1.081320e+11   1.356764e+11   3.469008e+06   1.778589e-19   0.000000e+00   0.000000e+00
      240000   2.399990e-06   5.531323e+00   1.014898e+01   2.128428e+01   1.750323e+06   1.868659e+06   2.340619e+06  -1.367419e+11  -2.556553e+10   1.226667e+11   3.469008e+06   1.785131e-19   0.000000e+00   0.000000e+00
      248000   2.479990e-06   5.670844e+00   1.029847e+01   2.147191e+01   1.736827e+06   1.869579e+06   2.349919e+06  -2.016945e+11   4.862298e+10   1.103887e+11   3.469008e+06   2.866109e-19   0.000000e+00   0.000000e+00
      256000   2.559990e-06   5.809061e+00   1.044828e+01   2.166024e+01   1.717655e+06   1.876730e+06   2.358296e+06  -2.747092e+11   1.264656e+11   9.944248e+10   3.469008e+06   5.259294e-19   0.000000e+00   0.000000e+00
      264000   2.639990e-06   5.945520e+00   1.059890e+01   2.184921e+01   1.692921e+06   1.889706e+06   2.365807e+06  -3.446037e+11   1.979698e+11   8.846197e+10   3.469008e+06   8.602471e-19   0.000000e+00   0.000000e+00
      272000   2.719990e-06   6.079793e+00   1.075077e+01   2.203875e+01   1.662964e+06   1.907883e+06   2.372457e+06  -4.094740e+11   2.602915e+11   7.769889e+10   3.469008e+06   1.253045e-18   0.000000e+00   0.000000e+00
      280000   2.799990e-06   6.211442e+00   1.090430e+01   2.222878e+01   1.627295e+06   1.931302e+06   2.378235e+06  -4.838494e+11   3.254804e+11   6.675876e+10   3.469008e+06   1.787808e-18   0.000000e+00   0.000000e+00
      288000   2.879990e-06   6.339994e+00   1.105992e+01   2.241924e+01   1.585617e+06   1.959755e+06   2.383106e+06  -5.536467e+11   3.809342e+11   5.511222e+10   3.469008e+06   2.359553e-18   0.000000e+00   0.000000e+00
      296000   2.959990e-06   6.464996e+00   1.121797e+01   2.261005e+01   1.538496e+06   1.992294e+06   2.387009e+06  -6.235304e+11   4.307239e+11   4.238617e+10   3.469008e+06   2.989776e-18   0.000000e+00   0.000000e+00
      304000   3.039990e-06   6.586010e+00   1.137878e+01   2.280113e+01   1.485939e+06   2.028432e+06   2.389867e+06  -6.873131e+11   4.690223e+11   2.926221e+10   3.469008e+06   3.597660e-18   0.000000e+00   0.000000e+00
      312000   3.119990e-06   6.702593e+00   1.154261e+01   2.299240e+01   1.427553e+06   2.067858e+06   2.391668e+06  -7.684234e+11   5.111652e+11   1.670656e+10   3.469008e+06   4.421783e-18   0.000000e+00   0.000000e+00
      320000   3.199990e-06   6.814263e+00   1.170970e+01   2.318377e+01   1.363251e+06   2.109966e+06   2.392407e+06  -8.391269e+11   5.393148e+11   2.513876e+09   3.469008e+06   5.163699e-18   0.000000e+00   0.000000e+00
      328000   3.279990e-06   6.920570e+00   1.188025e+01   2.337516e+01   1.293519e+06   2.153806e+06   2.392059e+06  -9.056826e+11   5.560523e+11  -1.091124e+10   3.469008e+06   5.862094e-18   0.000000e+00   0.000000e+00
      336000   3.359990e-06   7.021082e+00   1.205434e+01   2.356647e+01   1.218431e+06   2.198607e+06   2.390726e+06  -9.694389e+11   5.622139e+11  -2.295577e+10   3.469008e+06   6.520426e-18   0.000000e+00   0.000000e+00
      344000   3.439990e-06   7.115384e+00   1.223203e+01   2.375765e+01   1.138253e+06   2.243552e+06   2.388488e+06  -1.037021e+12   5.608084e+11  -3.257128e+10   3.469009e+06   7.218704e-18   0.000000e+00   0.000000e+00
      352000   3.519990e-06   7.203042e+00   1.241330e+01   2.394861e+01   1.052195e+06   2.288225e+06   2.385568e+06  -1.108639e+12   5.508951e+11  -3.942553e+10   3.469009e+06   7.961582e-18   0.000000e+00   0.000000e+00
      360000   3.599990e-06   7.283608e+00   1.259810e+01   2.413933e+01   9.611336e+05   2.331359e+06   2.382228e+06  -1.167518e+12   5.254665e+11  -4.319232e+10   3.469009e+06   8.516704e-18   0.000000e+00   0.000000e+00
      368000   3.679990e-06   7.356684e+00   1.278626e+01   2.432977e+01   8.650379e+05   2.372153e+06   2.378786e+06  -1.224485e+12   4.880917e+11  -4.144349e+10   3.469009e+06   9.026554e-18   0.000000e+00   0.000000e+00
      376000   3.759990e-06   7.421921e+00   1.297754e+01   2.451994e+01   7.652461e+05   2.409247e+06   2.375700e+06  -1.281949e+12   4.409486e+11  -3.423383e+10   3.469009e+06   9.543788e-18   0.000000e+00   0.000000e+00
      384000   3.839990e-06   7.479000e+00   1.317163e+01   2.470990e+01   6.610988e+05   2.442106e+06   2.373414e+06  -1.323968e+12   3.784870e+11  -2.065073e+10   3.469010e+06   9.842681e-18   0.000000e+00   0.000000e+00
      392000   3.919990e-06   7.527603e+00   1.336814e+01   2.489973e+01   5.533673e+05   2.469625e+06   2.372502e+06  -1.370550e+12   3.077330e+11  -6.523835e+08   3.469010e+06   1.023985e-17   0.000000e+00   0.000000e+00
      400000   3.999990e-06   7.567473e+00   1.356660e+01   2.508956e+01   4.430883e+05   2.490756e+06   2.373571e+06  -1.385001e+12   2.198975e+11   2.780054e+10   3.469010e+06   1.021007e-17   0.000000e+00   0.000000e+00
      408000   4.079990e-06   7.598452e+00   1.376646e+01   2.527957e+01   3.310094e+05   2.504640e+06   2.377235e+06  -1.417740e+12   1.261707e+11   6.448388e+10   3.469010e+06   1.053545e-17   0.000000e+00   0.000000e+00
      416000   4.159990e-06   7.620407e+00   1.396712e+01   2.547000e+01   2.178120e+05   2.510411e+06   2.384204e+06  -1.416998e+12   1.820560e+10   1.102908e+11   3.469010e+06   1.048522e-17   0.000000e+00   0.000000e+00
      424000   4.239990e-06   7.633301e+00   1.416789e+01   2.566114e+01   1.046722e+05   2.507349e+06   2.395054e+06  -1.406896e+12  -9.623985e+10   1.622468e+11   3.469011e+06   1.045702e-17   0.000000e+00   0.000000e+00
      432000   4.319990e-06   7.637198e+00   1.436805e+01   2.585333e+01  -7.003162e+03   2.494841e+06   2.410344e+06  -1.382384e+12  -2.172502e+11   2.208580e+11   3.469011e+06   1.041565e-17   0.000000e+00   0.000000e+00
      440000   4.399990e-06   7.632247e+00   1.456681e+01   2.604693e+01  -1.162615e+05   2.472467e+06   2.430520e+06  -1.344882e+12  -3.423794e+11   2.839655e+11   3.469011e+06   1.041356e-17   0.000000e+00   0.000000e+00
      448000   4.479990e-06   7.618709e+00   1.476337e+01   2.624235e+01  -2.212716e+05   2.440000e+06   2.455907e+06  -1.279745e+12  -4.692392e+11   3.509061e+11   3.469011e+06   1.028121e-17   0.000000e+00   0.000000e+00
      456000   4.559990e-06   7.596990e+00   1.495694e+01   2.644002e+01  -3.207396e+05   2.397426e+06   2.486668e+06  -1.205600e+12  -5.942590e+11   4.174375e+11   3.469012e+06   1.028021e-17   0.000000e+00   0.000000e+00
      464000   4.639990e-06   7.567555e+00   1.514670e+01   2.664036e+01  -4.140049e+05   2.344885e+06   2.522728e+06  -1.120598e+12  -7.182139e+11   4.836890e+11   3.469012e+06   1.040815e-17   0.000000e+00   0.000000e+00
      472000   4.719990e-06   7.530963e+00   1.533186e+01   2.684379e+01  -4.993044e+05   2.282743e+06   2.563947e+06  -1.010937e+12  -8.347549e+11   5.463396e+11   3.469012e+06   1.046923e-17   0.000000e+00   0.000000e+00
      480000   4.799990e-06   7.487907e+00   1.551169e+01   2.705072e+01  -5.754866e+05   2.211611e+06   2.609912e+06  -8.910634e+11  -9.417552e+11   6.015612e+11   3.469012e+06   1.060145e-17   0.000000e+00   0.000000e+00
      488000   4.879990e-06   7.439150e+00   1.568550e+01   2.726149e+01  -6.416967e+05   2.132289e+06   2.660003e+06  -7.600969e+11  -1.039009e+12   6.495245e+11   3.469013e+06   1.079034e-17   0.000000e+00   0.000000e+00
      496000   4.959990e-06   7.385530e+00   1.585267e+01   2.747641e+01  -6.969370e+05   2.045769e+06   2.713514e+06  -6.204755e+11  -1.121064e+12   6.858364e+11   3.469013e+06   1.096148e-17   0.000000e+00   0.000000e+00
      504000   5.039990e-06   7.327951e+00   1.601266e+01   2.769572e+01  -7.406059e+05   1.953204e+06   2.769575e+06  -4.756847e+11  -1.191540e+12   7.131232e+11   3.469013e+06   1.118174e-17   0.000000e+00   0.000000e+00
      512000   5.119990e-06   7.267344e+00   1.616505e+01   2.791958e+01  -7.726035e+05   1.855716e+06   2.827270e+06  -3.278622e+11  -1.244659e+12   7.273620e+11   3.469013e+06   1.134336e-17   0.000000e+00   0.000000e+00
      520000   5.199990e-06   7.204642e+00   1.630948e+01   2.814810e+01  -7.930269e+05   1.754535e+06   2.885614e+06  -1.824929e+11  -1.282021e+12   7.293600e+11   3.469014e+06   1.146336e-17   0.000000e+00   0.000000e+00
      528000   5.279990e-06   7.140767e+00   1.644571e+01   2.838127e+01  -8.019908e+05   1.651019e+06   2.943638e+06  -4.297286e+10  -1.304179e+12   7.197834e+11   3.469014e+06   1.152548e-17   0.000000e+00   0.000000e+00
      536000   5.359990e-06   7.076614e+00   1.657361e+01   2.861905e+01  -8.000542e+05   1.546348e+06   3.000464e+06   9.010903e+10  -1.311079e+12   6.997248e+11   3.469014e+06   1.150394e-17   0.000000e+00   0.000000e+00
      544000   5.439990e-06   7.013033e+00   1.669313e+01   2.886129e+01  -7.878239e+05   1.441682e+06   3.055315e+06   2.134570e+11  -1.303327e+12   6.700362e+11   3.469014e+06   1.138204e-17   0.000000e+00   0.000000e+00
      552000   5.519990e-06   6.950813e+00   1.680431e+01   2.910783e+01  -7.661752e+05   1.338126e+06   3.107484e+06   3.253013e+11  -1.284897e+12   6.335072e+11   3.469015e+06   1.120011e-17   0.000000e+00   0.000000e+00
      560000   5.599990e-06   6.890667e+00   1.690728e+01   2.935841e+01  -7.361826e+05   1.236439e+06   3.156473e+06   4.232372e+11  -1.256145e+12   5.907691e+11   3.469015e+06   1.092985e-17   0.000000e+00   0.000000e+00
      568000   5.679990e-06   6.833219e+00   1.700221e+01   2.961276e+01  -6.988960e+05   1.137415e+06   3.201858e+06   5.072988e+11  -1.218839e+12   5.437143e+11   3.469015e+06   1.057960e-17   0.000000e+00   0.000000e+00
      576000   5.759990e-06   6.778987e+00   1.708939e+01   2.987059e+01  -6.583138e+05   1.046620e+06   3.241184e+06   3.147798e+11  -7.128988e+11   2.941409e+11   3.469015e+06   3.603086e-18   0.000000e+00   0.000000e+00
      584000   5.839990e-06   6.726334e+00   1.717265e+01   3.013003e+01  -6.655800e+05   1.047577e+06   3.239391e+06  -2.441588e+11   2.354200e+11  -1.262973e+11   3.469015e+06   6.797948e-19   0.000000e+00   0.000000e+00
      592000   5.919990e-06   6.672260e+00   1.725716e+01   3.038878e+01  -6.868466e+05   1.064241e+06   3.229505e+06  -2.874872e+11   1.806910e+11  -1.206863e+11   3.469015e+06   6.739562e-19   0.000000e+00   0.000000e+00
      600000   5.999990e-06   6.616351e+00   1.734280e+01   3.064677e+01  -7.114270e+05   1.076159e+06   3.220221e+06  -3.276439e+11   1.170787e+11  -1.115106e+11   3.469015e+06   6.927883e-19   0.000000e+00   0.000000e+00
      608000   6.079990e-06   6.558345e+00   1.742920e+01   3.090404e+01  -7.392587e+05   1.082814e+06   3.211710e+06  -3.683230e+11   4.827191e+10  -1.010533e+11   3.469015e+06   7.691280e-19   0.000000e+00   0.000000e+00
      616000   6.159990e-06   6.497984e+00   1.751590e+01   3.116067e+01  -7.702691e+05   1.083782e+06   3.204087e+06  -4.067031e+11  -2.535797e+10  -8.919442e+10   3.469015e+06   9.030292e-19   0.000000e+00   0.000000e+00
      624000   6.239990e-06   6.435027e+00   1.760244e+01   3.141672e+01  -8.041074e+05   1.078647e+06   3.197499e+06  -4.379702e+11  -1.044594e+11  -7.490173e+10   3.469015e+06   1.081207e-18   0.000000e+00   0.000000e+00
      632000   6.319990e-06   6.369267e+00   1.768831e+01   3.167230e+01  -8.402370e+05   1.066914e+06   3.192141e+06  -4.636003e+11  -1.901456e+11  -5.847568e+10   3.469015e+06   1.320759e-18   0.000000e+00   0.000000e+00
      640000   6.399990e-06   6.300538e+00   1.777296e+01   3.192750e+01  -8.783140e+05   1.048157e+06   3.188103e+06  -4.876366e+11  -2.798563e+11  -4.233288e+10   3.469015e+06   1.649783e-18   0.000000e+00   0.000000e+00
      648000   6.479990e-06   6.228696e+00   1.785582e+01   3.218243e+01  -9.179111e+05   1.022095e+06   3.185409e+06  -5.015251e+11  -3.721673e+11  -2.510230e+10   3.469015e+06   2.027410e-18   0.000000e+00   0.000000e+00
      656000   6.559990e-06   6.153652e+00   1.793630e+01   3.243720e+01  -9.582666e+05   9.884987e+05   3.184127e+06  -5.062080e+11  -4.677996e+11  -7.115968e+09   3.469016e+06   2.465768e-18   0.000000e+00   0.000000e+00
      664000   6.639990e-06   6.075372e+00   1.801378e+01   3.269193e+01  -9.986721e+05   9.471804e+05   3.184270e+06  -5.028287e+11  -5.663778e+11   1.077382e+10   3.469016e+06   2.977482e-18   0.000000e+00   0.000000e+00
      672000   6.719990e-06   5.993882e+00   1.808763e+01   3.294672e+01  -1.038436e+06   8.979894e+05   3.185802e+06  -4.898054e+11  -6.618139e+11   2.689345e+10   3.469016e+06   3.521856e-18   0.000000e+00   0.000000e+00
      680000   6.799990e-06   5.909260e+00   1.815724e+01   3.320169e+01  -1.076789e+06   8.409347e+05   3.188640e+06  -4.669305e+11  -7.621125e+11   4.331291e+10   3.469016e+06   4.155437e-18   0.000000e+00   0.000000e+00
      688000   6.879990e-06   5.821653e+00   1.822198e+01   3.345694e+01  -1.112970e+06   7.761830e+05   3.192634e+06  -4.347339e+11  -8.559417e+11   5.654614e+10   3.469016e+06   4.799544e-18   0.000000e+00   0.000000e+00
      696000   6.959990e-06   5.731269e+00   1.828124e+01   3.371254e+01  -1.146065e+06   7.040356e+05   3.197646e+06  -3.913153e+11  -9.470008e+11   6.825642e+10   3.469016e+06   5.473022e-18   0.000000e+00   0.000000e+00
      704000   7.039990e-06   5.638382e+00   1.833444e+01   3.396858e+01  -1.175409e+06   6.247861e+05   3.203456e+06  -3.395576e+11  -1.032189e+12   7.672661e+10   3.469016e+06   6.158083e-18   0.000000e+00   0.000000e+00
      712000   7.119990e-06   5.543324e+00   1.838102e+01   3.422511e+01  -1.200208e+06   5.388791e+05   3.209857e+06  -2.786263e+11  -1.113576e+12   8.277212e+10   3.469016e+06   6.873931e-18   0.000000e+00   0.000000e+00
      720000   7.199990e-06   5.446486e+00   1.842050e+01   3.448217e+01  -1.219848e+06   4.469985e+05   3.216557e+06  -2.113883e+11  -1.183923e+12   8.436500e+10   3.469016e+06   7.543100e-18   0.000000e+00   0.000000e+00
      728000   7.279990e-06   5.348298e+00   1.845240e+01   3.473976e+01  -1.233870e+06   3.496769e+05   3.223254e+06  -1.366354e+11  -1.246583e+12   8.293688e+10   3.469017e+06   8.197236e-18   0.000000e+00   0.000000e+00
      736000   7.359990e-06   5.249233e+00   1.847632e+01   3.499788e+01  -1.241719e+06   2.477182e+05   3.229682e+06  -5.834566e+10  -1.300573e+12   7.732763e+10   3.469017e+06   8.827045e-18   0.000000e+00   0.000000e+00
      744000   7.439990e-06   5.149802e+00   1.849194e+01   3.525649e+01  -1.242910e+06   1.421887e+05   3.235589e+06   2.774238e+10  -1.340636e+12   6.957700e+10   3.469017e+06   9.356628e-18   0.000000e+00   0.000000e+00
      752000   7.519990e-06   5.050551e+00   1.849899e+01   3.551555e+01  -1.237198e+06   3.364958e+04   3.240724e+06   1.157467e+11  -1.371870e+12   5.843862e+10   3.469017e+06   9.854472e-18   0.000000e+00   0.000000e+00
      760000   7.599990e-06   4.952040e+00   1.849727e+01   3.577498e+01  -1.224378e+06  -7.689208e+04   3.244852e+06   2.051692e+11  -1.389928e+12   4.448586e+10   3.469017e+06   1.025477e-17   0.000000e+00   0.000000e+00
      768000   7.679990e-06   4.854844e+00   1.848665e+01   3.603470e+01  -1.204327e+06  -1.887192e+05   3.247779e+06   2.954767e+11  -1.400554e+12   2.819141e+10   3.469018e+06   1.063719e-17   0.000000e+00   0.000000e+00
      776000   7.759990e-06   4.759536e+00   1.846708e+01   3.629459e+01  -1.177191e+06  -3.005585e+05   3.249303e+06   3.828506e+11  -1.396000e+12   9.580370e+09   3.469018e+06   1.087502e-17   0.000000e+00   0.000000e+00
      784000   7.839990e-06   4.666683e+00   1.843857e+01   3.655455e+01  -1.142982e+06  -4.119546e+05   3.249303e+06   4.711952e+11  -1.386878e+12  -1.007659e+10   3.469018e+06   1.113492e-17   0.000000e+00   0.000000e+00
      792000   7.919990e-06   4.576843e+00   1.840119e+01   3.681443e+01  -1.101880e+06  -5.222510e+05   3.247646e+06   5.560487e+11  -1.368339e+12  -3.137525e+10   3.469018e+06   1.132678e-17   0.000000e+00   0.000000e+00
      800000   7.999990e-06   4.490556e+00   1.835507e+01   3.707412e+01  -1.054199e+06  -6.305360e+05   3.244253e+06   6.372046e+11  -1.340441e+12  -5.345878e+10   3.469019e+06   1.144689e-17   0.000000e+00   0.000000e+00
      808000   8.079990e-06   4.408338e+00   1.830038e+01   3.733347e+01  -1.000233e+06  -7.363138e+05   3.239054e+06   7.123181e+11  -1.303609e+12  -7.636789e+10   3.469019e+06   1.148301e-17   0.000000e+00   0.000000e+00
      816000   8.159990e-06   4.330675e+00   1.823735e+01   3.759232e+01  -9.404112e+05  -8.388498e+05   3.232035e+06   7.824474e+11  -1.260251e+12  -9.941613e+10   3.469019e+06   1.147114e-17   0.000000e+00   0.000000e+00
      824000   8.239990e-06   4.258016e+00   1.816626e+01   3.785054e+01  -8.751754e+05  -9.377800e+05   3.223156e+06   8.466302e+11  -1.212340e+12  -1.228412e+11   3.469019e+06   1.142602e-17   0.000000e+00   0.000000e+00
      832000   8.319990e-06   4.190777e+00   1.808741e+01   3.810798e+01  -8.050183e+05  -1.032771e+06   3.212387e+06   9.045358e+11  -1.160400e+12  -1.463824e+11   3.469020e+06   1.134558e-17   0.000000e+00   0.000000e+00
      840000   8.399990e-06   4.129327e+00   1.800113e+01   3.836448e+01  -7.305526e+05  -1.123321e+06   3.199772e+06   9.561572e+11  -1.103504e+12  -1.690884e+11   3.469020e+06   1.121276e-17   0.000000e+00   0.000000e+00
      848000   8.479990e-06   4.073995e+00   1.790780e+01   3.861989e+01  -6.520649e+05  -1.209411e+06   3.185316e+06   1.002660e+12  -1.048074e+12  -1.926750e+11   3.469020e+06   1.111084e-17   0.000000e+00   0.000000e+00
      856000   8.559990e-06   4.025082e+00   1.780775e+01   3.887408e+01  -5.702030e+05  -1.290920e+06   3.168990e+06   1.042626e+12  -9.899036e+11  -2.156385e+11   3.469020e+06   1.096849e-17   0.000000e+00   0.000000e+00
      864000   8.639990e-06   3.982839e+00   1.770137e+01   3.912688e+01  -4.854438e+05  -1.367671e+06   3.150861e+06   1.075363e+12  -9.273706e+11  -2.368524e+11   3.469021e+06   1.075593e-17   0.000000e+00   0.000000e+00
      872000   8.719990e-06   3.947479e+00   1.758906e+01   3.937817e+01  -3.981969e+05  -1.439497e+06   3.131037e+06   1.103220e+12  -8.677097e+11  -2.586192e+11   3.469021e+06   1.057105e-17   0.000000e+00   0.000000e+00
      880000   8.799990e-06   3.919184e+00   1.747118e+01   3.962780e+01  -3.088522e+05  -1.506597e+06   3.109483e+06   1.128908e+12  -8.107113e+11  -2.806670e+11   3.469021e+06   1.043385e-17   0.000000e+00   0.000000e+00
      888000   8.879990e-06   3.898108e+00   1.734812e+01   3.987564e+01  -2.178062e+05  -1.569142e+06   3.086173e+06   1.146173e+12  -7.525588e+11  -3.017358e+11   3.469021e+06   1.022959e-17   0.000000e+00   0.000000e+00
      896000   8.959990e-06   3.884364e+00   1.722024e+01   4.012154e+01  -1.256247e+05  -1.627113e+06   3.061181e+06   1.158698e+12  -6.966653e+11  -3.227423e+11   3.469022e+06   1.002711e-17   0.000000e+00   0.000000e+00
      904000   9.039990e-06   3.878028e+00   1.708790e+01   4.036538e+01  -3.262237e+04  -1.680645e+06   3.034548e+06   1.166177e+12  -6.422150e+11  -3.431394e+11   3.469022e+06   9.809489e-18   0.000000e+00   0.000000e+00
      912000   9.119990e-06   3.879160e+00   1.695145e+01   4.060703e+01   6.108178e+04  -1.729949e+06   3.006270e+06   1.173985e+12  -5.911605e+11  -3.640286e+11   3.469022e+06   9.654188e-18   0.000000e+00   0.000000e+00
      920000   9.199990e-06   3.887806e+00   1.681121e+01   4.084634e+01   1.550966e+05  -1.775312e+06   2.976294e+06   1.177183e+12  -5.430482e+11  -3.852572e+11   3.469022e+06   9.492564e-18   0.000000e+00   0.000000e+00
      928000   9.279990e-06   3.903971e+00   1.666750e+01   4.108319e+01   2.490379e+05  -1.816842e+06   2.944687e+06   1.173488e+12  -4.964519e+11  -4.055440e+11   3.469022e+06   9.279371e-18   0.000000e+00   0.000000e+00
      936000   9.359990e-06   3.927646e+00   1.652061e+01   4.131745e+01   3.427990e+05  -1.854803e+06   2.911411e+06   1.169004e+12  -4.534080e+11  -4.264938e+11   3.469023e+06   9.103136e-18   0.000000e+00   0.000000e+00
      944000   9.439990e-06   3.958805e+00   1.637082e+01   4.154897e+01   4.361128e+05  -1.889422e+06   2.876458e+06   1.163151e+12  -4.130135e+11  -4.476354e+11   3.469023e+06   8.946556e-18   0.000000e+00   0.000000e+00
      952000   9.519990e-06   3.997409e+00   1.621839e+01   4.177764e+01   5.288172e+05  -1.920903e+06   2.839825e+06   1.151814e+12  -3.748758e+11  -4.680509e+11   3.469023e+06   8.751441e-18   0.000000e+00   0.000000e+00
      960000   9.599990e-06   4.043387e+00   1.606356e+01   4.200330e+01   6.204388e+05  -1.949468e+06   2.801562e+06   1.140516e+12  -3.398243e+11  -4.890417e+11   3.469023e+06   8.591278e-18   0.000000e+00   0.000000e+00
      968000   9.679990e-06   4.096659e+00   1.590655e+01   4.222584e+01   7.112033e+05  -1.975263e+06   2.761639e+06   1.127673e+12  -3.057567e+11  -5.090956e+11   3.469023e+06   8.429829e-18   0.000000e+00   0.000000e+00
      976000   9.759990e-06   4.157152e+00   1.574758e+01   4.244512e+01   8.008971e+05  -1.998503e+06   2.720050e+06   1.111066e+12  -2.772255e+11  -5.308246e+11   3.469024e+06   8.267841e-18   0.000000e+00   0.000000e+00
      984000   9.839990e-06   4.224769e+00   1.558685e+01   4.266100e+01   8.893424e+05  -2.019501e+06   2.676716e+06   1.093941e+12  -2.520770e+11  -5.536417e+11   3.469024e+06   8.131204e-18   0.000000e+00   0.000000e+00
      992000   9.919990e-06   4.299407e+00   1.542451e+01   4.287334e+01   9.763348e+05  -2.038639e+06   2.631511e+06   1.076668e+12  -2.279846e+11  -5.760765e+11   3.469024e+06   8.008134e-18   0.000000e+00   0.000000e+00
     1000000   9.999990e-06   4.380955e+00   1.526072e+01   4.308199e+01   1.062147e+06  -2.055984e+06   2.584357e+06   1.065197e+12  -2.061002e+11  -6.017435e+11   3.469024e+06   7.988207e-18   0.000000e+00   0.000000e+00
     1008000   1.007999e-05   4.469312e+00   1.509560e+01   4.328679e+01   1.146616e+06  -2.071726e+06   2.535222e+06   1.050769e+12  -1.850842e+11  -6.264765e+11   3.469024e+06   7.944749e-18   0.000000e+00   0.000000e+00
     1016000   1.015999e-05   4.564378e+00   1.492928e+01   4.348757e+01   1.229851e+06  -2.085900e+06   2.484073e+06   1.031146e+12  -1.691480e+11  -6.525434e+11   3.469024e+06   7.876465e-18   0.000000e+00   0.000000e+00
     1024000   1.023999e-05   4.666036e+00   1.476188e+01   4.368419e+01   1.311386e+06  -2.098840e+06   2.430898e+06   1.010938e+12  -1.537009e+11  -6.780656e+11   3.469025e+06   7.812663e-18   0.000000e+00   0.000000e+00
     1032000   1.031999e-05   4.774168e+00   1.459351e+01   4.387646e+01   1.391671e+06  -2.110297e+06   2.375717e+06   9.977857e+11  -1.340812e+11  -7.035879e+11   3.469025e+06   7.829256e-18   0.000000e+00   0.000000e+00
     1040000   1.039999e-05   4.888662e+00   1.442426e+01   4.406424e+01   1.470370e+06  -2.120648e+06   2.318405e+06   9.731528e+11  -1.220535e+11  -7.288254e+11   3.469025e+06   7.748928e-18   0.000000e+00   0.000000e+00
     1048000   1.047999e-05   5.009379e+00   1.425423e+01   4.424735e+01   1.547315e+06  -2.129999e+06   2.258995e+06   9.479669e+11  -1.144826e+11  -7.572554e+11   3.469025e+06   7.707782e-18   0.000000e+00   0.000000e+00
     1056000   1.055999e-05   5.136181e+00   1.408348e+01   4.442562e+01   1.622572e+06  -2.138532e+06   2.197289e+06   9.331376e+11  -9.872255e+10  -7.851446e+11   3.469025e+06   7.768821e-18   0.000000e+00   0.000000e+00
     1064000   1.063999e-05   5.268945e+00   1.391209e+01   4.459886e+01   1.696259e+06  -2.146071e+06   2.133360e+06   9.120908e+11  -8.751672e+10  -8.132451e+11   3.469025e+06   7.789526e-18   0.000000e+00   0.000000e+00
     1072000   1.071999e-05   5.407536e+00   1.374013e+01   4.476690e+01   1.768341e+06  -2.152719e+06   2.067102e+06   8.882999e+11  -7.894325e+10  -8.421183e+11   3.469026e+06   7.807895e-18   0.000000e+00   0.000000e+00
     1080000   1.079999e-05   5.551817e+00   1.356766e+01   4.492954e+01   1.838460e+06  -2.158697e+06   1.998558e+06   8.692185e+11  -6.660815e+10  -8.715255e+11   3.469026e+06   7.886043e-18   0.000000e+00   0.000000e+00
     1088000   1.087999e-05   5.701656e+00   1.339477e+01   4.508660e+01   1.907242e+06  -2.163542e+06   1.927604e+06   8.466548e+11  -5.740896e+10  -9.021392e+11   3.469026e+06   7.960988e-18   0.000000e+00   0.000000e+00
     1096000   1.095999e-05   5.856927e+00   1.322152e+01   4.523789e+01   1.974288e+06  -2.167501e+06   1.854257e+06   8.297761e+11  -4.099932e+10  -9.314069e+11   3.469026e+06   8.084261e-18   0.000000e+00   0.000000e+00
     1104000   1.103999e-05   6.017499e+00   1.304800e+01   4.538322e+01   2.039753e+06  -2.170352e+06   1.778518e+06   8.060789e+11  -3.058505e+10  -9.617931e+11   3.469026e+06   8.177763e-18   0.000000e+00   0.000000e+00
     1112000   1.111999e-05   6.183239e+00   1.287429e+01   4.552239e+01   2.103501e+06  -2.172177e+06   1.700317e+06   7.873739e+11  -1.450121e+10  -9.925940e+11   3.469027e+06   8.331727e-18   0.000000e+00   0.000000e+00
     1120000   1.119999e-05   6.354008e+00   1.270048e+01   4.565520e+01   2.165351e+06  -2.173018e+06   1.619690e+06   7.610009e+11  -4.508268e+09  -1.023414e+12   3.469027e+06   8.441263e-18   0.000000e+00   0.000000e+00
     1128000   1.127999e-05   6.529650e+00   1.252664e+01   4.578147e+01   2.225397e+06  -2.172703e+06   1.536593e+06   7.436250e+11   1.638898e+10  -1.053783e+12   3.469027e+06   8.634249e-18   0.000000e+00   0.000000e+00
     1136000   1.135999e-05   6.710031e+00   1.235289e+01   4.590100e+01   2.283808e+06  -2.170868e+06   1.451103e+06   7.169308e+11   2.961991e+10  -1.084013e+12   3.469027e+06   8.770462e-18   0.000000e+00   0.000000e+00
     1144000   1.143999e-05   6.895006e+00   1.217933e+01   4.601358e+01   2.340245e+06  -2.167740e+06   1.363197e+06   6.913322e+11   4.617894e+10  -1.113387e+12   3.469027e+06   8.924888e-18   0.000000e+00   0.000000e+00
     1152000   1.151999e-05   7.084411e+00   1.200608e+01   4.611904e+01   2.394581e+06  -2.163322e+06   1.272858e+06   6.678873e+11   6.625524e+10  -1.143852e+12   3.469028e+06   9.128090e-18   0.000000e+00   0.000000e+00
     1160000   1.159999e-05   7.278094e+00   1.183325e+01   4.621718e+01   2.447197e+06  -2.156966e+06   1.180203e+06   6.424432e+11   8.748076e+10  -1.172234e+12   3.469028e+06   9.313158e-18   0.000000e+00   0.000000e+00
     1168000   1.167999e-05   7.475896e+00   1.166100e+01   4.630781e+01   2.497479e+06  -2.149150e+06   1.085316e+06   6.166774e+11   1.104181e+11  -1.200403e+12   3.469028e+06   9.515187e-18   0.000000e+00   0.000000e+00
     1176000   1.175999e-05   7.677649e+00   1.148946e+01   4.639077e+01   2.546007e+06  -2.139049e+06   9.881658e+05   5.847006e+11   1.287421e+11  -1.227777e+12   3.469028e+06   9.683544e-18   0.000000e+00   0.000000e+00
     1184000   1.183999e-05   7.883184e+00   1.131879e+01   4.646586e+01   2.592043e+06  -2.127292e+06   8.888753e+05   5.615945e+11   1.602709e+11  -1.254073e+12   3.469028e+06   9.932067e-18   0.000000e+00   0.000000e+00
     1192000   1.191999e-05   8.092313e+00   1.114914e+01   4.653294e+01   2.635771e+06  -2.113436e+06   7.875651e+05   5.319309e+11   1.867386e+11  -1.279092e+12   3.469029e+06   1.014030e-17   0.000000e+00   0.000000e+00
     1200000   1.199999e-05   8.304846e+00   1.098070e+01   4.659182e+01   2.677107e+06  -2.097397e+06   6.842380e+05   4.993165e+11   2.120741e+11  -1.303495e+12   3.469029e+06   1.034526e-17   0.000000e+00   0.000000e+00
     1208000   1.207999e-05   8.520594e+00   1.081364e+01   4.664236e+01   2.716233e+06  -2.078682e+06   5.790685e+05   4.736744e+11   2.495731e+11  -1.325934e+12   3.469029e+06   1.061184e-17   0.000000e+00   0.000000e+00
     1216000   1.215999e-05   8.739374e+00   1.064817e+01   4.668442e+01   2.752798e+06  -2.057517e+06   4.721162e+05   4.407206e+11   2.804226e+11  -1.347591e+12   3.469029e+06   1.084079e-17   0.000000e+00   0.000000e+00
     1224000   1.223999e-05   8.960970e+00   1.048450e+01   4.671786e+01   2.786682e+06  -2.033829e+06   3.634698e+05   4.068647e+11   3.130199e+11  -1.367796e+12   3.469030e+06   1.107700e-17   0.000000e+00   0.000000e+00
     1232000   1.231999e-05   9.185172e+00   1.032283e+01   4.674254e+01   2.817895e+06  -2.007348e+06   2.533574e+05   3.722439e+11   3.478038e+11  -1.384445e+12   3.469030e+06   1.129411e-17   0.000000e+00   0.000000e+00
     1240000   1.239999e-05   9.411755e+00   1.016340e+01   4.675836e+01   2.846201e+06  -1.978173e+06   1.419171e+05   3.352068e+11   3.817250e+11  -1.401702e+12   3.469030e+06   1.153609e-17   0.000000e+00   0.000000e+00
     1248000   1.247999e-05   9.640490e+00   1.000641e+01   4.676521e+01   2.871743e+06  -1.945870e+06   2.918863e+04   3.017702e+11   4.241119e+11  -1.415514e+12   3.469030e+06   1.180477e-17   0.000000e+00   0.000000e+00
     1256000   1.255999e-05   9.871156e+00   9.852139e+00   4.676300e+01   2.894292e+06  -1.910523e+06  -8.456560e+04   2.606074e+11   4.579863e+11  -1.427798e+12   3.469031e+06   1.202098e-17   0.000000e+00   0.000000e+00
     1264000   1.263999e-05   1.010349e+01   9.700804e+00   4.675166e+01   2.913535e+06  -1.872383e+06  -1.991774e+05   2.229723e+11   4.998670e+11  -1.437556e+12   3.469031e+06   1.227981e-17   0.000000e+00   0.000000e+00
     1272000   1.271999e-05   1.033725e+01   9.552659e+00   4.673112e+01   2.929825e+06  -1.830685e+06  -3.144753e+05   1.833349e+11   5.415960e+11  -1.444873e+12   3.469031e+06   1.253123e-17   0.000000e+00   0.000000e+00
     1280000   1.279999e-05   1.057218e+01   9.407987e+00   4.670133e+01   2.942946e+06  -1.785522e+06  -4.303031e+05   1.431907e+11   5.855178e+11  -1.450320e+12   3.469031e+06   1.280199e-17   0.000000e+00   0.000000e+00
     1288000   1.287999e-05   1.080803e+01   9.267071e+00   4.666226e+01   2.952712e+06  -1.736961e+06  -5.464786e+05   9.784361e+10   6.236156e+11  -1.453519e+12   3.469032e+06   1.303253e-17   0.000000e+00   0.000000e+00
     1296000   1.295999e-05   1.104452e+01   9.130159e+00   4.661389e+01   2.958860e+06  -1.685251e+06  -6.627685e+05   5.496078e+10   6.680539e+11  -1.453363e+12   3.469032e+06   1.329406e-17   0.000000e+00   0.000000e+00
     1304000   1.303999e-05   1.128136e+01   8.997531e+00   4.655622e+01   2.961596e+06  -1.629814e+06  -7.789999e+05   1.347456e+10   7.183987e+11  -1.451831e+12   3.469032e+06   1.361848e-17   0.000000e+00   0.000000e+00
     1312000   1.311999e-05   1.151828e+01   8.869483e+00   4.648926e+01   2.960627e+06  -1.570952e+06  -8.949770e+05  -3.725757e+10   7.544746e+11  -1.447608e+12   3.469033e+06   1.383696e-17   0.000000e+00   0.000000e+00
     1320000   1.319999e-05   1.175496e+01   8.746271e+00   4.641303e+01   2.955766e+06  -1.508782e+06  -1.010552e+06  -8.596191e+10   7.966264e+11  -1.440842e+12   3.469033e+06   1.410602e-17   0.000000e+00   0.000000e+00
     1328000   1.327999e-05   1.199109e+01   8.628169e+00   4.632758e+01   2.946973e+06  -1.443198e+06  -1.125489e+06  -1.367185e+11   8.378214e+11  -1.432334e+12   3.469033e+06   1.438723e-17   0.000000e+00   0.000000e+00
     1336000   1.335999e-05   1.222637e+01   8.515454e+00   4.623297e+01   2.934192e+06  -1.374049e+06  -1.239637e+06  -1.846158e+11   8.873744e+11  -1.420595e+12   3.469034e+06   1.473696e-17   0.000000e+00   0.000000e+00
     1344000   1.343999e-05   1.246046e+01   8.408428e+00   4.612927e+01   2.917485e+06  -1.300973e+06  -1.352755e+06  -2.359332e+11   9.344374e+11  -1.407527e+12   3.469034e+06   1.510215e-17   0.000000e+00   0.000000e+00
     1352000   1.351999e-05   1.269304e+01   8.307380e+00   4.601656e+01   2.896413e+06  -1.224622e+06  -1.464682e+06  -2.899415e+11   9.774075e+11  -1.390592e+12   3.469034e+06   1.542998e-17   0.000000e+00   0.000000e+00
     1360000   1.359999e-05   1.292378e+01   8.212596e+00   4.589496e+01   2.871144e+06  -1.144372e+06  -1.575166e+06  -3.444828e+11   1.023443e+12  -1.371468e+12   3.469035e+06   1.581348e-17   0.000000e+00   0.000000e+00
     1368000   1.367999e-05   1.315230e+01   8.124365e+00   4.576458e+01   2.841275e+06  -1.060883e+06  -1.684009e+06  -4.019105e+11   1.065787e+12  -1.349544e+12   3.469035e+06   1.618543e-17   0.000000e+00   0.000000e+00
     1376000   1.375999e-05   1.337826e+01   8.042953e+00   4.562557e+01   2.806802e+06  -9.738184e+05  -1.791018e+06  -4.609431e+11   1.109385e+12  -1.325586e+12   3.469035e+06   1.660934e-17   0.000000e+00   0.000000e+00
     1384000   1.383999e-05   1.360126e+01   7.968645e+00   4.547807e+01   2.767468e+06  -8.833351e+05  -1.896061e+06  -5.236849e+11   1.149516e+12  -1.299917e+12   3.469036e+06   1.705065e-17   0.000000e+00   0.000000e+00
     1392000   1.391999e-05   1.382092e+01   7.901700e+00   4.532226e+01   2.723074e+06  -7.897371e+05  -1.998849e+06  -5.860667e+11   1.192470e+12  -1.269568e+12   3.469036e+06   1.752732e-17   0.000000e+00   0.000000e+00
     1400000   1.399999e-05   1.403682e+01   7.842384e+00   4.515832e+01   2.673544e+06  -6.927434e+05  -2.099162e+06  -6.537044e+11   1.229039e+12  -1.238185e+12   3.469036e+06   1.801363e-17   0.000000e+00   0.000000e+00
     1408000   1.407999e-05   1.424854e+01   7.790940e+00   4.498646e+01   2.618592e+06  -5.927102e+05  -2.196790e+06  -7.179516e+11   1.285113e+12  -1.202554e+12   3.469037e+06   1.875130e-17   0.000000e+00   0.000000e+00
     1416000   1.415999e-05   1.445565e+01   7.747646e+00   4.480691e+01   2.558070e+06  -4.893899e+05  -2.291505e+06  -7.935733e+11   1.306559e+12  -1.164942e+12   3.469037e+06   1.917083e-17   0.000000e+00   0.000000e+00
     1424000   1.423999e-05   1.465767e+01   7.712711e+00   4.461991e+01   2.491564e+06  -3.836631e+05  -2.383094e+06  -8.700184e+11   1.333014e+12  -1.124242e+12   3.469038e+06   1.970974e-17   0.000000e+00   0.000000e+00
     1432000   1.431999e-05   1.485413e+01   7.686309e+00   4.442571e+01   2.418848e+06  -2.759114e+05  -2.471289e+06  -9.476098e+11   1.365541e+12  -1.079976e+12   3.469038e+06   2.039079e-17   0.000000e+00   0.000000e+00
     1440000   1.439999e-05   1.504452e+01   7.668650e+00   4.422460e+01   2.339785e+06  -1.652119e+05  -2.555845e+06  -1.030006e+12   1.395576e+12  -1.033161e+12   3.469039e+06   2.115345e-17   0.000000e+00   0.000000e+00
     1448000   1.447999e-05   1.522832e+01   7.659927e+00   4.401688e+01   2.254006e+06  -5.252203e+04  -2.636462e+06  -1.115025e+12   1.417527e+12  -9.815304e+11   3.469039e+06   2.188054e-17   0.000000e+00   0.000000e+00
     1456000   1.455999e-05   1.540497e+01   7.660296e+00   4.380288e+01   2.161241e+06   6.194344e+04  -2.712828e+06  -1.203837e+12   1.438469e+12  -9.262373e+11   3.469040e+06   2.271230e-17   0.000000e+00   0.000000e+00
     1464000   1.463999e-05   1.557393e+01   7.669865e+00   4.358295e+01   2.061337e+06   1.774525e+05  -2.784536e+06  -1.294759e+12   1.450092e+12  -8.660896e+11   3.469040e+06   2.350605e-17   0.000000e+00   0.000000e+00
     1472000   1.471999e-05   1.573459e+01   7.688723e+00   4.335748e+01   1.953991e+06   2.941966e+05  -2.851247e+06  -1.388636e+12   1.462307e+12  -8.007808e+11   3.469041e+06   2.443310e-17   0.000000e+00   0.000000e+00
     1480000   1.479999e-05   1.588636e+01   7.716935e+00   4.312689e+01   1.838985e+06   4.110574e+05  -2.912630e+06  -1.486593e+12   1.458418e+12  -7.328007e+11   3.469041e+06   2.529479e-17   0.000000e+00   0.000000e+00
     1488000   1.487999e-05   1.602861e+01   7.754492e+00   4.289161e+01   1.715981e+06   5.278999e+05  -2.968330e+06  -1.588209e+12   1.460377e+12  -6.584355e+11   3.469042e+06   2.640910e-17   0.000000e+00   0.000000e+00
     1496000   1.495999e-05   1.616070e+01   7.801378e+00   4.265212e+01   1.584779e+06   6.441298e+05  -3.017918e+06  -1.692748e+12   1.445678e+12  -5.803604e+11   3.469042e+06   2.746550e-17   0.000000e+00   0.000000e+00
     1504000   1.503999e-05   1.628195e+01   7.857519e+00   4.240892e+01   1.445035e+06   7.591119e+05  -3.061026e+06  -1.800210e+12   1.425867e+12  -4.962486e+11   3.469043e+06   2.864836e-17   0.000000e+00   0.000000e+00
     1512000   1.511999e-05   1.639168e+01   7.922781e+00   4.216255e+01   1.296798e+06   8.720521e+05  -3.097112e+06  -1.906579e+12   1.396705e+12  -4.050565e+11   3.469044e+06   2.984090e-17   0.000000e+00   0.000000e+00
     1520000   1.519999e-05   1.648922e+01   7.996971e+00   4.191358e+01   1.140198e+06   9.821570e+05  -3.125633e+06  -2.008531e+12   1.354620e+12  -3.070526e+11   3.469044e+06   3.094934e-17   0.000000e+00   0.000000e+00
     1528000   1.527999e-05   1.657390e+01   8.079818e+00   4.166266e+01   9.754710e+05   1.088254e+06  -3.146177e+06  -2.109532e+12   1.297852e+12  -2.051559e+11   3.469045e+06   3.205563e-17   0.000000e+00   0.000000e+00
     1536000   1.535999e-05   1.664508e+01   8.170963e+00   4.141042e+01   8.026994e+05   1.189496e+06  -3.158331e+06  -2.209773e+12   1.231428e+12  -9.785853e+10   3.469046e+06   3.326200e-17   0.000000e+00   0.000000e+00
     1544000   1.543999e-05   1.670211e+01   8.269984e+00   4.115756e+01   6.219148e+05   1.284966e+06  -3.161703e+06  -2.307764e+12   1.152158e+12   1.429145e+10   3.469046e+06   3.453024e-17   0.000000e+00   0.000000e+00
     1552000   1.551999e-05   1.674438e+01   8.376371e+00   4.090479e+01   4.336820e+05   1.373465e+06  -3.155916e+06  -2.396632e+12   1.057803e+12   1.309955e+11   3.469047e+06   3.570579e-17   0.000000e+00   0.000000e+00
     1560000   1.559999e-05   1.677132e+01   8.489519e+00   4.065286e+01   2.385778e+05   1.453750e+06  -3.140698e+06  -2.477310e+12   9.465382e+11   2.499216e+11   3.469048e+06   3.682425e-17   0.000000e+00   0.000000e+00
     1568000   1.567999e-05   1.678240e+01   8.608719e+00   4.040254e+01   3.750738e+04   1.524585e+06  -3.115852e+06  -2.550357e+12   8.211218e+11   3.710509e+11   3.469049e+06   3.797010e-17   0.000000e+00   0.000000e+00
     1576000   1.575999e-05   1.677717e+01   8.733167e+00   4.015459e+01  -1.690189e+05   1.584686e+06  -3.081316e+06  -2.610083e+12   6.785531e+11   4.921183e+11   3.469050e+06   3.900241e-17   0.000000e+00   0.000000e+00
     1584000   1.583999e-05   1.675523e+01   8.861944e+00   3.990978e+01  -3.800746e+05   1.632610e+06  -3.037176e+06  -2.658519e+12   5.183583e+11   6.113033e+11   3.469051e+06   4.001429e-17   0.000000e+00   0.000000e+00
     1592000   1.591999e-05   1.671629e+01   8.994027e+00   3.966889e+01  -5.938478e+05   1.667101e+06  -2.983695e+06  -2.684189e+12   3.410252e+11   7.247539e+11   3.469052e+06   4.072184e-17   0.000000e+00   0.000000e+00
     1600000   1.599999e-05   1.666017e+01   9.128288e+00   3.943263e+01  -8.091333e+05   1.686870e+06  -2.921318e+06  -2.692970e+12   1.503732e+11   8.326900e+11   3.469052e+06   4.135315e-17   0.000000e+00   0.000000e+00
     1608000   1.607999e-05   1.658683e+01   9.263499e+00   3.920169e+01  -1.024177e+06   1.690661e+06  -2.850800e+06  -2.676873e+12  -5.596096e+10   9.284765e+11   3.469053e+06   4.167903e-17   0.000000e+00   0.000000e+00
     1616000   1.615999e-05   1.649637e+01   9.398345e+00   3.897669e+01  -1.236926e+06   1.677572e+06  -2.773104e+06  -2.639419e+12  -2.737683e+11   1.011653e+12   3.469054e+06   4.185586e-17   0.000000e+00   0.000000e+00
     1624000   1.623999e-05   1.638903e+01   9.531433e+00   3.875816e+01  -1.445862e+06   1.646618e+06  -2.689326e+06  -2.578564e+12  -5.001988e+11   1.080022e+12   3.469055e+06   4.185967e-17   0.000000e+00   0.000000e+00
     1632000   1.631999e-05   1.626519e+01   9.661318e+00   3.854653e+01  -1.648739e+06   1.597442e+06  -2.600805e+06  -2.488852e+12  -7.293903e+11   1.129739e+12   3.469056e+06   4.153310e-17   0.000000e+00   0.000000e+00
     1640000   1.639999e-05   1.612544e+01   9.786527e+00   3.834211e+01  -1.843647e+06   1.529584e+06  -2.509122e+06  -2.379898e+12  -9.671698e+11   1.159069e+12   3.469057e+06   4.122209e-17   0.000000e+00   0.000000e+00
     1648000   1.647999e-05   1.597047e+01   9.905554e+00   3.814511e+01  -2.028699e+06   1.443030e+06  -2.415866e+06  -2.242149e+12  -1.195244e+12   1.168853e+12   3.469058e+06   4.059563e-17   0.000000e+00   0.000000e+00
     1656000   1.655999e-05   1.580117e+01   1.001693e+01   3.795557e+01  -2.201833e+06   1.338422e+06  -2.322699e+06  -2.083637e+12  -1.419422e+12   1.157256e+12   3.469059e+06   3.993905e-17   0.000000e+00   0.000000e+00
     1664000   1.663999e-05   1.561854e+01   1.011924e+01   3.777343e+01  -2.361311e+06   1.216587e+06  -2.231256e+06  -1.899721e+12  -1.621807e+12   1.126132e+12   3.469060e+06   3.896258e-17   0.000000e+00   0.000000e+00
     1672000   1.671999e-05   1.542377e+01   1.021118e+01   3.759849e+01  -2.505272e+06   1.079539e+06  -2.143032e+06  -1.697541e+12  -1.802782e+12   1.076305e+12   3.469061e+06   3.783498e-17   0.000000e+00   0.000000e+00
     1680000   1.679999e-05   1.521814e+01   1.029160e+01   3.743042e+01  -2.632653e+06   9.286162e+05  -2.059416e+06  -1.485295e+12  -1.965606e+12   1.012376e+12   3.469061e+06   3.682044e-17   0.000000e+00   0.000000e+00
     1688000   1.687999e-05   1.500302e+01   1.035947e+01   3.726883e+01  -2.742451e+06   7.665054e+05  -1.981369e+06  -1.260586e+12  -2.087521e+12   9.371966e+11   3.469062e+06   3.542203e-17   0.000000e+00   0.000000e+00
     1696000   1.695999e-05   1.477983e+01   1.041400e+01   3.711324e+01  -2.834340e+06   5.951483e+05  -1.909637e+06  -1.035685e+12  -2.190909e+12   8.543521e+11   3.469063e+06   3.426724e-17   0.000000e+00   0.000000e+00
     1704000   1.703999e-05   1.455001e+01   1.045453e+01   3.696311e+01  -2.908093e+06   4.172274e+05  -1.844809e+06  -8.102155e+11  -2.260584e+12   7.659008e+11   3.469064e+06   3.297306e-17   0.000000e+00   0.000000e+00
     1712000   1.711999e-05   1.431501e+01   1.048061e+01   3.681788e+01  -2.964119e+06   2.342394e+05  -1.787047e+06  -5.903481e+11  -2.299984e+12   6.776847e+11   3.469064e+06   3.164667e-17   0.000000e+00   0.000000e+00
     1720000   1.719999e-05   1.407622e+01   1.049197e+01   3.667699e+01  -3.002840e+06   4.946441e+04  -1.736352e+06  -3.792957e+11  -2.313032e+12   5.900261e+11   3.469065e+06   3.032020e-17   0.000000e+00   0.000000e+00
     1728000   1.727999e-05   1.383499e+01   1.048856e+01   3.653989e+01  -3.025323e+06  -1.343771e+05  -1.692271e+06  -1.847162e+11  -2.287315e+12   5.118176e+11   3.469066e+06   2.868937e-17   0.000000e+00   0.000000e+00
     1736000   1.735999e-05   1.359256e+01   1.047052e+01   3.640606e+01  -3.032814e+06  -3.159839e+05  -1.654272e+06  -3.256062e+09  -2.264486e+12   4.384787e+11   3.469066e+06   2.761139e-17   0.000000e+00   0.000000e+00
     1744000   1.743999e-05   1.335010e+01   1.043809e+01   3.627506e+01  -3.026601e+06  -4.939610e+05  -1.621763e+06   1.570074e+11  -2.193570e+12   3.750793e+11   3.469067e+06   2.583082e-17   0.000000e+00   0.000000e+00
     1752000   1.751999e-05   1.310863e+01   1.039163e+01   3.614645e+01  -3.008143e+06  -6.666163e+05  -1.594091e+06   3.008913e+11  -2.118918e+12   3.182591e+11   3.469068e+06   2.429752e-17   0.000000e+00   0.000000e+00
     1760000   1.759999e-05   1.286907e+01   1.033165e+01   3.601989e+01  -2.979175e+06  -8.319120e+05  -1.570628e+06   4.236648e+11  -2.025277e+12   2.690880e+11   3.469068e+06   2.259521e-17   0.000000e+00   0.000000e+00
     1768000   1.767999e-05   1.263222e+01   1.025872e+01   3.589505e+01  -2.940858e+06  -9.902907e+05  -1.550843e+06   5.349782e+11  -1.943250e+12   2.263586e+11   3.469069e+06   2.134988e-17   0.000000e+00   0.000000e+00
     1776000   1.775999e-05   1.239874e+01   1.017343e+01   3.577168e+01  -2.894890e+06  -1.140483e+06  -1.534063e+06   6.148538e+11  -1.820643e+12   1.932395e+11   3.469069e+06   1.935921e-17   0.000000e+00   0.000000e+00
     1784000   1.783999e-05   1.216920e+01   1.007647e+01   3.564954e+01  -2.842739e+06  -1.282006e+06  -1.519782e+06   6.855453e+11  -1.714911e+12   1.642778e+11   3.469069e+06   1.784243e-17   0.000000e+00   0.000000e+00
     1792000   1.791999e-05   1.194404e+01   9.968525e+00   3.552845e+01  -2.785501e+06  -1.415124e+06  -1.507599e+06   7.443667e+11  -1.615761e+12   1.413076e+11   3.469070e+06   1.652867e-17   0.000000e+00   0.000000e+00
     1800000   1.799999e-05   1.172362e+01   9.850269e+00   3.540828e+01  -2.724492e+06  -1.539601e+06  -1.497071e+06   7.770413e+11  -1.493548e+12   1.218353e+11   3.469070e+06   1.478797e-17   0.000000e+00   0.000000e+00
     1808000   1.807999e-05   1.150819e+01   9.722421e+00   3.528888e+01  -2.660943e+06  -1.655217e+06  -1.487981e+06   8.054256e+11  -1.390055e+12   1.059330e+11   3.469070e+06   1.345344e-17   0.000000e+00   0.000000e+00
     1816000   1.815999e-05   1.129792e+01   9.585654e+00   3.517017e+01  -2.595536e+06  -1.762659e+06  -1.480095e+06   8.307033e+11  -1.300521e+12   9.204158e+10   3.469071e+06   1.240353e-17   0.000000e+00   0.000000e+00
     1824000   1.823999e-05   1.109294e+01   9.440593e+00   3.505204e+01  -2.528887e+06  -1.862467e+06  -1.473227e+06   8.337889e+11  -1.195330e+12   7.988157e+10   3.469071e+06   1.105672e-17   0.000000e+00   0.000000e+00
     1832000   1.831999e-05   1.089331e+01   9.287863e+00   3.493443e+01  -2.461947e+06  -1.954551e+06  -1.467313e+06   8.327104e+11  -1.099981e+12   6.805733e+10   3.469071e+06   9.902456e-18   0.000000e+00   0.000000e+00
     1840000   1.839999e-05   1.069902e+01   9.128060e+00   3.481725e+01  -2.395132e+06  -2.039473e+06  -1.462311e+06   8.295822e+11  -1.015236e+12   5.714913e+10   3.469071e+06   8.938084e-18   0.000000e+00   0.000000e+00
     1848000   1.847999e-05   1.051006e+01   8.961734e+00   3.470044e+01  -2.328995e+06  -2.117561e+06  -1.458140e+06   8.179598e+11  -9.319016e+11   4.685333e+10   3.469072e+06   7.991011e-18   0.000000e+00   0.000000e+00
     1856000   1.855999e-05   1.032634e+01   8.789437e+00   3.458392e+01  -2.264257e+06  -2.188860e+06  -1.454817e+06   7.986326e+11  -8.503893e+11   3.647205e+10   3.469072e+06   7.070386e-18   0.000000e+00   0.000000e+00
     1864000   1.863999e-05   1.014773e+01   8.611692e+00   3.446764e+01  -2.201207e+06  -2.253823e+06  -1.452387e+06   7.807277e+11  -7.783910e+11   2.464893e+10   3.469072e+06   6.311211e-18   0.000000e+00   0.000000e+00
     1872000   1.871999e-05   9.974114e+00   8.428967e+00   3.435152e+01  -2.139593e+06  -2.313351e+06  -1.450866e+06   7.578960e+11  -7.090517e+11   1.287874e+10   3.469072e+06   5.591308e-18   0.000000e+00   0.000000e+00
     1880000   1.879999e-05   9.805346e+00   8.241699e+00   3.423548e+01  -2.080056e+06  -2.367399e+06  -1.450259e+06   7.301429e+11  -6.423852e+11   1.402816e+09   3.469072e+06   4.908524e-18   0.000000e+00   0.000000e+00
     1888000   1.887999e-05   9.641248e+00   8.050318e+00   3.411945e+01  -2.022847e+06  -2.416242e+06  -1.450630e+06   7.009909e+11  -5.802587e+11  -1.100242e+10   3.469072e+06   4.298381e-18   0.000000e+00   0.000000e+00
     1896000   1.895999e-05   9.481648e+00   7.855211e+00   3.400335e+01  -1.967564e+06  -2.460650e+06  -1.452018e+06   6.735505e+11  -5.244587e+11  -2.393360e+10   3.469072e+06   3.785052e-18   0.000000e+00   0.000000e+00
     1904000   1.903999e-05   9.326372e+00   7.656734e+00   3.388710e+01  -1.914759e+06  -2.500537e+06  -1.454467e+06   6.441315e+11  -4.713178e+11  -3.768779e+10   3.469072e+06   3.313660e-18   0.000000e+00   0.000000e+00
     1912000   1.911999e-05   9.175215e+00   7.455241e+00   3.377061e+01  -1.864497e+06  -2.536198e+06  -1.458017e+06   6.170641e+11  -4.240904e+11  -5.140006e+10   3.469073e+06   2.923349e-18   0.000000e+00   0.000000e+00
     1920000   1.919999e-05   9.027992e+00   7.251042e+00   3.365378e+01  -1.816526e+06  -2.568114e+06  -1.462699e+06   5.826760e+11  -3.746316e+11  -6.587450e+10   3.469073e+06   2.512985e-18   0.000000e+00   0.000000e+00
     1928000   1.927999e-05   8.884501e+00   7.044441e+00   3.353654e+01  -1.771228e+06  -2.596266e+06  -1.468543e+06   5.474596e+11  -3.278723e+11  -8.064898e+10   3.469073e+06   2.147197e-18   0.000000e+00   0.000000e+00
     1936000   1.935999e-05   8.744524e+00   6.835734e+00   3.341879e+01  -1.728585e+06  -2.620891e+06  -1.475598e+06   5.173458e+11  -2.874060e+11  -9.556802e+10   3.469073e+06   1.865197e-18   0.000000e+00   0.000000e+00
     1944000   1.943999e-05   8.607856e+00   6.625187e+00   3.330042e+01  -1.688611e+06  -2.642213e+06  -1.483837e+06   4.831596e+11  -2.467856e+11  -1.103972e+11   3.469073e+06   1.590917e-18   0.000000e+00   0.000000e+00
     1952000   1.951999e-05   8.474272e+00   6.413065e+00   3.318134e+01  -1.651262e+06  -2.660437e+06  -1.493276e+06   4.540984e+11  -2.115717e+11  -1.252047e+11   3.469073e+06   1.383902e-18   0.000000e+00   0.000000e+00
     1960000   1.959999e-05   8.343573e+00   6.199602e+00   3.306146e+01  -1.616618e+06  -2.675670e+06  -1.503930e+06   4.179104e+11  -1.732547e+11  -1.409847e+11   3.469073e+06   1.165387e-18   0.000000e+00   0.000000e+00
     1968000   1.967999e-05   8.215543e+00   5.985033e+00   3.294068e+01  -1.584569e+06  -2.688105e+06  -1.515815e+06   3.850838e+11  -1.386554e+11  -1.566639e+11   3.469073e+06   9.967862e-19   0.000000e+00   0.000000e+00
     1976000   1.975999e-05   8.089970e+00   5.769579e+00   3.281889e+01  -1.555318e+06  -2.697727e+06  -1.528962e+06   3.453465e+11  -1.018337e+11  -1.716237e+11   3.469073e+06   8.256734e-19   0.000000e+00   0.000000e+00
     1984000   1.983999e-05   7.966615e+00   5.553470e+00   3.269601e+01  -1.529065e+06  -2.704542e+06  -1.543333e+06   3.005154e+11  -6.313715e+10  -1.870962e+11   3.469073e+06   6.710570e-19   0.000000e+00   0.000000e+00
     1992000   1.991999e-05   7.845248e+00   5.336920e+00   3.257193e+01  -1.505481e+06  -2.708837e+06  -1.558908e+06   2.739997e+11  -3.599181e+10  -2.020688e+11   3.469073e+06   6.082948e-19   0.000000e+00   0.000000e+00
     2000000   1.999999e-05   7.725640e+00   5.120136e+00   3.244655e+01  -1.485097e+06  -2.710384e+06  -1.575681e+06   2.372743e+11  -3.685785e+09  -2.172944e+11   3.469073e+06   5.373237e-19   0.000000e+00   0.000000e+00
     2008000   2.007999e-05   7.607536e+00   4.903336e+00   3.231979e+01  -1.468083e+06  -2.709163e+06  -1.593624e+06   1.924315e+11   3.156727e+10  -2.309372e+11   3.469073e+06   4.741473e-19   0.000000e+00   0.000000e+00
     2016000   2.015999e-05   7.490659e+00   4.686741e+00   3.219154e+01  -1.454358e+06  -2.705297e+06  -1.612663e+06   1.543945e+11   6.265214e+10  -2.443402e+11   3.469073e+06   4.539403e-19   0.000000e+00   0.000000e+00
     2024000   2.023999e-05   7.374750e+00   4.470558e+00   3.206173e+01  -1.443998e+06  -2.698792e+06  -1.632746e+06   1.071470e+11   9.837896e+10  -2.573733e+11   3.469073e+06   4.535967e-19   0.000000e+00   0.000000e+00
     2032000   2.031999e-05   7.259527e+00   4.255005e+00   3.193028e+01  -1.437230e+06  -2.689561e+06  -1.653813e+06   5.911014e+10   1.338288e+11  -2.690126e+11   3.469073e+06   4.866626e-19   0.000000e+00   0.000000e+00
     2040000   2.039999e-05   7.144684e+00   4.040308e+00   3.179710e+01  -1.434502e+06  -2.677385e+06  -1.675792e+06   1.054509e+10   1.699338e+11  -2.805278e+11   3.469073e+06   5.588625e-19   0.000000e+00   0.000000e+00
     2048000   2.047999e-05   7.029888e+00   3.826708e+00   3.166213e+01  -1.436174e+06  -2.662088e+06  -1.698575e+06  -4.834973e+10   2.105605e+11  -2.891208e+11   3.469073e+06   6.760454e-19   0.000000e+00   0.000000e+00
     2056000   2.055999e-05   6.914777e+00   3.614458e+00   3.152531e+01  -1.442468e+06  -2.643585e+06  -1.721980e+06  -1.090210e+11   2.520330e+11  -2.955974e+11   3.469073e+06   8.448160e-19   0.000000e+00   0.000000e+00
     2064000   2.063999e-05   6.798959e+00   3.403825e+00   3.138660e+01  -1.453944e+06  -2.621580e+06  -1.745804e+06  -1.803863e+11   2.991978e+11  -2.990607e+11   3.469073e+06   1.097607e-18   0.000000e+00   0.000000e+00
     2072000   2.071999e-05   6.681985e+00   3.195110e+00   3.124598e+01  -1.471482e+06  -2.595611e+06  -1.769750e+06  -2.595865e+11   3.505875e+11  -2.983557e+11   3.469073e+06   1.449558e-18   0.000000e+00   0.000000e+00
     2080000   2.079999e-05   6.563340e+00   2.988645e+00   3.110345e+01  -1.495898e+06  -2.565209e+06  -1.793450e+06  -3.538947e+11   4.108784e+11  -2.925102e+11   3.469073e+06   1.970148e-18   0.000000e+00   0.000000e+00
     2088000   2.087999e-05   6.442429e+00   2.784811e+00   3.095905e+01  -1.528302e+06  -2.529735e+06  -1.816370e+06  -4.602234e+11   4.785141e+11  -2.792155e+11   3.469073e+06   2.692121e-18   0.000000e+00   0.000000e+00
     2096000   2.095999e-05   6.318559e+00   2.584045e+00   3.081287e+01  -1.570147e+06  -2.488335e+06  -1.837742e+06  -5.886183e+11   5.587536e+11  -2.536570e+11   3.469073e+06   3.752245e-18   0.000000e+00   0.000000e+00
     2104000   2.103999e-05   6.190909e+00   2.386863e+00   3.066508e+01  -1.623189e+06  -2.439933e+06  -1.856463e+06  -7.429129e+11   6.547712e+11  -2.110031e+11   3.469073e+06   5.320290e-18   0.000000e+00   0.000000e+00
     2112000   2.111999e-05   6.058488e+00   2.193883e+00   3.051595e+01  -1.689801e+06  -2.383009e+06  -1.870912e+06  -9.297247e+11   7.731925e+11  -1.451112e+11   3.469073e+06   7.697685e-18   0.000000e+00   0.000000e+00
     2120000   2.119999e-05   5.920103e+00   2.005863e+00   3.036591e+01  -1.772854e+06  -2.315506e+06  -1.878802e+06  -1.156692e+12   9.223181e+11  -4.524645e+10   3.469074e+06   1.136874e-17   0.000000e+00   0.000000e+00
     2128000   2.127999e-05   5.774300e+00   1.823758e+00   3.021561e+01  -1.875838e+06  -2.234607e+06  -1.876762e+06  -1.430798e+12   1.112037e+12   1.060053e+11   3.469074e+06   1.710013e-17   0.000000e+00   0.000000e+00
     2136000   2.135999e-05   5.619338e+00   1.648780e+00   3.006602e+01  -2.002471e+06  -2.136651e+06  -1.859923e+06  -1.746016e+12   1.350219e+12   3.286955e+11   3.469074e+06   2.584283e-17   0.000000e+00   0.000000e+00
     2144000   2.143999e-05   5.453682e+00   1.482085e+00   2.991845e+01  -2.120309e+06  -2.045043e+06  -1.832095e+06  -4.115990e+11   3.233570e+11   1.154062e+11   3.469075e+06   1.493740e-18   0.000000e+00   0.000000e+00
     2152000   2.151999e-05   5.286213e+00   1.316742e+00   2.977139e+01  -2.021347e+06  -2.125050e+06  -1.852782e+06   2.581109e+12  -2.093874e+12  -4.144265e+11   3.469075e+06   5.821829e-17   0.000000e+00   0.000000e+00
     2160000   2.159999e-05   5.133484e+00   1.139474e+00   2.962232e+01  -1.787151e+06  -2.313807e+06  -1.867320e+06   3.311755e+12  -2.628618e+12   8.746750e+10   3.469077e+06   9.281653e-17   0.000000e+00   0.000000e+00
     2168000   2.167999e-05   5.002052e+00   9.454357e-01   2.947393e+01  -1.485999e+06  -2.543217e+06  -1.832584e+06   4.256211e+12  -3.076373e+12   8.179031e+11   3.469080e+06   1.466004e-16   0.000000e+00   0.000000e+00
     2176000   2.175999e-05   4.897948e+00   7.319097e-01   2.933085e+01  -1.101256e+06  -2.796371e+06  -1.732653e+06   5.375544e+12  -3.157062e+12   1.678380e+12   3.469084e+06   2.163120e-16   0.000000e+00   0.000000e+00
     2184000   2.183999e-05   4.828329e+00   4.985182e-01   2.919842e+01  -6.246533e+05  -3.029841e+06  -1.569858e+06   6.596404e+12  -2.555586e+12   2.307214e+12   3.469089e+06   2.873530e-16   0.000000e+00   0.000000e+00
     2192000   2.191999e-05   4.799974e+00   2.494416e-01   2.908015e+01  -7.796923e+04  -3.176680e+06  -1.391851e+06   7.002904e+12  -1.025533e+12   1.947938e+12   3.469096e+06   2.796788e-16   0.000000e+00   0.000000e+00
