     timestep     time              x             y              z              vx             vy             vz             ax             ay             az         v_magnitude      ELoss        Electronic      Nuclear
           0   0.000000e+00   1.000000e-01   8.018755e+00   1.618609e+01   3.055082e+06  -1.136571e+06   1.977145e+06   0.000000e+00   0.000000e+00   0.000000e+00   3.812404e+06   0.000000e+00   0.000000e+00   0.000000e+00
        8000   7.999000e-08   3.463114e-01   7.934010e+00   1.634469e+01   3.100891e+06  -9.799937e+05   1.989601e+06   5.026449e+11   2.033670e+12   2.183254e+11   3.812404e+06   2.780701e-17   0.000000e+00   0.000000e+00
       16000   1.599900e-07   5.958253e-01   7.862277e+00   1.650469e+01   3.134793e+06  -8.113789e+05   2.012254e+06   3.400793e+11   2.179595e+12   3.490858e+11   3.812405e+06   3.126724e-17   0.000000e+00   0.000000e+00
       24000   2.399900e-07   8.475047e-01   7.804485e+00   1.666693e+01   3.154707e+06  -6.317161e+05   2.045285e+06   1.541409e+11   2.308849e+12   4.753975e+11   3.812405e+06   3.498061e-17   0.000000e+00   0.000000e+00
       32000   3.199900e-07   1.100159e+00   7.761456e+00   1.683220e+01   3.158895e+06  -4.425933e+05   2.088045e+06  -5.246108e+10   2.414040e+12   5.910883e+11   3.812406e+06   3.873656e-17   0.000000e+00   0.000000e+00
       40000   3.999900e-07   1.352474e+00   7.733863e+00   1.700124e+01   3.146088e+06  -2.462527e+05   2.139143e+06  -2.692227e+11   2.487417e+12   6.823287e+11   3.812407e+06   4.215644e-17   0.000000e+00   0.000000e+00
       48000   4.799900e-07   1.603066e+00   7.722177e+00   1.717463e+01   3.115802e+06  -4.538157e+04   2.196400e+06  -4.869571e+11   2.525803e+12   7.430152e+11   3.812407e+06   4.493715e-17   0.000000e+00   0.000000e+00
       56000   5.599900e-07   1.850548e+00   7.726640e+00   1.735275e+01   3.068498e+06   1.569760e+05   2.257019e+06  -6.928649e+11   2.526415e+12   7.662949e+11   3.812408e+06   4.669972e-17   0.000000e+00   0.000000e+00
       64000   6.399900e-07   2.093608e+00   7.747254e+00   1.753576e+01   3.005570e+06   3.578533e+05   2.317963e+06  -8.757985e+11   2.490313e+12   7.511692e+11   3.812409e+06   4.721948e-17   0.000000e+00   0.000000e+00
       72000   7.199900e-07   2.331082e+00   7.783784e+00   1.772355e+01   2.929257e+06   5.544881e+05   2.376229e+06  -1.025808e+12   2.419705e+12   6.999460e+11   3.812410e+06   4.636872e-17   0.000000e+00   0.000000e+00
       80000   7.999900e-07   2.562008e+00   7.835793e+00   1.791581e+01   2.842395e+06   7.444575e+05   2.429207e+06  -1.138674e+12   2.324298e+12   6.200749e+11   3.812410e+06   4.440217e-17   0.000000e+00   0.000000e+00
       88000   8.799900e-07   2.785666e+00   7.902668e+00   1.811203e+01   2.748088e+06   9.258704e+05   2.474925e+06  -1.211925e+12   2.207726e+12   5.198032e+11   3.812411e+06   4.145352e-17   0.000000e+00   0.000000e+00
       96000   9.599900e-07   3.001588e+00   7.983668e+00   1.831157e+01   2.649475e+06   1.097398e+06   2.512068e+06  -1.246577e+12   2.077681e+12   4.071516e+11   3.812412e+06   3.783970e-17   0.000000e+00   0.000000e+00
      104000   1.039990e-06   3.209546e+00   8.077965e+00   1.851372e+01   2.549470e+06   1.258201e+06   2.540005e+06  -1.247031e+12   1.939728e+12   2.908472e+11   3.812412e+06   3.386391e-17   0.000000e+00   0.000000e+00
      112000   1.119990e-06   3.409536e+00   8.184679e+00   1.871773e+01   2.450657e+06   1.407784e+06   2.558694e+06  -1.218218e+12   1.798714e+12   1.771535e+11   3.812413e+06   2.978060e-17   0.000000e+00   0.000000e+00
      120000   1.199990e-06   3.601740e+00   8.302908e+00   1.892287e+01   2.355169e+06   1.546052e+06   2.568540e+06  -1.165101e+12   1.657553e+12   7.061862e+10   3.812413e+06   2.576327e-17   0.000000e+00   0.000000e+00
      128000   1.279990e-06   3.786497e+00   8.431748e+00   1.912848e+01   2.264708e+06   1.673114e+06   2.570270e+06  -1.093643e+12   1.519435e+12  -2.543389e+10   3.812414e+06   2.197371e-17   0.000000e+00   0.000000e+00
      136000   1.359990e-06   3.964261e+00   8.570316e+00   1.933392e+01   2.180528e+06   1.789291e+06   2.564807e+06  -1.008530e+12   1.385435e+12  -1.090872e+11   3.812414e+06   1.848265e-17   0.000000e+00   0.000000e+00
      144000   1.439990e-06   4.135575e+00   8.717754e+00   1.953868e+01   2.103578e+06   1.894952e+06   2.553159e+06  -9.140957e+11   1.257354e+12  -1.800625e+11   3.812414e+06   1.535133e-17   0.000000e+00   0.000000e+00
      152000   1.519990e-06   4.301043e+00   8.873240e+00   1.974229e+01   2.034472e+06   1.990570e+06   2.536347e+06  -8.131607e+11   1.134183e+12  -2.378607e+11   3.812415e+06   1.256337e-17   0.000000e+00   0.000000e+00
      160000   1.599990e-06   4.461811e+00   9.035259e+00   1.994458e+01   1.999315e+06   2.038970e+06   2.525836e+06   1.514912e+11  -2.552429e+11   8.613189e+10   3.812415e+06   5.976803e-19   0.000000e+00   0.000000e+00
      168000   1.679990e-06   4.622948e+00   9.196491e+00   2.014721e+01   2.030589e+06   1.989180e+06   2.540547e+06   3.837733e+11  -6.282480e+11   1.851642e+11   3.812415e+06   3.612445e-18   0.000000e+00   0.000000e+00
      176000   1.759990e-06   4.786517e+00   9.353741e+00   2.035102e+01   2.057365e+06   1.943644e+06   2.554213e+06   2.873137e+11  -5.108185e+11   1.572867e+11   3.812415e+06   2.308328e-18   0.000000e+00   0.000000e+00
      184000   1.839990e-06   4.951925e+00   9.507724e+00   2.055583e+01   2.076682e+06   1.907404e+06   2.565874e+06   1.977795e+11  -3.969269e+11   1.349937e+11   3.812415e+06   1.347132e-18   0.000000e+00   0.000000e+00
      192000   1.919990e-06   5.118594e+00   9.659172e+00   2.076151e+01   2.088844e+06   1.880335e+06   2.575962e+06   1.079061e+11  -2.811324e+11   1.177133e+11   3.812415e+06   6.553448e-19   0.000000e+00   0.000000e+00
      200000   1.999990e-06   5.285954e+00   9.808819e+00   2.096795e+01   2.094062e+06   1.862255e+06   2.584844e+06   2.328951e+10  -1.715744e+11   1.047437e+11   3.812415e+06   2.567362e-19   0.000000e+00   0.000000e+00
      208000   2.079990e-06   5.453464e+00   9.957366e+00   2.117507e+01   2.092568e+06   1.852849e+06   2.592801e+06  -6.019313e+10  -6.429001e+10   9.452251e+10   3.812415e+06   1.046301e-19   0.000000e+00   0.000000e+00
      216000   2.159990e-06   5.620587e+00   1.010550e+01   2.138278e+01   2.084446e+06   1.851874e+06   2.600030e+06  -1.416032e+11   3.773715e+10   8.664516e+10   3.812415e+06   1.816552e-19   0.000000e+00   0.000000e+00
      224000   2.239990e-06   5.786808e+00   1.025388e+01   2.159105e+01   2.070076e+06   1.858722e+06   2.606616e+06  -2.164103e+11   1.314387e+11   7.813904e+10   3.812415e+06   4.400984e-19   0.000000e+00   0.000000e+00
      232000   2.319990e-06   5.951625e+00   1.040310e+01   2.179983e+01   2.049227e+06   1.873284e+06   2.612658e+06  -2.993808e+11   2.272525e+11   7.187780e+10   3.812415e+06   9.178791e-19   0.000000e+00   0.000000e+00
      240000   2.399990e-06   6.114520e+00   1.055379e+01   2.200906e+01   2.022123e+06   1.894945e+06   2.618150e+06  -3.768839e+11   3.124801e+11   6.492195e+10   3.812415e+06   1.528770e-18   0.000000e+00   0.000000e+00
      248000   2.479990e-06   6.274996e+00   1.070647e+01   2.221872e+01   1.988697e+06   1.923291e+06   2.623079e+06  -4.600083e+11   3.967389e+11   5.786203e+10   3.812415e+06   2.333997e-18   0.000000e+00   0.000000e+00
      256000   2.559990e-06   6.432536e+00   1.086169e+01   2.242874e+01   1.948632e+06   1.958143e+06   2.627360e+06  -5.418490e+11   4.733760e+11   4.907266e+10   3.812415e+06   3.260055e-18   0.000000e+00   0.000000e+00
      264000   2.639990e-06   6.586608e+00   1.101993e+01   2.263907e+01   1.902134e+06   1.998693e+06   2.630898e+06  -6.199020e+11   5.381099e+11   3.938835e+10   3.812415e+06   4.233533e-18   0.000000e+00   0.000000e+00
      272000   2.719990e-06   6.736708e+00   1.118161e+01   2.284966e+01   1.849361e+06   2.044143e+06   2.633601e+06  -6.982376e+11   5.964378e+11   2.737604e+10   3.812415e+06   5.290565e-18   0.000000e+00   0.000000e+00
      280000   2.799990e-06   6.882328e+00   1.134711e+01   2.306042e+01   1.789973e+06   2.094124e+06   2.635366e+06  -7.847388e+11   6.510755e+11   1.564817e+10   3.812415e+06   6.518756e-18   0.000000e+00   0.000000e+00
      288000   2.879990e-06   7.022928e+00   1.151677e+01   2.327129e+01   1.723847e+06   2.147933e+06   2.636142e+06  -8.692667e+11   6.933121e+11   3.530635e+09   3.812415e+06   7.749626e-18   0.000000e+00   0.000000e+00
      296000   2.959990e-06   7.157975e+00   1.169085e+01   2.348218e+01   1.651384e+06   2.204441e+06   2.635884e+06  -9.428865e+11   7.183127e+11  -1.001420e+10   3.812416e+06   8.807677e-18   0.000000e+00   0.000000e+00
      304000   3.039990e-06   7.286984e+00   1.186952e+01   2.369301e+01   1.573009e+06   2.262468e+06   2.634652e+06  -1.006060e+12   7.248813e+11  -2.181061e+10   3.812416e+06   9.641339e-18   0.000000e+00   0.000000e+00
      312000   3.119990e-06   7.409495e+00   1.205287e+01   2.390370e+01   1.488735e+06   2.321114e+06   2.632606e+06  -1.094952e+12   7.361590e+11  -2.985592e+10   3.812416e+06   1.091786e-17   0.000000e+00   0.000000e+00
      320000   3.199990e-06   7.525006e+00   1.224091e+01   2.411421e+01   1.397977e+06   2.379806e+06   2.629962e+06  -1.175233e+12   7.293132e+11  -3.523090e+10   3.812416e+06   1.199958e-17   0.000000e+00   0.000000e+00
      328000   3.279990e-06   7.633001e+00   1.243360e+01   2.432449e+01   1.300943e+06   2.437334e+06   2.627064e+06  -1.247441e+12   7.044758e+11  -3.584690e+10   3.812416e+06   1.287329e-17   0.000000e+00   0.000000e+00
      336000   3.359990e-06   7.733017e+00   1.263081e+01   2.453454e+01   1.198547e+06   2.492143e+06   2.624353e+06  -1.311892e+12   6.626484e+11  -3.011376e+10   3.812417e+06   1.354643e-17   0.000000e+00   0.000000e+00
      344000   3.439990e-06   7.824640e+00   1.283224e+01   2.474441e+01   1.091245e+06   2.542936e+06   2.622438e+06  -1.372108e+12   6.054169e+11  -1.609499e+10   3.812417e+06   1.410062e-17   0.000000e+00   0.000000e+00
      352000   3.519990e-06   7.907490e+00   1.303754e+01   2.495417e+01   9.792595e+05   2.588584e+06   2.621985e+06  -1.425709e+12   5.325701e+11   6.697094e+09   3.812417e+06   1.451971e-17   0.000000e+00   0.000000e+00
      360000   3.599990e-06   7.981222e+00   1.324624e+01   2.516399e+01   8.634929e+05   2.627644e+06   2.623812e+06  -1.469904e+12   4.422062e+11   4.090045e+10   3.812417e+06   1.477992e-17   0.000000e+00   0.000000e+00
      368000   3.679990e-06   8.045570e+00   1.345775e+01   2.537407e+01   7.448683e+05   2.658735e+06   2.628845e+06  -1.495637e+12   3.336057e+11   8.639039e+10   3.812418e+06   1.476647e-17   0.000000e+00   0.000000e+00
      376000   3.759990e-06   8.100351e+00   1.367139e+01   2.558471e+01   6.244523e+05   2.680521e+06   2.638067e+06  -1.508310e+12   2.080500e+11   1.456402e+11   3.812418e+06   1.466501e-17   0.000000e+00   0.000000e+00
      384000   3.839990e-06   8.145481e+00   1.388635e+01   2.579630e+01   5.039031e+05   2.691599e+06   2.652528e+06  -1.499509e+12   6.750801e+10   2.163693e+11   3.812418e+06   1.441684e-17   0.000000e+00   0.000000e+00
      392000   3.919990e-06   8.181012e+00   1.410173e+01   2.600928e+01   3.847897e+05   2.690870e+06   2.673143e+06  -1.469880e+12  -8.842341e+10   3.006024e+11   3.812418e+06   1.415873e-17   0.000000e+00   0.000000e+00
      400000   3.999990e-06   8.207138e+00   1.431654e+01   2.622419e+01   2.690039e+05   2.677280e+06   2.700804e+06  -1.419353e+12  -2.542569e+11   3.934203e+11   3.812418e+06   1.400366e-17   0.000000e+00   0.000000e+00
      408000   4.079990e-06   8.224195e+00   1.452973e+01   2.644162e+01   1.584765e+05   2.650033e+06   2.736192e+06  -1.341760e+12  -4.284814e+11   4.927103e+11   3.812419e+06   1.395777e-17   0.000000e+00   0.000000e+00
      416000   4.159990e-06   8.232681e+00   1.474017e+01   2.666220e+01   5.513982e+04   2.608577e+06   2.779717e+06  -1.234446e+12  -6.090200e+11   5.960193e+11   3.812419e+06   1.410397e-17   0.000000e+00   0.000000e+00
      424000   4.239990e-06   8.233282e+00   1.494671e+01   2.688659e+01  -3.832705e+04   2.552506e+06   2.831569e+06  -1.100555e+12  -7.923114e+11   6.993371e+11   3.812419e+06   1.459316e-17   0.000000e+00   0.000000e+00
      432000   4.319990e-06   8.226851e+00   1.514818e+01   2.711547e+01  -1.203317e+05   2.481743e+06   2.891542e+06  -9.434068e+11  -9.760755e+11   7.984916e+11   3.812419e+06   1.554766e-17   0.000000e+00   0.000000e+00
      440000   4.399990e-06   8.214396e+00   1.534340e+01   2.734944e+01  -1.885541e+05   2.396484e+06   2.959029e+06  -7.569706e+11  -1.154786e+12   8.870215e+11   3.812420e+06   1.688288e-17   0.000000e+00   0.000000e+00
      448000   4.479990e-06   8.197106e+00   1.553124e+01   2.758909e+01  -2.409677e+05   2.297135e+06   3.033093e+06  -5.528254e+11  -1.326120e+12   9.604366e+11   3.812420e+06   1.872140e-17   0.000000e+00   0.000000e+00
      456000   4.559990e-06   8.176301e+00   1.571058e+01   2.783488e+01  -2.761878e+05   2.184323e+06   3.112395e+06  -3.274200e+11  -1.492199e+12   1.018203e+12   3.812420e+06   2.112812e-17   0.000000e+00   0.000000e+00
      464000   4.639990e-06   8.153407e+00   1.588039e+01   2.808717e+01  -2.930381e+05   2.058793e+06   3.195317e+06  -9.275289e+10  -1.643912e+12   1.050704e+12   3.812421e+06   2.391395e-17   0.000000e+00   0.000000e+00
      472000   4.719990e-06   8.129920e+00   1.603968e+01   2.834617e+01  -2.909563e+05   1.921513e+06   3.279891e+06   1.452191e+11  -1.785568e+12   1.058965e+12   3.812421e+06   2.714666e-17   0.000000e+00   0.000000e+00
      480000   4.799990e-06   8.107360e+00   1.618754e+01   2.861194e+01  -2.698651e+05   1.773428e+06   3.364028e+06   3.827822e+11  -1.914981e+12   1.040249e+12   3.812422e+06   3.068859e-17   0.000000e+00   0.000000e+00
      488000   4.879990e-06   8.087240e+00   1.632317e+01   2.888434e+01  -2.301461e+05   1.615597e+06   3.445496e+06   6.072152e+11  -2.029699e+12   9.923036e+11   3.812422e+06   3.430714e-17   0.000000e+00   0.000000e+00
      496000   4.959990e-06   8.071009e+00   1.644581e+01   2.916309e+01  -1.728146e+05   1.448964e+06   3.522103e+06   8.195722e+11  -2.133712e+12   9.180212e+11   3.812423e+06   3.803145e-17   0.000000e+00   0.000000e+00
      504000   5.039990e-06   8.060008e+00   1.655479e+01   2.944769e+01  -9.975639e+04   1.274359e+06   3.591745e+06   1.003648e+12  -2.229561e+12   8.189470e+11   3.812423e+06   4.167809e-17   0.000000e+00   0.000000e+00
      512000   5.119990e-06   8.055412e+00   1.664951e+01   2.973753e+01  -1.311402e+04   1.092502e+06   3.652512e+06   1.156204e+12  -2.314973e+12   6.966015e+11   3.812424e+06   4.501444e-17   0.000000e+00   0.000000e+00
      520000   5.199990e-06   8.056810e+00   1.673197e+01   3.003115e+01   1.816715e+04   1.025671e+06   3.671818e+06  -6.409645e+11   1.087833e+12  -3.006949e+11   3.812424e+06   1.055994e-17   0.000000e+00   0.000000e+00
      528000   5.279990e-06   8.056139e+00   1.681752e+01   3.032389e+01  -3.586667e+04   1.113045e+06   3.646152e+06  -7.103741e+11   1.092837e+12  -3.405885e+11   3.812425e+06   1.137670e-17   0.000000e+00   0.000000e+00
      536000   5.359990e-06   8.050921e+00   1.691005e+01   3.061445e+01  -9.557185e+04   1.199959e+06   3.617395e+06  -7.836422e+11   1.077626e+12  -3.781677e+11   3.812425e+06   1.202525e-17   0.000000e+00   0.000000e+00
      544000   5.439990e-06   8.040686e+00   1.700946e+01   3.090260e+01  -1.613315e+05   1.284815e+06   3.585779e+06  -8.614789e+11   1.040099e+12  -4.114304e+11   3.812425e+06   1.249443e-17   0.000000e+00   0.000000e+00
      552000   5.519990e-06   8.024941e+00   1.711552e+01   3.118811e+01  -2.333421e+05   1.365782e+06   3.551729e+06  -9.395784e+11   9.807460e+11  -4.388591e+11   3.812425e+06   1.277051e-17   0.000000e+00   0.000000e+00
      560000   5.599990e-06   8.003185e+00   1.722783e+01   3.147082e+01  -3.115739e+05   1.441051e+06   3.515805e+06  -1.016776e+12   8.984265e+11  -4.583471e+11   3.812425e+06   1.285714e-17   0.000000e+00   0.000000e+00
      568000   5.679990e-06   7.974921e+00   1.734589e+01   3.175061e+01  -3.960503e+05   1.508898e+06   3.478644e+06  -1.093968e+12   7.933059e+11  -4.686492e+11   3.812426e+06   1.282362e-17   0.000000e+00   0.000000e+00
      576000   5.759990e-06   7.939662e+00   1.746901e+01   3.202740e+01  -4.863814e+05   1.567371e+06   3.441129e+06  -1.165022e+12   6.652938e+11  -4.676916e+11   3.812426e+06   1.265371e-17   0.000000e+00   0.000000e+00
      584000   5.839990e-06   7.896956e+00   1.759637e+01   3.230120e+01  -5.820663e+05   1.614864e+06   3.404116e+06  -1.224524e+12   5.174319e+11  -4.548367e+11   3.812426e+06   1.237444e-17   0.000000e+00   0.000000e+00
      592000   5.919990e-06   7.846413e+00   1.772705e+01   3.257210e+01  -6.821784e+05   1.649762e+06   3.368607e+06  -1.277957e+12   3.513350e+11  -4.308589e+11   3.812426e+06   1.217494e-17   0.000000e+00   0.000000e+00
      600000   5.999990e-06   7.787705e+00   1.785996e+01   3.284024e+01  -7.860194e+05   1.670726e+06   3.335483e+06  -1.316137e+12   1.702280e+11  -3.954132e+11   3.812427e+06   1.202007e-17   0.000000e+00   0.000000e+00
      608000   6.079990e-06   7.720580e+00   1.799396e+01   3.310586e+01  -8.924382e+05   1.676573e+06   3.305640e+06  -1.341946e+12  -2.688547e+10  -3.486493e+11   3.812427e+06   1.205486e-17   0.000000e+00   0.000000e+00
      616000   6.159990e-06   7.644886e+00   1.812779e+01   3.336925e+01  -9.999759e+05   1.666389e+06   3.279908e+06  -1.347059e+12  -2.309834e+11  -2.933311e+11   3.812427e+06   1.224832e-17   0.000000e+00   0.000000e+00
      624000   6.239990e-06   7.560594e+00   1.826014e+01   3.363077e+01  -1.107120e+06   1.639677e+06   3.258887e+06  -1.330008e+12  -4.391202e+11  -2.308897e+11   3.812427e+06   1.263128e-17   0.000000e+00   0.000000e+00
      632000   6.319990e-06   7.467800e+00   1.838969e+01   3.389081e+01  -1.212317e+06   1.596150e+06   3.243023e+06  -1.299614e+12  -6.500941e+11  -1.658560e+11   3.812427e+06   1.340892e-17   0.000000e+00   0.000000e+00
      640000   6.399990e-06   7.366715e+00   1.851508e+01   3.414980e+01  -1.314104e+06   1.535931e+06   3.232437e+06  -1.243909e+12  -8.559902e+11  -9.895361e+10   3.812428e+06   1.435353e-17   0.000000e+00   0.000000e+00
      648000   6.479990e-06   7.257677e+00   1.863500e+01   3.440815e+01  -1.410854e+06   1.459315e+06   3.227150e+06  -1.171072e+12  -1.057209e+12  -3.389584e+10   3.812428e+06   1.560990e-17   0.000000e+00   0.000000e+00
      656000   6.559990e-06   7.141152e+00   1.874815e+01   3.466627e+01  -1.501078e+06   1.367070e+06   3.226840e+06  -1.081915e+12  -1.248706e+12   2.573987e+10   3.812428e+06   1.711565e-17   0.000000e+00   0.000000e+00
      664000   6.639990e-06   7.017712e+00   1.885333e+01   3.492456e+01  -1.583526e+06   1.259848e+06   3.231074e+06  -9.756113e+11  -1.427696e+12   7.855100e+10   3.812428e+06   1.878207e-17   0.000000e+00   0.000000e+00
      672000   6.719990e-06   6.888030e+00   1.894937e+01   3.518335e+01  -1.656941e+06   1.139007e+06   3.239108e+06  -8.571165e+11  -1.592114e+12   1.214133e+11   3.812429e+06   2.058682e-17   0.000000e+00   0.000000e+00
      680000   6.799990e-06   6.752879e+00   1.903525e+01   3.544290e+01  -1.720002e+06   1.006032e+06   3.250247e+06  -7.193683e+11  -1.732792e+12   1.556698e+11   3.812429e+06   2.221711e-17   0.000000e+00   0.000000e+00
      688000   6.879990e-06   6.613128e+00   1.911005e+01   3.570345e+01  -1.771883e+06   8.624043e+05   3.263634e+06  -5.772027e+11  -1.854536e+12   1.766933e+11   3.812429e+06   2.384311e-17   0.000000e+00   0.000000e+00
      696000   6.959990e-06   6.469682e+00   1.917298e+01   3.596512e+01  -1.812303e+06   7.095668e+05   3.278215e+06  -4.307042e+11  -1.957966e+12   1.857052e+11   3.812430e+06   2.540987e-17   0.000000e+00   0.000000e+00
      704000   7.039990e-06   6.323484e+00   1.922339e+01   3.622797e+01  -1.840616e+06   5.494331e+05   3.293157e+06  -2.774393e+11  -2.042298e+12   1.856848e+11   3.812430e+06   2.684414e-17   0.000000e+00   0.000000e+00
      712000   7.119990e-06   6.175510e+00   1.926074e+01   3.649201e+01  -1.856688e+06   3.834746e+05   3.307610e+06  -1.236055e+11  -2.097750e+12   1.738359e+11   3.812431e+06   2.786991e-17   0.000000e+00   0.000000e+00
      720000   7.199990e-06   6.026739e+00   1.928462e+01   3.675715e+01  -1.860519e+06   2.131769e+05   3.320792e+06   2.965118e+10  -2.146043e+12   1.543908e+11   3.812431e+06   2.902433e-17   0.000000e+00   0.000000e+00
      728000   7.279990e-06   5.878152e+00   1.929478e+01   3.702328e+01  -1.852156e+06   4.061016e+04   3.332042e+06   1.788537e+11  -2.168586e+12   1.258625e+11   3.812432e+06   2.977896e-17   0.000000e+00   0.000000e+00
      736000   7.359990e-06   5.730707e+00   1.929110e+01   3.729021e+01  -1.832021e+06  -1.326375e+05   3.340770e+06   3.243916e+11  -2.164847e+12   9.195491e+10   3.812432e+06   3.009022e-17   0.000000e+00   0.000000e+00
      744000   7.439990e-06   5.585332e+00   1.927357e+01   3.755773e+01  -1.800494e+06  -3.052875e+05   3.346590e+06   4.638384e+11  -2.150749e+12   5.336484e+10   3.812433e+06   3.036275e-17   0.000000e+00   0.000000e+00
      752000   7.519990e-06   5.442916e+00   1.924231e+01   3.782558e+01  -1.758200e+06  -4.759622e+05   3.349155e+06   5.936065e+11  -2.117737e+12   1.067872e+10   3.812433e+06   3.032253e-17   0.000000e+00   0.000000e+00
      760000   7.599990e-06   5.304292e+00   1.919750e+01   3.809350e+01  -1.705757e+06  -6.436022e+05   3.348256e+06   7.152493e+11  -2.068160e+12  -3.314640e+10   3.812434e+06   3.002588e-17   0.000000e+00   0.000000e+00
      768000   7.679990e-06   5.170250e+00   1.913943e+01   3.836121e+01  -1.643839e+06  -8.072717e+05   3.343765e+06   8.278537e+11  -2.012813e+12  -7.894735e+10   3.812434e+06   2.973146e-17   0.000000e+00   0.000000e+00
      776000   7.759990e-06   5.041504e+00   1.906848e+01   3.862841e+01  -1.573451e+06  -9.655655e+05   3.335655e+06   9.310523e+11  -1.944092e+12  -1.235549e+11   3.812435e+06   2.922138e-17   0.000000e+00   0.000000e+00
      784000   7.839990e-06   4.918711e+00   1.898509e+01   3.889482e+01  -1.495131e+06  -1.118136e+06   3.324006e+06   1.025607e+12  -1.869203e+12  -1.674368e+11   3.812435e+06   2.867106e-17   0.000000e+00   0.000000e+00
      792000   7.919990e-06   4.802463e+00   1.888976e+01   3.916016e+01  -1.409994e+06  -1.264028e+06   3.308899e+06   1.103335e+12  -1.780156e+12  -2.098666e+11   3.812436e+06   2.777176e-17   0.000000e+00   0.000000e+00
      800000   7.999990e-06   4.693277e+00   1.878303e+01   3.942415e+01  -1.318766e+06  -1.402960e+06   3.290476e+06   1.174664e+12  -1.691872e+12  -2.505648e+11   3.812436e+06   2.698630e-17   0.000000e+00   0.000000e+00
      808000   8.079990e-06   4.591600e+00   1.866548e+01   3.968655e+01  -1.222338e+06  -1.534632e+06   3.268863e+06   1.234186e+12  -1.600644e+12  -2.899371e+11   3.812437e+06   2.613557e-17   0.000000e+00   0.000000e+00
      816000   8.159990e-06   4.497815e+00   1.853768e+01   3.994709e+01  -1.121506e+06  -1.658960e+06   3.244188e+06   1.287500e+12  -1.508580e+12  -3.263356e+11   3.812437e+06   2.532464e-17   0.000000e+00   0.000000e+00
      824000   8.239990e-06   4.412261e+00   1.840024e+01   4.020554e+01  -1.016825e+06  -1.775839e+06   3.216697e+06   1.327627e+12  -1.413445e+12  -3.606331e+11   3.812438e+06   2.438756e-17   0.000000e+00   0.000000e+00
      832000   8.319990e-06   4.335204e+00   1.825375e+01   4.046169e+01  -9.091227e+05  -1.885192e+06   3.186570e+06   1.361692e+12  -1.320202e+12  -3.925388e+11   3.812438e+06   2.351471e-17   0.000000e+00   0.000000e+00
      840000   8.399990e-06   4.266860e+00   1.809881e+01   4.071533e+01  -7.991850e+05  -1.987130e+06   3.153935e+06   1.384760e+12  -1.228602e+12  -4.231780e+11   3.812438e+06   2.260500e-17   0.000000e+00   0.000000e+00
      848000   8.479990e-06   4.207375e+00   1.793601e+01   4.096626e+01  -6.877276e+05  -2.081776e+06   3.118963e+06   1.401505e+12  -1.139050e+12  -4.512262e+11   3.812439e+06   2.172208e-17   0.000000e+00   0.000000e+00
      856000   8.559990e-06   4.156854e+00   1.776591e+01   4.121430e+01  -5.752305e+05  -2.169367e+06   3.081825e+06   1.407363e+12  -1.050774e+12  -4.769651e+11   3.812439e+06   2.076323e-17   0.000000e+00   0.000000e+00
      864000   8.639990e-06   4.115345e+00   1.758909e+01   4.145930e+01  -4.624354e+05  -2.250122e+06   3.042663e+06   1.411205e+12  -9.684989e+11  -5.017374e+11   3.812439e+06   1.994168e-17   0.000000e+00   0.000000e+00
      872000   8.719990e-06   4.082865e+00   1.740607e+01   4.170108e+01  -3.495499e+05  -2.324416e+06   3.001600e+06   1.412504e+12  -8.904705e+11  -5.250710e+11   3.812440e+06   1.920559e-17   0.000000e+00   0.000000e+00
      880000   8.799990e-06   4.059405e+00   1.721734e+01   4.193950e+01  -2.371491e+05  -2.392611e+06   2.958694e+06   1.401291e+12  -8.152403e+11  -5.469335e+11   3.812440e+06   1.835034e-17   0.000000e+00   0.000000e+00
      888000   8.879990e-06   4.044905e+00   1.702340e+01   4.217442e+01  -1.254718e+05  -2.454959e+06   2.914127e+06   1.391362e+12  -7.435303e+11  -5.664582e+11   3.812440e+06   1.761210e-17   0.000000e+00   0.000000e+00
      896000   8.959990e-06   4.039308e+00   1.682470e+01   4.240572e+01  -1.463961e+04  -2.511797e+06   2.867990e+06   1.377175e+12  -6.782627e+11  -5.869858e+11   3.812441e+06   1.693262e-17   0.000000e+00   0.000000e+00
      904000   9.039990e-06   4.042521e+00   1.662165e+01   4.263326e+01   9.464906e+04  -2.563560e+06   2.820268e+06   1.352623e+12  -6.174203e+11  -6.066064e+11   3.812441e+06   1.616514e-17   0.000000e+00   0.000000e+00
      912000   9.119990e-06   4.054407e+00   1.641465e+01   4.285692e+01   2.022773e+05  -2.610707e+06   2.770920e+06   1.336841e+12  -5.618335e+11  -6.269291e+11   3.812441e+06   1.564527e-17   0.000000e+00   0.000000e+00
      920000   9.199990e-06   4.074852e+00   1.620405e+01   4.307656e+01   3.084898e+05  -2.653607e+06   2.719910e+06   1.311838e+12  -5.119882e+11  -6.482862e+11   3.812441e+06   1.506539e-17   0.000000e+00   0.000000e+00
      928000   9.279990e-06   4.103703e+00   1.599018e+01   4.329206e+01   4.124360e+05  -2.692629e+06   2.667275e+06   1.286021e+12  -4.643162e+11  -6.675762e+11   3.812442e+06   1.451229e-17   0.000000e+00   0.000000e+00
      936000   9.359990e-06   4.140786e+00   1.577333e+01   4.350328e+01   5.142268e+05  -2.728052e+06   2.613048e+06   1.261761e+12  -4.209186e+11  -6.877398e+11   3.812442e+06   1.405533e-17   0.000000e+00   0.000000e+00
      944000   9.439990e-06   4.185933e+00   1.555378e+01   4.371011e+01   6.140007e+05  -2.760109e+06   2.557248e+06   1.222978e+12  -3.827172e+11  -7.067087e+11   3.812442e+06   1.342463e-17   0.000000e+00   0.000000e+00
      952000   9.519990e-06   4.238946e+00   1.533179e+01   4.391241e+01   7.110193e+05  -2.789161e+06   2.499949e+06   1.196794e+12  -3.457239e+11  -7.260956e+11   3.812442e+06   1.303266e-17   0.000000e+00   0.000000e+00
      960000   9.599990e-06   4.299630e+00   1.510759e+01   4.411006e+01   8.057688e+05  -2.815385e+06   2.441119e+06   1.164449e+12  -3.128347e+11  -7.451529e+11   3.812443e+06   1.259392e-17   0.000000e+00   0.000000e+00
      968000   9.679990e-06   4.367789e+00   1.488139e+01   4.430294e+01   8.979245e+05  -2.839119e+06   2.380726e+06   1.145542e+12  -2.783262e+11  -7.639654e+11   3.812443e+06   1.237021e-17   0.000000e+00   0.000000e+00
      976000   9.759990e-06   4.443240e+00   1.465339e+01   4.449093e+01   9.876258e+05  -2.860512e+06   2.318790e+06   1.096053e+12  -2.573944e+11  -7.843536e+11   3.812443e+06   1.180238e-17   0.000000e+00   0.000000e+00
      984000   9.839990e-06   4.525747e+00   1.442377e+01   4.467391e+01   1.074673e+06  -2.879868e+06   2.255252e+06   1.069754e+12  -2.306852e+11  -8.043271e+11   3.812443e+06   1.156253e-17   0.000000e+00   0.000000e+00
      992000   9.919990e-06   4.615113e+00   1.419266e+01   4.485173e+01   1.159140e+06  -2.897388e+06   2.190037e+06   1.040696e+12  -2.073031e+11  -8.250691e+11   3.812443e+06   1.132580e-17   0.000000e+00   0.000000e+00
     1000000   9.999990e-06   4.711129e+00   1.396023e+01   4.502427e+01   1.240827e+06  -2.913219e+06   2.123259e+06   1.013022e+12  -1.844581e+11  -8.450853e+11   3.812444e+06   1.112296e-17   0.000000e+00   0.000000e+00
     1008000   1.007999e-05   4.813590e+00   1.372659e+01   4.519141e+01   1.320263e+06  -2.927340e+06   2.054827e+06   9.807838e+11  -1.651901e+11  -8.654954e+11   3.812444e+06   1.089663e-17   0.000000e+00   0.000000e+00
     1016000   1.015999e-05   4.922331e+00   1.349191e+01   4.535300e+01   1.397760e+06  -2.939657e+06   1.984795e+06   9.492530e+11  -1.465996e+11  -8.856145e+11   3.812444e+06   1.069969e-17   0.000000e+00   0.000000e+00
     1024000   1.023999e-05   5.037155e+00   1.325628e+01   4.550893e+01   1.472499e+06  -2.950677e+06   1.913109e+06   9.211104e+11  -1.281528e+11  -9.066157e+11   3.812444e+06   1.057390e-17   0.000000e+00   0.000000e+00
     1032000   1.031999e-05   5.157860e+00   1.301983e+01   4.565905e+01   1.544677e+06  -2.960397e+06   1.839769e+06   8.877863e+11  -1.129530e+11  -9.271341e+11   3.812444e+06   1.040890e-17   0.000000e+00   0.000000e+00
     1040000   1.039999e-05   5.284231e+00   1.278265e+01   4.580325e+01   1.614514e+06  -2.968737e+06   1.764844e+06   8.686473e+11  -9.033100e+10  -9.465965e+11   3.812444e+06   1.039795e-17   0.000000e+00   0.000000e+00
     1048000   1.047999e-05   5.416123e+00   1.254487e+01   4.594139e+01   1.682252e+06  -2.975594e+06   1.688372e+06   8.287756e+11  -7.932792e+10  -9.655696e+11   3.812445e+06   1.018943e-17   0.000000e+00   0.000000e+00
     1056000   1.055999e-05   5.553310e+00   1.230658e+01   4.607335e+01   1.746956e+06  -2.981534e+06   1.610383e+06   7.934132e+11  -6.689253e+10  -9.845390e+11   3.812445e+06   1.005031e-17   0.000000e+00   0.000000e+00
     1064000   1.063999e-05   5.695583e+00   1.206786e+01   4.619901e+01   1.809507e+06  -2.986093e+06   1.530904e+06   7.698354e+11  -4.747315e+10  -1.002522e+12   3.812445e+06   1.002933e-17   0.000000e+00   0.000000e+00
     1072000   1.071999e-05   5.842766e+00   1.182884e+01   4.631825e+01   1.869648e+06  -2.989453e+06   1.449940e+06   7.374026e+11  -3.396710e+10  -1.020877e+12   3.812445e+06   9.948834e-18   0.000000e+00   0.000000e+00
     1080000   1.079999e-05   5.994662e+00   1.158959e+01   4.643097e+01   1.927362e+06  -2.991584e+06   1.367639e+06   7.126700e+11  -1.450497e+10  -1.036055e+12   3.812445e+06   9.913790e-18   0.000000e+00   0.000000e+00
     1088000   1.087999e-05   6.151097e+00   1.135023e+01   4.653704e+01   1.983113e+06  -2.992203e+06   1.284027e+06   6.790002e+11  -1.828512e+09  -1.052929e+12   3.812445e+06   9.839746e-18   0.000000e+00   0.000000e+00
     1096000   1.095999e-05   6.311892e+00   1.111086e+01   4.663638e+01   2.036439e+06  -2.991588e+06   1.199191e+06   6.517625e+11   1.562656e+10  -1.067812e+12   3.812446e+06   9.811888e-18   0.000000e+00   0.000000e+00
     1104000   1.103999e-05   6.476874e+00   1.087161e+01   4.672888e+01   2.087803e+06  -2.989406e+06   1.113227e+06   6.284223e+11   3.615890e+10  -1.081462e+12   3.812446e+06   9.815155e-18   0.000000e+00   0.000000e+00
     1112000   1.111999e-05   6.645881e+00   1.063260e+01   4.681447e+01   2.137001e+06  -2.985772e+06   1.026224e+06   6.005663e+11   5.401269e+10  -1.093451e+12   3.812446e+06   9.774114e-18   0.000000e+00   0.000000e+00
     1120000   1.119999e-05   6.818734e+00   1.039393e+01   4.689305e+01   2.183929e+06  -2.980742e+06   9.382857e+05   5.733569e+11   7.248309e+10  -1.104250e+12   3.812446e+06   9.737295e-18   0.000000e+00   0.000000e+00
     1128000   1.127999e-05   6.995251e+00   1.015572e+01   4.696457e+01   2.228689e+06  -2.974224e+06   8.495187e+05   5.505066e+11   9.422313e+10  -1.114339e+12   3.812446e+06   9.739334e-18   0.000000e+00   0.000000e+00
     1136000   1.135999e-05   7.175266e+00   9.918090e+00   4.702896e+01   2.271270e+06  -2.966223e+06   7.600012e+05   5.183546e+11   1.091382e+11  -1.123129e+12   3.812446e+06   9.666213e-18   0.000000e+00   0.000000e+00
     1144000   1.143999e-05   7.358604e+00   9.681168e+00   4.708616e+01   2.311871e+06  -2.956550e+06   6.699325e+05   4.921721e+11   1.290271e+11  -1.128991e+12   3.812447e+06   9.612823e-18   0.000000e+00   0.000000e+00
     1152000   1.151999e-05   7.545100e+00   9.445077e+00   4.713613e+01   2.350142e+06  -2.945492e+06   5.793627e+05   4.626293e+11   1.459662e+11  -1.134500e+12   3.812447e+06   9.543365e-18   0.000000e+00   0.000000e+00
     1160000   1.159999e-05   7.734567e+00   9.209928e+00   4.717885e+01   2.386268e+06  -2.932899e+06   4.884455e+05   4.428519e+11   1.707658e+11  -1.138119e+12   3.812447e+06   9.531902e-18   0.000000e+00   0.000000e+00
     1168000   1.167999e-05   7.926845e+00   8.975853e+00   4.721428e+01   2.420339e+06  -2.918711e+06   3.972877e+05   4.150027e+11   1.889112e+11  -1.140370e+12   3.812447e+06   9.455193e-18   0.000000e+00   0.000000e+00
     1176000   1.175999e-05   8.121780e+00   8.742988e+00   4.724241e+01   2.452712e+06  -2.902638e+06   3.060176e+05   3.930323e+11   2.118077e+11  -1.141042e+12   3.812447e+06   9.411050e-18   0.000000e+00   0.000000e+00
     1184000   1.183999e-05   8.319225e+00   8.511473e+00   4.726324e+01   2.483085e+06  -2.884946e+06   2.147761e+05   3.719568e+11   2.353149e+11  -1.139395e+12   3.812447e+06   9.352329e-18   0.000000e+00   0.000000e+00
     1192000   1.191999e-05   8.519017e+00   8.281436e+00   4.727678e+01   2.511383e+06  -2.865729e+06   1.237108e+05   3.414692e+11   2.501742e+11  -1.136632e+12   3.812448e+06   9.221792e-18   0.000000e+00   0.000000e+00
     1200000   1.199999e-05   8.720994e+00   8.052999e+00   4.728304e+01   2.537730e+06  -2.844925e+06   3.297416e+04   3.187435e+11   2.712059e+11  -1.131493e+12   3.812448e+06   9.123395e-18   0.000000e+00   0.000000e+00
     1208000   1.207999e-05   8.925016e+00   7.826302e+00   4.728206e+01   2.562618e+06  -2.822138e+06  -5.731020e+04   2.999411e+11   2.952006e+11  -1.125047e+12   3.812448e+06   9.044513e-18   0.000000e+00   0.000000e+00
     1216000   1.215999e-05   9.130967e+00   7.601502e+00   4.727389e+01   2.585857e+06  -2.797587e+06  -1.469954e+05   2.800852e+11   3.175222e+11  -1.116021e+12   3.812448e+06   8.931241e-18   0.000000e+00   0.000000e+00
     1224000   1.223999e-05   9.338709e+00   7.378733e+00   4.725857e+01   2.607488e+06  -2.771299e+06  -2.359429e+05   2.616539e+11   3.404141e+11  -1.106809e+12   3.812448e+06   8.834714e-18   0.000000e+00   0.000000e+00
     1232000   1.231999e-05   9.548121e+00   7.158138e+00   4.723616e+01   2.627584e+06  -2.743282e+06  -3.239880e+05   2.439796e+11   3.629257e+11  -1.094314e+12   3.812448e+06   8.705543e-18   0.000000e+00   0.000000e+00
     1240000   1.239999e-05   9.759084e+00   6.939854e+00   4.720675e+01   2.646191e+06  -2.713576e+06  -4.110214e+05   2.237681e+11   3.819911e+11  -1.081312e+12   3.812448e+06   8.557973e-18   0.000000e+00   0.000000e+00
     1248000   1.247999e-05   9.971477e+00   6.724013e+00   4.717043e+01   2.663310e+06  -2.682261e+06  -4.970124e+05   2.032726e+11   3.996449e+11  -1.067554e+12   3.812449e+06   8.404293e-18   0.000000e+00   0.000000e+00
     1256000   1.255999e-05   1.018518e+01   6.510738e+00   4.712726e+01   2.679081e+06  -2.649305e+06  -5.817848e+05   1.901368e+11   4.232496e+11  -1.051830e+12   3.812449e+06   8.284768e-18   0.000000e+00   0.000000e+00
     1264000   1.263999e-05   1.040010e+01   6.300171e+00   4.707737e+01   2.693680e+06  -2.614635e+06  -6.652355e+05   1.733978e+11   4.417759e+11  -1.034247e+12   3.812449e+06   8.117146e-18   0.000000e+00   0.000000e+00
     1272000   1.271999e-05   1.061614e+01   6.092440e+00   4.702087e+01   2.707210e+06  -2.578250e+06  -7.472665e+05   1.628698e+11   4.655488e+11  -1.016225e+12   3.812449e+06   7.998540e-18   0.000000e+00   0.000000e+00
     1280000   1.279999e-05   1.083321e+01   5.887681e+00   4.695785e+01   2.719498e+06  -2.540456e+06  -8.277580e+05   1.489149e+11   4.841660e+11  -9.967176e+11   3.812449e+06   7.835937e-18   0.000000e+00   0.000000e+00
     1288000   1.287999e-05   1.105124e+01   5.686017e+00   4.688847e+01   2.730981e+06  -2.500909e+06  -9.066220e+05   1.366367e+11   5.031183e+11  -9.762757e+11   3.812449e+06   7.678434e-18   0.000000e+00   0.000000e+00
     1296000   1.295999e-05   1.127015e+01   5.487579e+00   4.681284e+01   2.741624e+06  -2.459759e+06  -9.837976e+05   1.278885e+11   5.236373e+11  -9.528498e+11   3.812449e+06   7.512712e-18   0.000000e+00   0.000000e+00
     1304000   1.303999e-05   1.148987e+01   5.292491e+00   4.673111e+01   2.751465e+06  -2.417102e+06  -1.059166e+06   1.196714e+11   5.439987e+11  -9.305819e+11   3.812449e+06   7.373321e-18   0.000000e+00   0.000000e+00
     1312000   1.311999e-05   1.171038e+01   5.100900e+00   4.664342e+01   2.761123e+06  -2.372344e+06  -1.132677e+06   1.171476e+11   5.696666e+11  -9.075820e+11   3.812450e+06   7.283744e-18   0.000000e+00   0.000000e+00
     1320000   1.319999e-05   1.193163e+01   4.912953e+00   4.654993e+01   2.770241e+06  -2.325975e+06  -1.204316e+06   1.146414e+11   5.939985e+11  -8.835331e+11   3.812450e+06   7.187578e-18   0.000000e+00   0.000000e+00
     1328000   1.327999e-05   1.215361e+01   4.728789e+00   4.645078e+01   2.779045e+06  -2.277848e+06  -1.274004e+06   1.080980e+11   6.121387e+11  -8.586792e+11   3.812450e+06   7.044159e-18   0.000000e+00   0.000000e+00
     1336000   1.335999e-05   1.237627e+01   4.548544e+00   4.634614e+01   2.787631e+06  -2.227950e+06  -1.341688e+06   1.054136e+11   6.336507e+11  -8.332036e+11   3.812450e+06   6.938377e-18   0.000000e+00   0.000000e+00
     1344000   1.343999e-05   1.259962e+01   4.372357e+00   4.623617e+01   2.795898e+06  -2.176472e+06  -1.407374e+06   1.014372e+11   6.537589e+11  -8.095156e+11   3.812450e+06   6.851557e-18   0.000000e+00   0.000000e+00
     1352000   1.351999e-05   1.282361e+01   4.200353e+00   4.612102e+01   2.803944e+06  -2.123348e+06  -1.471077e+06   1.012795e+11   6.767726e+11  -7.838156e+11   3.812450e+06   6.786607e-18   0.000000e+00   0.000000e+00
     1360000   1.359999e-05   1.304826e+01   4.032679e+00   4.600085e+01   2.812117e+06  -2.068195e+06  -1.532756e+06   1.011508e+11   6.994814e+11  -7.582596e+11   3.812450e+06   6.735335e-18   0.000000e+00   0.000000e+00
     1368000   1.367999e-05   1.327356e+01   3.869497e+00   4.587583e+01   2.820336e+06  -2.011131e+06  -1.592430e+06   9.750995e+10   7.174546e+11  -7.334045e+11   3.812450e+06   6.658030e-18   0.000000e+00   0.000000e+00
     1376000   1.375999e-05   1.349950e+01   3.710930e+00   4.574611e+01   2.828171e+06  -1.952755e+06  -1.650144e+06   9.787541e+10   7.411106e+11  -7.092774e+11   3.812451e+06   6.656561e-18   0.000000e+00   0.000000e+00
     1384000   1.383999e-05   1.372608e+01   3.557121e+00   4.561186e+01   2.836371e+06  -1.892092e+06  -1.705804e+06   1.037645e+11   7.714416e+11  -6.831583e+11   3.812451e+06   6.723619e-18   0.000000e+00   0.000000e+00
     1392000   1.391999e-05   1.395331e+01   3.408237e+00   4.547324e+01   2.844564e+06  -1.829648e+06  -1.759439e+06   1.042868e+11   7.949596e+11  -6.580825e+11   3.812451e+06   6.744383e-18   0.000000e+00   0.000000e+00
     1400000   1.399999e-05   1.418121e+01   3.264430e+00   4.533040e+01   2.852780e+06  -1.765267e+06  -1.811149e+06   1.021289e+11   8.155299e+11  -6.340108e+11   3.812451e+06   6.754276e-18   0.000000e+00   0.000000e+00
     1408000   1.407999e-05   1.440977e+01   3.125864e+00   4.518351e+01   2.861340e+06  -1.698406e+06  -1.860896e+06   1.080946e+11   8.506071e+11  -6.101319e+11   3.812451e+06   6.942271e-18   0.000000e+00   0.000000e+00
     1416000   1.415999e-05   1.463902e+01   2.992739e+00   4.503271e+01   2.869941e+06  -1.629360e+06  -1.908772e+06   1.091669e+11   8.799722e+11  -5.870269e+11   3.812451e+06   7.088887e-18   0.000000e+00   0.000000e+00
     1424000   1.423999e-05   1.486896e+01   2.865239e+00   4.487815e+01   2.878677e+06  -1.557753e+06  -1.954843e+06   1.062159e+11   9.046287e+11  -5.644637e+11   3.812451e+06   7.197864e-18   0.000000e+00   0.000000e+00
     1432000   1.431999e-05   1.509960e+01   2.743556e+00   4.471998e+01   2.887261e+06  -1.483946e+06  -1.999103e+06   1.061095e+11   9.361848e+11  -5.416896e+11   3.812451e+06   7.403941e-18   0.000000e+00   0.000000e+00
     1440000   1.439999e-05   1.533093e+01   2.627889e+00   4.455834e+01   2.895947e+06  -1.407183e+06  -2.041596e+06   1.085210e+11   9.794456e+11  -5.211613e+11   3.812451e+06   7.789892e-18   0.000000e+00   0.000000e+00
     1448000   1.447999e-05   1.556295e+01   2.518487e+00   4.439337e+01   2.904440e+06  -1.327513e+06  -2.082479e+06   1.028785e+11   1.010468e+12  -5.006620e+11   3.812452e+06   8.038089e-18   0.000000e+00   0.000000e+00
     1456000   1.455999e-05   1.579562e+01   2.415548e+00   4.422519e+01   2.912321e+06  -1.245538e+06  -2.121746e+06   9.602171e+10   1.044168e+12  -4.811690e+11   3.812452e+06   8.343577e-18   0.000000e+00   0.000000e+00
     1464000   1.463999e-05   1.602891e+01   2.319292e+00   4.405393e+01   2.919755e+06  -1.160408e+06  -2.159462e+06   8.781510e+10   1.080299e+12  -4.617829e+11   3.812452e+06   8.700721e-18   0.000000e+00   0.000000e+00
     1472000   1.471999e-05   1.626276e+01   2.229941e+00   4.387971e+01   2.926191e+06  -1.072911e+06  -2.195691e+06   7.433587e+10   1.112361e+12  -4.444879e+11   3.812452e+06   9.029444e-18   0.000000e+00   0.000000e+00
     1480000   1.479999e-05   1.649708e+01   2.147716e+00   4.370265e+01   2.931695e+06  -9.820619e+05  -2.230585e+06   6.236164e+10   1.159615e+12  -4.285888e+11   3.812452e+06   9.605127e-18   0.000000e+00   0.000000e+00
     1488000   1.487999e-05   1.673180e+01   2.072913e+00   4.352285e+01   2.936078e+06  -8.874615e+05  -2.264210e+06   4.473151e+10   1.200628e+12  -4.125907e+11   3.812452e+06   1.011576e-17   0.000000e+00   0.000000e+00
     1496000   1.495999e-05   1.696681e+01   2.005809e+00   4.334041e+01   2.938830e+06  -7.895688e+05  -2.296661e+06   2.333933e+10   1.245994e+12  -3.985024e+11   3.812453e+06   1.073074e-17   0.000000e+00   0.000000e+00
     1504000   1.503999e-05   1.720196e+01   1.946677e+00   4.315542e+01   2.939690e+06  -6.881361e+05  -2.327979e+06  -2.472419e+09   1.290139e+12  -3.844870e+11   3.812453e+06   1.136040e-17   0.000000e+00   0.000000e+00
     1512000   1.511999e-05   1.743710e+01   1.895794e+00   4.296796e+01   2.938233e+06  -5.834062e+05  -2.358224e+06  -3.359999e+10   1.334453e+12  -3.720052e+11   3.812453e+06   1.203730e-17   0.000000e+00   0.000000e+00
     1520000   1.519999e-05   1.767201e+01   1.853422e+00   4.277813e+01   2.934033e+06  -4.754812e+05  -2.387503e+06  -7.251050e+10   1.364944e+12  -3.609518e+11   3.812453e+06   1.252835e-17   0.000000e+00   0.000000e+00
     1528000   1.527999e-05   1.790646e+01   1.819803e+00   4.258599e+01   2.926704e+06  -3.643888e+05  -2.415869e+06  -1.129994e+11   1.410794e+12  -3.496937e+11   3.812453e+06   1.332306e-17   0.000000e+00   0.000000e+00
     1536000   1.535999e-05   1.814018e+01   1.795206e+00   4.239161e+01   2.915788e+06  -2.500924e+05  -2.443447e+06  -1.612560e+11   1.442315e+12  -3.400616e+11   3.812454e+06   1.392811e-17   0.000000e+00   0.000000e+00
     1544000   1.543999e-05   1.837288e+01   1.779871e+00   4.219505e+01   2.900776e+06  -1.326016e+05  -2.470368e+06  -2.146291e+11   1.495256e+12  -3.322940e+11   3.812454e+06   1.499600e-17   0.000000e+00   0.000000e+00
     1552000   1.551999e-05   1.860418e+01   1.774088e+00   4.199636e+01   2.881021e+06  -1.142707e+04  -2.496876e+06  -2.793498e+11   1.535056e+12  -3.293633e+11   3.812454e+06   1.594028e-17   0.000000e+00   0.000000e+00
     1560000   1.559999e-05   1.883370e+01   1.778127e+00   4.179556e+01   2.855900e+06   1.128528e+05  -2.523075e+06  -3.496562e+11   1.571426e+12  -3.255039e+11   3.812454e+06   1.690990e-17   0.000000e+00   0.000000e+00
     1568000   1.567999e-05   1.906097e+01   1.792208e+00   4.159268e+01   2.824931e+06   2.394749e+05  -2.548966e+06  -4.247606e+11   1.588762e+12  -3.214947e+11   3.812455e+06   1.760169e-17   0.000000e+00   0.000000e+00
     1576000   1.575999e-05   1.928552e+01   1.816483e+00   4.138774e+01   2.787700e+06   3.677237e+05  -2.574552e+06  -5.062836e+11   1.613080e+12  -3.178142e+11   3.812455e+06   1.855078e-17   0.000000e+00   0.000000e+00
     1584000   1.583999e-05   1.950682e+01   1.851092e+00   4.118076e+01   2.743754e+06   4.978210e+05  -2.599769e+06  -5.928665e+11   1.637475e+12  -3.121592e+11   3.812455e+06   1.962209e-17   0.000000e+00   0.000000e+00
     1592000   1.591999e-05   1.972433e+01   1.896173e+00   4.097178e+01   2.692643e+06   6.293325e+05  -2.624582e+06  -6.859222e+11   1.647228e+12  -3.087435e+11   3.812456e+06   2.055557e-17   0.000000e+00   0.000000e+00
     1600000   1.599999e-05   1.993744e+01   1.951803e+00   4.076083e+01   2.633779e+06   7.616373e+05  -2.649139e+06  -7.873470e+11   1.661960e+12  -3.049753e+11   3.812456e+06   2.178333e-17   0.000000e+00   0.000000e+00
     1608000   1.607999e-05   2.014551e+01   2.018058e+00   4.054793e+01   2.566490e+06   8.947369e+05  -2.673462e+06  -8.949477e+11   1.662222e+12  -3.028505e+11   3.812456e+06   2.291542e-17   0.000000e+00   0.000000e+00
     1616000   1.615999e-05   2.034785e+01   2.094946e+00   4.033308e+01   2.490501e+06   1.027287e+06  -2.697575e+06  -1.004960e+12   1.650326e+12  -2.993548e+11   3.812457e+06   2.396542e-17   0.000000e+00   0.000000e+00
     1624000   1.623999e-05   2.054375e+01   2.182396e+00   4.011633e+01   2.405517e+06   1.158723e+06  -2.721337e+06  -1.120680e+12   1.633183e+12  -2.952399e+11   3.812457e+06   2.513918e-17   0.000000e+00   0.000000e+00
     1632000   1.631999e-05   2.073248e+01   2.280294e+00   3.989768e+01   2.311147e+06   1.288337e+06  -2.744744e+06  -1.236856e+12   1.601950e+12  -2.895524e+11   3.812458e+06   2.620182e-17   0.000000e+00   0.000000e+00
     1640000   1.639999e-05   2.091328e+01   2.388456e+00   3.967718e+01   2.207212e+06   1.415241e+06  -2.767696e+06  -1.361928e+12   1.569227e+12  -2.837284e+11   3.812458e+06   2.756789e-17   0.000000e+00   0.000000e+00
     1648000   1.647999e-05   2.108536e+01   2.506650e+00   3.945486e+01   2.093322e+06   1.538988e+06  -2.790046e+06  -1.484300e+12   1.520846e+12  -2.747619e+11   3.812458e+06   2.878273e-17   0.000000e+00   0.000000e+00
     1656000   1.655999e-05   2.124795e+01   2.634572e+00   3.923079e+01   1.969753e+06   1.658228e+06  -2.811618e+06  -1.603870e+12   1.457892e+12  -2.638189e+11   3.812459e+06   2.988497e-17   0.000000e+00   0.000000e+00
     1664000   1.663999e-05   2.140026e+01   2.771831e+00   3.900503e+01   1.836309e+06   1.772397e+06  -2.832212e+06  -1.729944e+12   1.391901e+12  -2.506025e+11   3.812459e+06   3.129821e-17   0.000000e+00   0.000000e+00
     1672000   1.671999e-05   2.154150e+01   2.917995e+00   3.877767e+01   1.693067e+06   1.880617e+06  -2.851606e+06  -1.849437e+12   1.310886e+12  -2.335524e+11   3.812460e+06   3.255501e-17   0.000000e+00   0.000000e+00
     1680000   1.679999e-05   2.167091e+01   3.072541e+00   3.854881e+01   1.540596e+06   1.981787e+06  -2.869484e+06  -1.960727e+12   1.215854e+12  -2.129923e+11   3.812461e+06   3.365031e-17   0.000000e+00   0.000000e+00
     1688000   1.687999e-05   2.178776e+01   3.234869e+00   3.831860e+01   1.379258e+06   2.075066e+06  -2.885586e+06  -2.074453e+12   1.115172e+12  -1.896344e+11   3.812461e+06   3.499680e-17   0.000000e+00   0.000000e+00
     1696000   1.695999e-05   2.189135e+01   3.404322e+00   3.808717e+01   1.209196e+06   2.159658e+06  -2.899757e+06  -2.175812e+12   9.980653e+11  -1.640004e+11   3.812462e+06   3.608926e-17   0.000000e+00   0.000000e+00
     1704000   1.703999e-05   2.198102e+01   3.580161e+00   3.785470e+01   1.031231e+06   2.234657e+06  -2.911656e+06  -2.270545e+12   8.742175e+11  -1.332371e+11   3.812462e+06   3.721887e-17   0.000000e+00   0.000000e+00
     1712000   1.711999e-05   2.205617e+01   3.761588e+00   3.762138e+01   8.464088e+05   2.299207e+06  -2.920978e+06  -2.348596e+12   7.377925e+11  -9.982783e+10   3.812463e+06   3.805151e-17   0.000000e+00   0.000000e+00
     1720000   1.719999e-05   2.211628e+01   3.947734e+00   3.738741e+01   6.555534e+05   2.352516e+06  -2.927592e+06  -2.419572e+12   5.935477e+11  -6.486220e+10   3.812464e+06   3.893308e-17   0.000000e+00   0.000000e+00
     1728000   1.727999e-05   2.216092e+01   4.137674e+00   3.715304e+01   4.596999e+05   2.393953e+06  -2.931305e+06  -2.475762e+12   4.415910e+11  -2.764045e+10   3.812464e+06   3.964980e-17   0.000000e+00   0.000000e+00
     1736000   1.735999e-05   2.218973e+01   4.330435e+00   3.691849e+01   2.600639e+05   2.422952e+06  -2.931989e+06  -2.513115e+12   2.825679e+11   1.057787e+10   3.812465e+06   4.009199e-17   0.000000e+00   0.000000e+00
     1744000   1.743999e-05   2.220246e+01   4.525002e+00   3.668400e+01   5.783987e+04   2.439000e+06  -2.929647e+06  -2.536016e+12   1.169661e+11   4.728657e+10   3.812466e+06   4.041550e-17   0.000000e+00   0.000000e+00
     1752000   1.751999e-05   2.219897e+01   4.720316e+00   3.644982e+01  -1.451010e+05   2.441611e+06  -2.924445e+06  -2.536901e+12  -5.213990e+10   8.231889e+10   3.812466e+06   4.040342e-17   0.000000e+00   0.000000e+00
     1760000   1.759999e-05   2.217926e+01   4.915297e+00   3.621616e+01  -3.471825e+05   2.430621e+06  -2.916582e+06  -2.512390e+12  -2.223214e+11   1.137685e+11   3.812467e+06   3.995911e-17   0.000000e+00   0.000000e+00
     1768000   1.767999e-05   2.214349e+01   5.108852e+00   3.598323e+01  -5.467179e+05   2.405949e+06  -2.906444e+06  -2.470688e+12  -3.937880e+11   1.387512e+11   3.812468e+06   3.935830e-17   0.000000e+00   0.000000e+00
     1776000   1.775999e-05   2.209191e+01   5.299887e+00   3.575118e+01  -7.416795e+05   2.367692e+06  -2.894626e+06  -2.395190e+12  -5.607398e+11   1.550265e+11   3.812468e+06   3.808446e-17   0.000000e+00   0.000000e+00
     1784000   1.783999e-05   2.202499e+01   5.487328e+00   3.552011e+01  -9.302603e+05   2.316135e+06  -2.881849e+06  -2.314246e+12  -7.265980e+11   1.630527e+11   3.812469e+06   3.704929e-17   0.000000e+00   0.000000e+00
     1792000   1.791999e-05   2.194328e+01   5.670124e+00   3.529009e+01  -1.110947e+06   2.251717e+06  -2.868883e+06  -2.199046e+12  -8.822444e+11   1.590867e+11   3.812470e+06   3.535177e-17   0.000000e+00   0.000000e+00
     1800000   1.799999e-05   2.184749e+01   5.847271e+00   3.506107e+01  -1.281878e+06   2.174972e+06  -2.856784e+06  -2.065446e+12  -1.030684e+12   1.420777e+11   3.812470e+06   3.352832e-17   0.000000e+00   0.000000e+00
     1808000   1.807999e-05   2.173849e+01   6.017821e+00   3.483295e+01  -1.441112e+06   2.086988e+06  -2.846508e+06  -1.912592e+12  -1.166924e+12   1.127182e+11   3.812471e+06   3.154654e-17   0.000000e+00   0.000000e+00
     1816000   1.815999e-05   2.161725e+01   6.180906e+00   3.460555e+01  -1.587478e+06   1.988484e+06  -2.839152e+06  -1.742189e+12  -1.292497e+12   6.886890e+10   3.812471e+06   2.952866e-17   0.000000e+00   0.000000e+00
     1824000   1.823999e-05   2.148488e+01   6.335727e+00   3.437858e+01  -1.719523e+06   1.880560e+06  -2.835785e+06  -1.555683e+12  -1.401538e+12   1.386307e+10   3.812472e+06   2.748596e-17   0.000000e+00   0.000000e+00
     1832000   1.831999e-05   2.134256e+01   6.481589e+00   3.415169e+01  -1.835806e+06   1.764807e+06  -2.837290e+06  -1.349839e+12  -1.490118e+12  -5.349058e+10   3.812472e+06   2.535920e-17   0.000000e+00   0.000000e+00
     1840000   1.839999e-05   2.119160e+01   6.617925e+00   3.392446e+01  -1.935322e+06   1.642641e+06  -2.844504e+06  -1.136829e+12  -1.560497e+12  -1.277000e+11   3.812472e+06   2.346892e-17   0.000000e+00   0.000000e+00
     1848000   1.847999e-05   2.103337e+01   6.744285e+00   3.369641e+01  -2.017369e+06   1.515731e+06  -2.857924e+06  -9.127501e+11  -1.609473e+12  -2.093162e+11   3.812473e+06   2.173556e-17   0.000000e+00   0.000000e+00
     1856000   1.855999e-05   2.086930e+01   6.860357e+00   3.346701e+01  -2.081240e+06   1.385747e+06  -2.878037e+06  -6.829314e+11  -1.637144e+12  -2.944210e+11   3.812473e+06   2.026863e-17   0.000000e+00   0.000000e+00
     1864000   1.863999e-05   2.070086e+01   6.965974e+00   3.323574e+01  -2.126600e+06   1.254658e+06  -2.904886e+06  -4.521887e+11  -1.638205e+12  -3.765358e+11   3.812474e+06   1.899386e-17   0.000000e+00   0.000000e+00
     1872000   1.871999e-05   2.052954e+01   7.061126e+00   3.300206e+01  -2.153564e+06   1.124369e+06  -2.938182e+06  -2.264480e+11  -1.619784e+12  -4.538840e+11   3.812474e+06   1.805993e-17   0.000000e+00   0.000000e+00
     1880000   1.879999e-05   2.035677e+01   7.145926e+00   3.276547e+01  -2.162701e+06   9.961484e+05  -2.977477e+06  -3.241124e+09  -1.581476e+12  -5.267555e+11   3.812474e+06   1.741775e-17   0.000000e+00   0.000000e+00
     1888000   1.887999e-05   2.018397e+01   7.220619e+00   3.252552e+01  -2.154374e+06   8.720179e+05  -3.022121e+06   2.077949e+11  -1.520100e+12  -5.867564e+11   3.812474e+06   1.691382e-17   0.000000e+00   0.000000e+00
     1896000   1.895999e-05   2.001250e+01   7.285590e+00   3.228182e+01  -2.129824e+06   7.532108e+05  -3.071072e+06   4.026930e+11  -1.449412e+12  -6.347637e+11   3.812475e+06   1.671146e-17   0.000000e+00   0.000000e+00
     1904000   1.903999e-05   1.984360e+01   7.341306e+00   3.203406e+01  -2.090264e+06   6.409096e+05  -3.123299e+06   5.822844e+11  -1.357211e+12  -6.682049e+11   3.812475e+06   1.647131e-17   0.000000e+00   0.000000e+00
     1912000   1.911999e-05   1.967842e+01   7.388343e+00   3.178203e+01  -2.037169e+06   5.363352e+05  -3.177618e+06   7.422533e+11  -1.255457e+12  -6.877690e+11   3.812475e+06   1.629933e-17   0.000000e+00   0.000000e+00
     1920000   1.919999e-05   1.951797e+01   7.427346e+00   3.152562e+01  -1.972253e+06   4.401848e+05  -3.232866e+06   8.772030e+11  -1.146800e+12  -6.913048e+11   3.812476e+06   1.606365e-17   0.000000e+00   0.000000e+00
     1928000   1.927999e-05   1.936313e+01   7.459010e+00   3.126478e+01  -1.897370e+06   3.529239e+05  -3.287918e+06   9.917979e+11  -1.034956e+12  -6.834396e+11   3.812476e+06   1.580882e-17   0.000000e+00   0.000000e+00
     1936000   1.935999e-05   1.921461e+01   7.484053e+00   3.099958e+01  -1.814329e+06   2.746474e+05  -3.341819e+06   1.078895e+12  -9.221585e+11  -6.615450e+11   3.812476e+06   1.537094e-17   0.000000e+00   0.000000e+00
     1944000   1.943999e-05   1.907299e+01   7.503196e+00   3.073015e+01  -1.725202e+06   2.053903e+05  -3.393592e+06   1.144984e+12  -8.107657e+11  -6.311532e+11   3.812476e+06   1.483596e-17   0.000000e+00   0.000000e+00
     1952000   1.951999e-05   1.893869e+01   7.517150e+00   3.045668e+01  -1.631816e+06   1.449079e+05  -3.442551e+06   1.185754e+12  -7.018818e+11  -5.916146e+11   3.812477e+06   1.409612e-17   0.000000e+00   0.000000e+00
     1960000   1.959999e-05   1.881197e+01   7.526605e+00   3.017943e+01  -1.535970e+06   9.281028e+04  -3.488146e+06   1.207202e+12  -6.011763e+11  -5.475812e+11   3.812477e+06   1.328081e-17   0.000000e+00   0.000000e+00
     1968000   1.967999e-05   1.869268e+01   7.532317e+00   2.989879e+01  -1.467558e+06   5.965189e+04  -3.518195e+06  -7.757057e+11   2.635758e+11   3.280399e+11   3.812477e+06   4.873913e-18   0.000000e+00   0.000000e+00
     1976000   1.975999e-05   1.856890e+01   7.539362e+00   2.962018e+01  -1.645117e+06   1.219114e+05  -3.437108e+06  -2.482742e+12   8.138187e+11   1.217166e+12   3.812478e+06   5.207901e-17   0.000000e+00   0.000000e+00
     1984000   1.983999e-05   1.842947e+01   7.551501e+00   2.934924e+01  -1.838974e+06   1.787387e+05  -3.334849e+06  -2.362033e+12   6.018130e+11   1.334755e+12   3.812479e+06   4.841282e-17   0.000000e+00   0.000000e+00
     1992000   1.991999e-05   1.827493e+01   7.567481e+00   2.908682e+01  -2.022670e+06   2.176419e+05  -3.224351e+06  -2.227839e+12   3.664608e+11   1.422261e+12   3.812479e+06   4.463562e-17   0.000000e+00   0.000000e+00
     2000000   1.999999e-05   1.810614e+01   7.585799e+00   2.883349e+01  -2.195110e+06   2.368931e+05  -3.108115e+06  -2.081218e+12   1.124827e+11   1.478415e+12   3.812480e+06   4.093362e-17   0.000000e+00   0.000000e+00
     2008000   2.007999e-05   1.792405e+01   7.604835e+00   2.858961e+01  -2.355148e+06   2.354825e+05  -2.988785e+06  -1.919184e+12  -1.494897e+11   1.500510e+12   3.812481e+06   3.734365e-17   0.000000e+00   0.000000e+00
     2016000   2.015999e-05   1.772968e+01   7.622919e+00   2.835530e+01  -2.501754e+06   2.131890e+05  -2.868935e+06  -1.743935e+12  -4.073848e+11   1.490445e+12   3.812481e+06   3.403098e-17   0.000000e+00   0.000000e+00
     2024000   2.023999e-05   1.752415e+01   7.638395e+00   2.813052e+01  -2.633833e+06   1.703095e+05  -2.751170e+06  -1.556474e+12  -6.610486e+11   1.449151e+12   3.812482e+06   3.109054e-17   0.000000e+00   0.000000e+00
     2032000   2.031999e-05   1.730867e+01   7.649651e+00   2.791500e+01  -2.750486e+06   1.080025e+05  -2.637837e+06  -1.358927e+12  -8.918708e+11   1.380426e+12   3.812482e+06   2.850818e-17   0.000000e+00   0.000000e+00
     2040000   2.039999e-05   1.708450e+01   7.655206e+00   2.770829e+01  -2.851014e+06   2.802569e+04  -2.530999e+06  -1.154111e+12  -1.100292e+12   1.287835e+12   3.812483e+06   2.633566e-17   0.000000e+00   0.000000e+00
     2048000   2.047999e-05   1.685295e+01   7.653715e+00   2.750982e+01  -2.935002e+06  -6.765281e+04  -2.432326e+06  -9.462756e+11  -1.281924e+12   1.177477e+12   3.812483e+06   2.460600e-17   0.000000e+00   0.000000e+00
     2056000   2.055999e-05   1.661535e+01   7.644032e+00   2.731887e+01  -3.002356e+06  -1.763781e+05  -2.343028e+06  -7.386272e+11  -1.432926e+12   1.054329e+12   3.812484e+06   2.325970e-17   0.000000e+00   0.000000e+00
     2064000   2.063999e-05   1.637302e+01   7.625194e+00   2.713466e+01  -3.053200e+06  -2.962027e+05  -2.263906e+06  -5.342965e+11  -1.554054e+12   9.238870e+11   3.812484e+06   2.227971e-17   0.000000e+00   0.000000e+00
     2072000   2.071999e-05   1.612726e+01   7.596426e+00   2.695636e+01  -3.088049e+06  -4.240619e+05  -2.195258e+06  -3.380535e+11  -1.638197e+12   7.919744e+11   3.812484e+06   2.147140e-17   0.000000e+00   0.000000e+00
     2080000   2.079999e-05   1.587934e+01   7.557171e+00   2.678314e+01  -3.107493e+06  -5.581930e+05  -2.137041e+06  -1.490984e+11  -1.708043e+12   6.629289e+11   3.812485e+06   2.118260e-17   0.000000e+00   0.000000e+00
     2088000   2.087999e-05   1.563045e+01   7.507013e+00   2.661417e+01  -3.112439e+06  -6.961551e+05  -2.088811e+06   2.352946e+10  -1.736724e+12   5.437361e+11   3.812485e+06   2.076442e-17   0.000000e+00   0.000000e+00
     2096000   2.095999e-05   1.538171e+01   7.445739e+00   2.644868e+01  -3.103955e+06  -8.357440e+05  -2.049887e+06   1.836338e+11  -1.741874e+12   4.320907e+11   3.812485e+06   2.040170e-17   0.000000e+00   0.000000e+00
     2104000   2.103999e-05   1.513414e+01   7.373306e+00   2.628597e+01  -3.083291e+06  -9.750956e+05  -2.019296e+06   3.311387e+11  -1.739113e+12   3.341622e+11   3.812486e+06   2.034705e-17   0.000000e+00   0.000000e+00
     2112000   2.111999e-05   1.488868e+01   7.289760e+00   2.612540e+01  -3.051553e+06  -1.113063e+06  -1.996037e+06   4.580115e+11  -1.702915e+12   2.493806e+11   3.812486e+06   1.988346e-17   0.000000e+00   0.000000e+00
     2120000   2.119999e-05   1.464615e+01   7.195302e+00   2.596644e+01  -3.010188e+06  -1.247932e+06  -1.979012e+06   5.779849e+11  -1.678364e+12   1.791846e+11   3.812486e+06   1.995371e-17   0.000000e+00   0.000000e+00
     2128000   2.127999e-05   1.440729e+01   7.090152e+00   2.580862e+01  -2.959872e+06  -1.380148e+06  -1.967080e+06   6.756398e+11  -1.622087e+12   1.214396e+11   3.812487e+06   1.944795e-17   0.000000e+00   0.000000e+00
     2136000   2.135999e-05   1.417277e+01   6.974596e+00   2.565159e+01  -2.902137e+06  -1.507971e+06  -1.959255e+06   7.592402e+11  -1.561264e+12   7.701430e+10   3.812487e+06   1.893079e-17   0.000000e+00   0.000000e+00
     2144000   2.143999e-05   1.394312e+01   6.848999e+00   2.549506e+01  -2.837968e+06  -1.631225e+06  -1.954508e+06   8.404626e+11  -1.514066e+12   4.325694e+10   3.812487e+06   1.881017e-17   0.000000e+00   0.000000e+00
     2152000   2.151999e-05   1.371883e+01   6.713737e+00   2.533881e+01  -2.768441e+06  -1.749473e+06  -1.951957e+06   9.025522e+11  -1.452356e+12   2.160168e+10   3.812488e+06   1.833208e-17   0.000000e+00   0.000000e+00
     2160000   2.159999e-05   1.350029e+01   6.569214e+00   2.518271e+01  -2.694369e+06  -1.862700e+06  -1.950843e+06   9.537284e+11  -1.387627e+12   7.692942e+09   3.812488e+06   1.777282e-17   0.000000e+00   0.000000e+00
     2168000   2.167999e-05   1.328783e+01   6.415848e+00   2.502665e+01  -2.616797e+06  -1.970453e+06  -1.950578e+06   9.865639e+11  -1.311154e+12   9.761990e+08   3.812488e+06   1.687816e-17   0.000000e+00   0.000000e+00
     2176000   2.175999e-05   1.308167e+01   6.254092e+00   2.487061e+01  -2.536603e+06  -2.072667e+06  -1.950581e+06   1.022209e+12  -1.250857e+12  -1.815522e+08   3.812489e+06   1.635868e-17   0.000000e+00   0.000000e+00
     2184000   2.183999e-05   1.288202e+01   6.084377e+00   2.471456e+01  -2.454611e+06  -2.169240e+06  -1.950475e+06   1.033093e+12  -1.172004e+12   3.328604e+09   3.812489e+06   1.530121e-17   0.000000e+00   0.000000e+00
     2192000   2.191999e-05   1.268898e+01   5.907148e+00   2.455854e+01  -2.371051e+06  -2.260718e+06  -1.949960e+06   1.056155e+12  -1.116033e+12   9.647872e+09   3.812489e+06   1.480092e-17   0.000000e+00   0.000000e+00
     2200000   2.199999e-05   1.250269e+01   5.722785e+00   2.440259e+01  -2.285998e+06  -2.347555e+06  -1.948916e+06   1.070702e+12  -1.057336e+12   1.770684e+10   3.812489e+06   1.419655e-17   0.000000e+00   0.000000e+00
     2208000   2.207999e-05   1.232324e+01   5.531671e+00   2.424674e+01  -2.200523e+06  -2.429222e+06  -1.947217e+06   1.064907e+12  -9.848166e+11   2.514685e+10   3.812490e+06   1.319262e-17   0.000000e+00   0.000000e+00
     2216000   2.215999e-05   1.215061e+01   5.334238e+00   2.409105e+01  -2.114961e+06  -2.505851e+06  -1.944923e+06   1.076548e+12  -9.331833e+11   3.164158e+10   3.812490e+06   1.273048e-17   0.000000e+00   0.000000e+00
     2224000   2.223999e-05   1.198485e+01   5.130852e+00   2.393556e+01  -2.028892e+06  -2.578160e+06  -1.942104e+06   1.077448e+12  -8.767724e+11   3.831596e+10   3.812490e+06   1.210555e-17   0.000000e+00   0.000000e+00
     2232000   2.231999e-05   1.182598e+01   4.921863e+00   2.378032e+01  -1.943055e+06  -2.645773e+06  -1.938944e+06   1.071513e+12  -8.166243e+11   4.052536e+10   3.812490e+06   1.138816e-17   0.000000e+00   0.000000e+00
     2240000   2.239999e-05   1.167394e+01   4.707659e+00   2.362533e+01  -1.857888e+06  -2.708603e+06  -1.935667e+06   1.064023e+12  -7.585253e+11   4.013643e+10   3.812490e+06   1.071398e-17   0.000000e+00   0.000000e+00
     2248000   2.247999e-05   1.152871e+01   4.488604e+00   2.347061e+01  -1.773118e+06  -2.766991e+06  -1.932588e+06   1.056253e+12  -7.021348e+11   3.618065e+10   3.812490e+06   1.009251e-17   0.000000e+00   0.000000e+00
     2256000   2.255999e-05   1.139022e+01   4.265067e+00   2.331611e+01  -1.689300e+06  -2.820693e+06  -1.930036e+06   1.053154e+12  -6.493092e+11   2.714626e+10   3.812491e+06   9.600425e-18   0.000000e+00   0.000000e+00
     2264000   2.263999e-05   1.125842e+01   4.037402e+00   2.316178e+01  -1.605736e+06  -2.870195e+06  -1.928388e+06   1.040107e+12  -5.909294e+11   1.344739e+10   3.812491e+06   8.971823e-18   0.000000e+00   0.000000e+00
     2272000   2.271999e-05   1.113327e+01   3.805962e+00   2.300753e+01  -1.523225e+06  -2.915046e+06  -1.928051e+06   1.026640e+12  -5.324654e+11  -6.045263e+09   3.812491e+06   8.384699e-18   0.000000e+00   0.000000e+00
     2280000   2.279999e-05   1.101468e+01   3.571116e+00   2.285324e+01  -1.441451e+06  -2.955372e+06  -1.929529e+06   1.021383e+12  -4.772297e+11  -3.207792e+10   3.812491e+06   7.973818e-18   0.000000e+00   0.000000e+00
     2288000   2.287999e-05   1.090262e+01   3.333221e+00   2.269874e+01  -1.360119e+06  -2.991211e+06  -1.933346e+06   1.012020e+12  -4.183992e+11  -6.463350e+10   3.812491e+06   7.543860e-18   0.000000e+00   0.000000e+00
     2296000   2.295999e-05   1.079705e+01   3.092646e+00   2.254383e+01  -1.279221e+06  -3.022402e+06  -1.940043e+06   1.009221e+12  -3.605720e+11  -1.037268e+11   3.812491e+06   7.267288e-18   0.000000e+00   0.000000e+00
     2304000   2.303999e-05   1.069795e+01   2.849762e+00   2.238824e+01  -1.198334e+06  -3.048869e+06  -1.950252e+06   1.012776e+12  -3.007916e+11  -1.520731e+11   3.812491e+06   7.142031e-18   0.000000e+00   0.000000e+00
     2312000   2.311999e-05   1.060532e+01   2.604960e+00   2.223168e+01  -1.117162e+06  -3.070336e+06  -1.964709e+06   1.017970e+12  -2.353281e+11  -2.110807e+11   3.812492e+06   7.122453e-18   0.000000e+00   0.000000e+00
     2320000   2.319999e-05   1.051922e+01   2.358652e+00   2.207375e+01  -1.035356e+06  -3.086414e+06  -1.984233e+06   1.027886e+12  -1.652855e+11  -2.792515e+11   3.812492e+06   7.283220e-18   0.000000e+00   0.000000e+00
     2328000   2.327999e-05   1.043970e+01   2.111289e+00   2.191404e+01  -9.523040e+05  -3.096636e+06  -2.009741e+06   1.049236e+12  -8.828267e+10  -3.611535e+11   3.812492e+06   7.767574e-18   0.000000e+00   0.000000e+00
     2336000   2.335999e-05   1.036691e+01   1.863365e+00   2.175200e+01  -8.671069e+05  -3.100296e+06  -2.042397e+06   1.082291e+12  -7.428504e+08  -4.583694e+11   3.812492e+06   8.659753e-18   0.000000e+00   0.000000e+00
     2344000   2.343999e-05   1.030106e+01   1.615444e+00   2.158703e+01  -7.784250e+05  -3.096380e+06  -2.083646e+06   1.139526e+12   1.013541e+11  -5.763374e+11   3.812492e+06   1.028640e-17   0.000000e+00   0.000000e+00
     2352000   2.351999e-05   1.024251e+01   1.368186e+00   2.141834e+01  -6.841583e+05  -3.083390e+06  -2.135353e+06   1.225120e+12   2.276771e+11  -7.212927e+11   3.812492e+06   1.299464e-17   0.000000e+00   0.000000e+00
     2360000   2.359999e-05   1.019181e+01   1.122406e+00   2.124503e+01  -5.814685e+05  -3.058925e+06  -2.199994e+06   1.356227e+12   3.922762e+11  -9.039000e+11   3.812493e+06   1.761591e-17   0.000000e+00   0.000000e+00
     2368000   2.367999e-05   1.014983e+01   8.791667e-01   2.106590e+01  -4.652595e+05  -3.019052e+06  -2.281219e+06   1.562660e+12   6.180059e+11  -1.136619e+12   3.812493e+06   2.579864e-17   0.000000e+00   0.000000e+00
     2376000   2.375999e-05   1.011796e+01   6.399463e-01   2.087945e+01  -3.267408e+05  -2.956925e+06  -2.384311e+06   1.929231e+12   9.595864e+11  -1.454446e+12   3.812493e+06   4.236142e-17   0.000000e+00   0.000000e+00
     2384000   2.383999e-05   1.009860e+01   4.070064e-01   2.068360e+01  -1.482662e+05  -2.858884e+06  -2.517919e+06   2.618517e+12   1.551080e+12  -1.915361e+12   3.812494e+06   8.105272e-17   0.000000e+00   0.000000e+00
     2392000   2.391999e-05   1.009626e+01   1.842819e-01   2.047540e+01   1.085348e+05  -2.693338e+06  -2.696160e+06   3.815607e+12   2.779065e+12  -2.622666e+12   3.812497e+06   1.827620e-16   0.000000e+00   0.000000e+00
