     timestep     time              x             y              z              vx             vy             vz             ax             ay             az         v_magnitude      ELoss        Electronic      Nuclear
           0   0.000000e+00   1.000000e-01   5.422371e+00   5.546933e+00   8.226700e+05  -7.333082e+05  -7.169317e+05   0.000000e+00   0.000000e+00   0.000000e+00   1.314731e+06   0.000000e+00   0.000000e+00   0.000000e+00
        8000   7.999000e-08   1.660436e-01   5.363948e+00   5.489596e+00   8.284087e+05  -7.272758e+05  -7.164683e+05   7.126407e+10   7.485953e+10   6.409415e+09   1.314731e+06   7.991904e-21   0.000000e+00   0.000000e+00
       16000   1.599900e-07   2.325437e-01   5.306005e+00   5.432301e+00   8.340895e+05  -7.213317e+05  -7.158863e+05   7.074412e+10   7.374868e+10   8.115194e+09   1.314731e+06   7.832311e-21   0.000000e+00   0.000000e+00
       24000   2.399900e-07   2.994964e-01   5.248533e+00   5.375058e+00   8.397188e+05  -7.154737e+05  -7.151836e+05   7.003883e+10   7.269174e+10   9.513354e+09   1.314731e+06   7.661329e-21   0.000000e+00   0.000000e+00
       32000   3.199900e-07   3.668974e-01   5.191527e+00   5.317875e+00   8.452967e+05  -7.096981e+05  -7.143669e+05   6.936300e+10   7.170950e+10   1.083493e+10   1.314731e+06   7.505451e-21   0.000000e+00   0.000000e+00
       40000   3.999900e-07   4.347424e-01   5.134979e+00   5.260761e+00   8.508194e+05  -7.040005e+05  -7.134477e+05   6.871556e+10   7.072392e+10   1.215893e+10   1.314731e+06   7.356894e-21   0.000000e+00   0.000000e+00
       48000   4.799900e-07   5.030272e-01   5.078885e+00   5.203726e+00   8.562922e+05  -6.983759e+05  -7.124273e+05   6.809772e+10   6.982043e+10   1.340564e+10   1.314731e+06   7.223018e-21   0.000000e+00   0.000000e+00
       56000   5.599900e-07   5.717476e-01   5.023237e+00   5.146776e+00   8.617115e+05  -6.928315e+05  -7.113057e+05   6.747243e+10   6.878977e+10   1.473623e+10   1.314731e+06   7.081278e-21   0.000000e+00   0.000000e+00
       64000   6.399900e-07   6.408999e-01   4.968029e+00   5.089920e+00   8.670897e+05  -6.873702e+05  -7.100673e+05   6.701409e+10   6.768899e+10   1.630794e+10   1.314731e+06   6.959738e-21   0.000000e+00   0.000000e+00
       72000   7.199900e-07   7.104811e-01   4.913255e+00   5.033168e+00   8.724348e+05  -6.819945e+05  -7.087024e+05   6.661986e+10   6.673131e+10   1.779451e+10   1.314731e+06   6.862318e-21   0.000000e+00   0.000000e+00
       80000   7.999900e-07   7.804887e-01   4.858908e+00   4.976531e+00   8.777487e+05  -6.767011e+05  -7.072134e+05   6.621501e+10   6.560613e+10   1.940617e+10   1.314731e+06   6.755948e-21   0.000000e+00   0.000000e+00
       88000   8.799900e-07   8.509200e-01   4.804981e+00   4.920017e+00   8.830284e+05  -6.714836e+05  -7.056122e+05   6.577741e+10   6.476838e+10   2.068037e+10   1.314731e+06   6.669571e-21   0.000000e+00   0.000000e+00
       96000   9.599900e-07   9.217722e-01   4.751469e+00   4.863636e+00   8.882703e+05  -6.663391e+05  -7.039077e+05   6.532301e+10   6.382232e+10   2.201580e+10   1.314731e+06   6.577001e-21   0.000000e+00   0.000000e+00
      104000   1.039990e-06   9.930424e-01   4.698365e+00   4.807395e+00   8.934773e+05  -6.612652e+05  -7.021001e+05   6.476504e+10   6.310030e+10   2.298814e+10   1.314731e+06   6.487221e-21   0.000000e+00   0.000000e+00
      112000   1.119990e-06   1.064727e+00   4.645664e+00   4.751302e+00   8.986414e+05  -6.562597e+05  -7.002035e+05   6.432017e+10   6.211661e+10   2.433015e+10   1.314731e+06   6.399953e-21   0.000000e+00   0.000000e+00
      120000   1.199990e-06   1.136824e+00   4.593361e+00   4.695365e+00   9.037703e+05  -6.513250e+05  -6.982070e+05   6.389916e+10   6.126251e+10   2.556302e+10   1.314731e+06   6.327029e-21   0.000000e+00   0.000000e+00
      128000   1.279990e-06   1.209330e+00   4.541451e+00   4.639591e+00   9.088653e+05  -6.464568e+05  -6.961146e+05   6.347896e+10   6.043473e+10   2.675609e+10   1.314731e+06   6.258581e-21   0.000000e+00   0.000000e+00
      136000   1.359990e-06   1.282242e+00   4.489927e+00   4.583989e+00   9.139252e+05  -6.416542e+05  -6.939298e+05   6.296429e+10   5.964347e+10   2.777527e+10   1.314731e+06   6.180691e-21   0.000000e+00   0.000000e+00
      144000   1.439990e-06   1.355557e+00   4.438784e+00   4.528565e+00   9.189554e+05  -6.369182e+05  -6.916460e+05   6.272658e+10   5.878783e+10   2.920541e+10   1.314731e+06   6.143635e-21   0.000000e+00   0.000000e+00
      152000   1.519990e-06   1.429274e+00   4.388018e+00   4.473328e+00   9.239591e+05  -6.322458e+05  -6.892626e+05   6.236349e+10   5.804390e+10   3.035595e+10   1.314731e+06   6.096082e-21   0.000000e+00   0.000000e+00
      160000   1.599990e-06   1.503390e+00   4.337623e+00   4.418286e+00   9.289335e+05  -6.276320e+05  -6.867886e+05   6.200339e+10   5.728355e+10   3.151473e+10   1.314731e+06   6.050785e-21   0.000000e+00   0.000000e+00
      168000   1.679990e-06   1.577902e+00   4.287595e+00   4.363445e+00   9.338788e+05  -6.230802e+05  -6.842218e+05   6.162082e+10   5.646358e+10   3.268671e+10   1.314731e+06   6.002104e-21   0.000000e+00   0.000000e+00
      176000   1.759990e-06   1.652809e+00   4.237929e+00   4.308812e+00   9.387925e+05  -6.185854e+05  -6.815709e+05   6.121574e+10   5.587046e+10   3.361081e+10   1.314731e+06   5.961025e-21   0.000000e+00   0.000000e+00
      184000   1.839990e-06   1.728108e+00   4.188620e+00   4.254395e+00   9.436740e+05  -6.141446e+05  -6.788401e+05   6.082020e+10   5.515789e+10   3.464650e+10   1.314731e+06   5.918774e-21   0.000000e+00   0.000000e+00
      192000   1.919990e-06   1.803796e+00   4.139664e+00   4.200200e+00   9.485219e+05  -6.097581e+05  -6.760320e+05   6.038869e+10   5.448105e+10   3.558952e+10   1.314731e+06   5.873853e-21   0.000000e+00   0.000000e+00
      200000   1.999990e-06   1.879871e+00   4.091057e+00   4.146232e+00   9.533380e+05  -6.054264e+05  -6.731446e+05   5.999105e+10   5.374254e+10   3.662589e+10   1.314731e+06   5.834388e-21   0.000000e+00   0.000000e+00
      208000   2.079990e-06   1.956330e+00   4.042795e+00   4.092499e+00   9.581255e+05  -6.011498e+05  -6.701735e+05   5.968465e+10   5.309633e+10   3.770136e+10   1.314731e+06   5.815180e-21   0.000000e+00   0.000000e+00
      216000   2.159990e-06   2.033170e+00   3.994872e+00   4.039007e+00   9.628876e+05  -5.969290e+05  -6.671142e+05   5.938422e+10   5.243728e+10   3.879234e+10   1.314731e+06   5.798881e-21   0.000000e+00   0.000000e+00
      224000   2.239990e-06   2.110391e+00   3.947285e+00   3.985763e+00   9.676240e+05  -5.927624e+05  -6.639688e+05   5.903307e+10   5.176654e+10   3.981584e+10   1.314731e+06   5.775762e-21   0.000000e+00   0.000000e+00
      232000   2.319990e-06   2.187989e+00   3.900029e+00   3.932774e+00   9.723338e+05  -5.886437e+05  -6.607448e+05   5.871208e+10   5.120066e+10   4.078536e+10   1.314731e+06   5.762408e-21   0.000000e+00   0.000000e+00
      240000   2.399990e-06   2.265964e+00   3.853100e+00   3.880046e+00   9.770142e+05  -5.845763e+05  -6.574434e+05   5.828633e+10   5.049280e+10   4.172162e+10   1.314731e+06   5.729209e-21   0.000000e+00   0.000000e+00
      248000   2.479990e-06   2.344311e+00   3.806495e+00   3.827585e+00   9.816622e+05  -5.805554e+05  -6.540740e+05   5.791125e+10   5.002255e+10   4.251559e+10   1.314731e+06   5.711346e-21   0.000000e+00   0.000000e+00
      256000   2.559990e-06   2.423029e+00   3.760210e+00   3.775396e+00   9.862757e+05  -5.765763e+05  -6.506443e+05   5.746947e+10   4.951584e+10   4.323561e+10   1.314731e+06   5.681783e-21   0.000000e+00   0.000000e+00
      264000   2.639990e-06   2.502114e+00   3.714242e+00   3.723484e+00   9.908576e+05  -5.726353e+05  -6.471540e+05   5.707469e+10   4.898394e+10   4.404342e+10   1.314731e+06   5.661581e-21   0.000000e+00   0.000000e+00
      272000   2.719990e-06   2.581565e+00   3.668587e+00   3.671853e+00   9.954039e+05  -5.687433e+05  -6.435995e+05   5.660723e+10   4.831718e+10   4.485229e+10   1.314731e+06   5.627213e-21   0.000000e+00   0.000000e+00
      280000   2.799990e-06   2.661378e+00   3.623242e+00   3.620509e+00   9.999232e+05  -5.648877e+05  -6.399794e+05   5.633287e+10   4.796579e+10   4.567832e+10   1.314731e+06   5.634637e-21   0.000000e+00   0.000000e+00
      288000   2.879990e-06   2.741552e+00   3.578204e+00   3.569458e+00   1.004411e+06  -5.610741e+05  -6.362962e+05   5.587107e+10   4.742565e+10   4.637484e+10   1.314731e+06   5.605405e-21   0.000000e+00   0.000000e+00
      296000   2.959990e-06   2.822083e+00   3.533470e+00   3.518704e+00   1.008869e+06  -5.572942e+05  -6.325539e+05   5.561610e+10   4.707890e+10   4.722522e+10   1.314731e+06   5.619118e-21   0.000000e+00   0.000000e+00
      304000   3.039990e-06   2.902970e+00   3.489036e+00   3.468251e+00   1.013303e+06  -5.535436e+05  -6.287479e+05   5.525040e+10   4.661445e+10   4.800367e+10   1.314731e+06   5.611718e-21   0.000000e+00   0.000000e+00
      312000   3.119990e-06   2.984211e+00   3.444901e+00   3.418106e+00   1.017710e+06  -5.498290e+05  -6.248788e+05   5.490595e+10   4.625293e+10   4.872471e+10   1.314731e+06   5.610397e-21   0.000000e+00   0.000000e+00
      320000   3.199990e-06   3.065803e+00   3.401063e+00   3.368272e+00   1.022089e+06  -5.461469e+05  -6.209470e+05   5.457132e+10   4.579886e+10   4.954332e+10   1.314731e+06   5.611897e-21   0.000000e+00   0.000000e+00
      328000   3.279990e-06   3.147744e+00   3.357517e+00   3.318755e+00   1.026435e+06  -5.425054e+05  -6.169583e+05   5.419452e+10   4.535640e+10   5.028052e+10   1.314731e+06   5.606140e-21   0.000000e+00   0.000000e+00
      336000   3.359990e-06   3.230032e+00   3.314261e+00   3.269560e+00   1.030752e+06  -5.388950e+05  -6.129118e+05   5.377498e+10   4.489171e+10   5.096437e+10   1.314731e+06   5.592728e-21   0.000000e+00   0.000000e+00
      344000   3.439990e-06   3.312663e+00   3.271293e+00   3.220691e+00   1.035033e+06  -5.353220e+05  -6.088147e+05   5.334395e+10   4.442552e+10   5.162607e+10   1.314731e+06   5.577876e-21   0.000000e+00   0.000000e+00
      352000   3.519990e-06   3.395636e+00   3.228609e+00   3.172152e+00   1.039282e+06  -5.317813e+05  -6.046647e+05   5.289185e+10   4.409735e+10   5.212696e+10   1.314731e+06   5.559162e-21   0.000000e+00   0.000000e+00
      360000   3.599990e-06   3.478948e+00   3.186207e+00   3.123946e+00   1.043497e+06  -5.282699e+05  -6.004693e+05   5.247605e+10   4.374825e+10   5.270484e+10   1.314731e+06   5.548804e-21   0.000000e+00   0.000000e+00
      368000   3.679990e-06   3.562595e+00   3.144085e+00   3.076078e+00   1.047677e+06  -5.247892e+05  -5.962277e+05   5.203390e+10   4.328571e+10   5.333326e+10   1.314731e+06   5.534027e-21   0.000000e+00   0.000000e+00
      376000   3.759990e-06   3.646575e+00   3.102240e+00   3.028551e+00   1.051824e+06  -5.213354e+05  -5.919415e+05   5.162763e+10   4.305361e+10   5.381902e+10   1.314731e+06   5.526497e-21   0.000000e+00   0.000000e+00
      384000   3.839990e-06   3.730886e+00   3.060670e+00   2.981368e+00   1.055936e+06  -5.179075e+05  -5.876126e+05   5.117738e+10   4.271518e+10   5.431720e+10   1.314731e+06   5.510517e-21   0.000000e+00   0.000000e+00
      392000   3.919990e-06   3.815524e+00   3.019374e+00   2.934533e+00   1.060012e+06  -5.145001e+05  -5.832511e+05   5.074996e+10   4.247229e+10   5.476803e+10   1.314731e+06   5.499279e-21   0.000000e+00   0.000000e+00
      400000   3.999990e-06   3.900487e+00   2.978350e+00   2.888049e+00   1.064053e+06  -5.111132e+05  -5.788540e+05   5.027501e+10   4.218282e+10   5.516940e+10   1.314731e+06   5.478143e-21   0.000000e+00   0.000000e+00
      408000   4.079990e-06   3.985771e+00   2.937595e+00   2.841918e+00   1.068057e+06  -5.077509e+05  -5.744232e+05   4.981138e+10   4.187504e+10   5.560225e+10   1.314731e+06   5.460013e-21   0.000000e+00   0.000000e+00
      416000   4.159990e-06   4.071375e+00   2.897109e+00   2.796142e+00   1.072026e+06  -5.044135e+05  -5.699516e+05   4.935797e+10   4.151597e+10   5.609556e+10   1.314731e+06   5.445252e-21   0.000000e+00   0.000000e+00
      424000   4.239990e-06   4.157294e+00   2.856888e+00   2.750726e+00   1.075957e+06  -5.011072e+05  -5.654441e+05   4.891225e+10   4.115223e+10   5.660279e+10   1.314731e+06   5.432800e-21   0.000000e+00   0.000000e+00
      432000   4.319990e-06   4.243527e+00   2.816931e+00   2.705672e+00   1.079854e+06  -4.978268e+05  -5.608946e+05   4.850428e+10   4.085771e+10   5.711837e+10   1.314731e+06   5.428878e-21   0.000000e+00   0.000000e+00
      440000   4.399990e-06   4.330070e+00   2.777235e+00   2.660984e+00   1.083717e+06  -4.945692e+05  -5.563068e+05   4.811388e+10   4.051970e+10   5.770548e+10   1.314731e+06   5.430507e-21   0.000000e+00   0.000000e+00
      448000   4.479990e-06   4.416921e+00   2.737799e+00   2.616665e+00   1.087549e+06  -4.913381e+05  -5.516724e+05   4.765138e+10   4.028770e+10   5.805665e+10   1.314731e+06   5.413825e-21   0.000000e+00   0.000000e+00
      456000   4.559990e-06   4.504077e+00   2.698621e+00   2.572717e+00   1.091345e+06  -4.881289e+05  -5.470049e+05   4.722548e+10   3.994876e+10   5.857182e+10   1.314731e+06   5.408221e-21   0.000000e+00   0.000000e+00
      464000   4.639990e-06   4.591535e+00   2.659698e+00   2.529145e+00   1.095104e+06  -4.849407e+05  -5.423076e+05   4.675562e+10   3.975921e+10   5.886208e+10   1.314731e+06   5.389455e-21   0.000000e+00   0.000000e+00
      472000   4.719990e-06   4.679293e+00   2.621030e+00   2.485949e+00   1.098825e+06  -4.817667e+05  -5.375890e+05   4.624976e+10   3.958427e+10   5.905990e+10   1.314731e+06   5.361434e-21   0.000000e+00   0.000000e+00
      480000   4.799990e-06   4.767346e+00   2.582615e+00   2.443131e+00   1.102507e+06  -4.786072e+05  -5.328517e+05   4.575895e+10   3.943463e+10   5.925815e+10   1.314731e+06   5.336449e-21   0.000000e+00   0.000000e+00
      488000   4.879990e-06   4.855693e+00   2.544452e+00   2.400693e+00   1.106151e+06  -4.754647e+05  -5.280923e+05   4.531925e+10   3.914325e+10   5.968395e+10   1.314731e+06   5.327282e-21   0.000000e+00   0.000000e+00
      496000   4.959990e-06   4.944329e+00   2.506540e+00   2.358636e+00   1.109754e+06  -4.723397e+05  -5.233156e+05   4.481140e+10   3.891707e+10   5.990170e+10   1.314731e+06   5.299420e-21   0.000000e+00   0.000000e+00
      504000   5.039990e-06   5.033252e+00   2.468877e+00   2.316963e+00   1.113315e+06  -4.692309e+05  -5.185266e+05   4.429957e+10   3.871552e+10   6.007945e+10   1.314731e+06   5.269661e-21   0.000000e+00   0.000000e+00
      512000   5.119990e-06   5.122459e+00   2.431463e+00   2.275673e+00   1.116839e+06  -4.661437e+05  -5.137120e+05   4.377841e+10   3.850221e+10   6.023957e+10   1.314731e+06   5.237534e-21   0.000000e+00   0.000000e+00
      520000   5.199990e-06   5.211945e+00   2.394294e+00   2.234769e+00   1.120320e+06  -4.630745e+05  -5.088839e+05   4.326008e+10   3.823343e+10   6.044629e+10   1.314731e+06   5.207133e-21   0.000000e+00   0.000000e+00
      528000   5.279990e-06   5.301709e+00   2.357370e+00   2.194252e+00   1.123762e+06  -4.600260e+05  -5.040362e+05   4.273820e+10   3.805493e+10   6.055370e+10   1.314731e+06   5.173223e-21   0.000000e+00   0.000000e+00
      536000   5.359990e-06   5.391746e+00   2.320690e+00   2.154123e+00   1.127161e+06  -4.569890e+05  -4.991857e+05   4.224033e+10   3.787154e+10   6.070833e+10   1.314731e+06   5.145289e-21   0.000000e+00   0.000000e+00
      544000   5.439990e-06   5.482054e+00   2.284251e+00   2.114383e+00   1.130524e+06  -4.539685e+05  -4.943131e+05   4.174365e+10   3.772071e+10   6.082810e+10   1.314731e+06   5.116553e-21   0.000000e+00   0.000000e+00
      552000   5.519990e-06   5.572629e+00   2.248054e+00   2.075033e+00   1.133847e+06  -4.509644e+05  -4.894286e+05   4.126718e+10   3.744916e+10   6.109648e+10   1.314731e+06   5.096251e-21   0.000000e+00   0.000000e+00
      560000   5.599990e-06   5.663468e+00   2.212097e+00   2.036075e+00   1.137131e+06  -4.479797e+05  -4.845259e+05   4.080343e+10   3.720028e+10   6.136681e+10   1.314731e+06   5.078712e-21   0.000000e+00   0.000000e+00
      568000   5.679990e-06   5.754569e+00   2.176377e+00   1.997509e+00   1.140373e+06  -4.450098e+05  -4.796176e+05   4.024215e+10   3.693254e+10   6.141489e+10   1.314731e+06   5.034420e-21   0.000000e+00   0.000000e+00
      576000   5.759990e-06   5.845927e+00   2.140895e+00   1.959336e+00   1.143571e+06  -4.420546e+05  -4.747114e+05   3.969769e+10   3.696580e+10   6.120806e+10   1.314731e+06   4.984914e-21   0.000000e+00   0.000000e+00
      584000   5.839990e-06   5.937539e+00   2.105648e+00   1.921555e+00   1.146725e+06  -4.391054e+05  -4.698148e+05   3.915995e+10   3.673234e+10   6.125023e+10   1.314731e+06   4.944337e-21   0.000000e+00   0.000000e+00
      592000   5.919990e-06   6.029402e+00   2.070637e+00   1.884166e+00   1.149835e+06  -4.361695e+05  -4.649229e+05   3.861117e+10   3.661593e+10   6.114062e+10   1.314731e+06   4.896168e-21   0.000000e+00   0.000000e+00
      600000   5.999990e-06   6.121512e+00   2.035861e+00   1.847167e+00   1.152903e+06  -4.332488e+05  -4.600313e+05   3.807897e+10   3.635946e+10   6.118845e+10   1.314731e+06   4.856164e-21   0.000000e+00   0.000000e+00
      608000   6.079990e-06   6.213865e+00   2.001317e+00   1.810561e+00   1.155927e+06  -4.303466e+05  -4.551403e+05   3.753135e+10   3.619770e+10   6.109299e+10   1.314731e+06   4.807859e-21   0.000000e+00   0.000000e+00
      616000   6.159990e-06   6.306459e+00   1.967005e+00   1.774345e+00   1.158913e+06  -4.274628e+05  -4.502384e+05   3.697313e+10   3.602478e+10   6.096619e+10   1.314731e+06   4.756021e-21   0.000000e+00   0.000000e+00
      624000   6.239990e-06   6.399290e+00   1.932923e+00   1.738521e+00   1.161850e+06  -4.245868e+05  -4.453649e+05   3.644405e+10   3.587587e+10   6.087147e+10   1.314731e+06   4.710492e-21   0.000000e+00   0.000000e+00
      632000   6.319990e-06   6.492354e+00   1.899070e+00   1.703088e+00   1.164751e+06  -4.217279e+05  -4.404764e+05   3.592983e+10   3.580284e+10   6.073013e+10   1.314731e+06   4.666047e-21   0.000000e+00   0.000000e+00
      640000   6.399990e-06   6.585649e+00   1.865446e+00   1.668045e+00   1.167609e+06  -4.188788e+05  -4.356002e+05   3.546778e+10   3.550678e+10   6.092608e+10   1.314731e+06   4.643493e-21   0.000000e+00   0.000000e+00
      648000   6.479990e-06   6.679170e+00   1.832049e+00   1.633392e+00   1.170427e+06  -4.160525e+05  -4.307209e+05   3.494259e+10   3.520996e+10   6.094082e+10   1.314731e+06   4.601630e-21   0.000000e+00   0.000000e+00
      656000   6.559990e-06   6.772916e+00   1.798878e+00   1.599129e+00   1.173201e+06  -4.132409e+05  -4.258525e+05   3.440684e+10   3.504984e+10   6.077703e+10   1.314731e+06   4.550699e-21   0.000000e+00   0.000000e+00
      664000   6.639990e-06   6.866881e+00   1.765930e+00   1.565255e+00   1.175931e+06  -4.104442e+05  -4.209983e+05   3.385159e+10   3.485646e+10   6.057140e+10   1.314731e+06   4.493783e-21   0.000000e+00   0.000000e+00
      672000   6.719990e-06   6.961064e+00   1.733206e+00   1.531769e+00   1.178618e+06  -4.076687e+05  -4.161530e+05   3.332128e+10   3.453847e+10   6.053726e+10   1.314731e+06   4.447708e-21   0.000000e+00   0.000000e+00
      680000   6.799990e-06   7.055459e+00   1.700703e+00   1.498670e+00   1.181263e+06  -4.049127e+05  -4.113185e+05   3.277302e+10   3.429505e+10   6.035951e+10   1.314731e+06   4.392201e-21   0.000000e+00   0.000000e+00
      688000   6.879990e-06   7.150064e+00   1.668420e+00   1.465957e+00   1.183861e+06  -4.021678e+05  -4.065139e+05   3.221919e+10   3.414564e+10   6.004888e+10   1.314731e+06   4.329880e-21   0.000000e+00   0.000000e+00
      696000   6.959990e-06   7.244876e+00   1.636355e+00   1.433627e+00   1.186416e+06  -3.994403e+05  -4.017263e+05   3.165563e+10   3.405477e+10   5.962721e+10   1.314731e+06   4.260825e-21   0.000000e+00   0.000000e+00
      704000   7.039990e-06   7.339890e+00   1.604509e+00   1.401680e+00   1.188926e+06  -3.967236e+05  -3.969689e+05   3.110151e+10   3.384877e+10   5.932134e+10   1.314731e+06   4.197369e-21   0.000000e+00   0.000000e+00
      712000   7.119990e-06   7.435103e+00   1.572879e+00   1.370112e+00   1.191392e+06  -3.940234e+05  -3.922352e+05   3.055586e+10   3.363264e+10   5.902560e+10   1.314731e+06   4.135344e-21   0.000000e+00   0.000000e+00
      720000   7.199990e-06   7.530511e+00   1.541465e+00   1.338921e+00   1.193815e+06  -3.913401e+05  -3.875276e+05   3.002073e+10   3.347750e+10   5.867467e+10   1.314731e+06   4.072642e-21   0.000000e+00   0.000000e+00
      728000   7.279990e-06   7.626112e+00   1.510264e+00   1.308107e+00   1.196195e+06  -3.886685e+05  -3.828471e+05   2.950167e+10   3.331211e+10   5.835837e+10   1.314731e+06   4.013796e-21   0.000000e+00   0.000000e+00
      736000   7.359990e-06   7.721901e+00   1.479277e+00   1.277665e+00   1.198531e+06  -3.860185e+05  -3.781942e+05   2.901430e+10   3.309849e+10   5.816552e+10   1.314731e+06   3.965221e-21   0.000000e+00   0.000000e+00
      744000   7.439990e-06   7.817876e+00   1.448501e+00   1.247595e+00   1.200831e+06  -3.833798e+05  -3.735560e+05   2.842536e+10   3.285138e+10   5.766052e+10   1.314731e+06   3.884276e-21   0.000000e+00   0.000000e+00
      752000   7.519990e-06   7.914033e+00   1.417936e+00   1.217895e+00   1.203082e+06  -3.807624e+05  -3.689614e+05   2.789255e+10   3.260637e+10   5.730055e+10   1.314731e+06   3.819117e-21   0.000000e+00   0.000000e+00
      760000   7.599990e-06   8.010368e+00   1.387579e+00   1.188561e+00   1.205293e+06  -3.781637e+05  -3.643890e+05   2.731269e+10   3.229442e+10   5.682710e+10   1.314731e+06   3.739905e-21   0.000000e+00   0.000000e+00
      768000   7.679990e-06   8.106878e+00   1.357429e+00   1.159591e+00   1.207456e+06  -3.755903e+05  -3.598603e+05   2.686775e+10   3.214919e+10   5.659602e+10   1.314731e+06   3.695430e-21   0.000000e+00   0.000000e+00
      776000   7.759990e-06   8.203560e+00   1.327484e+00   1.130983e+00   1.209584e+06  -3.730301e+05  -3.553496e+05   2.628969e+10   3.183465e+10   5.606944e+10   1.314731e+06   3.613317e-21   0.000000e+00   0.000000e+00
      784000   7.839990e-06   8.300410e+00   1.297743e+00   1.102734e+00   1.211666e+06  -3.704938e+05  -3.508830e+05   2.574811e+10   3.157412e+10   5.557419e+10   1.314731e+06   3.538795e-21   0.000000e+00   0.000000e+00
      792000   7.919990e-06   8.397426e+00   1.268205e+00   1.074841e+00   1.213705e+06  -3.679810e+05  -3.464516e+05   2.522516e+10   3.125754e+10   5.516984e+10   1.314731e+06   3.470732e-21   0.000000e+00   0.000000e+00
      800000   7.999990e-06   8.494602e+00   1.238866e+00   1.047301e+00   1.215702e+06  -3.654894e+05  -3.420610e+05   2.470108e+10   3.100496e+10   5.466016e+10   1.314731e+06   3.397793e-21   0.000000e+00   0.000000e+00
      808000   8.079990e-06   8.591937e+00   1.209726e+00   1.020110e+00   1.217660e+06  -3.630184e+05  -3.376993e+05   2.422733e+10   3.075334e+10   5.429851e+10   1.314731e+06   3.339570e-21   0.000000e+00   0.000000e+00
      816000   8.159990e-06   8.689427e+00   1.180782e+00   9.932676e-01   1.219577e+06  -3.605689e+05  -3.333778e+05   2.369556e+10   3.049026e+10   5.370684e+10   1.314731e+06   3.260946e-21   0.000000e+00   0.000000e+00
      824000   8.239990e-06   8.787068e+00   1.152034e+00   9.667688e-01   1.221452e+06  -3.581431e+05  -3.290991e+05   2.318006e+10   3.017226e+10   5.319769e+10   1.314731e+06   3.187996e-21   0.000000e+00   0.000000e+00
      832000   8.319990e-06   8.884858e+00   1.123479e+00   9.406102e-01   1.223285e+06  -3.557384e+05  -3.248746e+05   2.263566e+10   2.993191e+10   5.245679e+10   1.314731e+06   3.100304e-21   0.000000e+00   0.000000e+00
      840000   8.399990e-06   8.982792e+00   1.095115e+00   9.147877e-01   1.225076e+06  -3.533545e+05  -3.206994e+05   2.209128e+10   2.967634e+10   5.169072e+10   1.314731e+06   3.011345e-21   0.000000e+00   0.000000e+00
      848000   8.479990e-06   9.080869e+00   1.066942e+00   8.892969e-01   1.226825e+06  -3.509930e+05  -3.165783e+05   2.158160e+10   2.935599e+10   5.108711e+10   1.314731e+06   2.934428e-21   0.000000e+00   0.000000e+00
      856000   8.559990e-06   9.179083e+00   1.038956e+00   8.641339e-01   1.228536e+06  -3.486534e+05  -3.125022e+05   2.113992e+10   2.910364e+10   5.063656e+10   1.314731e+06   2.875214e-21   0.000000e+00   0.000000e+00
      864000   8.639990e-06   9.277433e+00   1.011157e+00   8.392947e-01   1.230205e+06  -3.463343e+05  -3.084915e+05   2.058538e+10   2.882940e+10   4.972451e+10   1.314731e+06   2.777913e-21   0.000000e+00   0.000000e+00
      872000   8.719990e-06   9.375915e+00   9.835417e-01   8.147737e-01   1.231831e+06  -3.440415e+05  -3.045438e+05   2.005560e+10   2.848768e+10   4.893921e+10   1.314731e+06   2.689527e-21   0.000000e+00   0.000000e+00
      880000   8.799990e-06   9.474525e+00   9.561092e-01   7.905662e-01   1.233416e+06  -3.417756e+05  -3.006531e+05   1.956123e+10   2.813043e+10   4.827093e+10   1.314731e+06   2.611440e-21   0.000000e+00   0.000000e+00
      888000   8.879990e-06   9.573261e+00   9.288568e-01   7.666677e-01   1.234961e+06  -3.395406e+05  -2.968179e+05   1.905910e+10   2.772275e+10   4.758547e+10   1.314731e+06   2.531051e-21   0.000000e+00   0.000000e+00
      896000   8.959990e-06   9.672118e+00   9.017819e-01   7.430738e-01   1.236467e+06  -3.373362e+05  -2.930384e+05   1.858971e+10   2.738282e+10   4.691644e+10   1.314731e+06   2.456800e-21   0.000000e+00   0.000000e+00
      904000   9.039990e-06   9.771094e+00   8.748821e-01   7.197800e-01   1.237935e+06  -3.351611e+05  -2.893144e+05   1.812167e+10   2.701270e+10   4.624659e+10   1.314731e+06   2.382483e-21   0.000000e+00   0.000000e+00
      912000   9.119990e-06   9.870187e+00   8.481553e-01   6.967818e-01   1.239364e+06  -3.330168e+05  -2.856507e+05   1.760314e+10   2.652768e+10   4.544885e+10   1.314731e+06   2.294809e-21   0.000000e+00   0.000000e+00
      920000   9.199990e-06   9.969392e+00   8.215986e-01   6.740743e-01   1.240754e+06  -3.309024e+05  -2.820492e+05   1.715701e+10   2.629291e+10   4.462768e+10   1.314731e+06   2.218884e-21   0.000000e+00   0.000000e+00
      928000   9.279990e-06   1.006871e+01   7.952101e-01   6.516526e-01   1.242109e+06  -3.288166e+05  -2.785028e+05   1.670810e+10   2.593545e+10   4.389630e+10   1.314731e+06   2.145389e-21   0.000000e+00   0.000000e+00
      936000   9.359990e-06   1.016813e+01   7.689872e-01   6.295121e-01   1.243426e+06  -3.267634e+05  -2.750186e+05   1.622138e+10   2.541531e+10   4.314352e+10   1.314731e+06   2.064709e-21   0.000000e+00   0.000000e+00
      944000   9.439990e-06   1.026765e+01   7.429271e-01   6.076478e-01   1.244706e+06  -3.247422e+05  -2.716012e+05   1.577744e+10   2.509209e+10   4.230391e+10   1.314731e+06   1.988488e-21   0.000000e+00   0.000000e+00
      952000   9.519990e-06   1.036728e+01   7.170276e-01   5.860543e-01   1.245952e+06  -3.227523e+05  -2.682419e+05   1.535879e+10   2.464970e+10   4.168082e+10   1.314731e+06   1.923373e-21   0.000000e+00   0.000000e+00
      960000   9.599990e-06   1.046700e+01   6.912858e-01   5.647273e-01   1.247162e+06  -3.207958e+05  -2.649444e+05   1.494366e+10   2.425805e+10   4.097186e+10   1.314731e+06   1.856052e-21   0.000000e+00   0.000000e+00
      968000   9.679990e-06   1.056682e+01   6.656994e-01   5.436609e-01   1.248331e+06  -3.188702e+05  -2.617431e+05   1.431355e+10   2.386845e+10   3.918762e+10   1.314731e+06   1.721753e-21   0.000000e+00   0.000000e+00
      976000   9.759990e-06   1.066674e+01   6.402657e-01   5.228465e-01   1.249464e+06  -3.169784e+05  -2.586162e+05   1.399176e+10   2.342664e+10   3.888560e+10   1.314731e+06   1.681815e-21   0.000000e+00   0.000000e+00
      984000   9.839990e-06   1.076674e+01   6.149820e-01   5.022803e-01   1.250563e+06  -3.151201e+05  -2.555578e+05   1.347866e+10   2.302478e+10   3.756615e+10   1.314731e+06   1.582224e-21   0.000000e+00   0.000000e+00
      992000   9.919990e-06   1.086683e+01   5.898454e-01   4.819558e-01   1.251628e+06  -3.133020e+05  -2.525600e+05   1.314485e+10   2.244201e+10   3.730329e+10   1.314731e+06   1.541185e-21   0.000000e+00   0.000000e+00
     1000000   9.999990e-06   1.096700e+01   5.648527e-01   4.618680e-01   1.252653e+06  -3.115196e+05  -2.496677e+05   1.251940e+10   2.208102e+10   3.526197e+10   1.314731e+06   1.406851e-21   0.000000e+00   0.000000e+00
     1008000   1.007999e-05   1.106725e+01   5.400012e-01   4.420073e-01   1.253643e+06  -3.097755e+05  -2.468522e+05   1.220319e+10   2.154032e+10   3.494302e+10   1.314731e+06   1.366757e-21   0.000000e+00   0.000000e+00
     1016000   1.015999e-05   1.116758e+01   5.152876e-01   4.223693e-01   1.254599e+06  -3.080689e+05  -2.441160e+05   1.170933e+10   2.111281e+10   3.353448e+10   1.314731e+06   1.272485e-21   0.000000e+00   0.000000e+00
     1024000   1.023999e-05   1.126798e+01   4.907091e-01   4.029463e-01   1.255519e+06  -3.064001e+05  -2.414759e+05   1.125444e+10   2.059378e+10   3.238501e+10   1.314731e+06   1.192097e-21   0.000000e+00   0.000000e+00
     1032000   1.031999e-05   1.136846e+01   4.662624e-01   3.837312e-01   1.256405e+06  -3.047749e+05  -2.389097e+05   1.088616e+10   2.005505e+10   3.166525e+10   1.314731e+06   1.135341e-21   0.000000e+00   0.000000e+00
     1040000   1.039999e-05   1.146901e+01   4.419441e-01   3.647185e-01   1.257259e+06  -3.031886e+05  -2.364239e+05   1.045564e+10   1.957523e+10   3.049796e+10   1.314731e+06   1.060245e-21   0.000000e+00   0.000000e+00
     1048000   1.047999e-05   1.156962e+01   4.177510e-01   3.459012e-01   1.258079e+06  -3.016464e+05  -2.340217e+05   1.005049e+10   1.897494e+10   2.957233e+10   1.314731e+06   9.953667e-22   0.000000e+00   0.000000e+00
     1056000   1.055999e-05   1.167030e+01   3.936795e-01   3.272730e-01   1.258867e+06  -3.001479e+05  -2.316974e+05   9.652550e+09   1.841797e+10   2.858535e+10   1.314731e+06   9.312243e-22   0.000000e+00   0.000000e+00
     1064000   1.063999e-05   1.177104e+01   3.697262e-01   3.088273e-01   1.259623e+06  -2.986892e+05  -2.294615e+05   9.252653e+09   1.801192e+10   2.734612e+10   1.314731e+06   8.629101e-22   0.000000e+00   0.000000e+00
     1072000   1.071999e-05   1.187184e+01   3.458882e-01   2.905569e-01   1.260349e+06  -2.972707e+05  -2.273106e+05   8.875661e+09   1.745017e+10   2.639117e+10   1.314731e+06   8.047263e-22   0.000000e+00   0.000000e+00
     1080000   1.079999e-05   1.197269e+01   3.221617e-01   2.724552e-01   1.261041e+06  -2.959002e+05  -2.252495e+05   8.433693e+09   1.681509e+10   2.512607e+10   1.314731e+06   7.342357e-22   0.000000e+00   0.000000e+00
     1088000   1.087999e-05   1.207360e+01   2.985429e-01   2.545146e-01   1.261701e+06  -2.945778e+05  -2.232807e+05   8.002253e+09   1.624735e+10   2.378319e+10   1.314731e+06   6.660137e-22   0.000000e+00   0.000000e+00
     1096000   1.095999e-05   1.217457e+01   2.750279e-01   2.367276e-01   1.262328e+06  -2.933058e+05  -2.214006e+05   7.656742e+09   1.555415e+10   2.304958e+10   1.314731e+06   6.199460e-22   0.000000e+00   0.000000e+00
     1104000   1.103999e-05   1.227558e+01   2.516126e-01   2.190876e-01   1.262922e+06  -2.920838e+05  -2.196210e+05   7.203179e+09   1.496557e+10   2.151819e+10   1.314731e+06   5.506715e-22   0.000000e+00   0.000000e+00
     1112000   1.111999e-05   1.237663e+01   2.282930e-01   2.015858e-01   1.263483e+06  -2.909145e+05  -2.179377e+05   6.821892e+09   1.427803e+10   2.049052e+10   1.314731e+06   4.995270e-22   0.000000e+00   0.000000e+00
     1120000   1.119999e-05   1.247773e+01   2.050649e-01   1.842149e-01   1.264012e+06  -2.897990e+05  -2.163512e+05   6.407949e+09   1.359663e+10   1.922537e+10   1.314731e+06   4.438435e-22   0.000000e+00   0.000000e+00
     1128000   1.127999e-05   1.257887e+01   1.819239e-01   1.669669e-01   1.264510e+06  -2.887343e+05  -2.148645e+05   6.014322e+09   1.300006e+10   1.792571e+10   1.314731e+06   3.923901e-22   0.000000e+00   0.000000e+00
     1136000   1.135999e-05   1.268005e+01   1.588661e-01   1.498333e-01   1.264972e+06  -2.877195e+05  -2.134982e+05   5.570591e+09   1.236726e+10   1.633895e+10   1.314731e+06   3.360758e-22   0.000000e+00   0.000000e+00
     1144000   1.143999e-05   1.278127e+01   1.358873e-01   1.328047e-01   1.265403e+06  -2.867575e+05  -2.122328e+05   5.192899e+09   1.166776e+10   1.519694e+10   1.314731e+06   2.936759e-22   0.000000e+00   0.000000e+00
     1152000   1.151999e-05   1.288252e+01   1.129834e-01   1.158730e-01   1.265802e+06  -2.858487e+05  -2.110792e+05   4.774238e+09   1.103267e+10   1.368946e+10   1.314731e+06   2.473686e-22   0.000000e+00   0.000000e+00
     1160000   1.159999e-05   1.298380e+01   9.015008e-02   9.902903e-02   1.266167e+06  -2.849949e+05  -2.100393e+05   4.321279e+09   1.012396e+10   1.231285e+10   1.314731e+06   2.032934e-22   0.000000e+00   0.000000e+00
     1168000   1.167999e-05   1.308510e+01   6.738261e-02   8.226387e-02   1.266501e+06  -2.841986e+05  -2.091078e+05   3.973618e+09   9.648155e+09   1.095413e+10   1.314731e+06   1.705720e-22   0.000000e+00   0.000000e+00
     1176000   1.175999e-05   1.318644e+01   4.467635e-02   6.556875e-02   1.266799e+06  -2.834704e+05  -2.082895e+05   3.504720e+09   8.674498e+09   9.509887e+09   1.314731e+06   1.326368e-22   0.000000e+00   0.000000e+00
     1184000   1.183999e-05   1.328779e+01   2.202609e-02   4.893454e-02   1.267065e+06  -2.827941e+05  -2.075846e+05   3.138663e+09   8.115260e+09   8.102444e+09   1.314731e+06   1.053523e-22   0.000000e+00   0.000000e+00
