     timestep     time              x             y              z              vx             vy             vz             ax             ay             az         v_magnitude      ELoss        Electronic      Nuclear
           0   0.000000e+00   1.000000e-01   7.667183e+00   1.502720e+01   2.957286e+06  -1.156153e+06   1.397036e+06   0.000000e+00   0.000000e+00   0.000000e+00   3.468997e+06   0.000000e+00   0.000000e+00   0.000000e+00
        8000   7.999000e-08   3.381565e-01   7.579181e+00   1.513922e+01   2.995730e+06  -1.043011e+06   1.404162e+06   4.462306e+11   1.447761e+12   1.233950e+11   3.468997e+06   1.198998e-17   0.000000e+00   0.000000e+00
       16000   1.599900e-07   5.791649e-01   7.500441e+00   1.525202e+01   3.028479e+06  -9.246166e+05   1.416806e+06   3.713499e+11   1.511541e+12   1.926833e+11   3.468997e+06   1.276544e-17   0.000000e+00   0.000000e+00
       24000   2.399900e-07   8.225455e-01   7.431373e+00   1.536605e+01   3.054934e+06  -8.013266e+05   1.434990e+06   2.888362e+11   1.569477e+12   2.615445e+11   3.468998e+06   1.357143e-17   0.000000e+00   0.000000e+00
       32000   3.199900e-07   1.067771e+00   7.372345e+00   1.548176e+01   3.074518e+06  -6.736922e+05   1.458569e+06   1.997740e+11   1.620180e+12   3.272535e+11   3.468998e+06   1.438569e-17   0.000000e+00   0.000000e+00
       40000   3.999900e-07   1.314272e+00   7.323682e+00   1.559956e+01   3.086742e+06  -5.423103e+05   1.487237e+06   1.049292e+11   1.662424e+12   3.884313e+11   3.468998e+06   1.518260e-17   0.000000e+00   0.000000e+00
       48000   4.799900e-07   1.561443e+00   7.285654e+00   1.571984e+01   3.091208e+06  -4.079524e+05   1.520513e+06   6.119060e+09   1.694914e+12   4.423243e+11   3.468999e+06   1.592411e-17   0.000000e+00   0.000000e+00
       56000   5.599900e-07   1.808652e+00   7.258470e+00   1.584295e+01   3.087677e+06  -2.713614e+05   1.557745e+06  -9.473243e+10   1.717291e+12   4.869486e+11   3.468999e+06   1.658198e-17   0.000000e+00   0.000000e+00
       64000   6.399900e-07   2.055255e+00   7.242272e+00   1.596916e+01   3.076061e+06  -1.334403e+05   1.598123e+06  -1.955698e+11   1.728926e+12   5.208147e+11   3.468999e+06   1.711912e-17   0.000000e+00   0.000000e+00
       72000   7.199900e-07   2.300608e+00   7.237133e+00   1.609871e+01   3.056442e+06   4.994826e+03   1.640762e+06  -2.943907e+11   1.729519e+12   5.431520e+11   3.469000e+06   1.750440e-17   0.000000e+00   0.000000e+00
       80000   7.999900e-07   2.544080e+00   7.243060e+00   1.623172e+01   3.029084e+06   1.430400e+05   1.684681e+06  -3.887320e+11   1.719627e+12   5.529597e+11   3.469000e+06   1.771761e-17   0.000000e+00   0.000000e+00
       88000   8.799900e-07   2.785066e+00   7.259988e+00   1.636826e+01   2.994402e+06   2.798980e+05   1.728924e+06  -4.772861e+11   1.700417e+12   5.513702e+11   3.469001e+06   1.776556e-17   0.000000e+00   0.000000e+00
       96000   9.599900e-07   3.023004e+00   7.287790e+00   1.650833e+01   2.952965e+06   4.147817e+05   1.772547e+06  -5.574371e+11   1.670600e+12   5.377528e+11   3.469001e+06   1.759738e-17   0.000000e+00   0.000000e+00
      104000   1.039990e-06   3.257378e+00   7.326282e+00   1.665183e+01   2.905443e+06   5.470113e+05   1.814704e+06  -6.288801e+11   1.633471e+12   5.145090e+11   3.469001e+06   1.727368e-17   0.000000e+00   0.000000e+00
      112000   1.119990e-06   3.487733e+00   7.375225e+00   1.679862e+01   2.852621e+06   6.759595e+05   1.854618e+06  -6.902078e+11   1.589922e+12   4.821534e+11   3.469002e+06   1.679766e-17   0.000000e+00   0.000000e+00
      120000   1.199990e-06   3.713678e+00   7.434335e+00   1.694850e+01   2.795316e+06   8.011181e+05   1.891664e+06  -7.407222e+11   1.538665e+12   4.429599e+11   3.469002e+06   1.615240e-17   0.000000e+00   0.000000e+00
      128000   1.279990e-06   3.934886e+00   7.503291e+00   1.710120e+01   2.734366e+06   9.220553e+05   1.925366e+06  -7.806391e+11   1.483339e+12   3.982944e+11   3.469002e+06   1.540489e-17   0.000000e+00   0.000000e+00
      136000   1.359990e-06   4.151103e+00   7.581741e+00   1.725645e+01   2.670664e+06   1.038415e+06   1.955307e+06  -8.101408e+11   1.424974e+12   3.497801e+11   3.469003e+06   1.457919e-17   0.000000e+00   0.000000e+00
      144000   1.439990e-06   4.362141e+00   7.669308e+00   1.741394e+01   2.605029e+06   1.149924e+06   1.981283e+06  -8.289272e+11   1.362382e+12   2.991850e+11   3.469003e+06   1.366317e-17   0.000000e+00   0.000000e+00
      152000   1.519990e-06   4.567879e+00   7.765593e+00   1.757335e+01   2.538298e+06   1.256342e+06   2.003156e+06  -8.377007e+11   1.297746e+12   2.475821e+11   3.469003e+06   1.270031e-17   0.000000e+00   0.000000e+00
      160000   1.599990e-06   4.768261e+00   7.870183e+00   1.773434e+01   2.471257e+06   1.357505e+06   2.020904e+06  -8.371267e+11   1.231507e+12   1.964472e+11   3.469004e+06   1.170803e-17   0.000000e+00   0.000000e+00
      168000   1.679990e-06   4.963290e+00   7.982652e+00   1.789659e+01   2.404604e+06   1.453313e+06   2.034637e+06  -8.280868e+11   1.163959e+12   1.472722e+11   3.469004e+06   1.070245e-17   0.000000e+00   0.000000e+00
      176000   1.759990e-06   5.153026e+00   8.102568e+00   1.805978e+01   2.339022e+06   1.543698e+06   2.044495e+06  -8.106183e+11   1.095807e+12   1.000137e+11   3.469004e+06   9.693989e-18   0.000000e+00   0.000000e+00
      184000   1.839990e-06   5.337578e+00   8.229497e+00   1.822361e+01   2.275127e+06   1.628613e+06   2.050710e+06  -7.857387e+11   1.027346e+12   5.584562e+10   3.469004e+06   8.697798e-18   0.000000e+00   0.000000e+00
      192000   1.919990e-06   5.517105e+00   8.363002e+00   1.838780e+01   2.213448e+06   1.708099e+06   2.053543e+06  -7.550668e+11   9.595089e+11   1.576784e+10   3.469005e+06   7.738156e-18   0.000000e+00   0.000000e+00
      200000   1.999990e-06   5.691803e+00   8.502648e+00   1.855209e+01   2.154488e+06   1.782142e+06   2.053325e+06  -7.180983e+11   8.915086e+11  -2.028281e+10   3.469005e+06   6.803133e-18   0.000000e+00   0.000000e+00
      208000   2.079990e-06   5.861907e+00   8.648002e+00   1.871626e+01   2.098667e+06   1.850814e+06   2.050385e+06  -6.765926e+11   8.251923e+11  -5.234294e+10   3.469005e+06   5.923966e-18   0.000000e+00   0.000000e+00
      216000   2.159990e-06   6.027684e+00   8.798636e+00   1.888009e+01   2.046386e+06   1.914161e+06   2.045064e+06  -6.298806e+11   7.586986e+11  -7.984205e+10   3.469005e+06   5.079530e-18   0.000000e+00   0.000000e+00
      224000   2.239990e-06   6.189431e+00   8.954127e+00   1.904342e+01   1.997967e+06   1.972252e+06   2.037731e+06  -5.797782e+11   6.935407e+11  -1.027865e+11   3.469005e+06   4.295662e-18   0.000000e+00   0.000000e+00
      232000   2.319990e-06   6.347469e+00   9.114059e+00   1.920608e+01   1.953695e+06   2.025176e+06   2.028728e+06  -5.264882e+11   6.295935e+11  -1.214719e+11   3.469005e+06   3.572346e-18   0.000000e+00   0.000000e+00
      240000   2.399990e-06   6.502140e+00   9.278019e+00   1.936798e+01   1.913815e+06   2.072989e+06   2.018422e+06  -4.700893e+11   5.655953e+11  -1.351565e+11   3.469005e+06   2.901909e-18   0.000000e+00   0.000000e+00
      248000   2.479990e-06   6.653802e+00   9.445601e+00   1.952901e+01   1.878540e+06   2.115721e+06   2.007190e+06  -4.111374e+11   5.024582e+11  -1.448388e+11   3.469005e+06   2.296403e-18   0.000000e+00   0.000000e+00
      256000   2.559990e-06   6.802835e+00   9.616400e+00   1.968911e+01   1.848078e+06   2.153405e+06   1.995357e+06  -3.500861e+11   4.396654e+11  -1.502428e+11   3.469005e+06   1.756467e-18   0.000000e+00   0.000000e+00
      264000   2.639990e-06   6.949635e+00   9.790001e+00   1.984826e+01   1.823544e+06   2.184692e+06   1.983886e+06  -2.067995e+11   2.621245e+11  -9.857027e+10   3.469005e+06   6.292108e-19   0.000000e+00   0.000000e+00
      272000   2.719990e-06   7.095126e+00   9.965227e+00   2.000684e+01   1.816340e+06   2.191881e+06   1.982565e+06  -1.901598e+10  -3.015247e+10   5.075757e+10   3.469005e+06   1.996721e-20   0.000000e+00   0.000000e+00
      280000   2.799990e-06   7.240299e+00   1.014055e+01   2.016559e+01   1.812032e+06   2.192243e+06   1.986104e+06  -9.009992e+10   4.077453e+10   3.719665e+10   3.469005e+06   5.792710e-20   0.000000e+00   0.000000e+00
      288000   2.879990e-06   7.384897e+00   1.031614e+01   2.032458e+01   1.801928e+06   2.198348e+06   1.988547e+06  -1.636062e+11   1.125637e+11   2.381277e+10   3.469005e+06   2.075875e-19   0.000000e+00   0.000000e+00
      296000   2.959990e-06   7.528448e+00   1.049245e+01   2.048373e+01   1.785843e+06   2.210304e+06   1.989804e+06  -2.401127e+11   1.866336e+11   8.185450e+09   3.469005e+06   4.802824e-19   0.000000e+00   0.000000e+00
      304000   3.039990e-06   7.670461e+00   1.066995e+01   2.064292e+01   1.763400e+06   2.228300e+06   1.989748e+06  -3.217139e+11   2.632461e+11  -9.689205e+09   3.469005e+06   8.972018e-19   0.000000e+00   0.000000e+00
      312000   3.119990e-06   7.810416e+00   1.084914e+01   2.080205e+01   1.734386e+06   2.252350e+06   1.988170e+06  -4.043724e+11   3.381873e+11  -3.036731e+10   3.469005e+06   1.446871e-18   0.000000e+00   0.000000e+00
      320000   3.199990e-06   7.947782e+00   1.103049e+01   2.096098e+01   1.698603e+06   2.282369e+06   1.984827e+06  -4.914295e+11   4.125923e+11  -5.387883e+10   3.469005e+06   2.151759e-18   0.000000e+00   0.000000e+00
      328000   3.279990e-06   8.082001e+00   1.121447e+01   2.111956e+01   1.655627e+06   2.318327e+06   1.979459e+06  -5.844965e+11   4.863754e+11  -8.076105e+10   3.469006e+06   3.034421e-18   0.000000e+00   0.000000e+00
      336000   3.359990e-06   8.212469e+00   1.140158e+01   2.127763e+01   1.604687e+06   2.360387e+06   1.971688e+06  -6.870783e+11   5.617162e+11  -1.132602e+11   3.469006e+06   4.153853e-18   0.000000e+00   0.000000e+00
      344000   3.439990e-06   8.338531e+00   1.159229e+01   2.143496e+01   1.545418e+06   2.408243e+06   1.961135e+06  -7.957836e+11   6.342099e+11  -1.516993e+11   3.469006e+06   5.493177e-18   0.000000e+00   0.000000e+00
      352000   3.519990e-06   8.459501e+00   1.178705e+01   2.159132e+01   1.477392e+06   2.461562e+06   1.947312e+06  -9.058908e+11   6.985510e+11  -1.957351e+11   3.469006e+06   6.989960e-18   0.000000e+00   0.000000e+00
      360000   3.599990e-06   8.574662e+00   1.198627e+01   2.174643e+01   1.400021e+06   2.519893e+06   1.929788e+06  -1.028304e+12   7.581851e+11  -2.440063e+11   3.469006e+06   8.779707e-18   0.000000e+00   0.000000e+00
      368000   3.679990e-06   8.683237e+00   1.219035e+01   2.189998e+01   1.312565e+06   2.582729e+06   1.908059e+06  -1.159680e+12   8.115304e+11  -3.007175e+11   3.469006e+06   1.086634e-17   0.000000e+00   0.000000e+00
      376000   3.759990e-06   8.784394e+00   1.239961e+01   2.205160e+01   1.214566e+06   2.649229e+06   1.881602e+06  -1.292692e+12   8.495786e+11  -3.617360e+11   3.469006e+06   1.309697e-17   0.000000e+00   0.000000e+00
      384000   3.839990e-06   8.877261e+00   1.261430e+01   2.220089e+01   1.105244e+06   2.718501e+06   1.849919e+06  -1.442910e+12   8.792849e+11  -4.300399e+11   3.469007e+06   1.577677e-17   0.000000e+00   0.000000e+00
      392000   3.919990e-06   8.960905e+00   1.283461e+01   2.234743e+01   9.837956e+05   2.789330e+06   1.812676e+06  -1.598110e+12   8.897949e+11  -5.018448e+11   3.469007e+06   1.866987e-17   0.000000e+00   0.000000e+00
      400000   3.999990e-06   9.034329e+00   1.306060e+01   2.249076e+01   8.497957e+05   2.860204e+06   1.769489e+06  -1.752501e+12   8.784864e+11  -5.783259e+11   3.469008e+06   2.167947e-17   0.000000e+00   0.000000e+00
      408000   4.079990e-06   9.096527e+00   1.329220e+01   2.263039e+01   7.029404e+05   2.929364e+06   1.720094e+06  -1.919497e+12   8.456055e+11  -6.556304e+11   3.469008e+06   2.506269e-17   0.000000e+00   0.000000e+00
      416000   4.159990e-06   9.146444e+00   1.352920e+01   2.276581e+01   5.426940e+05   2.994895e+06   1.664364e+06  -2.087855e+12   7.872937e+11  -7.358605e+11   3.469009e+06   2.864928e-17   0.000000e+00   0.000000e+00
      424000   4.239990e-06   9.183002e+00   1.377122e+01   2.289652e+01   3.689583e+05   3.054533e+06   1.602411e+06  -2.258713e+12   6.992209e+11  -8.127505e+11   3.469009e+06   3.244190e-17   0.000000e+00   0.000000e+00
      432000   4.319990e-06   9.205146e+00   1.401770e+01   2.302203e+01   1.824717e+05   3.105795e+06   1.534527e+06  -2.415983e+12   5.781914e+11  -8.828952e+11   3.469010e+06   3.607223e-17   0.000000e+00   0.000000e+00
      440000   4.399990e-06   9.211848e+00   1.426786e+01   2.314190e+01  -1.689697e+04   3.146170e+06   1.461289e+06  -2.569097e+12   4.256423e+11  -9.460662e+11   3.469011e+06   3.983837e-17   0.000000e+00   0.000000e+00
      448000   4.479990e-06   9.202118e+00   1.452073e+01   2.325572e+01  -2.281345e+05   3.173029e+06   1.383433e+06  -2.703798e+12   2.405510e+11  -9.975341e+11   3.469012e+06   4.340381e-17   0.000000e+00   0.000000e+00
      456000   4.559990e-06   9.175087e+00   1.477512e+01   2.336315e+01  -4.493667e+05   3.183873e+06   1.301950e+06  -2.832303e+12   2.414407e+10  -1.036540e+12   3.469013e+06   4.721029e-17   0.000000e+00   0.000000e+00
      464000   4.639990e-06   9.129979e+00   1.502966e+01   2.346396e+01  -6.793965e+05   3.176280e+06   1.218083e+06  -2.915088e+12  -2.180695e+11  -1.057197e+12   3.469014e+06   5.014791e-17   0.000000e+00   0.000000e+00
      472000   4.719990e-06   9.066223e+00   1.528278e+01   2.355802e+01  -9.152853e+05   3.148352e+06   1.133225e+06  -2.972173e+12  -4.819449e+11  -1.061529e+12   3.469015e+06   5.289847e-17   0.000000e+00   0.000000e+00
      480000   4.799990e-06   8.983476e+00   1.553282e+01   2.364529e+01  -1.153748e+06   3.098860e+06   1.048813e+06  -2.993985e+12  -7.606475e+11  -1.046001e+12   3.469016e+06   5.520136e-17   0.000000e+00   0.000000e+00
      488000   4.879990e-06   8.881610e+00   1.577799e+01   2.372588e+01  -1.392349e+06   3.026809e+06   9.663728e+05  -2.954393e+12  -1.036049e+12  -1.011531e+12   3.469018e+06   5.617927e-17   0.000000e+00   0.000000e+00
      496000   4.959990e-06   8.760822e+00   1.601652e+01   2.380000e+01  -1.626488e+06   2.932808e+06   8.872786e+05  -2.890955e+12  -1.312055e+12  -9.624811e+11   3.469019e+06   5.711576e-17   0.000000e+00   0.000000e+00
      504000   5.039990e-06   8.621533e+00   1.624665e+01   2.386797e+01  -1.854309e+06   2.816912e+06   8.127991e+05  -2.787618e+12  -1.575820e+12  -8.981916e+11   3.469020e+06   5.740293e-17   0.000000e+00   0.000000e+00
      512000   5.119990e-06   8.464427e+00   1.646671e+01   2.393019e+01  -2.071374e+06   2.681457e+06   7.438465e+05  -2.637825e+12  -1.809161e+12  -8.235891e+11   3.469021e+06   5.661782e-17   0.000000e+00   0.000000e+00
      520000   5.199990e-06   8.290452e+00   1.667521e+01   2.398715e+01  -2.275712e+06   2.528089e+06   6.811908e+05  -2.466048e+12  -2.019521e+12  -7.433706e+11   3.469023e+06   5.559537e-17   0.000000e+00   0.000000e+00
      528000   5.279990e-06   8.100699e+00   1.687078e+01   2.403937e+01  -2.465513e+06   2.358880e+06   6.253461e+05  -2.271105e+12  -2.200229e+12  -6.544486e+11   3.469024e+06   5.411527e-17   0.000000e+00   0.000000e+00
      536000   5.359990e-06   7.896416e+00   1.705229e+01   2.408739e+01  -2.638701e+06   2.176943e+06   5.764613e+05  -2.054479e+12  -2.339709e+12  -5.683670e+11   3.469025e+06   5.199242e-17   0.000000e+00   0.000000e+00
      544000   5.439990e-06   7.678983e+00   1.721884e+01   2.413179e+01  -2.794126e+06   1.985275e+06   5.344977e+05  -1.830549e+12  -2.446291e+12  -4.829372e+11   3.469026e+06   4.965864e-17   0.000000e+00   0.000000e+00
      552000   5.519990e-06   7.449834e+00   1.736974e+01   2.417309e+01  -2.931654e+06   1.786198e+06   4.990517e+05  -1.609503e+12  -2.528607e+12  -4.044112e+11   3.469027e+06   4.747596e-17   0.000000e+00   0.000000e+00
      560000   5.599990e-06   7.210396e+00   1.750449e+01   2.421180e+01  -3.051246e+06   1.582205e+06   4.697695e+05  -1.383476e+12  -2.570300e+12  -3.288788e+11   3.469028e+06   4.478100e-17   0.000000e+00   0.000000e+00
      568000   5.679990e-06   6.962102e+00   1.762282e+01   2.424840e+01  -3.153225e+06   1.375613e+06   4.461246e+05  -1.170084e+12  -2.596575e+12  -2.635415e+11   3.469029e+06   4.245663e-17   0.000000e+00   0.000000e+00
      576000   5.759990e-06   6.706324e+00   1.772456e+01   2.428331e+01  -3.238447e+06   1.167878e+06   4.274223e+05  -9.628017e+11  -2.594692e+12  -2.050017e+11   3.469030e+06   3.996917e-17   0.000000e+00   0.000000e+00
      584000   5.839990e-06   6.444361e+00   1.780964e+01   2.431690e+01  -3.308068e+06   9.592974e+05   4.130523e+05  -7.742002e+11  -2.602574e+12  -1.558882e+11   3.469031e+06   3.838966e-17   0.000000e+00   0.000000e+00
      592000   5.919990e-06   6.177436e+00   1.787808e+01   2.434949e+01  -3.362664e+06   7.515903e+05   4.022272e+05  -5.951117e+11  -2.600347e+12  -1.160869e+11   3.469032e+06   3.700069e-17   0.000000e+00   0.000000e+00
      600000   5.999990e-06   5.906710e+00   1.792992e+01   2.438134e+01  -3.403167e+06   5.450990e+05   3.943456e+05  -4.210969e+11  -2.569681e+12  -8.181865e+10   3.469033e+06   3.522472e-17   0.000000e+00   0.000000e+00
      608000   6.079990e-06   5.633284e+00   1.796534e+01   2.441265e+01  -3.430334e+06   3.403155e+05   3.888297e+05  -2.599400e+11  -2.556371e+12  -5.566054e+10   3.469033e+06   3.428242e-17   0.000000e+00   0.000000e+00
      616000   6.159990e-06   5.358193e+00   1.798440e+01   2.444360e+01  -3.444884e+06   1.364570e+05   3.851660e+05  -1.046133e+11  -2.535411e+12  -3.723451e+10   3.469034e+06   3.342570e-17   0.000000e+00   0.000000e+00
      624000   6.239990e-06   5.082429e+00   1.798719e+01   2.447431e+01  -3.447200e+06  -6.661230e+04   3.828598e+05   4.642578e+10  -2.538981e+12  -2.356995e+10   3.469035e+06   3.346981e-17   0.000000e+00   0.000000e+00
      632000   6.319990e-06   4.806962e+00   1.797375e+01   2.450488e+01  -3.437452e+06  -2.695086e+05   3.814454e+05   1.973904e+11  -2.535925e+12  -1.276454e+10   3.469036e+06   3.357844e-17   0.000000e+00   0.000000e+00
      640000   6.399990e-06   4.532758e+00   1.794408e+01   2.453536e+01  -3.415609e+06  -4.721076e+05   3.807170e+05   3.505136e+11  -2.541365e+12  -6.604927e+09   3.469036e+06   3.415637e-17   0.000000e+00   0.000000e+00
      648000   6.479990e-06   4.260798e+00   1.789818e+01   2.456580e+01  -3.381324e+06  -6.754705e+05   3.802704e+05   5.081732e+11  -2.546712e+12  -4.899200e+09   3.469037e+06   3.500007e-17   0.000000e+00   0.000000e+00
      656000   6.559990e-06   3.992090e+00   1.783599e+01   2.459621e+01  -3.334219e+06  -8.791391e+05   3.799012e+05   6.698373e+11  -2.542771e+12  -5.254661e+09   3.469038e+06   3.588429e-17   0.000000e+00   0.000000e+00
      664000   6.639990e-06   3.727676e+00   1.775752e+01   2.462658e+01  -3.273912e+06  -1.082473e+06   3.794488e+05   8.384601e+11  -2.538291e+12  -6.630681e+09   3.469039e+06   3.708625e-17   0.000000e+00   0.000000e+00
      672000   6.719990e-06   3.468634e+00   1.766280e+01   2.465691e+01  -3.199709e+06  -1.285530e+06   3.788293e+05   1.020273e+12  -2.541929e+12  -8.113146e+09   3.469040e+06   3.893613e-17   0.000000e+00   0.000000e+00
      680000   6.799990e-06   3.216118e+00   1.755184e+01   2.468719e+01  -3.110631e+06  -1.488391e+06   3.780352e+05   1.208757e+12  -2.529099e+12  -1.114333e+10   3.469041e+06   4.077923e-17   0.000000e+00   0.000000e+00
      688000   6.879990e-06   2.971335e+00   1.742472e+01   2.471739e+01  -3.006330e+06  -1.689398e+06   3.770454e+05   1.402909e+12  -2.499635e+12  -1.375626e+10   3.469041e+06   4.264212e-17   0.000000e+00   0.000000e+00
      696000   6.959990e-06   2.735530e+00   1.728161e+01   2.474751e+01  -2.886161e+06  -1.887600e+06   3.758901e+05   1.599310e+12  -2.448388e+12  -1.496278e+10   3.469042e+06   4.438628e-17   0.000000e+00   0.000000e+00
      704000   7.039990e-06   2.509994e+00   1.712280e+01   2.477754e+01  -2.749536e+06  -2.081808e+06   3.746907e+05   1.806093e+12  -2.388129e+12  -1.499600e+10   3.469043e+06   4.652861e-17   0.000000e+00   0.000000e+00
      712000   7.119990e-06   2.296036e+00   1.694869e+01   2.480747e+01  -2.596596e+06  -2.269892e+06   3.735644e+05   2.013085e+12  -2.305027e+12  -1.312098e+10   3.469045e+06   4.860700e-17   0.000000e+00   0.000000e+00
      720000   7.199990e-06   2.094957e+00   1.675984e+01   2.483731e+01  -2.427709e+06  -2.449826e+06   3.726404e+05   2.212591e+12  -2.194165e+12  -9.929350e+09   3.469046e+06   5.039330e-17   0.000000e+00   0.000000e+00
      728000   7.279990e-06   1.908020e+00   1.655698e+01   2.486710e+01  -2.243186e+06  -2.619928e+06   3.719905e+05   2.400967e+12  -2.056598e+12  -5.975745e+09   3.469047e+06   5.186853e-17   0.000000e+00   0.000000e+00
      736000   7.359990e-06   1.736444e+00   1.634097e+01   2.489684e+01  -2.043791e+06  -2.778317e+06   3.717071e+05   2.580776e+12  -1.898611e+12  -7.399650e+08   3.469048e+06   5.327444e-17   0.000000e+00   0.000000e+00
      744000   7.439990e-06   1.581377e+00   1.611281e+01   2.492658e+01  -1.830726e+06  -2.923088e+06   3.718917e+05   2.741899e+12  -1.716624e+12   5.179876e+09   3.469049e+06   5.431085e-17   0.000000e+00   0.000000e+00
      752000   7.519990e-06   1.443848e+00   1.587368e+01   2.495636e+01  -1.605816e+06  -3.052354e+06   3.725640e+05   2.875153e+12  -1.511200e+12   1.168829e+10   3.469050e+06   5.475490e-17   0.000000e+00   0.000000e+00
      760000   7.599990e-06   1.324698e+00   1.562489e+01   2.498621e+01  -1.371415e+06  -3.164467e+06   3.737502e+05   2.989276e+12  -1.293367e+12   1.826755e+10   3.469052e+06   5.505866e-17   0.000000e+00   0.000000e+00
      768000   7.679990e-06   1.224660e+00   1.536784e+01   2.501617e+01  -1.128393e+06  -3.258845e+06   3.754770e+05   3.076769e+12  -1.062456e+12   2.538455e+10   3.469053e+06   5.499173e-17   0.000000e+00   0.000000e+00
      776000   7.759990e-06   1.144292e+00   1.510399e+01   2.504630e+01  -8.802357e+05  -3.334188e+06   3.777719e+05   3.127449e+12  -8.220781e+11   3.185473e+10   3.469054e+06   5.427437e-17   0.000000e+00   0.000000e+00
      784000   7.839990e-06   1.083947e+00   1.483487e+01   2.507663e+01  -6.279050e+05  -3.390460e+06   3.806056e+05   3.166151e+12  -5.820630e+11   3.858169e+10   3.469055e+06   5.379203e-17   0.000000e+00   0.000000e+00
      792000   7.919990e-06   1.043851e+00   1.456203e+01   2.510721e+01  -3.745979e+05  -3.427323e+06   3.840400e+05   3.160803e+12  -3.401968e+11   4.730579e+10   3.469056e+06   5.246269e-17   0.000000e+00   0.000000e+00
      800000   7.999990e-06   1.024002e+00   1.428701e+01   2.513809e+01  -1.218367e+05  -3.445122e+06   3.881341e+05   3.141749e+12  -1.048567e+11   5.574138e+10   3.469058e+06   5.130037e-17   0.000000e+00   0.000000e+00
      808000   8.079990e-06   1.024295e+00   1.401131e+01   2.516933e+01   1.286704e+05  -3.444335e+06   3.928945e+05   3.106187e+12   1.233174e+11   6.405950e+10   3.469059e+06   5.017445e-17   0.000000e+00   0.000000e+00
      816000   8.159990e-06   1.044455e+00   1.373639e+01   2.520098e+01   3.745953e+05  -3.425687e+06   3.984020e+05   3.040711e+12   3.411579e+11   7.469257e+10   3.469060e+06   4.861852e-17   0.000000e+00   0.000000e+00
      824000   8.239990e-06   1.084066e+00   1.346365e+01   2.523310e+01   6.144770e+05  -3.390120e+06   4.048322e+05   2.957166e+12   5.463366e+11   8.676742e+10   3.469061e+06   4.697306e-17   0.000000e+00   0.000000e+00
      832000   8.319990e-06   1.142592e+00   1.319440e+01   2.526578e+01   8.473477e+05  -3.338626e+06   4.122762e+05   2.849588e+12   7.355691e+11   1.001379e+11   3.469062e+06   4.500300e-17   0.000000e+00   0.000000e+00
      840000   8.399990e-06   1.219397e+00   1.292986e+01   2.529909e+01   1.071370e+06  -3.272531e+06   4.208395e+05   2.742330e+12   9.125817e+11   1.152106e+11   3.469063e+06   4.342128e-17   0.000000e+00   0.000000e+00
      848000   8.479990e-06   1.313738e+00   1.267114e+01   2.533315e+01   1.285375e+06  -3.193228e+06   4.307067e+05   2.607896e+12   1.067539e+12   1.319965e+11   3.469064e+06   4.130238e-17   0.000000e+00   0.000000e+00
      856000   8.559990e-06   1.424764e+00   1.241925e+01   2.536804e+01   1.488322e+06  -3.102256e+06   4.419464e+05   2.463530e+12   1.203233e+12   1.499858e+11   3.469065e+06   3.912812e-17   0.000000e+00   0.000000e+00
      864000   8.639990e-06   1.551587e+00   1.217507e+01   2.540390e+01   1.680293e+06  -3.000704e+06   4.547631e+05   2.321262e+12   1.325689e+12   1.707966e+11   3.469066e+06   3.723722e-17   0.000000e+00   0.000000e+00
      872000   8.719990e-06   1.693272e+00   1.193937e+01   2.544085e+01   1.859767e+06  -2.890594e+06   4.692033e+05   2.167333e+12   1.425349e+12   1.906160e+11   3.469066e+06   3.511144e-17   0.000000e+00   0.000000e+00
      880000   8.799990e-06   1.848815e+00   1.171277e+01   2.547901e+01   2.026611e+06  -2.773421e+06   4.851901e+05   2.002853e+12   1.500103e+12   2.091499e+11   3.469067e+06   3.272511e-17   0.000000e+00   0.000000e+00
      888000   8.879990e-06   2.017175e+00   1.149575e+01   2.551852e+01   2.180268e+06  -2.651054e+06   5.027641e+05   1.839507e+12   1.556290e+12   2.292309e+11   3.469068e+06   3.040473e-17   0.000000e+00   0.000000e+00
      896000   8.959990e-06   2.197310e+00   1.128870e+01   2.555949e+01   2.321071e+06  -2.524829e+06   5.218283e+05   1.680582e+12   1.595904e+12   2.466131e+11   3.469068e+06   2.819221e-17   0.000000e+00   0.000000e+00
      904000   9.039990e-06   2.388218e+00   1.109186e+01   2.560205e+01   2.449556e+06  -2.395862e+06   5.421841e+05   1.527118e+12   1.620737e+12   2.625535e+11   3.469069e+06   2.609419e-17   0.000000e+00   0.000000e+00
      912000   9.119990e-06   2.588907e+00   1.090538e+01   2.564628e+01   2.565606e+06  -2.265889e+06   5.637881e+05   1.372273e+12   1.622573e+12   2.765306e+11   3.469070e+06   2.383421e-17   0.000000e+00   0.000000e+00
      920000   9.199990e-06   2.798394e+00   1.072930e+01   2.569228e+01   2.669709e+06  -2.136196e+06   5.863172e+05   1.233041e+12   1.619647e+12   2.866489e+11   3.469070e+06   2.193184e-17   0.000000e+00   0.000000e+00
      928000   9.279990e-06   3.015772e+00   1.056358e+01   2.574011e+01   2.762914e+06  -2.007278e+06   6.095828e+05   1.098233e+12   1.600980e+12   2.941784e+11   3.469071e+06   2.001146e-17   0.000000e+00   0.000000e+00
      936000   9.359990e-06   3.240195e+00   1.040811e+01   2.578982e+01   2.846092e+06  -1.879669e+06   6.332898e+05   9.771622e+11   1.579852e+12   2.977144e+11   3.469071e+06   1.836950e-17   0.000000e+00   0.000000e+00
      944000   9.439990e-06   3.470876e+00   1.026274e+01   2.584144e+01   2.919330e+06  -1.755060e+06   6.570659e+05   8.590398e+11   1.540057e+12   2.969299e+11   3.469071e+06   1.659698e-17   0.000000e+00   0.000000e+00
      952000   9.519990e-06   3.707053e+00   1.012722e+01   2.589495e+01   2.983745e+06  -1.633488e+06   6.807651e+05   7.516108e+11   1.495640e+12   2.945568e+11   3.469072e+06   1.499189e-17   0.000000e+00   0.000000e+00
      960000   9.599990e-06   3.948050e+00   1.000127e+01   2.595035e+01   3.039896e+06  -1.515833e+06   7.040898e+05   6.550086e+11   1.447537e+12   2.884474e+11   3.469072e+06   1.353340e-17   0.000000e+00   0.000000e+00
      968000   9.679990e-06   4.193242e+00   9.884580e+00   2.600759e+01   3.088683e+06  -1.402211e+06   7.268465e+05   5.657311e+11   1.391014e+12   2.795009e+11   3.469072e+06   1.210874e-17   0.000000e+00   0.000000e+00
      976000   9.759990e-06   4.442080e+00   9.776839e+00   2.606662e+01   3.131233e+06  -1.291980e+06   7.487556e+05   4.932177e+11   1.350711e+12   2.680889e+11   3.469073e+06   1.110427e-17   0.000000e+00   0.000000e+00
      984000   9.839990e-06   4.694078e+00   9.677739e+00   2.612737e+01   3.167803e+06  -1.186225e+06   7.696504e+05   4.233577e+11   1.295295e+12   2.539027e+11   3.469073e+06   9.972530e-18   0.000000e+00   0.000000e+00
      992000   9.919990e-06   4.948794e+00   9.586944e+00   2.618974e+01   3.199381e+06  -1.084077e+06   7.894355e+05   3.695860e+11   1.265217e+12   2.396190e+11   3.469073e+06   9.314887e-18   0.000000e+00   0.000000e+00
     1000000   9.999990e-06   5.205865e+00   9.504206e+00   2.625364e+01   3.226664e+06  -9.850584e+05   8.079406e+05   3.149737e+11   1.214716e+12   2.231202e+11   3.469073e+06   8.431219e-18   0.000000e+00   0.000000e+00
     1008000   1.007999e-05   5.464953e+00   9.429235e+00   2.631897e+01   3.249988e+06  -8.895720e+05   8.250533e+05   2.687361e+11   1.170925e+12   2.039240e+11   3.469073e+06   7.706495e-18   0.000000e+00   0.000000e+00
     1016000   1.015999e-05   5.725765e+00   9.361763e+00   2.638561e+01   3.269759e+06  -7.978397e+05   8.405928e+05   2.286585e+11   1.131418e+12   1.844481e+11   3.469074e+06   7.091636e-18   0.000000e+00   0.000000e+00
     1024000   1.023999e-05   5.988038e+00   9.301511e+00   2.645342e+01   3.286592e+06  -7.088956e+05   8.545501e+05   1.941846e+11   1.097779e+12   1.638501e+11   3.469074e+06   6.589567e-18   0.000000e+00   0.000000e+00
     1032000   1.031999e-05   6.251552e+00   9.248275e+00   2.652229e+01   3.300865e+06  -6.223371e+05   8.668694e+05   1.638949e+11   1.069770e+12   1.439369e+11   3.469074e+06   6.186365e-18   0.000000e+00   0.000000e+00
     1040000   1.039999e-05   6.516113e+00   9.201867e+00   2.659208e+01   3.312793e+06  -5.383756e+05   8.775121e+05   1.351279e+11   1.030691e+12   1.222311e+11   3.469074e+06   5.685730e-18   0.000000e+00   0.000000e+00
     1048000   1.047999e-05   6.781543e+00   9.162067e+00   2.666265e+01   3.322650e+06  -4.568959e+05   8.864076e+05   1.124538e+11   1.011850e+12   1.000397e+11   3.469074e+06   5.431256e-18   0.000000e+00   0.000000e+00
     1056000   1.055999e-05   7.047690e+00   9.128711e+00   2.673386e+01   3.330744e+06  -3.772797e+05   8.934646e+05   9.124212e+10   9.847609e+11   7.570078e+10   3.469074e+06   5.105924e-18   0.000000e+00   0.000000e+00
     1064000   1.063999e-05   7.314422e+00   9.101666e+00   2.680555e+01   3.337311e+06  -2.990881e+05   8.985433e+05   7.315802e+10   9.690669e+11   5.085427e+10   3.469074e+06   4.915060e-18   0.000000e+00   0.000000e+00
     1072000   1.071999e-05   7.581621e+00   9.080813e+00   2.687757e+01   3.342452e+06  -2.226274e+05   9.016257e+05   5.613821e+10   9.445634e+11   2.512731e+10   3.469074e+06   4.650120e-18   0.000000e+00   0.000000e+00
     1080000   1.079999e-05   7.849181e+00   9.065999e+00   2.694975e+01   3.346322e+06  -1.481110e+05   9.025921e+05   4.122624e+10   9.233215e+11  -1.322438e+09   3.469075e+06   4.433362e-18   0.000000e+00   0.000000e+00
     1088000   1.087999e-05   8.117004e+00   9.057088e+00   2.702193e+01   3.349083e+06  -7.476922e+04   9.014044e+05   2.827332e+10   9.146260e+11  -2.917166e+10   3.469075e+06   4.350155e-18   0.000000e+00   0.000000e+00
     1096000   1.095999e-05   8.385008e+00   9.054032e+00   2.709392e+01   3.350851e+06  -1.665234e+03   8.979272e+05   1.583566e+10   9.116267e+11  -5.739499e+10   3.469075e+06   4.331562e-18   0.000000e+00   0.000000e+00
     1104000   1.103999e-05   8.653115e+00   9.056786e+00   2.716553e+01   3.351691e+06   7.042706e+04   8.920130e+05   5.036246e+09   8.933415e+11  -8.944634e+10   3.469075e+06   4.183546e-18   0.000000e+00   0.000000e+00
     1112000   1.111999e-05   8.921256e+00   9.065262e+00   2.723657e+01   3.351686e+06   1.412925e+05   8.835823e+05  -5.130134e+09   8.838450e+11  -1.218654e+11   3.469075e+06   4.131503e-18   0.000000e+00   0.000000e+00
     1120000   1.119999e-05   9.189363e+00   9.079396e+00   2.730683e+01   3.350871e+06   2.120889e+05   8.724485e+05  -1.464801e+10   8.782229e+11  -1.572239e+11   3.469075e+06   4.132274e-18   0.000000e+00   0.000000e+00
     1128000   1.127999e-05   9.457372e+00   9.099200e+00   2.737609e+01   3.349218e+06   2.830807e+05   8.585361e+05  -2.543681e+10   8.864519e+11  -1.930446e+11   3.469075e+06   4.274988e-18   0.000000e+00   0.000000e+00
     1136000   1.135999e-05   9.725217e+00   9.124688e+00   2.744411e+01   3.346764e+06   3.541307e+05   8.415716e+05  -3.571958e+10   8.874957e+11  -2.313956e+11   3.469075e+06   4.372364e-18   0.000000e+00   0.000000e+00
     1144000   1.143999e-05   9.992835e+00   9.155845e+00   2.751066e+01   3.343550e+06   4.247608e+05   8.214215e+05  -4.493078e+10   8.803136e+11  -2.723156e+11   3.469075e+06   4.417278e-18   0.000000e+00   0.000000e+00
     1152000   1.151999e-05   1.026016e+01   9.192659e+00   2.757545e+01   3.339492e+06   4.956388e+05   7.978829e+05  -5.688069e+10   8.907919e+11  -3.152711e+11   3.469075e+06   4.650878e-18   0.000000e+00   0.000000e+00
     1160000   1.159999e-05   1.052712e+01   9.235190e+00   2.763822e+01   3.334371e+06   5.677357e+05   7.707974e+05  -7.049706e+10   9.056148e+11  -3.620626e+11   3.469076e+06   4.962557e-18   0.000000e+00   0.000000e+00
     1168000   1.167999e-05   1.079363e+01   9.283530e+00   2.769868e+01   3.328095e+06   6.409586e+05   7.398914e+05  -8.583614e+10   9.199614e+11  -4.108388e+11   3.469076e+06   5.306594e-18   0.000000e+00   0.000000e+00
     1176000   1.175999e-05   1.105959e+01   9.337754e+00   2.775650e+01   3.320626e+06   7.148532e+05   7.049212e+05  -1.017809e+11   9.288063e+11  -4.624246e+11   3.469076e+06   5.640782e-18   0.000000e+00   0.000000e+00
     1184000   1.183999e-05   1.132489e+01   9.397946e+00   2.781135e+01   3.311585e+06   7.903535e+05   6.657581e+05  -1.235287e+11   9.532167e+11  -5.171402e+11   3.469076e+06   6.182797e-18   0.000000e+00   0.000000e+00
     1192000   1.191999e-05   1.158939e+01   9.464255e+00   2.786290e+01   3.300664e+06   8.677733e+05   6.221516e+05  -1.503615e+11   9.827150e+11  -5.729595e+11   3.469076e+06   6.833084e-18   0.000000e+00   0.000000e+00
     1200000   1.199999e-05   1.185294e+01   9.536839e+00   2.791077e+01   3.287473e+06   9.474631e+05   5.738672e+05  -1.824550e+11   1.016756e+12  -6.334360e+11   3.469076e+06   7.620408e-18   0.000000e+00   0.000000e+00
     1208000   1.207999e-05   1.211531e+01   9.615933e+00   2.795459e+01   3.271315e+06   1.030435e+06   5.207598e+05  -2.230830e+11   1.059303e+12  -6.946616e+11   3.469076e+06   8.586335e-18   0.000000e+00   0.000000e+00
     1216000   1.215999e-05   1.237625e+01   9.701801e+00   2.799396e+01   3.251603e+06   1.116879e+06   4.627611e+05  -2.702571e+11   1.100475e+12  -7.570014e+11   3.469077e+06   9.638271e-18   0.000000e+00   0.000000e+00
     1224000   1.223999e-05   1.263546e+01   9.794732e+00   2.802850e+01   3.227568e+06   1.207269e+06   3.997503e+05  -3.335456e+11   1.162466e+12  -8.176263e+11   3.469077e+06   1.106004e-17   0.000000e+00   0.000000e+00
     1232000   1.231999e-05   1.289252e+01   9.895099e+00   2.805779e+01   3.197881e+06   1.303042e+06   3.318653e+05  -4.165533e+11   1.245833e+12  -8.776448e+11   3.469077e+06   1.295316e-17   0.000000e+00   0.000000e+00
     1240000   1.239999e-05   1.314694e+01   1.000337e+01   2.808147e+01   3.161346e+06   1.404691e+06   2.592916e+05  -5.064105e+11   1.312462e+12  -9.357663e+11   3.469077e+06   1.481524e-17   0.000000e+00   0.000000e+00
     1248000   1.247999e-05   1.339811e+01   1.012003e+01   2.809916e+01   3.116275e+06   1.513292e+06   1.824216e+05  -6.264338e+11   1.408685e+12  -9.844115e+11   3.469078e+06   1.736455e-17   0.000000e+00   0.000000e+00
     1256000   1.255999e-05   1.364527e+01   1.024569e+01   2.811056e+01   3.060792e+06   1.629615e+06   1.020295e+05  -7.687731e+11   1.507986e+12  -1.022673e+12   3.469078e+06   2.029690e-17   0.000000e+00   0.000000e+00
     1264000   1.263999e-05   1.388749e+01   1.038100e+01   2.811543e+01   2.992539e+06   1.754664e+06   1.925504e+04  -9.471993e+11   1.626901e+12  -1.043154e+12   3.469079e+06   2.404011e-17   0.000000e+00   0.000000e+00
     1272000   1.271999e-05   1.412365e+01   1.052671e+01   2.811363e+01   2.908391e+06   1.889883e+06  -6.417051e+04  -1.165689e+12   1.758711e+12  -1.037517e+12   3.469079e+06   2.869115e-17   0.000000e+00   0.000000e+00
     1280000   1.279999e-05   1.435233e+01   1.068367e+01   2.810520e+01   2.805008e+06   2.035973e+06  -1.458075e+05  -1.427737e+12   1.895738e+12  -9.958782e+11   3.469080e+06   3.437758e-17   0.000000e+00   0.000000e+00
     1288000   1.287999e-05   1.457184e+01   1.085277e+01   2.809043e+01   2.678541e+06   2.193297e+06  -2.222352e+05  -1.744044e+12   2.038312e+12  -9.042226e+11   3.469081e+06   4.159136e-17   0.000000e+00   0.000000e+00
     1296000   1.295999e-05   1.478016e+01   1.103489e+01   2.806991e+01   2.524732e+06   2.361537e+06  -2.887964e+05  -2.112032e+12   2.166745e+12  -7.464231e+11   3.469082e+06   5.040673e-17   0.000000e+00   0.000000e+00
     1304000   1.303999e-05   1.497495e+01   1.123086e+01   2.804465e+01   2.339229e+06   2.539161e+06  -3.394182e+05  -2.537615e+12   2.270728e+12  -5.021425e+11   3.469083e+06   6.148822e-17   0.000000e+00   0.000000e+00
     1312000   1.311999e-05   1.515347e+01   1.144134e+01   2.801624e+01   2.117413e+06   2.723417e+06  -3.662041e+05  -3.016545e+12   2.325616e+12  -1.468928e+11   3.469085e+06   7.540618e-17   0.000000e+00   0.000000e+00
     1320000   1.319999e-05   1.531266e+01   1.166665e+01   2.798695e+01   1.855440e+06   2.909091e+06  -3.592933e+05  -3.535192e+12   2.297298e+12   3.438233e+11   3.469086e+06   9.286367e-17   0.000000e+00   0.000000e+00
     1328000   1.327999e-05   1.544925e+01   1.190659e+01   2.795996e+01   1.552375e+06   3.087153e+06  -3.069129e+05  -4.041294e+12   2.131008e+12   9.935256e+11   3.469089e+06   1.134517e-16   0.000000e+00   0.000000e+00
     1336000   1.335999e-05   1.556000e+01   1.216007e+01   2.793942e+01   1.210231e+06   3.245247e+06  -1.957274e+05  -4.495164e+12   1.785900e+12   1.814954e+12   3.469091e+06   1.385172e-16   0.000000e+00   0.000000e+00
     1344000   1.343999e-05   1.564206e+01   1.242485e+01   2.793058e+01   8.373479e+05   3.366500e+06  -1.193811e+04  -4.789401e+12   1.201311e+12   2.805748e+12   3.469095e+06   1.673927e-16   0.000000e+00   0.000000e+00
     1352000   1.351999e-05   1.569362e+01   1.269717e+01   2.793977e+01   4.514179e+05   3.430022e+06   2.565489e+05  -4.797641e+12   3.383539e+11   3.919582e+12   3.469099e+06   1.997849e-16   0.000000e+00   0.000000e+00
     1360000   1.359999e-05   1.571471e+01   1.297150e+01   2.797408e+01   8.162999e+04   3.412875e+06   6.166853e+05  -4.360584e+12  -8.123773e+11   5.073821e+12   3.469104e+06   2.357172e-16   0.000000e+00   0.000000e+00
     1368000   1.367999e-05   1.570822e+01   1.324050e+01   2.804081e+01  -2.299073e+05   3.293499e+06   1.065234e+06  -3.320830e+12  -2.204777e+12   6.100516e+12   3.469109e+06   2.756128e-16   0.000000e+00   0.000000e+00
     1376000   1.375999e-05   1.568086e+01   1.349531e+01   2.814638e+01  -4.311541e+05   3.056638e+06   1.582984e+06  -1.590658e+12  -3.724491e+12   6.758894e+12   3.469116e+06   3.222166e-16   0.000000e+00   0.000000e+00
     1384000   1.383999e-05   1.564365e+01   1.372630e+01   2.829489e+01  -4.670407e+05   2.698122e+06   2.129984e+06   7.928891e+11  -5.215815e+12   6.781250e+12   3.469124e+06   3.831165e-16   0.000000e+00   0.000000e+00
     1392000   1.391999e-05   1.561177e+01   1.392403e+01   2.848629e+01  -2.924372e+05   2.228075e+06   2.642924e+06   3.608782e+12  -6.484812e+12   5.866566e+12   3.469133e+06   4.644649e-16   0.000000e+00   0.000000e+00
     1400000   1.399999e-05   1.560299e+01   1.408046e+01   2.871463e+01   1.106238e+05   1.670970e+06   3.038188e+06   6.423498e+12  -7.367478e+12   3.818507e+12   3.469145e+06   5.715344e-16   0.000000e+00   0.000000e+00
     1408000   1.407999e-05   1.563501e+01   1.419002e+01   2.896678e+01   7.198504e+05   1.063131e+06   3.222830e+06   8.658704e+12  -7.731257e+12   6.167623e+11   3.469159e+06   7.013111e-16   0.000000e+00   0.000000e+00
     1416000   1.415999e-05   1.572185e+01   1.425042e+01   2.922238e+01   1.465672e+06   4.502183e+05   3.111959e+06   9.748728e+12  -7.476477e+12  -3.509287e+12   3.469176e+06   8.472902e-16   0.000000e+00   0.000000e+00
     1424000   1.423999e-05   1.587020e+01   1.426339e+01   2.945528e+01   2.236213e+06  -1.123094e+05   2.649917e+06   9.222292e+12  -6.447335e+12  -8.055041e+12   3.469196e+06   9.939368e-16   0.000000e+00   0.000000e+00
     1432000   1.431999e-05   1.607662e+01   1.423559e+01   2.963680e+01   2.893480e+06  -5.565428e+05   1.831262e+06   6.911704e+12  -4.487370e+12  -1.228339e+13   3.469220e+06   1.135583e-15   0.000000e+00   0.000000e+00
     1440000   1.439999e-05   1.632640e+01   1.417965e+01   2.974034e+01   3.298317e+06  -8.014838e+05   7.172200e+05   2.970323e+12  -1.454772e+12  -1.528205e+13   3.469247e+06   1.268946e-15   0.000000e+00   0.000000e+00
     1448000   1.447999e-05   1.659458e+01   1.411494e+01   2.974724e+01   3.338338e+06  -7.630938e+05  -5.559362e+05  -2.101701e+12   2.541672e+12  -1.611413e+13   3.469277e+06   1.404243e-15   0.000000e+00   0.000000e+00
     1456000   1.455999e-05   1.684910e+01   1.406670e+01   2.965260e+01   2.951696e+06  -3.842503e+05  -1.782120e+06  -7.556347e+12   6.908492e+12  -1.400671e+13   3.469309e+06   1.562430e-15   0.000000e+00   0.000000e+00
     1464000   1.463999e-05   1.705552e+01   1.406224e+01   2.947007e+01   2.142712e+06   3.200979e+05  -2.709739e+06  -1.249963e+13   1.043317e+13  -8.652811e+12   3.469346e+06   1.764633e-15   0.000000e+00   0.000000e+00
     1472000   1.471999e-05   1.718276e+01   1.412325e+01   2.923365e+01   9.925258e+05   1.220440e+06  -3.092260e+06  -1.590430e+13   1.154908e+13  -5.479258e+11   3.469388e+06   2.006904e-15   0.000000e+00   0.000000e+00
     1480000   1.479999e-05   1.720965e+01   1.425622e+01   2.899440e+01  -3.299225e+05   2.070407e+06  -2.764335e+06  -1.660720e+13   9.052259e+12   8.760372e+12   3.469435e+06   2.255396e-15   0.000000e+00   0.000000e+00
     1488000   1.487999e-05   1.713231e+01   1.444519e+01   2.881054e+01  -1.562368e+06   2.573587e+06  -1.724240e+06  -1.351651e+13   3.055582e+12   1.680555e+13   3.469488e+06   2.462975e-15   0.000000e+00   0.000000e+00
     1496000   1.495999e-05   1.697065e+01   1.465279e+01   2.873210e+01  -2.384133e+06   2.514099e+06  -1.815371e+05  -6.425605e+12  -4.580535e+12   2.092453e+13   3.469544e+06   2.596206e-15   0.000000e+00   0.000000e+00
     1504000   1.503999e-05   1.676922e+01   1.483170e+01   2.878452e+01  -2.523876e+06   1.871076e+06   1.472165e+06   3.099112e+12  -1.110140e+13   1.942611e+13   3.469603e+06   2.648807e-15   0.000000e+00   0.000000e+00
     1512000   1.511999e-05   1.658723e+01   1.494126e+01   2.895830e+01  -1.908397e+06   8.218699e+05   2.778687e+06   1.184535e+13  -1.454779e+13   1.244008e+13   3.469661e+06   2.630665e-15   0.000000e+00   0.000000e+00
     1520000   1.519999e-05   1.647889e+01   1.495954e+01   2.920986e+01  -7.368104e+05  -3.656277e+05   3.370813e+06   1.658250e+13  -1.461554e+13   2.040826e+12   3.469719e+06   2.558346e-15   0.000000e+00   0.000000e+00
     1528000   1.527999e-05   1.647372e+01   1.488572e+01   2.947432e+01   5.984543e+05  -1.444340e+06   3.097591e+06   1.590349e+13  -1.195939e+13  -8.647441e+12   3.469775e+06   2.444039e-15   0.000000e+00   0.000000e+00
     1536000   1.535999e-05   1.656788e+01   1.473635e+01   2.968485e+01   1.685124e+06  -2.228455e+06   2.057680e+06   1.066974e+13  -7.369739e+12  -1.671712e+13   3.469828e+06   2.324131e-15   0.000000e+00   0.000000e+00
     1544000   1.543999e-05   1.672904e+01   1.454044e+01   2.979079e+01   2.242321e+06  -2.591968e+06   5.419878e+05   3.085881e+12  -1.590763e+12  -2.036665e+13   3.469878e+06   2.216380e-15   0.000000e+00   0.000000e+00
     1552000   1.551999e-05   1.690998e+01   1.433445e+01   2.976900e+01   2.179882e+06  -2.478409e+06  -1.070510e+06  -4.489550e+12   4.335404e+12  -1.918307e+13   3.469926e+06   2.113051e-15   0.000000e+00   0.000000e+00
     1560000   1.559999e-05   1.706311e+01   1.415555e+01   2.962665e+01   1.569346e+06  -1.931310e+06  -2.418243e+06  -1.041353e+13   9.009040e+12  -1.395456e+13   3.469972e+06   1.995715e-15   0.000000e+00   0.000000e+00
     1568000   1.567999e-05   1.715091e+01   1.403293e+01   2.939631e+01   5.787097e+05  -1.106191e+06  -3.237659e+06  -1.392034e+13   1.110750e+13  -6.284302e+12   3.470014e+06   1.851987e-15   0.000000e+00   0.000000e+00
     1576000   1.575999e-05   1.715100e+01   1.397965e+01   2.912599e+01  -5.883623e+05  -2.402846e+05  -3.411358e+06  -1.483065e+13   1.002101e+13   1.851070e+12   3.470054e+06   1.681445e-15   0.000000e+00   0.000000e+00
     1584000   1.583999e-05   1.705749e+01   1.398904e+01   2.886677e+01  -1.728726e+06   4.241468e+05  -2.978779e+06  -1.329679e+13   6.231896e+12   8.603138e+12   3.470089e+06   1.504190e-15   0.000000e+00   0.000000e+00
     1592000   1.591999e-05   1.687995e+01   1.403764e+01   2.866122e+01  -2.662661e+06   7.225078e+05  -2.104747e+06  -9.767826e+12   1.137322e+12   1.274621e+13   3.470121e+06   1.345903e-15   0.000000e+00   0.000000e+00
     1600000   1.599999e-05   1.664053e+01   1.409372e+01   2.853565e+01  -3.259507e+06   6.155290e+05  -1.019153e+06  -5.037504e+12  -3.634574e+12   1.391378e+13   3.470149e+06   1.205760e-15   0.000000e+00   0.000000e+00
     1608000   1.607999e-05   1.636894e+01   1.412735e+01   2.849778e+01  -3.465030e+06   1.810011e+05   5.400906e+04  -1.673654e+11  -6.937644e+12   1.255071e+13   3.470174e+06   1.068156e-15   0.000000e+00   0.000000e+00
     1616000   1.615999e-05   1.609582e+01   1.411759e+01   2.853939e+01  -3.309039e+06  -4.444738e+05   9.460278e+05   3.861588e+12  -8.416274e+12   9.554794e+12   3.470196e+06   9.194369e-16   0.000000e+00   0.000000e+00
     1624000   1.623999e-05   1.584665e+01   1.405479e+01   2.864180e+01  -2.885437e+06  -1.125446e+06   1.565252e+06   6.473342e+12  -8.406804e+12   5.889462e+12   3.470215e+06   7.648129e-16   0.000000e+00   0.000000e+00
     1632000   1.631999e-05   1.563811e+01   1.393866e+01   2.878196e+01  -2.313117e+06  -1.765196e+06   1.891050e+06   7.603111e+12  -7.478601e+12   2.319813e+12   3.470230e+06   6.186451e-16   0.000000e+00   0.000000e+00
     1640000   1.639999e-05   1.547758e+01   1.377490e+01   2.893728e+01  -1.701322e+06  -2.310659e+06   1.951651e+06   7.524010e+12  -6.120275e+12  -6.866777e+11   3.470243e+06   4.910009e-16   0.000000e+00   0.000000e+00
     1648000   1.647999e-05   1.536478e+01   1.357201e+01   2.908860e+01  -1.130334e+06  -2.742201e+06   1.801479e+06   6.658216e+12  -4.673520e+12  -2.935906e+12   3.470252e+06   3.884463e-16   0.000000e+00   0.000000e+00
     1656000   1.655999e-05   1.529435e+01   1.333917e+01   2.922154e+01  -6.473928e+05  -3.060553e+06   1.502198e+06   5.382226e+12  -3.310017e+12  -4.423834e+12   3.470260e+06   3.089938e-16   0.000000e+00   0.000000e+00
     1664000   1.663999e-05   1.525832e+01   1.308506e+01   2.932652e+01  -2.716200e+05  -3.276305e+06   1.111214e+06   4.012505e+12  -2.114035e+12  -5.251790e+12   3.470266e+06   2.500765e-16   0.000000e+00   0.000000e+00
     1672000   1.671999e-05   1.524803e+01   1.281732e+01   2.939816e+01  -3.042630e+03  -3.403872e+06   6.755963e+05   2.724945e+12  -1.107156e+12  -5.565352e+12   3.470271e+06   2.057940e-16   0.000000e+00   0.000000e+00
     1680000   1.679999e-05   1.525526e+01   1.254239e+01   2.943438e+01   1.692510e+05  -3.458451e+06   2.308289e+05   1.620937e+12  -2.881342e+11  -5.504133e+12   3.470275e+06   1.714209e-16   0.000000e+00   0.000000e+00
     1688000   1.687999e-05   1.527299e+01   1.226552e+01   2.943551e+01   2.622288e+05  -3.454662e+06  -1.984459e+05   7.413788e+11   3.546486e+11  -5.195656e+12   3.470279e+06   1.437096e-16   0.000000e+00   0.000000e+00
     1696000   1.695999e-05   1.529558e+01   1.199084e+01   2.940346e+01   2.937654e+05  -3.405927e+06  -5.968409e+05   7.912778e+10   8.381420e+11  -4.744376e+12   3.470282e+06   1.205855e-16   0.000000e+00   0.000000e+00
     1704000   1.703999e-05   1.531880e+01   1.172145e+01   2.934107e+01   2.805580e+05  -3.324192e+06  -9.559845e+05  -3.842413e+11   1.182828e+12  -4.225951e+12   3.470284e+06   1.007852e-16   0.000000e+00   0.000000e+00
     1712000   1.711999e-05   1.533967e+01   1.145957e+01   2.925164e+01   2.371360e+05  -3.219833e+06  -1.272529e+06  -6.778884e+11   1.407548e+12  -3.687916e+12   3.470286e+06   8.331419e-17   0.000000e+00   0.000000e+00
     1720000   1.719999e-05   1.535625e+01   1.120664e+01   2.913860e+01   1.753328e+05  -3.101623e+06  -1.546640e+06  -8.493075e+11   1.532667e+12  -3.169967e+12   3.470288e+06   6.813654e-17   0.000000e+00   0.000000e+00
     1728000   1.727999e-05   1.536747e+01   1.096349e+01   2.900525e+01   1.042380e+05  -2.976756e+06  -1.780721e+06  -9.189501e+11   1.577055e+12  -2.690148e+12   3.470289e+06   5.488956e-17   0.000000e+00   0.000000e+00
     1736000   1.735999e-05   1.537289e+01   1.073039e+01   2.885465e+01   3.126102e+04  -2.850910e+06  -1.978446e+06  -9.024270e+11   1.560264e+12  -2.262618e+12   3.470290e+06   4.346230e-17   0.000000e+00   0.000000e+00
     1744000   1.743999e-05   1.537255e+01   1.050725e+01   2.868955e+01  -3.883015e+04  -2.728350e+06  -2.144182e+06  -8.415324e+11   1.497455e+12  -1.890217e+12   3.470291e+06   3.388121e-17   0.000000e+00   0.000000e+00
     1752000   1.751999e-05   1.536685e+01   1.029368e+01   2.851232e+01  -1.022644e+05  -2.612245e+06  -2.282246e+06  -7.416244e+11   1.401705e+12  -1.571174e+12   3.470292e+06   2.588239e-17   0.000000e+00   0.000000e+00
     1760000   1.759999e-05   1.535644e+01   1.008907e+01   2.832501e+01  -1.562235e+05  -2.504634e+06  -2.396943e+06  -6.064765e+11   1.285110e+12  -1.303335e+12   3.470292e+06   1.931043e-17   0.000000e+00   0.000000e+00
     1768000   1.767999e-05   1.534216e+01   9.892676e+00   2.812933e+01  -1.989594e+05  -2.406784e+06  -2.492135e+06  -4.582496e+11   1.159490e+12  -1.083206e+12   3.470293e+06   1.416731e-17   0.000000e+00   0.000000e+00
     1776000   1.775999e-05   1.532494e+01   9.703706e+00   2.792669e+01  -2.293989e+05  -2.319197e+06  -2.571310e+06  -3.030913e+11   1.031019e+12  -9.028967e+11   3.470293e+06   1.023222e-17   0.000000e+00   0.000000e+00
     1784000   1.783999e-05   1.530579e+01   9.521331e+00   2.771827e+01  -2.472716e+05  -2.241838e+06  -2.637414e+06  -1.428895e+11   9.049494e+11  -7.558281e+11   3.470293e+06   7.326502e-18   0.000000e+00   0.000000e+00
     1792000   1.791999e-05   1.528572e+01   9.344750e+00   2.750499e+01  -2.521156e+05  -2.174295e+06  -2.692920e+06   1.950317e+10   7.862880e+11  -6.366877e+11   3.470293e+06   5.318421e-18   0.000000e+00   0.000000e+00
     1800000   1.799999e-05   1.526580e+01   9.173202e+00   2.728763e+01  -2.440070e+05  -2.115827e+06  -2.739831e+06   1.822097e+11   6.772778e+11  -5.392561e+11   3.470293e+06   4.065135e-18   0.000000e+00   0.000000e+00
     1808000   1.807999e-05   1.524703e+01   9.006001e+00   2.706680e+01  -2.231134e+05  -2.065457e+06  -2.779756e+06   3.376117e+11   5.834326e+11  -4.606115e+11   3.470294e+06   3.461757e-18   0.000000e+00   0.000000e+00
     1816000   1.815999e-05   1.523042e+01   8.842540e+00   2.684302e+01  -1.899809e+05  -2.022132e+06  -2.813863e+06   4.860900e+11   5.026240e+11  -3.940228e+11   3.470294e+06   3.345537e-18   0.000000e+00   0.000000e+00
     1824000   1.823999e-05   1.521693e+01   8.682303e+00   2.661672e+01  -1.455971e+05  -1.984674e+06  -2.843028e+06   6.243727e+11   4.363050e+11  -3.365555e+11   3.470294e+06   3.601555e-18   0.000000e+00   0.000000e+00
     1832000   1.831999e-05   1.520742e+01   8.524865e+00   2.638825e+01  -9.040576e+04  -1.951997e+06  -2.867834e+06   7.535206e+11   3.834473e+11  -2.847509e+11   3.470294e+06   4.133551e-18   0.000000e+00   0.000000e+00
     1840000   1.839999e-05   1.520272e+01   8.369886e+00   2.615797e+01  -2.558418e+04  -1.923002e+06  -2.888659e+06   8.678623e+11   3.437594e+11  -2.365328e+11   3.470294e+06   4.815924e-18   0.000000e+00   0.000000e+00
     1848000   1.847999e-05   1.520357e+01   8.217115e+00   2.592617e+01   4.836438e+04  -1.896616e+06  -2.905761e+06   9.779102e+11   3.182750e+11  -1.914681e+11   3.470294e+06   5.683050e-18   0.000000e+00   0.000000e+00
     1856000   1.855999e-05   1.521067e+01   8.066386e+00   2.569314e+01   1.304232e+05  -1.871810e+06  -2.919291e+06   1.069946e+12   3.031570e+11  -1.465833e+11   3.470294e+06   6.534338e-18   0.000000e+00   0.000000e+00
     1864000   1.863999e-05   1.522462e+01   7.917605e+00   2.545918e+01   2.192801e+05  -1.847760e+06  -2.929273e+06   1.150254e+12   2.996125e+11  -1.028919e+11   3.470294e+06   7.392650e-18   0.000000e+00   0.000000e+00
     1872000   1.871999e-05   1.524591e+01   7.770746e+00   2.522455e+01   3.139828e+05  -1.823653e+06  -2.935753e+06   1.213955e+12   3.045614e+11  -5.936095e+10   3.470294e+06   8.153677e-18   0.000000e+00   0.000000e+00
     1880000   1.879999e-05   1.527497e+01   7.625839e+00   2.498955e+01   4.132441e+05  -1.798863e+06  -2.938753e+06   1.269633e+12   3.178166e+11  -1.601270e+10   3.470295e+06   8.897763e-18   0.000000e+00   0.000000e+00
     1888000   1.887999e-05   1.531213e+01   7.482962e+00   2.475444e+01   5.160313e+05  -1.772834e+06  -2.938319e+06   1.303356e+12   3.351023e+11   2.670704e+10   3.470295e+06   9.409404e-18   0.000000e+00   0.000000e+00
     1896000   1.895999e-05   1.535760e+01   7.342228e+00   2.451951e+01   6.210758e+05  -1.745226e+06  -2.934519e+06   1.322837e+12   3.563383e+11   6.804268e+10   3.470295e+06   9.771713e-18   0.000000e+00   0.000000e+00
     1904000   1.903999e-05   1.541154e+01   7.203779e+00   2.428501e+01   7.277378e+05  -1.715607e+06  -2.927463e+06   1.338478e+12   3.843233e+11   1.074970e+11   3.470295e+06   1.013150e-17   0.000000e+00   0.000000e+00
     1912000   1.911999e-05   1.547405e+01   7.067791e+00   2.405119e+01   8.348435e+05  -1.683785e+06  -2.917337e+06   1.333967e+12   4.102077e+11   1.449720e+11   3.470296e+06   1.022489e-17   0.000000e+00   0.000000e+00
     1920000   1.919999e-05   1.554510e+01   6.934430e+00   2.381831e+01   9.411553e+05  -1.649853e+06  -2.904335e+06   1.321601e+12   4.379766e+11   1.794610e+11   3.470296e+06   1.023480e-17   0.000000e+00   0.000000e+00
     1928000   1.927999e-05   1.562459e+01   6.803870e+00   2.358657e+01   1.045900e+06  -1.613788e+06  -2.888726e+06   1.296412e+12   4.643239e+11   2.099807e+11   3.470296e+06   1.007752e-17   0.000000e+00   0.000000e+00
     1936000   1.935999e-05   1.571238e+01   6.676280e+00   2.335617e+01   1.148299e+06  -1.575651e+06  -2.870834e+06   1.261672e+12   4.883174e+11   2.366353e+11   3.470296e+06   9.796549e-18   0.000000e+00   0.000000e+00
     1944000   1.943999e-05   1.580823e+01   6.551808e+00   2.312729e+01   1.247270e+06  -1.535930e+06  -2.850999e+06   1.214909e+12   5.066058e+11   2.585728e+11   3.470296e+06   9.346014e-18   0.000000e+00   0.000000e+00
     1952000   1.951999e-05   1.591184e+01   6.430567e+00   2.290006e+01   1.342290e+06  -1.494885e+06  -2.829582e+06   1.159153e+12   5.194148e+11   2.754604e+11   3.470297e+06   8.773634e-18   0.000000e+00   0.000000e+00
     1960000   1.959999e-05   1.602286e+01   6.312647e+00   2.267459e+01   1.432586e+06  -1.453036e+06  -2.807017e+06   1.097543e+12   5.262449e+11   2.877278e+11   3.470297e+06   8.124535e-18   0.000000e+00   0.000000e+00
     1968000   1.967999e-05   1.614091e+01   6.198088e+00   2.245095e+01   1.517631e+06  -1.410954e+06  -2.783697e+06   1.028542e+12   5.254815e+11   2.943936e+11   3.470297e+06   7.378606e-18   0.000000e+00   0.000000e+00
     1976000   1.975999e-05   1.626554e+01   6.086893e+00   2.222920e+01   1.597110e+06  -1.369045e+06  -2.760058e+06   9.554918e+11   5.180818e+11   2.959124e+11   3.470297e+06   6.590454e-18   0.000000e+00   0.000000e+00
     1984000   1.983999e-05   1.639628e+01   5.979015e+00   2.200934e+01   1.670497e+06  -1.328106e+06  -2.736519e+06   8.776298e+11   5.022102e+11   2.920053e+11   3.470297e+06   5.753130e-18   0.000000e+00   0.000000e+00
     1992000   1.991999e-05   1.653266e+01   5.874362e+00   2.179135e+01   1.737735e+06  -1.288528e+06  -2.713473e+06   7.999181e+11   4.815880e+11   2.835838e+11   3.470297e+06   4.945527e-18   0.000000e+00   0.000000e+00
     2000000   1.999999e-05   1.667415e+01   5.772791e+00   2.157516e+01   1.798454e+06  -1.251170e+06  -2.691301e+06   7.173866e+11   4.503591e+11   2.700194e+11   3.470298e+06   4.105000e-18   0.000000e+00   0.000000e+00
     2008000   2.007999e-05   1.682023e+01   5.674100e+00   2.136071e+01   1.852572e+06  -1.216632e+06  -2.670347e+06   6.356621e+11   4.112600e+11   2.536192e+11   3.470298e+06   3.311141e-18   0.000000e+00   0.000000e+00
     2016000   2.015999e-05   1.697038e+01   5.578037e+00   2.114787e+01   1.899976e+06  -1.185589e+06  -2.650931e+06   5.500893e+11   3.636815e+11   2.316072e+11   3.470298e+06   2.537188e-18   0.000000e+00   0.000000e+00
     2024000   2.023999e-05   1.712405e+01   5.484296e+00   2.093651e+01   1.940530e+06  -1.158669e+06  -2.633400e+06   4.648501e+11   3.089649e+11   2.066014e+11   3.470298e+06   1.839809e-18   0.000000e+00   0.000000e+00
     2032000   2.031999e-05   1.728068e+01   5.392519e+00   2.072647e+01   1.974164e+06  -1.136590e+06  -2.617977e+06   3.785684e+11   2.465657e+11   1.784239e+11   3.470298e+06   1.225472e-18   0.000000e+00   0.000000e+00
     2040000   2.039999e-05   1.743973e+01   5.302294e+00   2.051757e+01   2.000749e+06  -1.120040e+06  -2.604895e+06   2.878953e+11   1.703505e+11   1.478775e+11   3.470298e+06   6.948053e-19   0.000000e+00   0.000000e+00
     2048000   2.047999e-05   1.760061e+01   5.213149e+00   2.030962e+01   2.020156e+06  -1.109603e+06  -2.594363e+06   1.978543e+11   9.143945e+10   1.149548e+11   3.470298e+06   3.154039e-19   0.000000e+00   0.000000e+00
     2056000   2.055999e-05   1.776276e+01   5.124584e+00   2.010240e+01   2.032342e+06  -1.105654e+06  -2.586520e+06   1.067285e+11   6.911565e+09   8.090673e+10   3.470298e+06   9.342198e-20   0.000000e+00   0.000000e+00
     2064000   2.063999e-05   1.792563e+01   5.036066e+00   1.989573e+01   2.041383e+06  -1.108523e+06  -2.578158e+06   2.503841e+11  -8.269434e+10   2.338093e+11   3.470298e+06   6.446820e-19   0.000000e+00   0.000000e+00
     2072000   2.071999e-05   1.809032e+01   4.947175e+00   1.969067e+01   2.080206e+06  -1.112831e+06  -2.545058e+06   5.826334e+11  -1.427799e+10   4.824568e+11   3.470298e+06   2.972891e-18   0.000000e+00   0.000000e+00
     2080000   2.079999e-05   1.825868e+01   4.858199e+00   1.948865e+01   2.129713e+06  -1.110321e+06  -2.504891e+06   6.544979e+11   7.844913e+10   5.216920e+11   3.470298e+06   3.670136e-18   0.000000e+00   0.000000e+00
     2088000   2.087999e-05   1.843123e+01   4.769730e+00   1.928997e+01   2.184792e+06  -1.100062e+06  -2.461608e+06   7.214843e+11   1.789023e+11   5.603982e+11   3.470298e+06   4.500614e-18   0.000000e+00   0.000000e+00
     2096000   2.095999e-05   1.860839e+01   4.682413e+00   1.909488e+01   2.244974e+06  -1.081430e+06  -2.415279e+06   7.818882e+11   2.875498e+11   5.980026e+11   3.470298e+06   5.461671e-18   0.000000e+00   0.000000e+00
     2104000   2.103999e-05   1.879054e+01   4.596941e+00   1.890361e+01   2.309617e+06  -1.053806e+06  -2.366037e+06   8.326476e+11   4.043549e+11   6.326922e+11   3.470298e+06   6.528749e-18   0.000000e+00   0.000000e+00
     2112000   2.111999e-05   1.897802e+01   4.514060e+00   1.871638e+01   2.377895e+06  -1.016583e+06  -2.314118e+06   8.722641e+11   5.280343e+11   6.643338e+11   3.470298e+06   7.691584e-18   0.000000e+00   0.000000e+00
     2120000   2.119999e-05   1.917108e+01   4.434559e+00   1.853341e+01   2.448833e+06  -9.691924e+05  -2.259835e+06   8.990586e+11   6.581118e+11   6.919934e+11   3.470299e+06   8.934239e-18   0.000000e+00   0.000000e+00
     2128000   2.127999e-05   1.936988e+01   4.359273e+00   1.835486e+01   2.521323e+06  -9.111739e+05  -2.203558e+06   9.107663e+11   7.929808e+11   7.141964e+11   3.470299e+06   1.022286e-17   0.000000e+00   0.000000e+00
     2136000   2.135999e-05   1.957449e+01   4.289064e+00   1.818088e+01   2.594100e+06  -8.421881e+05  -2.145773e+06   9.075750e+11   9.315243e+11   7.315774e+11   3.470299e+06   1.156408e-17   0.000000e+00   0.000000e+00
     2144000   2.143999e-05   1.978491e+01   4.224820e+00   1.801157e+01   2.665904e+06  -7.620532e+05  -2.086913e+06   8.853104e+11   1.071508e+12   7.396480e+11   3.470299e+06   1.287468e-17   0.000000e+00   0.000000e+00
     2152000   2.151999e-05   2.000098e+01   4.167433e+00   1.784699e+01   2.735370e+06  -6.707834e+05  -2.027506e+06   8.481175e+11   1.209928e+12   7.439132e+11   3.470300e+06   1.421282e-17   0.000000e+00   0.000000e+00
     2160000   2.159999e-05   2.022247e+01   4.117787e+00   1.768717e+01   2.801150e+06  -5.685449e+05  -1.968070e+06   7.935539e+11   1.345215e+12   7.408366e+11   3.470300e+06   1.551920e-17   0.000000e+00   0.000000e+00
     2168000   2.167999e-05   2.044903e+01   4.076749e+00   1.753208e+01   2.861937e+06  -4.556738e+05  -1.909099e+06   7.233151e+11   1.475140e+12   7.322129e+11   3.470300e+06   1.680301e-17   0.000000e+00   0.000000e+00
     2176000   2.175999e-05   2.068021e+01   4.045148e+00   1.738169e+01   2.916472e+06  -3.327244e+05  -1.851073e+06   6.375441e+11   1.597199e+12   7.173774e+11   3.470301e+06   1.803275e-17   0.000000e+00   0.000000e+00
     2184000   2.183999e-05   2.091546e+01   4.023763e+00   1.723587e+01   2.963560e+06  -2.004124e+05  -1.794474e+06   5.376775e+11   1.708789e+12   6.971071e+11   3.470301e+06   1.919029e-17   0.000000e+00   0.000000e+00
     2192000   2.191999e-05   2.115415e+01   4.013309e+00   1.709452e+01   3.002181e+06  -5.958856e+04  -1.739641e+06   4.259154e+11   1.809629e+12   6.730137e+11   3.470302e+06   2.030224e-17   0.000000e+00   0.000000e+00
     2200000   2.199999e-05   2.139556e+01   4.014430e+00   1.695748e+01   3.031404e+06   8.876860e+04  -1.686922e+06   3.032124e+11   1.897235e+12   6.446850e+11   3.470302e+06   2.133030e-17   0.000000e+00   0.000000e+00
     2208000   2.207999e-05   2.163891e+01   4.027687e+00   1.682455e+01   3.050440e+06   2.436544e+05  -1.636597e+06   1.715924e+11   1.972339e+12   6.134426e+11   3.470302e+06   2.231097e-17   0.000000e+00   0.000000e+00
     2216000   2.215999e-05   2.188334e+01   4.053559e+00   1.669555e+01   3.058663e+06   4.039800e+05  -1.588832e+06   3.315418e+10   2.033727e+12   5.808970e+11   3.470303e+06   2.323914e-17   0.000000e+00   0.000000e+00
     2224000   2.223999e-05   2.212799e+01   4.092439e+00   1.657027e+01   3.055538e+06   5.686269e+05  -1.543813e+06  -1.115301e+11   2.080135e+12   5.453963e+11   3.470304e+06   2.408193e-17   0.000000e+00   0.000000e+00
     2232000   2.231999e-05   2.237192e+01   4.144623e+00   1.644846e+01   3.040661e+06   7.364037e+05  -1.501700e+06  -2.608249e+11   2.112430e+12   5.077399e+11   3.470304e+06   2.486789e-17   0.000000e+00   0.000000e+00
     2240000   2.239999e-05   2.261417e+01   4.210319e+00   1.632991e+01   3.013752e+06   9.062496e+05  -1.462541e+06  -4.126524e+11   2.131111e+12   4.701665e+11   3.470305e+06   2.561986e-17   0.000000e+00   0.000000e+00
     2248000   2.247999e-05   2.285379e+01   4.289649e+00   1.621438e+01   2.974596e+06   1.077070e+06  -1.426436e+06  -5.662374e+11   2.137001e+12   4.327717e+11   3.470305e+06   2.635590e-17   0.000000e+00   0.000000e+00
     2256000   2.255999e-05   2.308978e+01   4.382648e+00   1.610160e+01   2.923087e+06   1.247823e+06  -1.393386e+06  -7.215025e+11   2.129916e+12   3.937831e+11   3.470306e+06   2.706994e-17   0.000000e+00   0.000000e+00
     2264000   2.263999e-05   2.332115e+01   4.489273e+00   1.599135e+01   2.859161e+06   1.417543e+06  -1.363378e+06  -8.764654e+11   2.111381e+12   3.571749e+11   3.470306e+06   2.780497e-17   0.000000e+00   0.000000e+00
     2272000   2.271999e-05   2.354691e+01   4.609402e+00   1.588338e+01   2.782813e+06   1.585290e+06  -1.336353e+06  -1.032123e+12   2.080708e+12   3.189764e+11   3.470307e+06   2.854596e-17   0.000000e+00   0.000000e+00
     2280000   2.279999e-05   2.376607e+01   4.742844e+00   1.577746e+01   2.694009e+06   1.750226e+06  -1.312273e+06  -1.187913e+12   2.040675e+12   2.829743e+11   3.470308e+06   2.937277e-17   0.000000e+00   0.000000e+00
     2288000   2.287999e-05   2.397762e+01   4.889341e+00   1.567334e+01   2.592734e+06   1.911529e+06  -1.291056e+06  -1.343644e+12   1.990321e+12   2.484679e+11   3.470308e+06   3.027089e-17   0.000000e+00   0.000000e+00
     2296000   2.295999e-05   2.418058e+01   5.048570e+00   1.557082e+01   2.478976e+06   2.068404e+06  -1.272568e+06  -1.500358e+12   1.930340e+12   2.147711e+11   3.470309e+06   3.128322e-17   0.000000e+00   0.000000e+00
     2304000   2.303999e-05   2.437392e+01   5.220148e+00   1.546966e+01   2.352656e+06   2.220106e+06  -1.256657e+06  -1.658037e+12   1.860706e+12   1.831143e+11   3.470310e+06   3.243324e-17   0.000000e+00   0.000000e+00
     2312000   2.311999e-05   2.455666e+01   5.403629e+00   1.536969e+01   2.213652e+06   2.365866e+06  -1.243172e+06  -1.817358e+12   1.781492e+12   1.542075e+11   3.470310e+06   3.375990e-17   0.000000e+00   0.000000e+00
     2320000   2.319999e-05   2.472777e+01   5.598507e+00   1.527070e+01   2.061819e+06   2.504884e+06  -1.231876e+06  -1.978793e+12   1.692088e+12   1.286697e+11   3.470311e+06   3.529231e-17   0.000000e+00   0.000000e+00
     2328000   2.327999e-05   2.488620e+01   5.804207e+00   1.517253e+01   1.896929e+06   2.636296e+06  -1.222568e+06  -2.143813e+12   1.591123e+12   1.046483e+11   3.470312e+06   3.707482e-17   0.000000e+00   0.000000e+00
     2336000   2.335999e-05   2.503092e+01   6.020085e+00   1.507504e+01   1.718709e+06   2.759142e+06  -1.215008e+06  -2.312160e+12   1.477612e+12   8.472076e+10   3.470313e+06   3.914208e-17   0.000000e+00   0.000000e+00
     2344000   2.343999e-05   2.516084e+01   6.245413e+00   1.497809e+01   1.526881e+06   2.872323e+06  -1.208914e+06  -2.484097e+12   1.349291e+12   6.832382e+10   3.470314e+06   4.152799e-17   0.000000e+00   0.000000e+00
     2352000   2.351999e-05   2.527485e+01   6.479366e+00   1.488158e+01   1.321135e+06   2.974562e+06  -1.204021e+06  -2.659717e+12   1.203602e+12   5.503085e+10   3.470315e+06   4.427951e-17   0.000000e+00   0.000000e+00
     2360000   2.359999e-05   2.537184e+01   6.721010e+00   1.478542e+01   1.101223e+06   3.064343e+06  -1.200084e+06  -2.838429e+12   1.037418e+12   4.430560e+10   3.470316e+06   4.744292e-17   0.000000e+00   0.000000e+00
     2368000   2.367999e-05   2.545066e+01   6.969282e+00   1.468955e+01   8.669420e+05   3.139900e+06  -1.196886e+06  -3.018240e+12   8.472018e+11   3.625352e+10   3.470317e+06   5.104708e-17   0.000000e+00   0.000000e+00
     2376000   2.375999e-05   2.551017e+01   7.222960e+00   1.459391e+01   6.182927e+05   3.199138e+06  -1.194293e+06  -3.197209e+12   6.287331e+11   2.887656e+10   3.470318e+06   5.514714e-17   0.000000e+00   0.000000e+00
     2384000   2.383999e-05   2.554921e+01   7.480644e+00   1.449845e+01   3.555414e+05   3.239624e+06  -1.192285e+06  -3.369884e+12   3.777363e+11   2.136657e+10   3.470319e+06   5.972263e-17   0.000000e+00   0.000000e+00
     2392000   2.391999e-05   2.556669e+01   7.740725e+00   1.440312e+01   7.933029e+04   3.258574e+06  -1.191019e+06  -3.533288e+12   8.950589e+10   9.437219e+09   3.470321e+06   6.487968e-17   0.000000e+00   0.000000e+00
     2400000   2.399999e-05   2.556158e+01   8.001358e+00   1.430785e+01  -2.091690e+05   3.252857e+06  -1.190926e+06  -3.676353e+12  -2.396535e+11  -8.997293e+09   3.470322e+06   7.049332e-17   0.000000e+00   0.000000e+00
     2408000   2.407999e-05   2.553295e+01   8.260434e+00   1.421252e+01  -5.080517e+05   3.219063e+06  -1.192754e+06  -3.790477e+12  -6.127205e+11  -3.921602e+10   3.470324e+06   7.657822e-17   0.000000e+00   0.000000e+00
     2416000   2.415999e-05   2.548009e+01   8.515565e+00   1.411693e+01  -8.144722e+05   3.153628e+06  -1.197674e+06  -3.863308e+12  -1.030697e+12  -8.686584e+10   3.470326e+06   8.307217e-17   0.000000e+00   0.000000e+00
     2424000   2.423999e-05   2.540254e+01   8.764076e+00   1.402077e+01  -1.124559e+06   3.053023e+06  -1.207308e+06  -3.878791e+12  -1.491268e+12  -1.583012e+11   3.470327e+06   8.981846e-17   0.000000e+00   0.000000e+00
     2432000   2.431999e-05   2.530020e+01   9.003025e+00   1.392358e+01  -1.433053e+06   2.914089e+06  -1.223776e+06  -3.820370e+12  -1.987209e+12  -2.584610e+11   3.470330e+06   9.665900e-17   0.000000e+00   0.000000e+00
     2440000   2.439999e-05   2.517346e+01   9.229244e+00   1.382472e+01  -1.733348e+06   2.734438e+06  -1.249622e+06  -3.671474e+12  -2.506930e+12  -3.931603e+11   3.470332e+06   1.034523e-16   0.000000e+00   0.000000e+00
     2448000   2.447999e-05   2.502329e+01   9.439417e+00   1.372331e+01  -2.017536e+06   2.512892e+06  -1.287687e+06  -3.415142e+12  -3.031086e+12  -5.644479e+11   3.470334e+06   1.099461e-16   0.000000e+00   0.000000e+00
     2456000   2.455999e-05   2.485133e+01   9.630203e+00   1.361828e+01  -2.276541e+06   2.250047e+06  -1.340852e+06  -3.040675e+12  -3.534943e+12  -7.695033e+11   3.470337e+06   1.159938e-16   0.000000e+00   0.000000e+00
     2464000   2.463999e-05   2.465998e+01   9.798395e+00   1.350831e+01  -2.500660e+06   1.948701e+06  -1.411566e+06  -2.543060e+12  -3.988304e+12  -1.000957e+12   3.470339e+06   1.214058e-16   0.000000e+00   0.000000e+00
     2472000   2.471999e-05   2.445241e+01   9.941106e+00   1.339192e+01  -2.680310e+06   1.614098e+06  -1.501298e+06  -1.929035e+12  -4.360204e+12  -1.244007e+12   3.470342e+06   1.261037e-16   0.000000e+00   0.000000e+00
     2480000   2.479999e-05   2.423255e+01   1.005597e+01   1.326759e+01  -2.806770e+06   1.253971e+06  -1.610245e+06  -1.217701e+12  -4.622335e+12  -1.477240e+12   3.470345e+06   1.300040e-16   0.000000e+00   0.000000e+00
     2488000   2.487999e-05   2.400493e+01   1.014132e+01   1.313381e+01  -2.873364e+06   8.779533e+05  -1.736747e+06  -4.381458e+11  -4.754747e+12  -1.678857e+12   3.470348e+06   1.330538e-16   0.000000e+00   0.000000e+00
     2496000   2.495999e-05   2.377452e+01   1.019631e+01   1.298933e+01  -2.876059e+06   4.970391e+05  -1.877385e+06   3.728865e+11  -4.743554e+12  -1.827242e+12   3.470351e+06   1.349291e-16   0.000000e+00   0.000000e+00
     2504000   2.503999e-05   2.354648e+01   1.022101e+01   1.283319e+01  -2.814152e+06   1.223605e+05  -2.027050e+06   1.170625e+12  -4.599988e+12  -1.902979e+12   3.470354e+06   1.358250e-16   0.000000e+00   0.000000e+00
     2512000   2.511999e-05   2.332591e+01   1.021633e+01   1.266492e+01  -2.690080e+06  -2.356524e+05  -2.179751e+06   1.919137e+12  -4.332159e+12  -1.900221e+12   3.470357e+06   1.353577e-16   0.000000e+00   0.000000e+00
     2520000   2.519999e-05   2.311758e+01   1.018399e+01   1.248453e+01  -2.509309e+06  -5.682025e+05  -2.328930e+06   2.583994e+12  -3.966619e+12  -1.816480e+12   3.470360e+06   1.335359e-16   0.000000e+00   0.000000e+00
     2528000   2.527999e-05   2.292574e+01   1.012628e+01   1.229254e+01  -2.279234e+06  -8.686087e+05  -2.468609e+06   3.147601e+12  -3.533848e+12  -1.662815e+12   3.470363e+06   1.306783e-16   0.000000e+00   0.000000e+00
     2536000   2.535999e-05   2.275398e+01   1.004598e+01   1.208995e+01  -2.008665e+06  -1.132527e+06  -2.593469e+06   3.598254e+12  -3.058981e+12  -1.451166e+12   3.470366e+06   1.267846e-16   0.000000e+00   0.000000e+00
     2544000   2.543999e-05   2.260520e+01   9.946113e+00   1.187809e+01  -1.706521e+06  -1.357696e+06  -2.699612e+06   3.936190e+12  -2.569311e+12  -1.196128e+12   3.470368e+06   1.221883e-16   0.000000e+00   0.000000e+00
     2552000   2.551999e-05   2.248155e+01   9.829797e+00   1.165859e+01  -1.381604e+06  -1.543715e+06  -2.784168e+06   4.168886e+12  -2.083235e+12  -9.137582e+11   3.470371e+06   1.171441e-16   0.000000e+00   0.000000e+00
     2560000   2.559999e-05   2.238453e+01   9.700139e+00   1.143324e+01  -1.042140e+06  -1.691491e+06  -2.845399e+06   4.302148e+12  -1.615019e+12  -6.156845e+11   3.470374e+06   1.116461e-16   0.000000e+00   0.000000e+00
     2568000   2.567999e-05   2.231499e+01   9.560129e+00   1.120396e+01  -6.955024e+05  -1.802884e+06  -2.882602e+06   4.351819e+12  -1.175222e+12  -3.150335e+11   3.470376e+06   1.060519e-16   0.000000e+00   0.000000e+00
     2576000   2.575999e-05   2.227327e+01   9.412582e+00   1.097266e+01  -3.478619e+05  -1.880360e+06  -2.895991e+06   4.330084e+12  -7.676185e+11  -2.177691e+10   3.470378e+06   1.004460e-16   0.000000e+00   0.000000e+00
     2584000   2.583999e-05   2.225923e+01   9.260103e+00   1.074122e+01  -4.210734e+03  -1.926654e+06  -2.886439e+06   4.253727e+12  -3.957231e+11   2.578703e+11   3.470380e+06   9.513768e-17   0.000000e+00   0.000000e+00
     2592000   2.591999e-05   2.227239e+01   9.105073e+00   1.051141e+01   3.316490e+05  -1.944611e+06  -2.855180e+06   4.135942e+12  -5.883056e+10   5.204260e+11   3.470382e+06   9.027129e-17   0.000000e+00   0.000000e+00
     2600000   2.599999e-05   2.231200e+01   8.949647e+00   1.028493e+01   6.564972e+05  -1.936986e+06  -2.803687e+06   3.979289e+12   2.441755e+11   7.630176e+11   3.470384e+06   8.557737e-17   0.000000e+00   0.000000e+00
     2608000   2.607999e-05   2.237706e+01   8.795767e+00   1.006332e+01   9.676752e+05  -1.906391e+06  -2.733653e+06   3.795051e+12   5.153841e+11   9.839202e+11   3.470386e+06   8.121234e-17   0.000000e+00   0.000000e+00
     2616000   2.615999e-05   2.246641e+01   8.645172e+00   9.847990e+00   1.263236e+06  -1.855271e+06  -2.646847e+06   3.591002e+12   7.576004e+11   1.182759e+12   3.470388e+06   7.722370e-17   0.000000e+00   0.000000e+00
     2624000   2.623999e-05   2.257873e+01   8.499410e+00   9.640224e+00   1.541923e+06  -1.785908e+06  -2.544919e+06   3.372459e+12   9.717684e+11   1.361317e+12   3.470390e+06   7.360269e-17   0.000000e+00   0.000000e+00
     2632000   2.631999e-05   2.271264e+01   8.359857e+00   9.441162e+00   1.802683e+06  -1.700394e+06  -2.429529e+06   3.144905e+12   1.162045e+12   1.520129e+12   3.470391e+06   7.038548e-17   0.000000e+00   0.000000e+00
     2640000   2.639999e-05   2.286667e+01   8.227728e+00   9.251819e+00   2.044914e+06  -1.600607e+06  -2.302175e+06   2.909677e+12   1.329102e+12   1.660404e+12   3.470393e+06   6.746712e-17   0.000000e+00   0.000000e+00
     2648000   2.647999e-05   2.303932e+01   8.104094e+00   9.073093e+00   2.268108e+06  -1.488288e+06  -2.164329e+06   2.670041e+12   1.475733e+12   1.783231e+12   3.470394e+06   6.485537e-17   0.000000e+00   0.000000e+00
     2656000   2.655999e-05   2.322905e+01   7.989893e+00   8.905771e+00   2.472029e+06  -1.365049e+06  -2.017266e+06   2.428152e+12   1.602643e+12   1.891002e+12   3.470396e+06   6.253607e-17   0.000000e+00   0.000000e+00
     2664000   2.663999e-05   2.343432e+01   7.885939e+00   8.750542e+00   2.656535e+06  -1.232333e+06  -1.862212e+06   2.185188e+12   1.712360e+12   1.984047e+12   3.470397e+06   6.047612e-17   0.000000e+00   0.000000e+00
     2672000   2.671999e-05   2.365358e+01   7.792936e+00   8.608004e+00   2.821663e+06  -1.091490e+06  -1.700157e+06   1.943167e+12   1.806047e+12   2.065436e+12   3.470398e+06   5.871056e-17   0.000000e+00   0.000000e+00
     2680000   2.679999e-05   2.388527e+01   7.711484e+00   8.478677e+00   2.967431e+06  -9.437389e+05  -1.532117e+06   1.701329e+12   1.885212e+12   2.133858e+12   3.470400e+06   5.714288e-17   0.000000e+00   0.000000e+00
     2688000   2.687999e-05   2.412785e+01   7.642091e+00   8.363000e+00   3.093917e+06  -7.902321e+05  -1.359003e+06   1.461358e+12   1.950267e+12   2.192819e+12   3.470401e+06   5.582193e-17   0.000000e+00   0.000000e+00
     2696000   2.695999e-05   2.437979e+01   7.585172e+00   8.261354e+00   3.201299e+06  -6.320351e+05  -1.181485e+06   1.223548e+12   2.002400e+12   2.243999e+12   3.470402e+06   5.475534e-17   0.000000e+00   0.000000e+00
     2704000   2.703999e-05   2.463956e+01   7.541064e+00   8.174064e+00   3.289725e+06  -4.701487e+05  -1.000184e+06   9.874805e+11   2.042682e+12   2.287651e+12   3.470403e+06   5.391813e-17   0.000000e+00   0.000000e+00
     2712000   2.711999e-05   2.490564e+01   7.510022e+00   8.101408e+00   3.359306e+06  -3.055212e+05  -8.157358e+05   7.524495e+11   2.071026e+12   2.322889e+12   3.470405e+06   5.324360e-17   0.000000e+00   0.000000e+00
     2720000   2.719999e-05   2.517655e+01   7.492229e+00   8.043615e+00   3.410142e+06  -1.390965e+05  -6.287289e+05   5.183991e+11   2.087257e+12   2.349793e+12   3.470406e+06   5.270223e-17   0.000000e+00   0.000000e+00
     2728000   2.727999e-05   2.545077e+01   7.487790e+00   8.000865e+00   3.442319e+06   2.822091e+04  -4.397333e+05   2.860696e+11   2.093491e+12   2.373534e+12   3.470407e+06   5.244928e-17   0.000000e+00   0.000000e+00
     2736000   2.735999e-05   2.572682e+01   7.496745e+00   7.973297e+00   3.455915e+06   1.955802e+05  -2.492636e+05   5.407445e+10   2.088715e+12   2.388184e+12   3.470408e+06   5.229801e-17   0.000000e+00   0.000000e+00
     2744000   2.743999e-05   2.600322e+01   7.519063e+00   7.961010e+00   3.450973e+06   3.621998e+05  -5.778569e+04  -1.775598e+11   2.074604e+12   2.397932e+12   3.470409e+06   5.238378e-17   0.000000e+00   0.000000e+00
     2752000   2.751999e-05   2.627848e+01   7.554654e+00   7.964065e+00   3.427502e+06   5.272270e+05   1.341995e+05  -4.092236e+11   2.049459e+12   2.400799e+12   3.470410e+06   5.262269e-17   0.000000e+00   0.000000e+00
     2760000   2.759999e-05   2.655113e+01   7.603354e+00   7.982482e+00   3.385490e+06   6.898054e+05   3.261647e+05  -6.413025e+11   2.013881e+12   2.397682e+12   3.470412e+06   5.306045e-17   0.000000e+00   0.000000e+00
     2768000   2.767999e-05   2.681967e+01   7.664936e+00   8.016238e+00   3.324882e+06   8.491275e+05   5.175966e+05  -8.741681e+11   1.967483e+12   2.387893e+12   3.470413e+06   5.369062e-17   0.000000e+00   0.000000e+00
     2776000   2.775999e-05   2.708261e+01   7.739104e+00   8.065270e+00   3.245603e+06   1.004313e+06   7.079482e+05  -1.107832e+12   1.910322e+12   2.368997e+12   3.470414e+06   5.447794e-17   0.000000e+00   0.000000e+00
     2784000   2.783999e-05   2.733846e+01   7.825491e+00   8.129466e+00   3.147554e+06   1.154463e+06   8.966060e+05  -1.343309e+12   1.841804e+12   2.344339e+12   3.470415e+06   5.553687e-17   0.000000e+00   0.000000e+00
     2792000   2.791999e-05   2.758572e+01   7.923660e+00   8.208661e+00   3.030648e+06   1.298674e+06   1.082778e+06  -1.579803e+12   1.761771e+12   2.308845e+12   3.470416e+06   5.677164e-17   0.000000e+00   0.000000e+00
     2800000   2.799999e-05   2.782286e+01   8.033096e+00   8.302625e+00   2.894770e+06   1.435987e+06   1.265720e+06  -1.817571e+12   1.669084e+12   2.263360e+12   3.470418e+06   5.823544e-17   0.000000e+00   0.000000e+00
     2808000   2.807999e-05   2.804837e+01   8.153206e+00   8.411069e+00   2.739783e+06   1.565359e+06   1.444662e+06  -2.057336e+12   1.562938e+12   2.208275e+12   3.470419e+06   5.999972e-17   0.000000e+00   0.000000e+00
     2816000   2.815999e-05   2.826071e+01   8.283311e+00   8.533641e+00   2.565543e+06   1.685675e+06   1.618736e+06  -2.298918e+12   1.442479e+12   2.141512e+12   3.470420e+06   6.207711e-17   0.000000e+00   0.000000e+00
     2824000   2.823999e-05   2.845834e+01   8.422641e+00   8.669909e+00   2.371958e+06   1.795758e+06   1.786867e+06  -2.540476e+12   1.306928e+12   2.058966e+12   3.470422e+06   6.441223e-17   0.000000e+00   0.000000e+00
     2832000   2.831999e-05   2.863971e+01   8.570326e+00   8.819348e+00   2.159026e+06   1.894319e+06   1.947820e+06  -2.782735e+12   1.154399e+12   1.961847e+12   3.470423e+06   6.713216e-17   0.000000e+00   0.000000e+00
     2840000   2.839999e-05   2.880327e+01   8.725388e+00   8.981333e+00   1.926796e+06   1.979956e+06   2.100257e+06  -3.022090e+12   9.833973e+11   1.845489e+12   3.470425e+06   7.014902e-17   0.000000e+00   0.000000e+00
     2848000   2.847999e-05   2.894749e+01   8.886733e+00   9.155120e+00   1.675557e+06   2.051137e+06   2.242589e+06  -3.258235e+12   7.925117e+11   1.709608e+12   3.470426e+06   7.358224e-17   0.000000e+00   0.000000e+00
     2856000   2.855999e-05   2.907086e+01   9.053139e+00   9.339836e+00   1.405617e+06   2.106170e+06   2.373216e+06  -3.489275e+12   5.794536e+11   1.552453e+12   3.470428e+06   7.749844e-17   0.000000e+00   0.000000e+00
     2864000   2.863999e-05   2.917191e+01   9.223240e+00   9.534473e+00   1.117618e+06   2.143205e+06   2.490278e+06  -3.709498e+12   3.423098e+11   1.370256e+12   3.470430e+06   8.183149e-17   0.000000e+00   0.000000e+00
     2872000   2.871999e-05   2.924922e+01   9.395518e+00   9.737865e+00   8.124675e+05   2.160228e+06   2.591758e+06  -3.915980e+12   7.879678e+10   1.161974e+12   3.470432e+06   8.669383e-17   0.000000e+00   0.000000e+00
     2880000   2.879999e-05   2.930148e+01   9.568285e+00   9.948680e+00   4.915470e+05   2.155040e+06   2.675461e+06  -4.102566e+12  -2.135096e+11   9.257856e+11   3.470434e+06   9.210819e-17   0.000000e+00   0.000000e+00
     2888000   2.887999e-05   2.932749e+01   9.739668e+00   1.016540e+01   1.566889e+05   2.125227e+06   2.739121e+06  -4.263582e+12  -5.371952e+11   6.607621e+11   3.470436e+06   9.818314e-17   0.000000e+00   0.000000e+00
     2896000   2.895999e-05   2.932624e+01   9.907597e+00   1.038634e+01  -1.896056e+05   2.068237e+06   2.780357e+06  -4.387339e+12  -8.933998e+11   3.654569e+11   3.470438e+06   1.048167e-16   0.000000e+00   0.000000e+00
     2904000   2.903999e-05   2.929694e+01   1.006979e+01   1.060960e+01  -5.439571e+05   1.981401e+06   2.796805e+06  -4.463440e+12  -1.282912e+12   4.085329e+10   3.470440e+06   1.120331e-16   0.000000e+00   0.000000e+00
     2912000   2.911999e-05   2.923911e+01   1.022375e+01   1.083311e+01  -9.020166e+05   1.862055e+06   2.786232e+06  -4.477213e+12  -1.706163e+12  -3.091341e+11   3.470443e+06   1.197317e-16   0.000000e+00   0.000000e+00
     2920000   2.919999e-05   2.915267e+01   1.036678e+01   1.105463e+01  -1.258297e+06   1.707616e+06   2.746767e+06  -4.416206e+12  -2.159213e+12  -6.806352e+11   3.470446e+06   1.279194e-16   0.000000e+00   0.000000e+00
     2928000   2.927999e-05   2.903800e+01   1.049598e+01   1.127178e+01  -1.606272e+06   1.515859e+06   2.676952e+06  -4.265114e+12  -2.637278e+12  -1.065738e+12   3.470449e+06   1.365100e-16   0.000000e+00   0.000000e+00
     2936000   2.935999e-05   2.889609e+01   1.060828e+01   1.148211e+01  -1.937990e+06   1.285173e+06   2.576153e+06  -4.006307e+12  -3.130819e+12  -1.451877e+12   3.470452e+06   1.452271e-16   0.000000e+00   0.000000e+00
     2944000   2.943999e-05   2.872861e+01   1.070055e+01   1.168315e+01  -2.244067e+06   1.015099e+06   2.444953e+06  -3.623100e+12  -3.619560e+12  -1.822518e+12   3.470455e+06   1.534817e-16   0.000000e+00   0.000000e+00
     2952000   2.951999e-05   2.853800e+01   1.076967e+01   1.187255e+01  -2.514242e+06   7.067324e+05   2.285432e+06  -3.108947e+12  -4.083147e+12  -2.157422e+12   3.470459e+06   1.609745e-16   0.000000e+00   0.000000e+00
     2960000   2.959999e-05   2.832757e+01   1.081269e+01   1.204817e+01  -2.737936e+06   3.631578e+05   2.101412e+06  -2.462128e+12  -4.494903e+12  -2.430970e+12   3.470462e+06   1.671234e-16   0.000000e+00   0.000000e+00
     2968000   2.967999e-05   2.810144e+01   1.082698e+01   1.220827e+01  -2.905159e+06  -1.019528e+04   1.898441e+06  -1.700513e+12  -4.822439e+12  -2.627996e+12   3.470466e+06   1.716853e-16   0.000000e+00   0.000000e+00
     2976000   2.975999e-05   2.786447e+01   1.081047e+01   1.235160e+01  -3.007613e+06  -4.053944e+05   1.683472e+06  -8.490263e+11  -5.036362e+12  -2.729430e+12   3.470470e+06   1.741872e-16   0.000000e+00   0.000000e+00
     2984000   2.983999e-05   2.762210e+01   1.076181e+01   1.247751e+01  -3.039704e+06  -8.122471e+05   1.464460e+06   5.099778e+10  -5.110349e+12  -2.728317e+12   3.470474e+06   1.743251e-16   0.000000e+00   0.000000e+00
     2992000   2.991999e-05   2.738006e+01   1.068051e+01   1.258603e+01  -2.999284e+06  -1.219118e+06   1.249904e+06   9.541885e+11  -5.034309e+12  -2.620362e+12   3.470478e+06   1.720354e-16   0.000000e+00   0.000000e+00
     3000000   2.999999e-05   2.714410e+01   1.056707e+01   1.267783e+01  -2.888320e+06  -1.613821e+06   1.047582e+06   1.806758e+12  -4.807733e+12  -2.424630e+12   3.470481e+06   1.675507e-16   0.000000e+00   0.000000e+00
     3008000   3.007999e-05   2.691965e+01   1.042293e+01   1.275414e+01  -2.712658e+06  -1.984849e+06   8.637860e+05   2.565633e+12  -4.446950e+12  -2.160868e+12   3.470485e+06   1.611609e-16   0.000000e+00   0.000000e+00
     3016000   3.015999e-05   2.671156e+01   1.025039e+01   1.281664e+01  -2.481243e+06  -2.322431e+06   7.028767e+05   3.197308e+12  -3.978077e+12  -1.856962e+12   3.470488e+06   1.532090e-16   0.000000e+00   0.000000e+00
     3024000   3.023999e-05   2.652385e+01   1.005243e+01   1.286727e+01  -2.204958e+06  -2.619339e+06   5.670401e+05   3.685343e+12  -3.435626e+12  -1.539160e+12   3.470492e+06   1.441617e-16   0.000000e+00   0.000000e+00
     3032000   3.031999e-05   2.635965e+01   9.832503e+00   1.290804e+01  -1.895415e+06  -2.871138e+06   4.563989e+05   4.030244e+12  -2.856156e+12  -1.229571e+12   3.470495e+06   1.345946e-16   0.000000e+00   0.000000e+00
     3040000   3.039999e-05   2.622118e+01   9.594300e+00   1.294093e+01  -1.563777e+06  -3.076092e+06   3.696134e+05   4.239110e+12  -2.268629e+12  -9.448984e+11   3.470498e+06   1.247115e-16   0.000000e+00   0.000000e+00
     3048000   3.047999e-05   2.610977e+01   9.341566e+00   1.296776e+01  -1.220146e+06  -3.234657e+06   3.043178e+05   4.334072e+12  -1.700151e+12  -6.932919e+11   3.470500e+06   1.150805e-16   0.000000e+00   0.000000e+00
     3056000   3.055999e-05   2.602605e+01   9.077934e+00   1.299012e+01  -8.728662e+05  -3.349041e+06   2.577126e+05   4.333995e+12  -1.166403e+12  -4.777854e+11   3.470503e+06   1.058189e-16   0.000000e+00   0.000000e+00
     3064000   3.063999e-05   2.597003e+01   8.806811e+00   1.300941e+01  -5.285456e+05  -3.422504e+06   2.269624e+05   4.263126e+12  -6.780965e+11  -2.967188e+11   3.470505e+06   9.724764e-17   0.000000e+00   0.000000e+00
     3072000   3.071999e-05   2.594127e+01   8.531323e+00   1.302679e+01  -1.922132e+05  -3.458848e+06   2.093856e+05   4.138005e+12  -2.389444e+11  -1.476767e+11   3.470507e+06   8.935182e-17   0.000000e+00   0.000000e+00
     3080000   3.079999e-05   2.593897e+01   8.254279e+00   1.304320e+01   1.325699e+05  -3.462052e+06   2.026121e+05   3.976966e+12   1.507306e+11  -2.581414e+10   3.470509e+06   8.227549e-17   0.000000e+00   0.000000e+00
     3088000   3.087999e-05   2.596211e+01   7.978175e+00   1.305944e+01   4.434275e+05  -3.435976e+06   2.046532e+05   3.791188e+12   4.936050e+11   7.351236e+10   3.470511e+06   7.595155e-17   0.000000e+00   0.000000e+00
     3096000   3.095999e-05   2.600950e+01   7.705208e+00   1.307614e+01   7.388348e+05  -3.384205e+06   2.138667e+05   3.592269e+12   7.939542e+11   1.540465e+11   3.470512e+06   7.042663e-17   0.000000e+00   0.000000e+00
     3104000   3.103999e-05   2.607988e+01   7.437301e+00   1.309381e+01   1.017939e+06  -3.309964e+06   2.289183e+05   3.385113e+12   1.056216e+12   2.198454e+11   3.470514e+06   6.556701e-17   0.000000e+00   0.000000e+00
     3112000   3.111999e-05   2.617193e+01   7.176137e+00   1.311289e+01   1.280410e+06  -3.216077e+06   2.487460e+05   3.176519e+12   1.285837e+12   2.742611e+11   3.470515e+06   6.139057e-17   0.000000e+00   0.000000e+00
     3120000   3.119999e-05   2.628430e+01   6.923187e+00   1.313372e+01   1.526178e+06  -3.104994e+06   2.725366e+05   2.967937e+12   1.486780e+12   3.190652e+11   3.470517e+06   5.776547e-17   0.000000e+00   0.000000e+00
     3128000   3.127999e-05   2.641567e+01   6.679740e+00   1.315658e+01   1.755342e+06  -2.978843e+06   2.996002e+05   2.761709e+12   1.663212e+12   3.565042e+11   3.470518e+06   5.464598e-17   0.000000e+00   0.000000e+00
     3136000   3.135999e-05   2.656472e+01   6.446925e+00   1.318173e+01   1.968107e+06  -2.839463e+06   3.294082e+05   2.558123e+12   1.818059e+12   3.878143e+11   3.470519e+06   5.194146e-17   0.000000e+00   0.000000e+00
     3144000   3.143999e-05   2.673014e+01   6.225737e+00   1.320935e+01   2.164775e+06  -2.688415e+06   3.615088e+05   2.359251e+12   1.955351e+12   4.139433e+11   3.470520e+06   4.966159e-17   0.000000e+00   0.000000e+00
     3152000   3.151999e-05   2.691066e+01   6.017054e+00   1.323962e+01   2.345649e+06  -2.527053e+06   3.955416e+05   2.162979e+12   2.075978e+12   4.363790e+11   3.470521e+06   4.767622e-17   0.000000e+00   0.000000e+00
     3160000   3.159999e-05   2.710503e+01   5.821649e+00   1.327268e+01   2.510938e+06  -2.356640e+06   4.312338e+05   1.969592e+12   2.181866e+12   4.555216e+11   3.470522e+06   4.595559e-17   0.000000e+00   0.000000e+00
     3168000   3.167999e-05   2.731200e+01   5.640202e+00   1.330866e+01   2.660861e+06  -2.178303e+06   4.683444e+05   1.778790e+12   2.274186e+12   4.715275e+11   3.470523e+06   4.445456e-17   0.000000e+00   0.000000e+00
     3176000   3.175999e-05   2.753036e+01   5.473303e+00   1.334765e+01   2.795589e+06  -1.993123e+06   5.066366e+05   1.589840e+12   2.353229e+12   4.852006e+11   3.470524e+06   4.311623e-17   0.000000e+00   0.000000e+00
     3184000   3.183999e-05   2.775890e+01   5.321459e+00   1.338974e+01   2.915296e+06  -1.802097e+06   5.459285e+05   1.403086e+12   2.420287e+12   4.968792e+11   3.470525e+06   4.193522e-17   0.000000e+00   0.000000e+00
     3192000   3.191999e-05   2.799641e+01   5.185098e+00   1.343502e+01   3.020142e+06  -1.606182e+06   5.860683e+05   1.218323e+12   2.475638e+12   5.065851e+11   3.470526e+06   4.087763e-17   0.000000e+00   0.000000e+00
     3200000   3.199999e-05   2.824173e+01   5.064574e+00   1.348353e+01   3.110254e+06  -1.406348e+06   6.269493e+05   1.035029e+12   2.518599e+12   5.150382e+11   3.470527e+06   3.989160e-17   0.000000e+00   0.000000e+00
     3208000   3.207999e-05   2.849367e+01   4.960162e+00   1.353535e+01   3.185795e+06  -1.203530e+06   6.684216e+05   8.539584e+11   2.550032e+12   5.214959e+11   3.470528e+06   3.897730e-17   0.000000e+00   0.000000e+00
     3216000   3.215999e-05   2.875107e+01   4.872062e+00   1.359050e+01   3.246916e+06  -9.987040e+05   7.104211e+05   6.749991e+11   2.569630e+12   5.274442e+11   3.470529e+06   3.810961e-17   0.000000e+00   0.000000e+00
     3224000   3.223999e-05   2.901279e+01   4.800399e+00   1.364902e+01   3.293841e+06  -7.927684e+05   7.528004e+05   4.986986e+11   2.576914e+12   5.317929e+11   3.470530e+06   3.725347e-17   0.000000e+00   0.000000e+00
     3232000   3.231999e-05   2.927771e+01   4.745223e+00   1.371095e+01   3.326791e+06  -5.866753e+05   7.955200e+05   3.259097e+11   2.573446e+12   5.350132e+11   3.470530e+06   3.643845e-17   0.000000e+00   0.000000e+00
     3240000   3.239999e-05   2.954472e+01   4.706510e+00   1.377631e+01   3.346068e+06  -3.813550e+05   8.384403e+05   1.567538e+11   2.557539e+12   5.377721e+11   3.470531e+06   3.560580e-17   0.000000e+00   0.000000e+00
     3248000   3.247999e-05   2.981273e+01   4.684161e+00   1.384511e+01   3.352004e+06  -1.777183e+05   8.815207e+05  -7.490649e+09   2.531382e+12   5.388967e+11   3.470532e+06   3.479334e-17   0.000000e+00   0.000000e+00
     3256000   3.255999e-05   3.008069e+01   4.678008e+00   1.391736e+01   3.345007e+06   2.338238e+04   9.246496e+05  -1.663670e+11   2.494403e+12   5.388409e+11   3.470533e+06   3.397118e-17   0.000000e+00   0.000000e+00
     3264000   3.263999e-05   3.034759e+01   4.687812e+00   1.399305e+01   3.325525e+06   2.211088e+05   9.677794e+05  -3.195834e+11   2.446848e+12   5.392002e+11   3.470534e+06   3.313939e-17   0.000000e+00   0.000000e+00
     3272000   3.271999e-05   3.061246e+01   4.713273e+00   1.407220e+01   3.294079e+06   4.146450e+05   1.010804e+06  -4.654908e+11   2.389864e+12   5.366823e+11   3.470534e+06   3.228870e-17   0.000000e+00   0.000000e+00
     3280000   3.279999e-05   3.087434e+01   4.754025e+00   1.415478e+01   3.251246e+06   6.032699e+05   1.053601e+06  -6.040011e+11   2.324306e+12   5.330604e+11   3.470535e+06   3.143275e-17   0.000000e+00   0.000000e+00
     3288000   3.287999e-05   3.113237e+01   4.809648e+00   1.424076e+01   3.197660e+06   7.863297e+05   1.096027e+06  -7.340792e+11   2.250499e+12   5.271406e+11   3.470536e+06   3.055039e-17   0.000000e+00   0.000000e+00
     3296000   3.295999e-05   3.138570e+01   4.879672e+00   1.433013e+01   3.134015e+06   9.631925e+05   1.137907e+06  -8.555154e+11   2.169875e+12   5.195927e+11   3.470536e+06   2.966085e-17   0.000000e+00   0.000000e+00
     3304000   3.303999e-05   3.163356e+01   4.963580e+00   1.442281e+01   3.061021e+06   1.133363e+06   1.179096e+06  -9.677508e+11   2.083508e+12   5.097041e+11   3.470537e+06   2.876280e-17   0.000000e+00   0.000000e+00
     3312000   3.311999e-05   3.187523e+01   5.060821e+00   1.451876e+01   2.979415e+06   1.296432e+06   1.219420e+06  -1.070773e+12   1.992722e+12   4.976977e+11   3.470538e+06   2.786861e-17   0.000000e+00   0.000000e+00
     3320000   3.319999e-05   3.211006e+01   5.170811e+00   1.461789e+01   2.889978e+06   1.452062e+06   1.258642e+06  -1.163546e+12   1.897893e+12   4.821190e+11   3.470538e+06   2.694963e-17   0.000000e+00   0.000000e+00
     3328000   3.327999e-05   3.233744e+01   5.292946e+00   1.472010e+01   2.793501e+06   1.600008e+06   1.296520e+06  -1.246669e+12   1.800262e+12   4.644643e+11   3.470539e+06   2.602806e-17   0.000000e+00   0.000000e+00
     3336000   3.335999e-05   3.255685e+01   5.426602e+00   1.482529e+01   2.690776e+06   1.740084e+06   1.332846e+06  -1.319427e+12   1.701311e+12   4.425930e+11   3.470539e+06   2.509507e-17   0.000000e+00   0.000000e+00
     3344000   3.343999e-05   3.276782e+01   5.571147e+00   1.493331e+01   2.582635e+06   1.872227e+06   1.367264e+06  -1.382585e+12   1.602350e+12   4.174726e+11   3.470540e+06   2.417108e-17   0.000000e+00   0.000000e+00
     3352000   3.351999e-05   3.296995e+01   5.725947e+00   1.504400e+01   2.469849e+06   1.996459e+06   1.399517e+06  -1.435399e+12   1.503726e+12   3.880876e+11   3.470540e+06   2.323000e-17   0.000000e+00   0.000000e+00
     3360000   3.359999e-05   3.316289e+01   5.890372e+00   1.515717e+01   2.353174e+06   2.112873e+06   1.429333e+06  -1.479779e+12   1.406875e+12   3.565802e+11   3.470541e+06   2.231592e-17   0.000000e+00   0.000000e+00
     3368000   3.367999e-05   3.334638e+01   6.063803e+00   1.527262e+01   2.233366e+06   2.221642e+06   1.456379e+06  -1.514184e+12   1.312819e+12   3.193907e+11   3.470541e+06   2.139167e-17   0.000000e+00   0.000000e+00
     3376000   3.375999e-05   3.352017e+01   6.245637e+00   1.539011e+01   2.111147e+06   2.322998e+06   1.480338e+06  -1.539982e+12   1.221435e+12   2.795156e+11   3.470542e+06   2.047393e-17   0.000000e+00   0.000000e+00
     3384000   3.383999e-05   3.368411e+01   6.435292e+00   1.550938e+01   1.987190e+06   2.417202e+06   1.500959e+06  -1.557973e+12   1.134527e+12   2.356131e+11   3.470542e+06   1.958243e-17   0.000000e+00   0.000000e+00
     3392000   3.391999e-05   3.383809e+01   6.632210e+00   1.563016e+01   1.862061e+06   2.504649e+06   1.517936e+06  -1.568700e+12   1.052292e+12   1.880380e+11   3.470543e+06   1.871783e-17   0.000000e+00   0.000000e+00
     3400000   3.399999e-05   3.398203e+01   6.835865e+00   1.575214e+01   1.736354e+06   2.585703e+06   1.530975e+06  -1.573068e+12   9.749556e+11   1.374893e+11   3.470543e+06   1.788928e-17   0.000000e+00   0.000000e+00
     3408000   3.407999e-05   3.411590e+01   7.045762e+00   1.587501e+01   1.610522e+06   2.660761e+06   1.539884e+06  -1.571840e+12   9.024638e+11   8.460122e+10   3.470544e+06   1.710127e-17   0.000000e+00   0.000000e+00
     3416000   3.415999e-05   3.423972e+01   7.261438e+00   1.599841e+01   1.485025e+06   2.730242e+06   1.544393e+06  -1.564964e+12   8.354267e+11   2.792370e+10   3.470544e+06   1.635095e-17   0.000000e+00   0.000000e+00
     3424000   3.423999e-05   3.435352e+01   7.482464e+00   1.612199e+01   1.360251e+06   2.794582e+06   1.544250e+06  -1.554013e+12   7.738249e+11  -3.149701e+10   3.470544e+06   1.565971e-17   0.000000e+00   0.000000e+00
     3432000   3.431999e-05   3.445739e+01   7.708445e+00   1.624536e+01   1.236473e+06   2.854198e+06   1.539276e+06  -1.539760e+12   7.172567e+11  -9.308991e+10   3.470545e+06   1.503238e-17   0.000000e+00   0.000000e+00
     3440000   3.439999e-05   3.455139e+01   7.939020e+00   1.636814e+01   1.113923e+06   2.909492e+06   1.529285e+06  -1.523357e+12   6.659419e+11  -1.573425e+11   3.470545e+06   1.448629e-17   0.000000e+00   0.000000e+00
     3448000   3.447999e-05   3.463565e+01   8.173859e+00   1.648991e+01   9.927532e+05   2.960865e+06   1.514069e+06  -1.506172e+12   6.192295e+11  -2.233521e+11   3.470545e+06   1.403454e-17   0.000000e+00   0.000000e+00
     3456000   3.455999e-05   3.471027e+01   8.412664e+00   1.661024e+01   8.730353e+05   3.008667e+06   1.493458e+06  -1.486849e+12   5.764533e+11  -2.921128e+11   3.470546e+06   1.365256e-17   0.000000e+00   0.000000e+00
     3464000   3.463999e-05   3.477538e+01   8.655159e+00   1.672871e+01   7.547764e+05   3.053203e+06   1.467294e+06  -1.469550e+12   5.375712e+11  -3.626453e+11   3.470546e+06   1.340178e-17   0.000000e+00   0.000000e+00
     3472000   3.471999e-05   3.483107e+01   8.901096e+00   1.684486e+01   6.378780e+05   3.094744e+06   1.435397e+06  -1.452850e+12   5.013235e+11  -4.352115e+11   3.470546e+06   1.325339e-17   0.000000e+00   0.000000e+00
     3480000   3.479999e-05   3.487747e+01   9.150243e+00   1.695822e+01   5.221544e+05   3.133484e+06   1.397613e+06  -1.440192e+12   4.674917e+11  -5.100479e+11   3.470546e+06   1.326036e-17   0.000000e+00   0.000000e+00
     3488000   3.487999e-05   3.491464e+01   9.402383e+00   1.706831e+01   4.073365e+05   3.169555e+06   1.353769e+06  -1.430699e+12   4.343881e+11  -5.865221e+11   3.470547e+06   1.339928e-17   0.000000e+00   0.000000e+00
     3496000   3.495999e-05   3.494265e+01   9.657302e+00   1.717466e+01   2.930212e+05   3.202990e+06   1.303722e+06  -1.427798e+12   4.012585e+11  -6.648851e+11   3.470547e+06   1.372177e-17   0.000000e+00   0.000000e+00
     3504000   3.503999e-05   3.496153e+01   9.914789e+00   1.727674e+01   1.787283e+05   3.233722e+06   1.247317e+06  -1.430802e+12   3.667022e+11  -7.456494e+11   3.470547e+06   1.422024e-17   0.000000e+00   0.000000e+00
     3512000   3.511999e-05   3.497123e+01   1.017462e+01   1.737405e+01   6.378710e+04   3.261564e+06   1.184413e+06  -1.444541e+12   3.285708e+11  -8.269776e+11   3.470548e+06   1.495205e-17   0.000000e+00   0.000000e+00
     3520000   3.519999e-05   3.497169e+01   1.043655e+01   1.746607e+01  -5.257556e+04   3.286157e+06   1.114951e+06  -1.467145e+12   2.850802e+11  -9.093889e+11   3.470548e+06   1.589855e-17   0.000000e+00   0.000000e+00
     3528000   3.527999e-05   3.496276e+01   1.070030e+01   1.755227e+01  -1.713398e+05   3.306964e+06   1.038913e+06  -1.503331e+12   2.336163e+11  -9.915247e+11   3.470548e+06   1.712921e-17   0.000000e+00   0.000000e+00
     3536000   3.535999e-05   3.494419e+01   1.096555e+01   1.763212e+01  -2.936518e+05   3.323232e+06   9.563514e+05  -1.556987e+12   1.709016e+11  -1.071909e+12   3.470549e+06   1.871191e-17   0.000000e+00   0.000000e+00
     3544000   3.543999e-05   3.491564e+01   1.123187e+01   1.770512e+01  -4.209072e+05   3.333903e+06   8.675488e+05  -1.627542e+12   9.316406e+10  -1.147606e+12   3.470549e+06   2.064503e-17   0.000000e+00   0.000000e+00
     3552000   3.551999e-05   3.487667e+01   1.149879e+01   1.777078e+01  -5.546475e+05   3.337604e+06   7.729696e+05  -1.720204e+12  -4.487151e+09  -1.214907e+12   3.470550e+06   2.303721e-17   0.000000e+00   0.000000e+00
     3560000   3.559999e-05   3.482668e+01   1.176566e+01   1.782866e+01  -6.966362e+05   3.332552e+06   6.734365e+05  -1.834816e+12  -1.269114e+11  -1.269920e+12   3.470550e+06   2.594721e-17   0.000000e+00   0.000000e+00
     3568000   3.567999e-05   3.476493e+01   1.203170e+01   1.787843e+01  -8.488332e+05   3.316473e+06   5.702728e+05  -1.974578e+12  -2.810412e+11  -1.304577e+12   3.470551e+06   2.950268e-17   0.000000e+00   0.000000e+00
     3576000   3.575999e-05   3.469054e+01   1.229592e+01   1.791986e+01  -1.013352e+06   3.286515e+06   4.654751e+05  -2.142384e+12  -4.751109e+11  -1.309339e+12   3.470552e+06   3.391802e-17   0.000000e+00   0.000000e+00
     3584000   3.583999e-05   3.460242e+01   1.255708e+01   1.795294e+01  -1.192206e+06   3.239193e+06   3.619529e+05  -2.333305e+12  -7.168433e+11  -1.270082e+12   3.470552e+06   3.932717e-17   0.000000e+00   0.000000e+00
     3592000   3.591999e-05   3.449935e+01   1.281362e+01   1.797792e+01  -1.387177e+06   3.170309e+06   2.638552e+05  -2.541414e+12  -1.014518e+12  -1.170969e+12   3.470553e+06   4.601684e-17   0.000000e+00   0.000000e+00
     3600000   3.599999e-05   3.438001e+01   1.306362e+01   1.799545e+01  -1.599373e+06   3.074972e+06   1.769205e+05  -2.761867e+12  -1.379714e+12  -9.867034e+11   3.470554e+06   5.456604e-17   0.000000e+00   0.000000e+00
     3608000   3.607999e-05   3.424300e+01   1.330476e+01   1.800673e+01  -1.828608e+06   2.947728e+06   1.088515e+05  -2.963835e+12  -1.812948e+12  -6.934941e+11   3.470556e+06   6.519832e-17   0.000000e+00   0.000000e+00
     3616000   3.615999e-05   3.408704e+01   1.353426e+01   1.801364e+01  -2.072412e+06   2.782986e+06   6.974793e+04  -3.118759e+12  -2.315943e+12  -2.575848e+11   3.470557e+06   7.872704e-17   0.000000e+00   0.000000e+00
     3624000   3.623999e-05   3.391117e+01   1.374891e+01   1.801899e+01  -2.324893e+06   2.575737e+06   7.231602e+04  -3.170059e+12  -2.871176e+12   3.530074e+11   3.470559e+06   9.566526e-17   0.000000e+00   0.000000e+00
     3632000   3.631999e-05   3.371511e+01   1.394516e+01   1.802672e+01  -2.575001e+06   2.323108e+06   1.316768e+05  -3.044819e+12  -3.440914e+12   1.165151e+12   3.470562e+06   1.167065e-16   0.000000e+00   0.000000e+00
     3640000   3.639999e-05   3.349971e+01   1.411943e+01   1.804202e+01  -2.804865e+06   2.026727e+06   2.644386e+05  -2.645638e+12  -3.946694e+12   2.187602e+12   3.470564e+06   1.421222e-16   0.000000e+00   0.000000e+00
     3648000   3.647999e-05   3.326756e+01   1.426852e+01   1.807142e+01  -2.988425e+06   1.696317e+06   4.864832e+05  -1.871166e+12  -4.268201e+12   3.389044e+12   3.470568e+06   1.724730e-16   0.000000e+00   0.000000e+00
     3656000   3.655999e-05   3.302370e+01   1.439051e+01   1.812254e+01  -3.091481e+06   1.354033e+06   8.088327e+05  -6.220296e+11  -4.209389e+12   4.669765e+12   3.470572e+06   2.073179e-16   0.000000e+00   0.000000e+00
     3664000   3.663999e-05   3.277613e+01   1.448588e+01   1.820350e+01  -3.074181e+06   1.038909e+06   1.230847e+06   1.138133e+12  -3.551250e+12   5.840478e+12   3.470577e+06   2.494199e-16   0.000000e+00   0.000000e+00
     3672000   3.671999e-05   3.253609e+01   1.455897e+01   1.832160e+01  -2.897461e+06   8.078364e+05   1.731205e+06   3.339714e+12  -2.083662e+12   6.562212e+12   3.470583e+06   3.041683e-16   0.000000e+00   0.000000e+00
     3680000   3.679999e-05   3.231755e+01   1.461919e+01   1.848122e+01  -2.533517e+06   7.289295e+05   2.257201e+06   5.768830e+12   2.487148e+11   6.395032e+12   3.470591e+06   3.856131e-16   0.000000e+00   0.000000e+00
     3688000   3.687999e-05   3.213587e+01   1.468135e+01   1.868103e+01  -1.978149e+06   8.645649e+05   2.717448e+06   8.046949e+12   3.202036e+12   4.839348e+12   3.470601e+06   5.112537e-16   0.000000e+00   0.000000e+00
     3696000   3.695999e-05   3.200535e+01   1.476405e+01   1.891087e+01  -1.262905e+06   1.242549e+06   2.984344e+06   9.671236e+12   6.167701e+12   1.525131e+12   3.470614e+06   6.955197e-16   0.000000e+00   0.000000e+00
     3704000   3.703999e-05   3.193608e+01   1.488571e+01   1.914953e+01  -4.640084e+05   1.825892e+06   2.914807e+06   1.002823e+13   8.165204e+12  -3.517831e+12   3.470632e+06   9.329755e-16   0.000000e+00   0.000000e+00
     3712000   3.711999e-05   3.192998e+01   1.505859e+01   1.936510e+01   2.908833e+05   2.496920e+06   2.392954e+06   8.468590e+12   8.216994e+12  -9.602454e+12   3.470656e+06   1.202235e-15   0.000000e+00   0.000000e+00
     3720000   3.719999e-05   3.197674e+01   1.528267e+01   1.951942e+01   8.240885e+05   3.071826e+06   1.389396e+06   4.406167e+12   5.717082e+12  -1.525131e+13   3.470685e+06   1.478921e-15   0.000000e+00   0.000000e+00
     3728000   3.727999e-05   3.205024e+01   1.554201e+01   1.957758e+01   9.231038e+05   3.345626e+06   2.391234e+04  -2.334898e+12   7.756519e+11  -1.824576e+13   3.470721e+06   1.760817e-15   0.000000e+00   0.000000e+00
     3736000   3.735999e-05   3.210786e+01   1.580545e+01   1.952171e+01   4.053269e+05   3.153170e+06  -1.392635e+06  -1.068000e+13  -5.744136e+12  -1.611707e+13   3.470764e+06   2.113357e-15   0.000000e+00   0.000000e+00
     3744000   3.743999e-05   3.209788e+01   1.603204e+01   1.936638e+01  -7.457768e+05   2.422380e+06  -2.371173e+06  -1.742484e+13  -1.239211e+13  -7.181444e+12   3.470816e+06   2.643013e-15   0.000000e+00   0.000000e+00
     3752000   3.751999e-05   3.197994e+01   1.618044e+01   1.916831e+01  -2.204458e+06   1.227558e+06  -2.383378e+06  -1.750678e+13  -1.684973e+13   7.511383e+12   3.470883e+06   3.360368e-15   0.000000e+00   0.000000e+00
     3760000   3.759999e-05   3.175564e+01   1.622422e+01   1.901843e+01  -3.267554e+06  -1.143918e+05  -1.165165e+06  -7.395339e+12  -1.537019e+13   2.224152e+13   3.470965e+06   4.081672e-15   0.000000e+00   0.000000e+00
     3768000   3.767999e-05   3.148793e+01   1.617468e+01   1.900604e+01  -3.195440e+06  -9.829372e+05   9.334216e+05   9.654879e+12  -4.822447e+12   2.798351e+13   3.471063e+06   4.673893e-15   0.000000e+00   0.000000e+00
     3776000   3.775999e-05   3.128041e+01   1.609746e+01   1.916386e+01  -1.801531e+06  -7.323998e+05   2.875259e+06   2.383777e+13   1.108246e+13   1.776234e+13   3.471172e+06   5.230231e-15   0.000000e+00   0.000000e+00
     3784000   3.783999e-05   3.121889e+01   1.608742e+01   1.942781e+01   2.951269e+05   6.038971e+05   3.405598e+06   2.618440e+13   2.009652e+13  -5.829435e+12   3.471295e+06   5.838158e-15   0.000000e+00   0.000000e+00
     3792000   3.791999e-05   3.131705e+01   1.619735e+01   1.965470e+01   1.996785e+06   2.057989e+06   1.956620e+06   1.405783e+13   1.372249e+13  -2.877363e+13   3.471430e+06   6.308315e-15   0.000000e+00   0.000000e+00
     3800000   3.799999e-05   3.149976e+01   1.638938e+01   1.970669e+01   2.273491e+06   2.517453e+06  -7.385766e+05  -7.998909e+12  -2.981713e+12  -3.480291e+13   3.471574e+06   6.674029e-15   0.000000e+00   0.000000e+00
     3808000   3.807999e-05   3.163296e+01   1.656306e+01   1.954910e+01   8.028871e+05   1.614711e+06  -2.966642e+06  -2.669098e+13  -1.857837e+13  -1.734019e+13   3.471726e+06   7.059931e-15   0.000000e+00   0.000000e+00
     3816000   3.815999e-05   3.160644e+01   1.662294e+01   1.928794e+01  -1.448732e+06  -2.000080e+05  -3.148836e+06  -2.538156e+13  -2.466763e+13   1.323998e+13   3.471887e+06   7.423288e-15   0.000000e+00   0.000000e+00
     3824000   3.823999e-05   3.142954e+01   1.653306e+01   1.910636e+01  -2.666475e+06  -1.930484e+06  -1.103766e+06  -2.734333e+12  -1.593426e+13   3.446144e+13   3.472053e+06   7.532974e-15   0.000000e+00   0.000000e+00
     3832000   3.831999e-05   3.123594e+01   1.634791e+01   1.913122e+01  -1.845511e+06  -2.421412e+06   1.669476e+06   2.154549e+13   4.498401e+12   3.035023e+13   3.472218e+06   7.308152e-15   0.000000e+00   0.000000e+00
     3840000   3.839999e-05   3.117100e+01   1.618869e+01   1.933878e+01   3.281091e+05  -1.351255e+06   3.181798e+06   2.951639e+13   1.983964e+13   5.385877e+12   3.472374e+06   6.727797e-15   0.000000e+00   0.000000e+00
     3848000   3.847999e-05   3.128529e+01   1.614650e+01   1.958014e+01   2.398926e+06   2.656573e+05   2.496586e+06   1.989934e+13   1.767411e+13  -2.099699e+13   3.472515e+06   5.976353e-15   0.000000e+00   0.000000e+00
     3856000   3.855999e-05   3.152192e+01   1.621108e+01   1.969580e+01   3.263038e+06   1.161974e+06   2.482602e+05   1.057711e+12   3.860846e+12  -3.193101e+13   3.472640e+06   5.385886e-15   0.000000e+00   0.000000e+00
     3864000   3.863999e-05   3.176618e+01   1.630079e+01   1.961732e+01   2.611540e+06   8.990962e+05  -2.105115e+06  -1.615388e+13  -9.678590e+12  -2.417820e+13   3.472754e+06   4.884840e-15   0.000000e+00   0.000000e+00
     3872000   3.871999e-05   3.191307e+01   1.633200e+01   1.939000e+01   9.767848e+05  -2.165924e+05  -3.325614e+06  -2.239560e+13  -1.701246e+13  -5.472411e+12   3.472856e+06   4.269972e-15   0.000000e+00   0.000000e+00
     3880000   3.879999e-05   3.192391e+01   1.625815e+01   1.912716e+01  -6.112058e+05  -1.632522e+06  -3.003770e+06  -1.543434e+13  -1.722634e+13   1.250064e+13   3.472943e+06   3.595530e-15   0.000000e+00   0.000000e+00
     3888000   3.887999e-05   3.183964e+01   1.607742e+01   1.893929e+01  -1.310450e+06  -2.804738e+06  -1.574169e+06  -1.707090e+12  -1.121375e+13   2.139721e+13   3.473016e+06   3.050891e-15   0.000000e+00   0.000000e+00
     3896000   3.895999e-05   3.174317e+01   1.582670e+01   1.888273e+01  -9.448398e+05  -3.339154e+06   1.400141e+05   9.954983e+12  -1.981628e+12   1.995452e+13   3.473079e+06   2.607320e-15   0.000000e+00   0.000000e+00
     3904000   3.903999e-05   3.170688e+01   1.556256e+01   1.895036e+01   1.074504e+05  -3.157250e+06   1.443215e+06   1.522784e+13   5.986317e+12   1.196507e+13   3.473132e+06   2.137523e-15   0.000000e+00   0.000000e+00
     3912000   3.911999e-05   3.176494e+01   1.533444e+01   1.909374e+01   1.337361e+06  -2.495105e+06   2.012176e+06   1.476300e+13   9.796201e+12   2.336911e+12   3.473174e+06   1.661501e-15   0.000000e+00   0.000000e+00
     3920000   3.919999e-05   3.191578e+01   1.516678e+01   1.925311e+01   2.383974e+06  -1.700726e+06   1.867447e+06   1.106966e+13   9.505009e+12  -5.473752e+12   3.473206e+06   1.263393e-15   0.000000e+00   0.000000e+00
     3928000   3.927999e-05   3.213693e+01   1.505869e+01   1.937917e+01   3.081071e+06  -1.037121e+06   1.222583e+06   6.314004e+12   6.858947e+12  -1.009211e+13   3.473230e+06   9.820423e-16   0.000000e+00   0.000000e+00
     3936000   3.935999e-05   3.239863e+01   1.499417e+01   1.944228e+01   3.401120e+06  -6.197155e+05   3.343685e+05   1.802986e+12   3.594148e+12  -1.167364e+13   3.473250e+06   7.930924e-16   0.000000e+00   0.000000e+00
     3944000   3.943999e-05   3.267235e+01   1.495287e+01   1.943191e+01   3.393836e+06  -4.509219e+05  -5.849145e+05  -1.802406e+12   7.388521e+11  -1.102980e+13   3.473266e+06   6.526721e-16   0.000000e+00   0.000000e+00
     3952000   3.951999e-05   3.293516e+01   1.491673e+01   1.935164e+01   3.143934e+06  -4.803207e+05  -1.395936e+06  -4.245334e+12  -1.338176e+12  -9.101647e+12   3.473279e+06   5.340712e-16   0.000000e+00   0.000000e+00
     3960000   3.959999e-05   3.317143e+01   1.487244e+01   1.921339e+01   2.745420e+06  -6.443852e+05  -2.027604e+06  -5.537012e+12  -2.652522e+12  -6.654652e+12   3.473290e+06   4.265116e-16   0.000000e+00   0.000000e+00
     3968000   3.967999e-05   3.337279e+01   1.481151e+01   1.903255e+01   2.284914e+06  -8.881844e+05  -2.460507e+06  -5.831314e+12  -3.358389e+12  -4.203123e+12   3.473298e+06   3.275101e-16   0.000000e+00   0.000000e+00
     3976000   3.975999e-05   3.353725e+01   1.472934e+01   1.882464e+01   1.832437e+06  -1.169506e+06  -2.708924e+06  -5.379960e+12  -3.616649e+12  -2.078024e+12   3.473304e+06   2.411102e-16   0.000000e+00   0.000000e+00
     3984000   3.983999e-05   3.366752e+01   1.462419e+01   1.860317e+01   1.436871e+06  -1.458433e+06  -2.805753e+06  -4.450657e+12  -3.563833e+12  -4.268854e+11   3.473309e+06   1.700890e-16   0.000000e+00   0.000000e+00
     3992000   3.991999e-05   3.376943e+01   1.449635e+01   1.837870e+01   1.126546e+06  -1.733934e+06  -2.790746e+06  -3.284643e+12  -3.292762e+12   7.198461e+11   3.473312e+06   1.152403e-16   0.000000e+00   0.000000e+00
     4000000   3.999999e-05   3.385034e+01   1.434751e+01   1.815860e+01   9.122192e+05  -1.981756e+06  -2.702667e+06  -2.080352e+12  -2.883084e+12   1.411823e+12   3.473314e+06   7.613545e-17   0.000000e+00   0.000000e+00
     4008000   4.007999e-05   3.391788e+01   1.418025e+01   1.794733e+01   7.912271e+05  -2.192933e+06  -2.574669e+06  -9.662818e+11  -2.384845e+12   1.734265e+12   3.473315e+06   5.009787e-17   0.000000e+00   0.000000e+00
     4016000   4.015999e-05   3.397914e+01   1.399775e+01   1.774703e+01   7.526622e+05  -2.362504e+06  -2.432283e+06  -2.644393e+10  -1.848727e+12   1.787480e+12   3.473316e+06   3.440942e-17   0.000000e+00   0.000000e+00
     4024000   4.023999e-05   3.404011e+01   1.380341e+01   1.755807e+01   7.814739e+05  -2.488763e+06  -2.293314e+06   7.114431e+11  -1.309624e+12   1.663649e+12   3.473317e+06   2.595663e-17   0.000000e+00   0.000000e+00
     4032000   4.031999e-05   3.410553e+01   1.360068e+01   1.737971e+01   8.614319e+05  -2.572590e+06  -2.168790e+06   1.253518e+12  -7.924993e+11   1.437923e+12   3.473317e+06   2.219985e-17   0.000000e+00   0.000000e+00
     4040000   4.039999e-05   3.417890e+01   1.339286e+01   1.721052e+01   9.774394e+05  -2.616614e+06  -2.064433e+06   1.619182e+12  -3.169542e+11   1.168339e+12   3.473318e+06   2.126436e-17   0.000000e+00   0.000000e+00
     4048000   4.047999e-05   3.426254e+01   1.318298e+01   1.704881e+01   1.116453e+06  -2.624671e+06  -1.982063e+06   1.836720e+12   1.072686e+11   8.925171e+11   3.473318e+06   2.175543e-17   0.000000e+00   0.000000e+00
     4056000   4.055999e-05   3.435787e+01   1.297376e+01   1.689282e+01   1.268189e+06  -2.600997e+06  -1.921055e+06   1.941844e+12   4.767215e+11   6.364366e+11   3.473319e+06   2.290748e-17   0.000000e+00   0.000000e+00
     4064000   4.063999e-05   3.446557e+01   1.276755e+01   1.674093e+01   1.424725e+06  -2.550002e+06  -1.879254e+06   1.961542e+12   7.907726e+11   4.140686e+11   3.473319e+06   2.416313e-17   0.000000e+00   0.000000e+00
     4072000   4.071999e-05   3.458580e+01   1.256638e+01   1.659170e+01   1.580404e+06  -2.475825e+06  -1.853797e+06   1.923097e+12   1.056401e+12   2.285889e+11   3.473320e+06   2.531878e-17   0.000000e+00   0.000000e+00
     4080000   4.079999e-05   3.471831e+01   1.237194e+01   1.644397e+01   1.731325e+06  -2.382234e+06  -1.841583e+06   1.845431e+12   1.277134e+12   8.284051e+10   3.473320e+06   2.623972e-17   0.000000e+00   0.000000e+00
     4088000   4.087999e-05   3.486261e+01   1.218565e+01   1.629678e+01   1.874982e+06  -2.272509e+06  -1.839594e+06   1.744200e+12   1.461432e+12  -2.762829e+10   3.473321e+06   2.694332e-17   0.000000e+00   0.000000e+00
     4096000   4.095999e-05   3.501807e+01   1.200869e+01   1.614943e+01   2.009899e+06  -2.149415e+06  -1.845070e+06   1.627362e+12   1.611292e+12  -1.043617e+11   3.473322e+06   2.734228e-17   0.000000e+00   0.000000e+00
     4104000   4.103999e-05   3.518394e+01   1.184203e+01   1.600143e+01   2.135269e+06  -2.015320e+06  -1.855554e+06   1.505999e+12   1.736678e+12  -1.532165e+11   3.473322e+06   2.761336e-17   0.000000e+00   0.000000e+00
     4112000   4.111999e-05   3.535945e+01   1.168648e+01   1.585247e+01   2.250741e+06  -1.872176e+06  -1.868982e+06   1.380817e+12   1.838687e+12  -1.789948e+11   3.473323e+06   2.767532e-17   0.000000e+00   0.000000e+00
     4120000   4.119999e-05   3.554380e+01   1.154268e+01   1.570236e+01   2.356242e+06  -1.721647e+06  -1.883621e+06   1.257383e+12   1.922261e+12  -1.841184e+11   3.473323e+06   2.762610e-17   0.000000e+00   0.000000e+00
     4128000   4.127999e-05   3.573619e+01   1.141118e+01   1.555109e+01   2.451933e+06  -1.565076e+06  -1.898036e+06   1.135343e+12   1.989535e+12  -1.738856e+11   3.473324e+06   2.745700e-17   0.000000e+00   0.000000e+00
     4136000   4.135999e-05   3.593585e+01   1.129240e+01   1.539871e+01   2.538017e+06  -1.403615e+06  -1.911104e+06   1.017606e+12   2.045302e+12  -1.507852e+11   3.473325e+06   2.726987e-17   0.000000e+00   0.000000e+00
     4144000   4.143999e-05   3.614202e+01   1.118670e+01   1.524538e+01   2.614769e+06  -1.238204e+06  -1.921932e+06   9.022691e+11   2.088727e+12  -1.181607e+11   3.473325e+06   2.700618e-17   0.000000e+00   0.000000e+00
     4152000   4.151999e-05   3.635397e+01   1.109437e+01   1.509128e+01   2.682436e+06  -1.069710e+06  -1.929831e+06   7.906438e+11   2.122980e+12  -7.781665e+10   3.473326e+06   2.673246e-17   0.000000e+00   0.000000e+00
     4160000   4.159999e-05   3.657098e+01   1.101562e+01   1.493669e+01   2.741290e+06  -8.988442e+05  -1.934272e+06   6.814261e+11   2.147629e+12  -3.228532e+10   3.473326e+06   2.641758e-17   0.000000e+00   0.000000e+00
     4168000   4.167999e-05   3.679235e+01   1.095060e+01   1.478190e+01   2.791545e+06  -7.262555e+05  -1.934899e+06   5.753436e+11   2.165815e+12   1.711298e+10   3.473327e+06   2.612819e-17   0.000000e+00   0.000000e+00
     4176000   4.175999e-05   3.701740e+01   1.089944e+01   1.462722e+01   2.833403e+06  -5.525440e+05  -1.931457e+06   4.719115e+11   2.176464e+12   6.962298e+10   3.473328e+06   2.582890e-17   0.000000e+00   0.000000e+00
     4184000   4.183999e-05   3.724547e+01   1.086221e+01   1.447298e+01   2.867071e+06  -3.782084e+05  -1.923765e+06   3.701273e+11   2.180709e+12   1.228683e+11   3.473328e+06   2.553257e-17   0.000000e+00   0.000000e+00
     4192000   4.191999e-05   3.747592e+01   1.083893e+01   1.431953e+01   2.892694e+06  -2.037801e+05  -1.911754e+06   2.707834e+11   2.179094e+12   1.774229e+11   3.473329e+06   2.524991e-17   0.000000e+00   0.000000e+00
     4200000   4.199999e-05   3.770809e+01   1.082960e+01   1.416722e+01   2.910417e+06  -2.970746e+04  -1.895418e+06   1.728999e+11   2.172038e+12   2.314196e+11   3.473329e+06   2.497910e-17   0.000000e+00   0.000000e+00
     4208000   4.207999e-05   3.794138e+01   1.083416e+01   1.401638e+01   2.920379e+06   1.436234e+05  -1.874774e+06   7.666083e+10   2.160485e+12   2.849023e+11   3.473330e+06   2.473741e-17   0.000000e+00   0.000000e+00
     4216000   4.215999e-05   3.817515e+01   1.085255e+01   1.386737e+01   2.922689e+06   3.158227e+05  -1.849911e+06  -1.872621e+10   2.143818e+12   3.363884e+11   3.473330e+06   2.450184e-17   0.000000e+00   0.000000e+00
     4224000   4.223999e-05   3.840881e+01   1.088465e+01   1.372050e+01   2.917439e+06   4.865128e+05  -1.820957e+06  -1.120826e+11   2.122702e+12   3.875332e+11   3.473331e+06   2.428929e-17   0.000000e+00   0.000000e+00
     4232000   4.231999e-05   3.864174e+01   1.093034e+01   1.357612e+01   2.904744e+06   6.553316e+05  -1.788026e+06  -2.048624e+11   2.097062e+12   4.357612e+11   3.473331e+06   2.408597e-17   0.000000e+00   0.000000e+00
     4240000   4.239999e-05   3.887337e+01   1.098945e+01   1.343452e+01   2.884698e+06   8.219663e+05  -1.751263e+06  -2.960741e+11   2.067969e+12   4.828918e+11   3.473332e+06   2.391852e-17   0.000000e+00   0.000000e+00
     4248000   4.247999e-05   3.910310e+01   1.106179e+01   1.329601e+01   2.857398e+06   9.860783e+05  -1.710837e+06  -3.857858e+11   2.034589e+12   5.283230e+11   3.473333e+06   2.376331e-17   0.000000e+00   0.000000e+00
     4256000   4.255999e-05   3.933036e+01   1.114714e+01   1.316088e+01   2.822938e+06   1.147401e+06  -1.666893e+06  -4.752589e+11   1.997987e+12   5.704146e+11   3.473333e+06   2.363682e-17   0.000000e+00   0.000000e+00
     4264000   4.263999e-05   3.955458e+01   1.124529e+01   1.302940e+01   2.781376e+06   1.305660e+06  -1.619643e+06  -5.634238e+11   1.957882e+12   6.107450e+11   3.473334e+06   2.353570e-17   0.000000e+00   0.000000e+00
     4272000   4.271999e-05   3.977519e+01   1.135596e+01   1.290182e+01   2.732816e+06   1.460588e+06  -1.569220e+06  -6.505826e+11   1.915164e+12   6.495567e+11   3.473334e+06   2.347991e-17   0.000000e+00   0.000000e+00
     4280000   4.279999e-05   3.999165e+01   1.147889e+01   1.277840e+01   2.677320e+06   1.611961e+06  -1.515781e+06  -7.366492e+11   1.869285e+12   6.867244e+11   3.473335e+06   2.345616e-17   0.000000e+00   0.000000e+00
     4288000   4.287999e-05   4.020338e+01   1.161377e+01   1.265937e+01   2.614962e+06   1.759507e+06  -1.459509e+06  -8.219589e+11   1.819346e+12   7.205951e+11   3.473335e+06   2.343755e-17   0.000000e+00   0.000000e+00
