     timestep     time              x             y              z              vx             vy             vz             ax             ay             az         v_magnitude      ELoss        Electronic      Nuclear
           0   0.000000e+00   1.000000e-01   4.868024e+00   1.886678e+01  -2.483780e+05  -2.127181e+06   2.728983e+06   0.000000e+00   0.000000e+00   0.000000e+00   3.468997e+06   0.000000e+00   0.000000e+00   0.000000e+00
        8000   7.999000e-08   8.964944e-02   4.700041e+00   1.908736e+01  -5.461078e+03  -2.061093e+06   2.790307e+06   3.248252e+12   1.269570e+12   9.441865e+11   3.468998e+06   6.774452e-17   0.000000e+00   0.000000e+00
       16000   1.599900e-07   9.951582e-02   4.541034e+00   1.931447e+01   2.502395e+05  -1.888053e+06   2.899414e+06   2.863159e+12   3.410749e+12   1.973997e+12   3.469000e+06   1.231241e-16   0.000000e+00   0.000000e+00
       24000   2.399900e-07   1.260522e-01   4.405418e+00   1.955483e+01   3.635631e+05  -1.431850e+06   3.138730e+06  -1.143784e+12   8.921113e+12   4.202502e+12   3.469006e+06   5.113505e-16   0.000000e+00   0.000000e+00
       32000   3.199900e-07   1.376738e-01   4.331367e+00   1.982003e+01  -3.007681e+05  -2.478656e+05   3.447082e+06  -1.312757e+13   1.595692e+13   3.216272e+09   3.469045e+06   2.217934e-15   0.000000e+00   0.000000e+00
       40000   3.999900e-07   1.215770e-01   4.302798e+00   2.009395e+01   3.461015e+05  -9.310008e+05   3.323859e+06   1.508433e+13  -1.249785e+13  -5.070048e+12   3.469090e+06   2.125776e-15   0.000000e+00   0.000000e+00
       48000   4.799900e-07   1.889284e-01   4.203667e+00   2.034303e+01   1.238184e+06  -1.406096e+06   2.919682e+06   8.152838e+12  -2.083498e+12  -4.460558e+12   3.469113e+06   4.708386e-16   0.000000e+00   0.000000e+00
       56000   5.599900e-07   3.104557e-01   4.088002e+00   2.056366e+01   1.761974e+06  -1.456722e+06   2.609253e+06   5.319928e+12   2.203207e+11  -3.469278e+12   3.469120e+06   2.096257e-16   0.000000e+00   0.000000e+00
       64000   6.399900e-07   4.665327e-01   3.972955e+00   2.076196e+01   2.120342e+06  -1.412418e+06   2.354579e+06   3.798699e+12   7.622526e+11  -2.963453e+12   3.469124e+06   1.234961e-16   0.000000e+00   0.000000e+00
       72000   7.199900e-07   6.472541e-01   3.862628e+00   2.094119e+01   2.385953e+06  -1.343485e+06   2.130049e+06   2.908768e+12   9.304535e+11  -2.671285e+12   3.469126e+06   8.544526e-17   0.000000e+00   0.000000e+00
       80000   7.999900e-07   8.467204e-01   3.758170e+00   2.110329e+01   2.592699e+06  -1.267358e+06   1.925243e+06   2.303330e+12   9.730502e+11  -2.461255e+12   3.469128e+06   6.389176e-17   0.000000e+00   0.000000e+00
       88000   8.799900e-07   1.060996e+00   3.659882e+00   2.124962e+01   2.758361e+06  -1.189837e+06   1.735104e+06   1.862587e+12   9.684968e+11  -2.296830e+12   3.469129e+06   5.025530e-17   0.000000e+00   0.000000e+00
       96000   9.599900e-07   1.287251e+00   3.567788e+00   2.138123e+01   2.893610e+06  -1.112556e+06   1.556953e+06   1.529603e+12   9.615571e+11  -2.155627e+12   3.469130e+06   4.105994e-17   0.000000e+00   0.000000e+00
      104000   1.039990e-06   1.523358e+00   3.481874e+00   2.149900e+01   3.005663e+06  -1.035214e+06   1.388953e+06   1.277610e+12   9.709002e+11  -2.041041e+12   3.469131e+06   3.498608e-17   0.000000e+00   0.000000e+00
      112000   1.119990e-06   1.767673e+00   3.402181e+00   2.160369e+01   3.099420e+06  -9.570528e+05   1.229844e+06   1.072201e+12   9.825974e+11  -1.937438e+12   3.469131e+06   3.046007e-17   0.000000e+00   0.000000e+00
      120000   1.199990e-06   2.018866e+00   3.328778e+00   2.169599e+01   3.178135e+06  -8.777415e+05   1.078843e+06   9.014542e+11   1.002493e+12  -1.839899e+12   3.469132e+06   2.700368e-17   0.000000e+00   0.000000e+00
      128000   1.279990e-06   2.275844e+00   3.261803e+00   2.177651e+01   3.244409e+06  -7.961772e+05   9.353041e+05   7.584205e+11   1.036490e+12  -1.748468e+12   3.469133e+06   2.442832e-17   0.000000e+00   0.000000e+00
      136000   1.359990e-06   2.537688e+00   3.201458e+00   2.184582e+01   3.300015e+06  -7.120336e+05   7.986188e+05   6.342838e+11   1.068555e+12  -1.668200e+12   3.469133e+06   2.245790e-17   0.000000e+00   0.000000e+00
      144000   1.439990e-06   2.803597e+00   3.147954e+00   2.190446e+01   3.346286e+06  -6.249175e+05   6.683814e+05   5.251643e+11   1.110444e+12  -1.590969e+12   3.469134e+06   2.096852e-17   0.000000e+00   0.000000e+00
      152000   1.519990e-06   3.072873e+00   3.101560e+00   2.195292e+01   3.384265e+06  -5.344556e+05   5.440560e+05   4.251355e+11   1.146353e+12  -1.518334e+12   3.469134e+06   1.972362e-17   0.000000e+00   0.000000e+00
      160000   1.599990e-06   3.344876e+00   3.062519e+00   2.199166e+01   3.414615e+06  -4.408901e+05   4.253400e+05   3.351654e+11   1.196191e+12  -1.450688e+12   3.469134e+06   1.893208e-17   0.000000e+00   0.000000e+00
      168000   1.679990e-06   3.619024e+00   3.031111e+00   2.202111e+01   3.437954e+06  -3.438639e+05   3.116521e+05   2.493798e+11   1.231931e+12  -1.391631e+12   3.469135e+06   1.825099e-17   0.000000e+00   0.000000e+00
      176000   1.759990e-06   3.894771e+00   3.007586e+00   2.204165e+01   3.454621e+06  -2.437658e+05   2.026641e+05   1.678397e+11   1.269682e+12  -1.333652e+12   3.469135e+06   1.774448e-17   0.000000e+00   0.000000e+00
      184000   1.839990e-06   4.171593e+00   2.992183e+00   2.205365e+01   3.464881e+06  -1.409668e+05   9.813092e+04   8.897293e+10   1.294979e+12  -1.280926e+12   3.469136e+06   1.726060e-17   0.000000e+00   0.000000e+00
      192000   1.919990e-06   4.448987e+00   2.985097e+00   2.205745e+01   3.468952e+06  -3.563277e+04  -2.375991e+03   1.282900e+10   1.330172e+12  -1.232066e+12   3.469136e+06   1.706258e-17   0.000000e+00   0.000000e+00
      200000   1.999990e-06   4.726464e+00   2.986519e+00   2.205337e+01   3.466984e+06   7.146213e+04  -9.910184e+04  -6.183380e+10   1.354838e+12  -1.186554e+12   3.469136e+06   1.685398e-17   0.000000e+00   0.000000e+00
      208000   2.079990e-06   5.003546e+00   2.996587e+00   2.204169e+01   3.459100e+06   1.803982e+05  -1.923308e+05  -1.347985e+11   1.365314e+12  -1.143932e+12   3.469137e+06   1.656080e-17   0.000000e+00   0.000000e+00
      216000   2.159990e-06   5.279766e+00   3.015402e+00   2.202269e+01   3.445439e+06   2.901397e+05  -2.822782e+05  -2.066722e+11   1.379614e+12  -1.104681e+12   3.469137e+06   1.643383e-17   0.000000e+00   0.000000e+00
      224000   2.239990e-06   5.554666e+00   3.043027e+00   2.199661e+01   3.426128e+06   4.004291e+05  -3.690823e+05  -2.757565e+11   1.377409e+12  -1.065489e+12   3.469138e+06   1.613385e-17   0.000000e+00   0.000000e+00
      232000   2.319990e-06   5.827801e+00   3.079469e+00   2.196372e+01   3.401360e+06   5.105727e+05  -4.527525e+05  -3.426496e+11   1.372483e+12  -1.026506e+12   3.469138e+06   1.585499e-17   0.000000e+00   0.000000e+00
      240000   2.399990e-06   6.098744e+00   3.124693e+00   2.192425e+01   3.371382e+06   6.198140e+05  -5.334177e+05  -4.060575e+11   1.356243e+12  -9.905671e+11   3.469138e+06   1.549517e-17   0.000000e+00   0.000000e+00
      248000   2.479990e-06   6.367090e+00   3.178604e+00   2.187845e+01   3.336482e+06   7.275906e+05  -6.110825e+05  -4.641111e+11   1.328994e+12  -9.516951e+11   3.469139e+06   1.498578e-17   0.000000e+00   0.000000e+00
      256000   2.559990e-06   6.632459e+00   3.241055e+00   2.182656e+01   3.296992e+06   8.334028e+05  -6.857155e+05  -5.206003e+11   1.307627e+12  -9.138825e+11   3.469139e+06   1.461596e-17   0.000000e+00   0.000000e+00
      264000   2.639990e-06   6.894500e+00   3.311872e+00   2.176882e+01   3.253368e+06   9.365386e+05  -7.572462e+05  -5.691516e+11   1.270024e+12  -8.745633e+11   3.469139e+06   1.402252e-17   0.000000e+00   0.000000e+00
      272000   2.719990e-06   7.152899e+00   3.390820e+00   2.170548e+01   3.206058e+06   1.036578e+06  -8.256083e+05  -6.113964e+11   1.226272e+12  -8.346225e+11   3.469140e+06   1.336023e-17   0.000000e+00   0.000000e+00
      280000   2.799990e-06   7.407387e+00   3.477622e+00   2.163681e+01   3.155669e+06   1.132845e+06  -8.906991e+05  -6.454494e+11   1.174953e+12  -7.924222e+11   3.469140e+06   1.258644e-17   0.000000e+00   0.000000e+00
      288000   2.879990e-06   7.657744e+00   3.571954e+00   2.156306e+01   3.102857e+06   1.224804e+06  -9.523997e+05  -6.743558e+11   1.125180e+12  -7.500286e+11   3.469140e+06   1.185087e-17   0.000000e+00   0.000000e+00
      296000   2.959990e-06   7.903792e+00   3.673476e+00   2.148452e+01   3.048088e+06   1.312485e+06  -1.010681e+06  -6.932824e+11   1.066290e+12  -7.061756e+11   3.469140e+06   1.098398e-17   0.000000e+00   0.000000e+00
      304000   3.039990e-06   8.145407e+00   3.781820e+00   2.140145e+01   2.992142e+06   1.395274e+06  -1.065474e+06  -7.027716e+11   1.000818e+12  -6.629888e+11   3.469141e+06   1.004344e-17   0.000000e+00   0.000000e+00
      312000   3.119990e-06   8.382521e+00   3.896585e+00   2.131414e+01   2.935713e+06   1.472900e+06  -1.116733e+06  -7.040832e+11   9.342033e+11  -6.187830e+11   3.469141e+06   9.089924e-18   0.000000e+00   0.000000e+00
      320000   3.199990e-06   8.615127e+00   4.017338e+00   2.122286e+01   2.879532e+06   1.545035e+06  -1.164516e+06  -6.982884e+11   8.677658e+11  -5.753725e+11   3.469141e+06   8.157328e-18   0.000000e+00   0.000000e+00
      328000   3.279990e-06   8.843270e+00   4.143643e+00   2.112791e+01   2.824246e+06   1.611641e+06  -1.208796e+06  -6.833777e+11   7.986418e+11  -5.318648e+11   3.469141e+06   7.202520e-18   0.000000e+00   0.000000e+00
      336000   3.359990e-06   9.067042e+00   4.275061e+00   2.102955e+01   2.770341e+06   1.672887e+06  -1.249640e+06  -6.619770e+11   7.304444e+11  -4.897118e+11   3.469141e+06   6.288367e-18   0.000000e+00   0.000000e+00
      344000   3.439990e-06   9.286580e+00   4.411156e+00   2.092805e+01   2.718525e+06   1.728510e+06  -1.287174e+06  -6.335503e+11   6.620147e+11  -4.490720e+11   3.469141e+06   5.404667e-18   0.000000e+00   0.000000e+00
      352000   3.519990e-06   9.502070e+00   4.551482e+00   2.082368e+01   2.669207e+06   1.778699e+06  -1.321554e+06  -5.989094e+11   5.939176e+11  -4.102903e+11   3.469142e+06   4.566212e-18   0.000000e+00   0.000000e+00
      360000   3.599990e-06   9.713734e+00   4.695603e+00   2.071668e+01   2.622960e+06   1.823370e+06  -1.352903e+06  -5.582818e+11   5.257181e+11  -3.738479e+11   3.469142e+06   3.777570e-18   0.000000e+00   0.000000e+00
      368000   3.679990e-06   9.921834e+00   4.843080e+00   2.060729e+01   2.580132e+06   1.862679e+06  -1.381408e+06  -5.133946e+11   4.593794e+11  -3.394763e+11   3.469142e+06   3.061463e-18   0.000000e+00   0.000000e+00
      376000   3.759990e-06   1.012665e+01   4.993497e+00   2.049573e+01   2.540991e+06   1.896851e+06  -1.407219e+06  -4.659766e+11   3.974730e+11  -3.056382e+11   3.469142e+06   2.431823e-18   0.000000e+00   0.000000e+00
      384000   3.839990e-06   1.032850e+01   5.146436e+00   2.038221e+01   2.506008e+06   1.925734e+06  -1.430531e+06  -4.102659e+11   3.284418e+11  -2.765695e+11   3.469142e+06   1.830537e-18   0.000000e+00   0.000000e+00
      392000   3.919990e-06   1.052773e+01   5.301480e+00   2.026691e+01   2.475373e+06   1.949557e+06  -1.451448e+06  -3.543670e+11   2.659483e+11  -2.471406e+11   3.469142e+06   1.335906e-18   0.000000e+00   0.000000e+00
      400000   3.999990e-06   1.072468e+01   5.458230e+00   2.015003e+01   2.449302e+06   1.968387e+06  -1.470142e+06  -2.968363e+11   2.050060e+11  -2.200552e+11   3.469142e+06   9.268154e-19   0.000000e+00   0.000000e+00
      408000   4.079990e-06   1.091974e+01   5.616289e+00   2.003174e+01   2.428043e+06   1.982224e+06  -1.486722e+06  -2.342720e+11   1.409338e+11  -1.946976e+11   3.469142e+06   5.847207e-19   0.000000e+00   0.000000e+00
      416000   4.159990e-06   1.111343e+01   5.775181e+00   1.991232e+01   2.418675e+06   1.987209e+06  -1.495313e+06   6.616438e+10  -5.328044e+10   3.621361e+10   3.469142e+06   4.419912e-20   0.000000e+00   0.000000e+00
      424000   4.239990e-06   1.130745e+01   5.933829e+00   1.979311e+01   2.435218e+06   1.977342e+06  -1.481478e+06   3.179803e+11  -1.724686e+11   2.924913e+11   3.469142e+06   1.123230e-18   0.000000e+00   0.000000e+00
      432000   4.319990e-06   1.150322e+01   6.091529e+00   1.967551e+01   2.458159e+06   1.965968e+06  -1.458549e+06   2.556992e+11  -1.120069e+11   2.799672e+11   3.469142e+06   8.113001e-19   0.000000e+00   0.000000e+00
      440000   4.399990e-06   1.170062e+01   6.248512e+00   1.955971e+01   2.476155e+06   1.959419e+06  -1.436760e+06   1.943660e+11  -5.194536e+10   2.641334e+11   3.469142e+06   5.722006e-19   0.000000e+00   0.000000e+00
      448000   4.479990e-06   1.189927e+01   6.405163e+00   1.944559e+01   2.489255e+06   1.957662e+06  -1.416375e+06   1.332005e+11   8.031798e+09   2.451983e+11   3.469142e+06   4.044780e-19   0.000000e+00   0.000000e+00
      456000   4.559990e-06   1.209877e+01   6.561865e+00   1.933305e+01   2.497472e+06   1.960680e+06  -1.397609e+06   7.212609e+10   6.751247e+10   2.235980e+11   3.469142e+06   3.101495e-19   0.000000e+00   0.000000e+00
      464000   4.639990e-06   1.229874e+01   6.718999e+00   1.922193e+01   2.500758e+06   1.968471e+06  -1.380679e+06   9.670287e+09   1.274811e+11   1.992681e+11   3.469142e+06   2.909185e-19   0.000000e+00   0.000000e+00
      472000   4.719990e-06   1.249876e+01   6.876949e+00   1.911208e+01   2.499010e+06   1.981065e+06  -1.365750e+06  -5.361214e+10   1.875281e+11   1.739172e+11   3.469142e+06   3.544118e-19   0.000000e+00   0.000000e+00
      480000   4.799990e-06   1.269844e+01   7.036098e+00   1.900335e+01   2.492114e+06   1.998474e+06  -1.352927e+06  -1.191153e+11   2.478175e+11   1.466501e+11   3.469142e+06   5.039801e-19   0.000000e+00   0.000000e+00
      488000   4.879990e-06   1.289736e+01   7.196835e+00   1.889556e+01   2.479868e+06   2.020752e+06  -1.342296e+06  -1.881538e+11   3.097331e+11   1.186742e+11   3.469142e+06   7.547117e-19   0.000000e+00   0.000000e+00
      496000   4.959990e-06   1.309507e+01   7.359551e+00   1.878852e+01   2.461980e+06   2.047983e+06  -1.333929e+06  -2.598747e+11   3.715469e+11   9.079457e+10   3.469142e+06   1.109732e-18   0.000000e+00   0.000000e+00
      504000   5.039990e-06   1.329112e+01   7.524645e+00   1.868207e+01   2.438166e+06   2.080204e+06  -1.327796e+06  -3.365213e+11   4.345677e+11   6.287985e+10   3.469142e+06   1.588369e-18   0.000000e+00   0.000000e+00
      512000   5.119990e-06   1.348501e+01   7.692520e+00   1.857602e+01   2.407997e+06   2.117534e+06  -1.323838e+06  -4.186857e+11   4.989853e+11   3.657607e+10   3.469142e+06   2.208948e-18   0.000000e+00   0.000000e+00
      520000   5.199990e-06   1.367621e+01   7.863589e+00   1.847020e+01   2.370977e+06   2.160056e+06  -1.321959e+06  -5.080476e+11   5.645290e+11   1.122500e+10   3.469142e+06   2.994242e-18   0.000000e+00   0.000000e+00
      528000   5.279990e-06   1.386416e+01   8.038270e+00   1.836445e+01   2.326518e+06   2.207864e+06  -1.321967e+06  -6.049918e+11   6.310647e+11  -1.076184e+10   3.469142e+06   3.967066e-18   0.000000e+00   0.000000e+00
      536000   5.359990e-06   1.404824e+01   8.216989e+00   1.825864e+01   2.273957e+06   2.261022e+06  -1.323575e+06  -7.108425e+11   6.980680e+11  -2.877684e+10   3.469142e+06   5.155839e-18   0.000000e+00   0.000000e+00
      544000   5.439990e-06   1.422776e+01   8.400177e+00   1.815265e+01   2.212502e+06   2.319572e+06  -1.326414e+06  -8.274293e+11   7.655604e+11  -4.141154e+10   3.469142e+06   6.603916e-18   0.000000e+00   0.000000e+00
      552000   5.519990e-06   1.440198e+01   8.588265e+00   1.804640e+01   2.141227e+06   2.383521e+06  -1.330009e+06  -9.565916e+11   8.330127e+11  -4.721228e+10   3.469143e+06   8.362141e-18   0.000000e+00   0.000000e+00
      560000   5.599990e-06   1.457007e+01   8.781682e+00   1.793984e+01   2.059109e+06   2.452783e+06  -1.333746e+06  -1.098583e+12   8.980771e+11  -4.448740e+10   3.469143e+06   1.045995e-17   0.000000e+00   0.000000e+00
      568000   5.679990e-06   1.473112e+01   8.980846e+00   1.783301e+01   1.965028e+06   2.527139e+06  -1.336857e+06  -1.255970e+12   9.600845e+11  -3.124895e+10   3.469143e+06   1.297604e-17   0.000000e+00   0.000000e+00
      576000   5.759990e-06   1.488412e+01   9.186152e+00   1.772599e+01   1.857702e+06   2.606256e+06  -1.338406e+06  -1.429569e+12   1.016355e+12  -5.128398e+09   3.469143e+06   1.596795e-17   0.000000e+00   0.000000e+00
      584000   5.839990e-06   1.502796e+01   9.397959e+00   1.761894e+01   1.735727e+06   2.689582e+06  -1.337294e+06  -1.622098e+12   1.064606e+12   3.573680e+10   3.469144e+06   1.954488e-17   0.000000e+00   0.000000e+00
      592000   5.919990e-06   1.516140e+01   9.616575e+00   1.751213e+01   1.597625e+06   2.776289e+06  -1.332206e+06  -1.833124e+12   1.100384e+12   9.479972e+10   3.469144e+06   2.377118e-17   0.000000e+00   0.000000e+00
      600000   5.999990e-06   1.528311e+01   9.842225e+00   1.740593e+01   1.441886e+06   2.865189e+06  -1.321598e+06  -2.063527e+12   1.118823e+12   1.741929e+11   3.469145e+06   2.875401e-17   0.000000e+00   0.000000e+00
      608000   6.079990e-06   1.539160e+01   1.007502e+01   1.730086e+01   1.266987e+06   2.954656e+06  -1.303733e+06  -2.311439e+12   1.113201e+12   2.765113e+11   3.469146e+06   3.455742e-17   0.000000e+00   0.000000e+00
      616000   6.159990e-06   1.548528e+01   1.031493e+01   1.719758e+01   1.071527e+06   3.042510e+06  -1.276691e+06  -2.577319e+12   1.077292e+12   4.041109e+11   3.469146e+06   4.134605e-17   0.000000e+00   0.000000e+00
      624000   6.239990e-06   1.556246e+01   1.056171e+01   1.709689e+01   8.542869e+05   3.125943e+06  -1.238409e+06  -2.855750e+12   1.001259e+12   5.572911e+11   3.469147e+06   4.914138e-17   0.000000e+00   0.000000e+00
      632000   6.319990e-06   1.562136e+01   1.081487e+01   1.699979e+01   6.144514e+05   3.201420e+06  -1.186739e+06  -3.141516e+12   8.768779e+11   7.388599e+11   3.469149e+06   5.804523e-17   0.000000e+00   0.000000e+00
      640000   6.399990e-06   1.566016e+01   1.107361e+01   1.690743e+01   3.517677e+05   3.264652e+06  -1.119512e+06  -3.424254e+12   6.935907e+11   9.465374e+11   3.469150e+06   6.800282e-17   0.000000e+00   0.000000e+00
      648000   6.479990e-06   1.567705e+01   1.133675e+01   1.682114e+01   6.692308e+04   3.310565e+06  -1.034742e+06  -3.693306e+12   4.426164e+11   1.177096e+12   3.469152e+06   7.900309e-17   0.000000e+00   0.000000e+00
      656000   6.559990e-06   1.567032e+01   1.160268e+01   1.674238e+01  -2.383376e+05   3.333456e+06  -9.307484e+05  -3.932077e+12   1.172187e+11   1.426519e+12   3.469154e+06   9.087791e-17   0.000000e+00   0.000000e+00
      664000   6.639990e-06   1.563846e+01   1.186933e+01   1.667276e+01  -5.608281e+05   3.327221e+06  -8.062971e+05  -4.120069e+12  -2.859743e+11   1.685423e+12   3.469156e+06   1.032694e-16   0.000000e+00   0.000000e+00
      672000   6.719990e-06   1.558026e+01   1.213410e+01   1.661394e+01  -8.955965e+05   3.285755e+06  -6.608912e+05  -4.235416e+12  -7.624323e+11   1.948634e+12   3.469158e+06   1.158289e-16   0.000000e+00   0.000000e+00
      680000   6.799990e-06   1.549501e+01   1.239396e+01   1.656757e+01  -1.235985e+06   3.203511e+06  -4.949104e+05  -4.254713e+12  -1.302144e+12   2.196518e+12   3.469161e+06   1.277959e-16   0.000000e+00   0.000000e+00
      688000   6.879990e-06   1.538258e+01   1.264546e+01   1.653527e+01  -1.573522e+06   3.076248e+06  -3.095561e+05  -4.161410e+12  -1.884038e+12   2.429403e+12   3.469164e+06   1.389348e-16   0.000000e+00   0.000000e+00
      696000   6.959990e-06   1.524358e+01   1.288489e+01   1.651850e+01  -1.898397e+06   2.901678e+06  -1.071107e+05  -3.937905e+12  -2.479376e+12   2.624122e+12   3.469167e+06   1.481297e-16   0.000000e+00   0.000000e+00
      704000   7.039990e-06   1.507945e+01   1.310847e+01   1.651850e+01  -2.200096e+06   2.680078e+06   1.090944e+05  -3.583130e+12  -3.054147e+12   2.772118e+12   3.469170e+06   1.549339e-16   0.000000e+00   0.000000e+00
      712000   7.119990e-06   1.489246e+01   1.331253e+01   1.653621e+01  -2.468329e+06   2.414623e+06   3.348337e+05  -3.103855e+12  -3.569518e+12   2.861162e+12   3.469174e+06   1.586215e-16   0.000000e+00   0.000000e+00
      720000   7.199990e-06   1.468566e+01   1.349380e+01   1.657219e+01  -2.694044e+06   2.111391e+06   5.651086e+05  -2.524272e+12  -3.992011e+12   2.881752e+12   3.469177e+06   1.588868e-16   0.000000e+00   0.000000e+00
      728000   7.279990e-06   1.446273e+01   1.364957e+01   1.662661e+01  -2.870536e+06   1.778700e+06   7.946505e+05  -1.879145e+12  -4.302471e+12   2.842697e+12   3.469181e+06   1.563483e-16   0.000000e+00   0.000000e+00
      736000   7.359990e-06   1.422779e+01   1.377787e+01   1.669917e+01  -2.994057e+06   1.426400e+06   1.017963e+06  -1.208313e+12  -4.483768e+12   2.729154e+12   3.469184e+06   1.505831e-16   0.000000e+00   0.000000e+00
      744000   7.439990e-06   1.398511e+01   1.387754e+01   1.678918e+01  -3.064134e+06   1.064758e+06   1.229892e+06  -5.510989e+11  -4.535481e+12   2.553738e+12   3.469188e+06   1.421931e-16   0.000000e+00   0.000000e+00
      752000   7.519990e-06   1.373888e+01   1.394825e+01   1.689552e+01  -3.083454e+06   7.035772e+05   1.425683e+06   5.571883e+10  -4.475411e+12   2.329310e+12   3.469191e+06   1.321359e-16   0.000000e+00   0.000000e+00
      760000   7.599990e-06   1.349297e+01   1.399036e+01   1.701676e+01  -3.057213e+06   3.513976e+05   1.601646e+06   5.853801e+11  -4.314199e+12   2.064041e+12   3.469193e+06   1.204953e-16   0.000000e+00   0.000000e+00
      768000   7.679990e-06   1.325076e+01   1.400489e+01   1.715119e+01  -2.992310e+06   1.499461e+04   1.755328e+06   1.020767e+12  -4.084434e+12   1.775113e+12   3.469196e+06   1.083520e-16   0.000000e+00   0.000000e+00
      776000   7.759990e-06   1.301502e+01   1.399331e+01   1.729698e+01  -2.896620e+06  -3.006974e+05   1.885341e+06   1.354836e+12  -3.802202e+12   1.475232e+12   3.469198e+06   9.585927e-17   0.000000e+00   0.000000e+00
      784000   7.839990e-06   1.278791e+01   1.395742e+01   1.745221e+01  -2.778142e+06  -5.924785e+05   1.991543e+06   1.591088e+12  -3.490029e+12   1.181327e+12   3.469200e+06   8.360379e-17   0.000000e+00   0.000000e+00
      792000   7.919990e-06   1.257093e+01   1.389919e+01   1.761501e+01  -2.644392e+06  -8.588342e+05   2.074839e+06   1.737880e+12  -3.166511e+12   9.042953e+11   3.469202e+06   7.196386e-17   0.000000e+00   0.000000e+00
      800000   7.999990e-06   1.236503e+01   1.382070e+01   1.778362e+01  -2.502140e+06  -1.099331e+06   2.136853e+06   1.806609e+12  -2.846523e+12   6.510682e+11   3.469203e+06   6.119727e-17   0.000000e+00   0.000000e+00
      808000   8.079990e-06   1.217066e+01   1.372398e+01   1.795640e+01  -2.357077e+06  -1.314542e+06   2.179805e+06   1.810730e+12  -2.536874e+12   4.281585e+11   3.469205e+06   5.137388e-17   0.000000e+00   0.000000e+00
      816000   8.159990e-06   1.198785e+01   1.361101e+01   1.813195e+01  -2.213806e+06  -1.505669e+06   2.206221e+06   1.763483e+12  -2.244665e+12   2.376777e+11   3.469206e+06   4.258703e-17   0.000000e+00   0.000000e+00
      824000   8.239990e-06   1.181631e+01   1.348367e+01   1.830903e+01  -2.075935e+06  -1.674282e+06   2.218708e+06   1.677717e+12  -1.974180e+12   8.003067e+10   3.469207e+06   3.487224e-17   0.000000e+00   0.000000e+00
      832000   8.319990e-06   1.165548e+01   1.334368e+01   1.848664e+01  -1.946111e+06  -1.822155e+06   2.219865e+06   1.564434e+12  -1.726841e+12  -4.592903e+10   3.469207e+06   2.819226e-17   0.000000e+00   0.000000e+00
      840000   8.399990e-06   1.150466e+01   1.319263e+01   1.866397e+01  -1.826177e+06  -1.951117e+06   2.212153e+06   1.432015e+12  -1.501631e+12  -1.422602e+11   3.469208e+06   2.245298e-17   0.000000e+00   0.000000e+00
      848000   8.479990e-06   1.136300e+01   1.303196e+01   1.884040e+01  -1.717333e+06  -2.062986e+06   2.197786e+06   1.288367e+12  -1.299018e+12  -2.126072e+11   3.469208e+06   1.760895e-17   0.000000e+00   0.000000e+00
      856000   8.559990e-06   1.122958e+01   1.286296e+01   1.901549e+01  -1.620204e+06  -2.159509e+06   2.178731e+06   1.139268e+12  -1.117257e+12  -2.601763e+11   3.469209e+06   1.356739e-17   0.000000e+00   0.000000e+00
      864000   8.639990e-06   1.110345e+01   1.268680e+01   1.918892e+01  -1.535064e+06  -2.242242e+06   2.156697e+06   9.896172e+11  -9.543903e+11  -2.878604e+11   3.469209e+06   1.024125e-17   0.000000e+00   0.000000e+00
      872000   8.719990e-06   1.098365e+01   1.250453e+01   1.936052e+01  -1.461873e+06  -2.312587e+06   2.133138e+06   8.411027e+11  -8.075396e+11  -2.990458e+11   3.469209e+06   7.521107e-18   0.000000e+00   0.000000e+00
      880000   8.799990e-06   1.086924e+01   1.231709e+01   1.953021e+01  -1.400344e+06  -2.371830e+06   2.109235e+06   6.976975e+11  -6.759078e+11  -2.968431e+11   3.469209e+06   5.355358e-18   0.000000e+00   0.000000e+00
      888000   8.879990e-06   1.075929e+01   1.212531e+01   1.969801e+01  -1.350052e+06  -2.421094e+06   2.085923e+06   5.606190e+11  -5.576090e+11  -2.843593e+11   3.469209e+06   3.664985e-18   0.000000e+00   0.000000e+00
      896000   8.959990e-06   1.065288e+01   1.193002e+01   1.986404e+01  -1.316780e+06  -2.454541e+06   2.068027e+06   2.502778e+10  -1.292230e+10   5.985284e+08   3.469209e+06   4.178104e-21   0.000000e+00   0.000000e+00
      904000   9.039990e-06   1.054651e+01   1.173481e+01   2.003018e+01  -1.353708e+06  -2.413221e+06   2.092666e+06  -7.572524e+11   8.521418e+11   4.928273e+11   3.469209e+06   8.006200e-18   0.000000e+00   0.000000e+00
      912000   9.119990e-06   1.043593e+01   1.154435e+01   2.019906e+01  -1.408877e+06  -2.349725e+06   2.128209e+06  -6.240712e+11   7.355111e+11   3.989365e+11   3.469210e+06   5.655614e-18   0.000000e+00   0.000000e+00
      920000   9.199990e-06   1.032137e+01   1.135860e+01   2.037051e+01  -1.453506e+06  -2.295721e+06   2.156943e+06  -4.946828e+11   6.166205e+11   3.229438e+11   3.469210e+06   3.785121e-18   0.000000e+00   0.000000e+00
      928000   9.279990e-06   1.020364e+01   1.117679e+01   2.054403e+01  -1.488270e+06  -2.250951e+06   2.180296e+06  -3.736531e+11   5.016525e+11   2.628556e+11   3.469210e+06   2.389600e-18   0.000000e+00   0.000000e+00
      936000   9.359990e-06   1.008350e+01   1.099821e+01   2.071924e+01  -1.513771e+06  -2.215133e+06   2.199340e+06  -2.621478e+11   3.921486e+11   2.145336e+11   3.469210e+06   1.393842e-18   0.000000e+00   0.000000e+00
      944000   9.439990e-06   9.961665e+00   1.082214e+01   2.089583e+01  -1.530672e+06  -2.187780e+06   2.214967e+06  -1.616862e+11   2.928332e+11   1.775049e+11   3.469210e+06   7.443699e-19   0.000000e+00   0.000000e+00
      952000   9.519990e-06   9.838799e+00   1.064795e+01   2.107357e+01  -1.539685e+06  -2.168211e+06   2.227925e+06  -6.566582e+10   1.985854e+11   1.478824e+11   3.469210e+06   3.406114e-19   0.000000e+00   0.000000e+00
      960000   9.599990e-06   9.715516e+00   1.047503e+01   2.125225e+01  -1.541135e+06  -2.155961e+06   2.238784e+06   2.695981e+10   1.101452e+11   1.246291e+11   3.469210e+06   1.473714e-19   0.000000e+00   0.000000e+00
      968000   9.679990e-06   9.592401e+00   1.030283e+01   2.143173e+01  -1.535584e+06  -2.150351e+06   2.247975e+06   1.129796e+11   2.975494e+10   1.056389e+11   3.469210e+06   1.287626e-19   0.000000e+00   0.000000e+00
      976000   9.759990e-06   9.469995e+00   1.013082e+01   2.161189e+01  -1.523539e+06  -2.150740e+06   2.255784e+06   1.894548e+11  -3.963041e+10   9.017159e+10   3.469210e+06   2.366321e-19   0.000000e+00   0.000000e+00
      984000   9.839990e-06   9.348797e+00   9.958565e+00   2.179262e+01  -1.505453e+06  -2.156421e+06   2.262494e+06   2.618410e+11  -1.015499e+11   7.743920e+10   3.469210e+06   4.404719e-19   0.000000e+00   0.000000e+00
      992000   9.919990e-06   9.229277e+00   9.785663e+00   2.197386e+01  -1.481663e+06  -2.166871e+06   2.268207e+06   3.308030e+11  -1.571697e+11   6.594356e+10   3.469210e+06   7.187222e-19   0.000000e+00   0.000000e+00
     1000000   9.999990e-06   9.111879e+00   9.611753e+00   2.215552e+01  -1.452364e+06  -2.181545e+06   2.273085e+06   3.999515e+11  -2.080996e+11   5.582664e+10   3.469210e+06   1.071156e-18   0.000000e+00   0.000000e+00
     1008000   1.007999e-05   8.997029e+00   9.436521e+00   2.233753e+01  -1.418046e+06  -2.199831e+06   2.277127e+06   4.591179e+11  -2.490677e+11   4.529660e+10   3.469210e+06   1.426657e-18   0.000000e+00   0.000000e+00
     1016000   1.015999e-05   8.885110e+00   9.259704e+00   2.251984e+01  -1.379187e+06  -2.221047e+06   2.280398e+06   5.147018e+11  -2.822084e+11   3.643014e+10   3.469210e+06   1.795229e-18   0.000000e+00   0.000000e+00
     1024000   1.023999e-05   8.776469e+00   9.081093e+00   2.270237e+01  -1.336328e+06  -2.244481e+06   2.282970e+06   5.535464e+11  -3.014016e+11   2.769796e+10   3.469210e+06   2.065817e-18   0.000000e+00   0.000000e+00
     1032000   1.031999e-05   8.671401e+00   8.900536e+00   2.288509e+01  -1.289631e+06  -2.269770e+06   2.284823e+06   6.078367e+11  -3.264355e+11   1.880069e+10   3.469210e+06   2.472529e-18   0.000000e+00   0.000000e+00
     1040000   1.039999e-05   8.570223e+00   8.717892e+00   2.306793e+01  -1.238997e+06  -2.296666e+06   2.285963e+06   6.598454e+11  -3.457220e+11   1.029933e+10   3.469210e+06   2.880743e-18   0.000000e+00   0.000000e+00
     1048000   1.047999e-05   8.473238e+00   8.533052e+00   2.325083e+01  -1.185210e+06  -2.324379e+06   2.286473e+06   6.892092e+11  -3.488027e+11   2.673824e+09   3.469210e+06   3.096941e-18   0.000000e+00   0.000000e+00
     1056000   1.055999e-05   8.380661e+00   8.345983e+00   2.343375e+01  -1.129016e+06  -2.352268e+06   2.286390e+06   7.109667e+11  -3.458545e+11  -4.742733e+09   3.469210e+06   3.244498e-18   0.000000e+00   0.000000e+00
     1064000   1.063999e-05   8.292663e+00   8.156689e+00   2.361664e+01  -1.070474e+06  -2.380087e+06   2.285759e+06   7.455806e+11  -3.455204e+11  -1.060367e+10   3.469210e+06   3.505480e-18   0.000000e+00   0.000000e+00
     1072000   1.071999e-05   8.209423e+00   7.965189e+00   2.379946e+01  -1.010210e+06  -2.407282e+06   2.284708e+06   7.641527e+11  -3.347467e+11  -1.482395e+10   3.469210e+06   3.613495e-18   0.000000e+00   0.000000e+00
     1080000   1.079999e-05   8.131098e+00   7.771537e+00   2.398218e+01  -9.476884e+05  -2.433844e+06   2.283355e+06   7.922156e+11  -3.254257e+11  -1.806751e+10   3.469210e+06   3.808809e-18   0.000000e+00   0.000000e+00
     1088000   1.087999e-05   8.057843e+00   7.575802e+00   2.416479e+01  -8.832689e+05  -2.459358e+06   2.281845e+06   8.192723e+11  -3.118105e+11  -1.893566e+10   3.469211e+06   3.990300e-18   0.000000e+00   0.000000e+00
     1096000   1.095999e-05   7.989786e+00   7.378087e+00   2.434728e+01  -8.181369e+05  -2.483180e+06   2.280327e+06   8.215194e+11  -2.870307e+11  -1.781583e+10   3.469211e+06   3.932200e-18   0.000000e+00   0.000000e+00
     1104000   1.103999e-05   7.926961e+00   7.178544e+00   2.452965e+01  -7.525293e+05  -2.505039e+06   2.279014e+06   8.220179e+11  -2.603201e+11  -1.470461e+10   3.469211e+06   3.860018e-18   0.000000e+00   0.000000e+00
     1112000   1.111999e-05   7.869410e+00   6.977333e+00   2.471193e+01  -6.860567e+05  -2.524899e+06   2.278077e+06   8.429129e+11  -2.367503e+11  -8.549672e+09   3.469211e+06   3.979093e-18   0.000000e+00   0.000000e+00
     1120000   1.119999e-05   7.817190e+00   6.774624e+00   2.489415e+01  -6.197331e+05  -2.542332e+06   2.277696e+06   8.231672e+11  -2.008721e+11  -2.337689e+08   3.469211e+06   3.726436e-18   0.000000e+00   0.000000e+00
     1128000   1.127999e-05   7.770264e+00   6.570625e+00   2.507638e+01  -5.534774e+05  -2.557192e+06   2.278126e+06   8.181969e+11  -1.668551e+11   1.149188e+10   3.469211e+06   3.619865e-18   0.000000e+00   0.000000e+00
     1136000   1.135999e-05   7.728601e+00   6.365553e+00   2.525868e+01  -4.881618e+05  -2.569127e+06   2.279629e+06   8.115279e+11  -1.306483e+11   2.654451e+10   3.469211e+06   3.510520e-18   0.000000e+00   0.000000e+00
     1144000   1.143999e-05   7.692121e+00   6.159647e+00   2.544116e+01  -4.241484e+05  -2.577976e+06   2.282446e+06   7.879314e+11  -8.984070e+10   4.495132e+10   3.469211e+06   3.274762e-18   0.000000e+00   0.000000e+00
     1152000   1.151999e-05   7.660689e+00   5.953164e+00   2.562392e+01  -3.618660e+05  -2.583555e+06   2.286858e+06   7.702580e+11  -4.941484e+10   6.606016e+10   3.469211e+06   3.114751e-18   0.000000e+00   0.000000e+00
     1160000   1.159999e-05   7.634188e+00   5.746367e+00   2.580710e+01  -3.009158e+05  -2.585814e+06   2.293130e+06   7.512949e+11  -6.584228e+09   9.116651e+10   3.469211e+06   2.973055e-18   0.000000e+00   0.000000e+00
     1168000   1.167999e-05   7.612482e+00   5.539529e+00   2.599088e+01  -2.422792e+05  -2.584504e+06   2.301536e+06   7.126857e+11   3.956192e+10   1.194516e+11   3.469211e+06   2.718494e-18   0.000000e+00   0.000000e+00
     1176000   1.175999e-05   7.595338e+00   5.332945e+00   2.617541e+01  -1.867641e+05  -2.579485e+06   2.312316e+06   6.747727e+11   8.655124e+10   1.510545e+11   3.469211e+06   2.520604e-18   0.000000e+00   0.000000e+00
     1184000   1.183999e-05   7.582516e+00   5.126914e+00   2.636092e+01  -1.342452e+05  -2.570652e+06   2.325759e+06   6.421755e+11   1.343334e+11   1.855472e+11   3.469211e+06   2.412801e-18   0.000000e+00   0.000000e+00
     1192000   1.191999e-05   7.573766e+00   4.921746e+00   2.654761e+01  -8.528258e+04  -2.557854e+06   2.342122e+06   5.772322e+11   1.856232e+11   2.237411e+11   3.469212e+06   2.168101e-18   0.000000e+00   0.000000e+00
     1200000   1.199999e-05   7.568739e+00   4.717767e+00   2.673574e+01  -4.118196e+04  -2.540933e+06   2.361651e+06   5.240510e+11   2.373711e+11   2.645308e+11   3.469212e+06   2.081078e-18   0.000000e+00   0.000000e+00
     1208000   1.207999e-05   7.567063e+00   4.515310e+00   2.692557e+01  -1.553412e+03  -2.519749e+06   2.384594e+06   4.637383e+11   2.924480e+11   3.093272e+11   3.469212e+06   2.056735e-18   0.000000e+00   0.000000e+00
     1216000   1.215999e-05   7.568345e+00   4.314728e+00   2.711738e+01   3.261445e+04  -2.494060e+06   2.411230e+06   3.847968e+11   3.488743e+11   3.556555e+11   3.469212e+06   2.056788e-18   0.000000e+00   0.000000e+00
     1224000   1.223999e-05   7.572107e+00   4.116383e+00   2.731146e+01   6.037428e+04  -2.463779e+06   2.441634e+06   3.084355e+11   4.086396e+11   4.047208e+11   3.469212e+06   2.210631e-18   0.000000e+00   0.000000e+00
     1232000   1.231999e-05   7.577830e+00   3.920655e+00   2.750814e+01   8.139280e+04  -2.428553e+06   2.476072e+06   2.113556e+11   4.722913e+11   4.562817e+11   3.469212e+06   2.470162e-18   0.000000e+00   0.000000e+00
     1240000   1.239999e-05   7.584896e+00   3.727953e+00   2.770775e+01   9.373620e+04  -2.388095e+06   2.514686e+06   1.009693e+11   5.400462e+11   5.090985e+11   3.469212e+06   2.911847e-18   0.000000e+00   0.000000e+00
     1248000   1.247999e-05   7.592595e+00   3.538710e+00   2.791061e+01   9.705782e+04  -2.342016e+06   2.557532e+06  -2.625726e+10   6.125057e+11   5.618908e+11   3.469212e+06   3.589403e-18   0.000000e+00   0.000000e+00
     1256000   1.255999e-05   7.600121e+00   3.353393e+00   2.811707e+01   8.912364e+04  -2.289858e+06   2.604619e+06  -1.727629e+11   6.922756e+11   6.145310e+11   3.469212e+06   4.602335e-18   0.000000e+00   0.000000e+00
     1264000   1.263999e-05   7.606519e+00   3.172512e+00   2.832746e+01   6.851180e+04  -2.230998e+06   2.655821e+06  -3.467424e+11   7.804617e+11   6.645689e+11   3.469212e+06   6.077682e-18   0.000000e+00   0.000000e+00
     1272000   1.271999e-05   7.610682e+00   2.996631e+00   2.854210e+01   3.282320e+04  -2.164705e+06   2.710795e+06  -5.520529e+11   8.792966e+11   7.088526e+11   3.469212e+06   8.202480e-18   0.000000e+00   0.000000e+00
     1280000   1.279999e-05   7.611293e+00   2.826382e+00   2.876127e+01  -2.076235e+04  -2.090083e+06   2.768855e+06  -7.945424e+11   9.884864e+11   7.402136e+11   3.469212e+06   1.119159e-17   0.000000e+00   0.000000e+00
     1288000   1.287999e-05   7.606797e+00   2.662468e+00   2.898516e+01  -9.547697e+04  -2.006069e+06   2.828782e+06  -1.082241e+12   1.115040e+12   7.542279e+11   3.469213e+06   1.548434e-17   0.000000e+00   0.000000e+00
     1296000   1.295999e-05   7.595358e+00   2.505696e+00   2.921387e+01  -1.948877e+05  -1.911326e+06   2.888649e+06  -1.410380e+12   1.256990e+12   7.365701e+11   3.469213e+06   2.134046e-17   0.000000e+00   0.000000e+00
     1304000   1.303999e-05   7.574861e+00   2.356983e+00   2.944727e+01  -3.225874e+05  -1.804314e+06   2.945476e+06  -1.788741e+12   1.421418e+12   6.748366e+11   3.469214e+06   2.945626e-17   0.000000e+00   0.000000e+00
     1312000   1.311999e-05   7.542910e+00   2.217378e+00   2.968495e+01  -4.814609e+05  -1.683366e+06   2.994983e+06  -2.183660e+12   1.605197e+12   5.512098e+11   3.469214e+06   3.969885e-17   0.000000e+00   0.000000e+00
     1320000   1.319999e-05   7.497939e+00   2.087378e+00   2.992597e+01  -6.027643e+05  -1.595978e+06   3.020759e+06   8.141961e+11  -5.858540e+11  -1.470596e+11   3.469215e+06   5.323476e-18   0.000000e+00   0.000000e+00
     1328000   1.327999e-05   7.457127e+00   1.954493e+00   3.016610e+01  -3.954680e+05  -1.740354e+06   2.974934e+06   3.018369e+12  -2.045701e+12  -7.954581e+11   3.469216e+06   7.229065e-17   0.000000e+00   0.000000e+00
     1336000   1.335999e-05   7.435444e+00   1.808706e+00   3.040116e+01  -1.429848e+05  -1.904039e+06   2.896492e+06   3.290602e+12  -2.024289e+12  -1.168191e+12   3.469218e+06   8.455221e-17   0.000000e+00   0.000000e+00
     1344000   1.343999e-05   7.434789e+00   1.650063e+00   3.062875e+01   1.297049e+05  -2.059579e+06   2.788691e+06   3.520797e+12  -1.839423e+12  -1.522191e+12   3.469220e+06   9.392695e-17   0.000000e+00   0.000000e+00
     1352000   1.351999e-05   7.456620e+00   1.479750e+00   3.084665e+01   4.181918e+05  -2.193442e+06   2.655076e+06   3.675230e+12  -1.477170e+12  -1.799139e+12   3.469222e+06   9.823417e-17   0.000000e+00   0.000000e+00
     1360000   1.359999e-05   7.501934e+00   1.300058e+00   3.105310e+01   7.154548e+05  -2.292009e+06   2.504064e+06   3.739252e+12  -9.670951e+11  -1.953492e+12   3.469224e+06   9.723390e-17   0.000000e+00   0.000000e+00
     1368000   1.367999e-05   7.571078e+00   1.114254e+00   3.124716e+01   1.012461e+06  -2.344907e+06   2.347736e+06   3.677823e+12  -3.503331e+11  -1.935897e+12   3.469226e+06   9.029716e-17   0.000000e+00   0.000000e+00
     1376000   1.375999e-05   7.663665e+00   9.262223e-01   3.142894e+01   1.299847e+06  -2.347369e+06   2.199046e+06   3.497344e+12   2.860621e+11  -1.761840e+12   3.469228e+06   8.002328e-17   0.000000e+00   0.000000e+00
     1384000   1.383999e-05   7.778551e+00   7.399831e-01   3.159952e+01   1.568549e+06  -2.300826e+06   2.069157e+06   3.210017e+12   8.671577e+11  -1.469080e+12   3.469230e+06   6.858914e-17   0.000000e+00   0.000000e+00
     1392000   1.391999e-05   7.913965e+00   5.592374e-01   3.176070e+01   1.812241e+06  -2.211375e+06   1.964986e+06   2.872854e+12   1.351253e+12  -1.128795e+12   3.469231e+06   5.892958e-17   0.000000e+00   0.000000e+00
     1400000   1.399999e-05   8.067745e+00   3.870752e-01   3.191466e+01   2.027271e+06  -2.087829e+06   1.888575e+06   2.501880e+12   1.717923e+12  -7.863917e+11   3.469233e+06   5.101774e-17   0.000000e+00   0.000000e+00
     1408000   1.407999e-05   8.237537e+00   2.258431e-01   3.206356e+01   2.212586e+06  -1.939587e+06   1.837947e+06   2.132892e+12   1.972329e+12  -4.862029e+11   3.469234e+06   4.503104e-17   0.000000e+00   0.000000e+00
     1416000   1.415999e-05   8.420991e+00   7.718488e-02   3.220931e+01   2.369130e+06  -1.774688e+06   1.809226e+06   1.782867e+12   2.136824e+12  -2.385376e+11   3.469235e+06   4.049360e-17   0.000000e+00   0.000000e+00
