     timestep     time              x             y              z              vx             vy             vz             ax             ay             az         v_magnitude      ELoss        Electronic      Nuclear
           0   0.000000e+00   1.000000e-01   5.308133e+00   4.367636e+00   3.032633e+05  -3.552107e+05  -4.139040e+05   0.000000e+00   0.000000e+00   0.000000e+00   6.240672e+05   0.000000e+00   0.000000e+00   0.000000e+00
        8000   7.999000e-08   1.244439e-01   5.279857e+00   4.334538e+00   3.078241e+05  -3.516955e+05  -4.135389e+05   5.664730e+10   4.392056e+10   4.813789e+09   6.240672e+05   7.162135e-24   0.000000e+00   0.000000e+00
       16000   1.599900e-07   1.492503e-01   5.251862e+00   4.301471e+00   3.123267e+05  -3.481824e+05  -4.131354e+05   5.592075e+10   4.390247e+10   5.275323e+09   6.240672e+05   7.052897e-24   0.000000e+00   0.000000e+00
       24000   2.399900e-07   1.744145e-01   5.224148e+00   4.268437e+00   3.167679e+05  -3.446676e+05  -4.127011e+05   5.516375e+10   4.390522e+10   5.673225e+09   6.240672e+05   6.942582e-24   0.000000e+00   0.000000e+00
       32000   3.199900e-07   1.999317e-01   5.196715e+00   4.235440e+00   3.211536e+05  -3.411587e+05  -4.122267e+05   5.448530e+10   4.377955e+10   6.215819e+09   6.240672e+05   6.833009e-24   0.000000e+00   0.000000e+00
       40000   3.999900e-07   2.257976e-01   5.169562e+00   4.202482e+00   3.254856e+05  -3.376568e+05  -4.117120e+05   5.380819e+10   4.373471e+10   6.670724e+09   6.240672e+05   6.733943e-24   0.000000e+00   0.000000e+00
       48000   4.799900e-07   2.520075e-01   5.142689e+00   4.169566e+00   3.297524e+05  -3.341613e+05  -4.111684e+05   5.302082e+10   4.362102e+10   7.070669e+09   6.240672e+05   6.611060e-24   0.000000e+00   0.000000e+00
       56000   5.599900e-07   2.785567e-01   5.116096e+00   4.136696e+00   3.339705e+05  -3.306781e+05  -4.105795e+05   5.243623e+10   4.345813e+10   7.651274e+09   6.240672e+05   6.517688e-24   0.000000e+00   0.000000e+00
       64000   6.399900e-07   3.054416e-01   5.089781e+00   4.103875e+00   3.381467e+05  -3.272110e+05  -4.099385e+05   5.186933e+10   4.328913e+10   8.232263e+09   6.240672e+05   6.428092e-24   0.000000e+00   0.000000e+00
       72000   7.199900e-07   3.326593e-01   5.063741e+00   4.071108e+00   3.422892e+05  -3.237708e+05  -4.092315e+05   5.150598e+10   4.291099e+10   9.130705e+09   6.240672e+05   6.352381e-24   0.000000e+00   0.000000e+00
       80000   7.999900e-07   3.602066e-01   5.037977e+00   4.038399e+00   3.463859e+05  -3.203432e+05  -4.084812e+05   5.091395e+10   4.277524e+10   9.628524e+09   6.240672e+05   6.265055e-24   0.000000e+00   0.000000e+00
       88000   8.799900e-07   3.880798e-01   5.012486e+00   4.005752e+00   3.504359e+05  -3.169271e+05  -4.076907e+05   5.034008e+10   4.262524e+10   1.013473e+10   6.240672e+05   6.180525e-24   0.000000e+00   0.000000e+00
       96000   9.599900e-07   4.162750e-01   4.987268e+00   3.973169e+00   3.544344e+05  -3.135211e+05  -4.068669e+05   4.966574e+10   4.250533e+10   1.051176e+10   6.240672e+05   6.083578e-24   0.000000e+00   0.000000e+00
      104000   1.039990e-06   4.447881e-01   4.962323e+00   3.940654e+00   3.583849e+05  -3.101259e+05  -4.060074e+05   4.910026e+10   4.237173e+10   1.097561e+10   6.240672e+05   6.004168e-24   0.000000e+00   0.000000e+00
      112000   1.119990e-06   4.736154e-01   4.937648e+00   3.908209e+00   3.622909e+05  -3.067419e+05  -4.051106e+05   4.855149e+10   4.222571e+10   1.144705e+10   6.240672e+05   5.927330e-24   0.000000e+00   0.000000e+00
      120000   1.199990e-06   5.027530e-01   4.913244e+00   3.875837e+00   3.661409e+05  -3.033586e+05  -4.041958e+05   4.799316e+10   4.206965e+10   1.190023e+10   6.240672e+05   5.848955e-24   0.000000e+00   0.000000e+00
      128000   1.279990e-06   5.321972e-01   4.889110e+00   3.843539e+00   3.699514e+05  -2.999924e+05  -4.032374e+05   4.726733e+10   4.209223e+10   1.205053e+10   6.240672e+05   5.760636e-24   0.000000e+00   0.000000e+00
      136000   1.359990e-06   5.619440e-01   4.865245e+00   3.811320e+00   3.737127e+05  -2.966323e+05  -4.022536e+05   4.676963e+10   4.190802e+10   1.254705e+10   6.240672e+05   5.691163e-24   0.000000e+00   0.000000e+00
      144000   1.439990e-06   5.919905e-01   4.841648e+00   3.779181e+00   3.774484e+05  -2.933062e+05  -4.012032e+05   4.655420e+10   4.136353e+10   1.355818e+10   6.240672e+05   5.636972e-24   0.000000e+00   0.000000e+00
      152000   1.519990e-06   6.223345e-01   4.818316e+00   3.747128e+00   3.811430e+05  -2.899892e+05  -4.001202e+05   4.592266e+10   4.141602e+10   1.372803e+10   6.240672e+05   5.568388e-24   0.000000e+00   0.000000e+00
      160000   1.599990e-06   6.529725e-01   4.795249e+00   3.715163e+00   3.848037e+05  -2.866877e+05  -3.989939e+05   4.568747e+10   4.106080e+10   1.455923e+10   6.240672e+05   5.530460e-24   0.000000e+00   0.000000e+00
      168000   1.679990e-06   6.839023e-01   4.772445e+00   3.683290e+00   3.884315e+05  -2.834114e+05  -3.978176e+05   4.504649e+10   4.082556e+10   1.489881e+10   6.240672e+05   5.436901e-24   0.000000e+00   0.000000e+00
      176000   1.759990e-06   7.151208e-01   4.749903e+00   3.651513e+00   3.920281e+05  -2.801547e+05  -3.965945e+05   4.486219e+10   4.059031e+10   1.567251e+10   6.240672e+05   5.420152e-24   0.000000e+00   0.000000e+00
      184000   1.839990e-06   7.466262e-01   4.727620e+00   3.619836e+00   3.956028e+05  -2.769187e+05  -3.953155e+05   4.450832e+10   4.030912e+10   1.630402e+10   6.240672e+05   5.372719e-24   0.000000e+00   0.000000e+00
      192000   1.919990e-06   7.784165e-01   4.705595e+00   3.588264e+00   3.991491e+05  -2.737070e+05  -3.939853e+05   4.414968e+10   3.997006e+10   1.696048e+10   6.240672e+05   5.321126e-24   0.000000e+00   0.000000e+00
      200000   1.999990e-06   8.104893e-01   4.683826e+00   3.556800e+00   4.026671e+05  -2.705188e+05  -3.926050e+05   4.386311e+10   3.967024e+10   1.765298e+10   6.240672e+05   5.286252e-24   0.000000e+00   0.000000e+00
      208000   2.079990e-06   8.428426e-01   4.662311e+00   3.525449e+00   4.061633e+05  -2.673557e+05  -3.911677e+05   4.354496e+10   3.940782e+10   1.827969e+10   6.240672e+05   5.250115e-24   0.000000e+00   0.000000e+00
      216000   2.159990e-06   8.754747e-01   4.641049e+00   3.494215e+00   4.096332e+05  -2.642120e+05  -3.896827e+05   4.313672e+10   3.925972e+10   1.872628e+10   6.240672e+05   5.207774e-24   0.000000e+00   0.000000e+00
      224000   2.239990e-06   9.083830e-01   4.620037e+00   3.463100e+00   4.130711e+05  -2.610810e+05  -3.881609e+05   4.285854e+10   3.896449e+10   1.940097e+10   6.240672e+05   5.178226e-24   0.000000e+00   0.000000e+00
      232000   2.319990e-06   9.415655e-01   4.599275e+00   3.432110e+00   4.164845e+05  -2.579707e+05  -3.865898e+05   4.240568e+10   3.887966e+10   1.974046e+10   6.240672e+05   5.133920e-24   0.000000e+00   0.000000e+00
      240000   2.399990e-06   9.750195e-01   4.578762e+00   3.401247e+00   4.198624e+05  -2.548676e+05  -3.849909e+05   4.204296e+10   3.869727e+10   2.023306e+10   6.240672e+05   5.099103e-24   0.000000e+00   0.000000e+00
      248000   2.479990e-06   1.008743e+00   4.558495e+00   3.370514e+00   4.232221e+05  -2.517948e+05  -3.833306e+05   4.164244e+10   3.847971e+10   2.070007e+10   6.240672e+05   5.055817e-24   0.000000e+00   0.000000e+00
      256000   2.559990e-06   1.042734e+00   4.538475e+00   3.339914e+00   4.265383e+05  -2.487244e+05  -3.816558e+05   4.126564e+10   3.828061e+10   2.117096e+10   6.240672e+05   5.018618e-24   0.000000e+00   0.000000e+00
      264000   2.639990e-06   1.076989e+00   4.518699e+00   3.309450e+00   4.298248e+05  -2.456700e+05  -3.799431e+05   4.089938e+10   3.807880e+10   2.164723e+10   6.240672e+05   4.983771e-24   0.000000e+00   0.000000e+00
      272000   2.719990e-06   1.111505e+00   4.499167e+00   3.279124e+00   4.330874e+05  -2.426358e+05  -3.781840e+05   4.066857e+10   3.776599e+10   2.234264e+10   6.240672e+05   4.967172e-24   0.000000e+00   0.000000e+00
      280000   2.799990e-06   1.146282e+00   4.479877e+00   3.248942e+00   4.363259e+05  -2.396218e+05  -3.763789e+05   4.029592e+10   3.758268e+10   2.278685e+10   6.240672e+05   4.933956e-24   0.000000e+00   0.000000e+00
      288000   2.879990e-06   1.181317e+00   4.460827e+00   3.218905e+00   4.395350e+05  -2.366226e+05  -3.745379e+05   3.993387e+10   3.739669e+10   2.323768e+10   6.240672e+05   4.903088e-24   0.000000e+00   0.000000e+00
      296000   2.959990e-06   1.216607e+00   4.442017e+00   3.189017e+00   4.427135e+05  -2.336383e+05  -3.726631e+05   3.953946e+10   3.719561e+10   2.365218e+10   6.240672e+05   4.865746e-24   0.000000e+00   0.000000e+00
      304000   3.039990e-06   1.252150e+00   4.423444e+00   3.159280e+00   4.458643e+05  -2.306719e+05  -3.707499e+05   3.923153e+10   3.696526e+10   2.418088e+10   6.240673e+05   4.843473e-24   0.000000e+00   0.000000e+00
      312000   3.119990e-06   1.287944e+00   4.405109e+00   3.129698e+00   4.489908e+05  -2.277239e+05  -3.687940e+05   3.893239e+10   3.673484e+10   2.471529e+10   6.240673e+05   4.823721e-24   0.000000e+00   0.000000e+00
      320000   3.199990e-06   1.323988e+00   4.387008e+00   3.100274e+00   4.520936e+05  -2.247944e+05  -3.667953e+05   3.864310e+10   3.652067e+10   2.524739e+10   6.240673e+05   4.807699e-24   0.000000e+00   0.000000e+00
      328000   3.279990e-06   1.360279e+00   4.369141e+00   3.071012e+00   4.551792e+05  -2.218914e+05  -3.647410e+05   3.844433e+10   3.617041e+10   2.597219e+10   6.240673e+05   4.802619e-24   0.000000e+00   0.000000e+00
      336000   3.359990e-06   1.396816e+00   4.351505e+00   3.041917e+00   4.582449e+05  -2.190070e+05  -3.626396e+05   3.819826e+10   3.594042e+10   2.656333e+10   6.240673e+05   4.796530e-24   0.000000e+00   0.000000e+00
      344000   3.439990e-06   1.433598e+00   4.334099e+00   3.012991e+00   4.612879e+05  -2.161365e+05  -3.604975e+05   3.791391e+10   3.576050e+10   2.707382e+10   6.240673e+05   4.786592e-24   0.000000e+00   0.000000e+00
      352000   3.519990e-06   1.470622e+00   4.316923e+00   2.984238e+00   4.643121e+05  -2.132819e+05  -3.583086e+05   3.768862e+10   3.560401e+10   2.764531e+10   6.240673e+05   4.790853e-24   0.000000e+00   0.000000e+00
      360000   3.599990e-06   1.507887e+00   4.299974e+00   2.955663e+00   4.673177e+05  -2.104435e+05  -3.560726e+05   3.744512e+10   3.539359e+10   2.822565e+10   6.240673e+05   4.789729e-24   0.000000e+00   0.000000e+00
      368000   3.679990e-06   1.545392e+00   4.283251e+00   2.927268e+00   4.703040e+05  -2.076199e+05  -3.537910e+05   3.721377e+10   3.519768e+10   2.881365e+10   6.240673e+05   4.793111e-24   0.000000e+00   0.000000e+00
      376000   3.759990e-06   1.583135e+00   4.266754e+00   2.899057e+00   4.732717e+05  -2.048123e+05  -3.514623e+05   3.689155e+10   3.479639e+10   2.939993e+10   6.240673e+05   4.768358e-24   0.000000e+00   0.000000e+00
      384000   3.839990e-06   1.621115e+00   4.250480e+00   2.871035e+00   4.762178e+05  -2.020302e+05  -3.490850e+05   3.674415e+10   3.473906e+10   3.002090e+10   6.240673e+05   4.798969e-24   0.000000e+00   0.000000e+00
      392000   3.919990e-06   1.659329e+00   4.234429e+00   2.843205e+00   4.791469e+05  -1.992576e+05  -3.466622e+05   3.648244e+10   3.457475e+10   3.055173e+10   6.240673e+05   4.801190e-24   0.000000e+00   0.000000e+00
      400000   3.999990e-06   1.697778e+00   4.218599e+00   2.815570e+00   4.820551e+05  -1.964981e+05  -3.441966e+05   3.622562e+10   3.441435e+10   3.108792e+10   6.240673e+05   4.805785e-24   0.000000e+00   0.000000e+00
      408000   4.079990e-06   1.736458e+00   4.202989e+00   2.788135e+00   4.849429e+05  -1.937533e+05  -3.416870e+05   3.597049e+10   3.420253e+10   3.165688e+10   6.240673e+05   4.809596e-24   0.000000e+00   0.000000e+00
      416000   4.159990e-06   1.775368e+00   4.187598e+00   2.760901e+00   4.878007e+05  -1.910184e+05  -3.391496e+05   3.555303e+10   3.414082e+10   3.190696e+10   6.240673e+05   4.784368e-24   0.000000e+00   0.000000e+00
      424000   4.239990e-06   1.814505e+00   4.172426e+00   2.733872e+00   4.906379e+05  -1.882961e+05  -3.365695e+05   3.541702e+10   3.386796e+10   3.268179e+10   6.240673e+05   4.814670e-24   0.000000e+00   0.000000e+00
      432000   4.319990e-06   1.853869e+00   4.157470e+00   2.707051e+00   4.934602e+05  -1.855926e+05  -3.339348e+05   3.514102e+10   3.372104e+10   3.318698e+10   6.240673e+05   4.820043e-24   0.000000e+00   0.000000e+00
      440000   4.399990e-06   1.893458e+00   4.142731e+00   2.680443e+00   4.962539e+05  -1.828939e+05  -3.312731e+05   3.476812e+10   3.367689e+10   3.349044e+10   6.240673e+05   4.807816e-24   0.000000e+00   0.000000e+00
      448000   4.479990e-06   1.933270e+00   4.128207e+00   2.654049e+00   4.990341e+05  -1.802126e+05  -3.285550e+05   3.465344e+10   3.342309e+10   3.430156e+10   6.240673e+05   4.849440e-24   0.000000e+00   0.000000e+00
      456000   4.559990e-06   1.973303e+00   4.113896e+00   2.627875e+00   5.017969e+05  -1.775448e+05  -3.257878e+05   3.441787e+10   3.327402e+10   3.487889e+10   6.240673e+05   4.868489e-24   0.000000e+00   0.000000e+00
      464000   4.639990e-06   2.013557e+00   4.099799e+00   2.601925e+00   5.045405e+05  -1.748884e+05  -3.229751e+05   3.418363e+10   3.313489e+10   3.545810e+10   6.240673e+05   4.889902e-24   0.000000e+00   0.000000e+00
      472000   4.719990e-06   2.054029e+00   4.085914e+00   2.576200e+00   5.072617e+05  -1.722492e+05  -3.201183e+05   3.391049e+10   3.288185e+10   3.604164e+10   6.240673e+05   4.898808e-24   0.000000e+00   0.000000e+00
      480000   4.799990e-06   2.094718e+00   4.072239e+00   2.550707e+00   5.099667e+05  -1.696268e+05  -3.172077e+05   3.371285e+10   3.268025e+10   3.672341e+10   6.240673e+05   4.930761e-24   0.000000e+00   0.000000e+00
      488000   4.879990e-06   2.135623e+00   4.058773e+00   2.525449e+00   5.126556e+05  -1.670188e+05  -3.142434e+05   3.350564e+10   3.249824e+10   3.738822e+10   6.240673e+05   4.963346e-24   0.000000e+00   0.000000e+00
      496000   4.959990e-06   2.176743e+00   4.045515e+00   2.500430e+00   5.153275e+05  -1.644271e+05  -3.112254e+05   3.329200e+10   3.229687e+10   3.806170e+10   6.240673e+05   4.995950e-24   0.000000e+00   0.000000e+00
      504000   5.039990e-06   2.218075e+00   4.032464e+00   2.475654e+00   5.179824e+05  -1.618473e+05  -3.081553e+05   3.305913e+10   3.214974e+10   3.868394e+10   6.240673e+05   5.027618e-24   0.000000e+00   0.000000e+00
      512000   5.119990e-06   2.259619e+00   4.019619e+00   2.451126e+00   5.206178e+05  -1.592801e+05  -3.050359e+05   3.282663e+10   3.203037e+10   3.930124e+10   6.240673e+05   5.062534e-24   0.000000e+00   0.000000e+00
      520000   5.199990e-06   2.301373e+00   4.006979e+00   2.426850e+00   5.232347e+05  -1.567221e+05  -3.018670e+05   3.260138e+10   3.193922e+10   3.992671e+10   6.240673e+05   5.102757e-24   0.000000e+00   0.000000e+00
      528000   5.279990e-06   2.343336e+00   3.994544e+00   2.402829e+00   5.258328e+05  -1.541721e+05  -2.986484e+05   3.234868e+10   3.180975e+10   4.053524e+10   6.240673e+05   5.136475e-24   0.000000e+00   0.000000e+00
      536000   5.359990e-06   2.385506e+00   3.982312e+00   2.379067e+00   5.284110e+05  -1.516233e+05  -2.953849e+05   3.208491e+10   3.184746e+10   4.104871e+10   6.240673e+05   5.174356e-24   0.000000e+00   0.000000e+00
      544000   5.439990e-06   2.427881e+00   3.970284e+00   2.355568e+00   5.309651e+05  -1.490779e+05  -2.920819e+05   3.177257e+10   3.181152e+10   4.152156e+10   6.240673e+05   5.197683e-24   0.000000e+00   0.000000e+00
      552000   5.519990e-06   2.470460e+00   3.958459e+00   2.332335e+00   5.334951e+05  -1.465319e+05  -2.887411e+05   3.147576e+10   3.183982e+10   4.199809e+10   6.240673e+05   5.229361e-24   0.000000e+00   0.000000e+00
      560000   5.599990e-06   2.513240e+00   3.946839e+00   2.309371e+00   5.360019e+05  -1.439853e+05  -2.853599e+05   3.120547e+10   3.179542e+10   4.257108e+10   6.240673e+05   5.269174e-24   0.000000e+00   0.000000e+00
      568000   5.679990e-06   2.556220e+00   3.935422e+00   2.286678e+00   5.384849e+05  -1.414430e+05  -2.819360e+05   3.087515e+10   3.175062e+10   4.304117e+10   6.240673e+05   5.292616e-24   0.000000e+00   0.000000e+00
      576000   5.759990e-06   2.599397e+00   3.924208e+00   2.264262e+00   5.409430e+05  -1.389044e+05  -2.784713e+05   3.057822e+10   3.171769e+10   4.357831e+10   6.240673e+05   5.328959e-24   0.000000e+00   0.000000e+00
      584000   5.839990e-06   2.642770e+00   3.913197e+00   2.242124e+00   5.433802e+05  -1.363640e+05  -2.749596e+05   3.031729e+10   3.173354e+10   4.417546e+10   6.240673e+05   5.381023e-24   0.000000e+00   0.000000e+00
      592000   5.919990e-06   2.686337e+00   3.902390e+00   2.220270e+00   5.457937e+05  -1.338268e+05  -2.714031e+05   3.001885e+10   3.169827e+10   4.473782e+10   6.240673e+05   5.422318e-24   0.000000e+00   0.000000e+00
      600000   5.999990e-06   2.730096e+00   3.891785e+00   2.198701e+00   5.481826e+05  -1.312905e+05  -2.678034e+05   2.969269e+10   3.178286e+10   4.519806e+10   6.240673e+05   5.460184e-24   0.000000e+00   0.000000e+00
      608000   6.079990e-06   2.774046e+00   3.881383e+00   2.177422e+00   5.505463e+05  -1.287482e+05  -2.641642e+05   2.939783e+10   3.177507e+10   4.578154e+10   6.240673e+05   5.508983e-24   0.000000e+00   0.000000e+00
      616000   6.159990e-06   2.818183e+00   3.871185e+00   2.156436e+00   5.528885e+05  -1.262091e+05  -2.604719e+05   2.917090e+10   3.168640e+10   4.656588e+10   6.240673e+05   5.583244e-24   0.000000e+00   0.000000e+00
      624000   6.239990e-06   2.862507e+00   3.861190e+00   2.135748e+00   5.552103e+05  -1.236741e+05  -2.567222e+05   2.887324e+10   3.169134e+10   4.717660e+10   6.240673e+05   5.639149e-24   0.000000e+00   0.000000e+00
      632000   6.319990e-06   2.907016e+00   3.851397e+00   2.115362e+00   5.575078e+05  -1.211383e+05  -2.529241e+05   2.854646e+10   3.169241e+10   4.774423e+10   6.240673e+05   5.687974e-24   0.000000e+00   0.000000e+00
      640000   6.399990e-06   2.951708e+00   3.841808e+00   2.095281e+00   5.597792e+05  -1.186015e+05  -2.490802e+05   2.823357e+10   3.175443e+10   4.833142e+10   6.240673e+05   5.747069e-24   0.000000e+00   0.000000e+00
      648000   6.479990e-06   2.996580e+00   3.832421e+00   2.075510e+00   5.620251e+05  -1.160596e+05  -2.451898e+05   2.791181e+10   3.179490e+10   4.892942e+10   6.240674e+05   5.806280e-24   0.000000e+00   0.000000e+00
      656000   6.559990e-06   3.041631e+00   3.823238e+00   2.056053e+00   5.642472e+05  -1.135206e+05  -2.412432e+05   2.761550e+10   3.174020e+10   4.965429e+10   6.240674e+05   5.877790e-24   0.000000e+00   0.000000e+00
      664000   6.639990e-06   3.086859e+00   3.814258e+00   2.036913e+00   5.664432e+05  -1.109803e+05  -2.372456e+05   2.728529e+10   3.177024e+10   5.028397e+10   6.240674e+05   5.942608e-24   0.000000e+00   0.000000e+00
      672000   6.719990e-06   3.132261e+00   3.805481e+00   2.018094e+00   5.686119e+05  -1.084336e+05  -2.332010e+05   2.693017e+10   3.189006e+10   5.083520e+10   6.240674e+05   6.003828e-24   0.000000e+00   0.000000e+00
      680000   6.799990e-06   3.177836e+00   3.796909e+00   1.999602e+00   5.707527e+05  -1.058804e+05  -2.291087e+05   2.656094e+10   3.207080e+10   5.134688e+10   6.240674e+05   6.065017e-24   0.000000e+00   0.000000e+00
      688000   6.879990e-06   3.223581e+00   3.788541e+00   1.981438e+00   5.728632e+05  -1.033169e+05  -2.249743e+05   2.619693e+10   3.202539e+10   5.199907e+10   6.240674e+05   6.127862e-24   0.000000e+00   0.000000e+00
      696000   6.959990e-06   3.269493e+00   3.780378e+00   1.963607e+00   5.749436e+05  -1.007492e+05  -2.207931e+05   2.581050e+10   3.216883e+10   5.253132e+10   6.240674e+05   6.189958e-24   0.000000e+00   0.000000e+00
      704000   7.039990e-06   3.315571e+00   3.772421e+00   1.946112e+00   5.769942e+05  -9.816711e+04  -2.165663e+05   2.547704e+10   3.240996e+10   5.318680e+10   6.240674e+05   6.283995e-24   0.000000e+00   0.000000e+00
      712000   7.119990e-06   3.361812e+00   3.764672e+00   1.928958e+00   5.790173e+05  -9.556835e+04  -2.122870e+05   2.509770e+10   3.256184e+10   5.379545e+10   6.240674e+05   6.361426e-24   0.000000e+00   0.000000e+00
      720000   7.199990e-06   3.408213e+00   3.757131e+00   1.912148e+00   5.810092e+05  -9.295675e+04  -2.079601e+05   2.467728e+10   3.273320e+10   5.431285e+10   6.240674e+05   6.425536e-24   0.000000e+00   0.000000e+00
      728000   7.279990e-06   3.454772e+00   3.749799e+00   1.895685e+00   5.829677e+05  -9.033270e+04  -2.035897e+05   2.431555e+10   3.280241e+10   5.507155e+10   6.240674e+05   6.522402e-24   0.000000e+00   0.000000e+00
      736000   7.359990e-06   3.501487e+00   3.742678e+00   1.879575e+00   5.848964e+05  -8.770108e+04  -1.991603e+05   2.381994e+10   3.317143e+10   5.534727e+10   6.240674e+05   6.565331e-24   0.000000e+00   0.000000e+00
      744000   7.439990e-06   3.548355e+00   3.735768e+00   1.863820e+00   5.867846e+05  -8.503788e+04  -1.947113e+05   2.338338e+10   3.341131e+10   5.587621e+10   6.240674e+05   6.640537e-24   0.000000e+00   0.000000e+00
      752000   7.519990e-06   3.595372e+00   3.729072e+00   1.848422e+00   5.886375e+05  -8.235480e+04  -1.902201e+05   2.293759e+10   3.366845e+10   5.640371e+10   6.240674e+05   6.718009e-24   0.000000e+00   0.000000e+00
      760000   7.599990e-06   3.642536e+00   3.722591e+00   1.833386e+00   5.904593e+05  -7.966119e+04  -1.856664e+05   2.255845e+10   3.377004e+10   5.725127e+10   6.240674e+05   6.837255e-24   0.000000e+00   0.000000e+00
      768000   7.679990e-06   3.689844e+00   3.716327e+00   1.818717e+00   5.922461e+05  -7.695015e+04  -1.810618e+05   2.210879e+10   3.400906e+10   5.786309e+10   6.240674e+05   6.929600e-24   0.000000e+00   0.000000e+00
      776000   7.759990e-06   3.737294e+00   3.710280e+00   1.804418e+00   5.939947e+05  -7.421547e+04  -1.764158e+05   2.161377e+10   3.433889e+10   5.832775e+10   6.240674e+05   7.005771e-24   0.000000e+00   0.000000e+00
      784000   7.839990e-06   3.784882e+00   3.704453e+00   1.790492e+00   5.957059e+05  -7.146083e+04  -1.717207e+05   2.115648e+10   3.454890e+10   5.901497e+10   6.240674e+05   7.110612e-24   0.000000e+00   0.000000e+00
      792000   7.919990e-06   3.832606e+00   3.698847e+00   1.776943e+00   5.973774e+05  -6.868048e+04  -1.669830e+05   2.066112e+10   3.488754e+10   5.956499e+10   6.240674e+05   7.205005e-24   0.000000e+00   0.000000e+00
      800000   7.999990e-06   3.880462e+00   3.693465e+00   1.763776e+00   5.990100e+05  -6.587700e+04  -1.621956e+05   2.015048e+10   3.520275e+10   6.012021e+10   6.240674e+05   7.298957e-24   0.000000e+00   0.000000e+00
      808000   8.079990e-06   3.928447e+00   3.688308e+00   1.750993e+00   6.006004e+05  -6.304166e+04  -1.573691e+05   1.961201e+10   3.566783e+10   6.056059e+10   6.240674e+05   7.388736e-24   0.000000e+00   0.000000e+00
      816000   8.159990e-06   3.976557e+00   3.683379e+00   1.738598e+00   6.021481e+05  -6.017326e+04  -1.525025e+05   1.907760e+10   3.604557e+10   6.110397e+10   6.240674e+05   7.489377e-24   0.000000e+00   0.000000e+00
      824000   8.239990e-06   4.024789e+00   3.678681e+00   1.726594e+00   6.036531e+05  -5.727891e+04  -1.475881e+05   1.854300e+10   3.631112e+10   6.175037e+10   6.240674e+05   7.598333e-24   0.000000e+00   0.000000e+00
      832000   8.319990e-06   4.073140e+00   3.674215e+00   1.714985e+00   6.051139e+05  -5.435877e+04  -1.426268e+05   1.797632e+10   3.669560e+10   6.228096e+10   6.240674e+05   7.699893e-24   0.000000e+00   0.000000e+00
      840000   8.399990e-06   4.121606e+00   3.669984e+00   1.703775e+00   6.065293e+05  -5.140767e+04  -1.376211e+05   1.740886e+10   3.707651e+10   6.287485e+10   6.240674e+05   7.814170e-24   0.000000e+00   0.000000e+00
      848000   8.479990e-06   4.170183e+00   3.665991e+00   1.692967e+00   6.078971e+05  -4.841913e+04  -1.325776e+05   1.679046e+10   3.761830e+10   6.324879e+10   6.240674e+05   7.906428e-24   0.000000e+00   0.000000e+00
      856000   8.559990e-06   4.218868e+00   3.662238e+00   1.682564e+00   6.092171e+05  -4.539787e+04  -1.274903e+05   1.621417e+10   3.785612e+10   6.399942e+10   6.240674e+05   8.037491e-24   0.000000e+00   0.000000e+00
      864000   8.639990e-06   4.267657e+00   3.658728e+00   1.672570e+00   6.104896e+05  -4.235198e+04  -1.223475e+05   1.559712e+10   3.829496e+10   6.456983e+10   6.240674e+05   8.158396e-24   0.000000e+00   0.000000e+00
      872000   8.719990e-06   4.316545e+00   3.655463e+00   1.662989e+00   6.117114e+05  -3.926488e+04  -1.171646e+05   1.493554e+10   3.895997e+10   6.492082e+10   6.240674e+05   8.264731e-24   0.000000e+00   0.000000e+00
      880000   8.799990e-06   4.365529e+00   3.652447e+00   1.653824e+00   6.128799e+05  -3.612617e+04  -1.119524e+05   1.427239e+10   3.951116e+10   6.538329e+10   6.240674e+05   8.381500e-24   0.000000e+00   0.000000e+00
      888000   8.879990e-06   4.414605e+00   3.649684e+00   1.645078e+00   6.139953e+05  -3.294569e+04  -1.066982e+05   1.362589e+10   3.993926e+10   6.607745e+10   6.240674e+05   8.530303e-24   0.000000e+00   0.000000e+00
      896000   8.959990e-06   4.463767e+00   3.647176e+00   1.636754e+00   6.150581e+05  -2.972979e+04  -1.013896e+05   1.294045e+10   4.046227e+10   6.663532e+10   6.240675e+05   8.666130e-24   0.000000e+00   0.000000e+00
      904000   9.039990e-06   4.513013e+00   3.644928e+00   1.628857e+00   6.160648e+05  -2.646867e+04  -9.604024e+04   1.221287e+10   4.112931e+10   6.700541e+10   6.240675e+05   8.784896e-24   0.000000e+00   0.000000e+00
      912000   9.119990e-06   4.562336e+00   3.642943e+00   1.621388e+00   6.170125e+05  -2.315397e+04  -9.066258e+04   1.147519e+10   4.174174e+10   6.743446e+10   6.240675e+05   8.911121e-24   0.000000e+00   0.000000e+00
      920000   9.199990e-06   4.611733e+00   3.641225e+00   1.614352e+00   6.179007e+05  -1.979061e+04  -8.524831e+04   1.073774e+10   4.230870e+10   6.800692e+10   6.240675e+05   9.062114e-24   0.000000e+00   0.000000e+00
      928000   9.279990e-06   4.661199e+00   3.639777e+00   1.607750e+00   6.187292e+05  -1.638079e+04  -7.978746e+04   9.971880e+09   4.294083e+10   6.851230e+10   6.240675e+05   9.210628e-24   0.000000e+00   0.000000e+00
      936000   9.359990e-06   4.710728e+00   3.638605e+00   1.601587e+00   6.194955e+05  -1.291896e+04  -7.428776e+04   9.176131e+09   4.362440e+10   6.893360e+10   6.240675e+05   9.351957e-24   0.000000e+00   0.000000e+00
      944000   9.439990e-06   4.760316e+00   3.637712e+00   1.595865e+00   6.201971e+05  -9.403003e+03  -6.875563e+04   8.361433e+09   4.428216e+10   6.936571e+10   6.240675e+05   9.495301e-24   0.000000e+00   0.000000e+00
      952000   9.519990e-06   4.809958e+00   3.637102e+00   1.590587e+00   6.208327e+05  -5.832724e+03  -6.318955e+04   7.526907e+09   4.498439e+10   6.979791e+10   6.240675e+05   9.647355e-24   0.000000e+00   0.000000e+00
      960000   9.599990e-06   4.859648e+00   3.636780e+00   1.585755e+00   6.214009e+05  -2.205515e+03  -5.758762e+04   6.672450e+09   4.569992e+10   7.024779e+10   6.240675e+05   9.807993e-24   0.000000e+00   0.000000e+00
      968000   9.679990e-06   4.909380e+00   3.636751e+00   1.581373e+00   6.218996e+05   1.480859e+03  -5.195089e+04   5.790211e+09   4.650133e+10   7.063824e+10   6.240675e+05   9.971612e-24   0.000000e+00   0.000000e+00
      976000   9.759990e-06   4.959150e+00   3.637019e+00   1.577444e+00   6.223267e+05   5.231306e+03  -4.628513e+04   4.883626e+09   4.726382e+10   7.100314e+10   6.240675e+05   1.012912e-23   0.000000e+00   0.000000e+00
      984000   9.839990e-06   5.008950e+00   3.637589e+00   1.573969e+00   6.226804e+05   9.043450e+03  -4.058980e+04   3.958596e+09   4.803200e+10   7.142783e+10   6.240675e+05   1.030330e-23   0.000000e+00   0.000000e+00
      992000   9.919990e-06   5.058776e+00   3.638467e+00   1.570950e+00   6.229592e+05   1.291857e+04  -3.486023e+04   3.005431e+09   4.885015e+10   7.180847e+10   6.240675e+05   1.047974e-23   0.000000e+00   0.000000e+00
     1000000   9.999990e-06   5.108622e+00   3.639658e+00   1.568392e+00   6.231605e+05   1.686097e+04  -2.910215e+04   2.019961e+09   4.975642e+10   7.207802e+10   6.240675e+05   1.065070e-23   0.000000e+00   0.000000e+00
     1008000   1.007999e-05   5.158480e+00   3.641167e+00   1.566295e+00   6.232819e+05   2.087761e+04  -2.332440e+04   1.011025e+09   5.066325e+10   7.236212e+10   6.240675e+05   1.082978e-23   0.000000e+00   0.000000e+00
     1016000   1.015999e-05   5.208345e+00   3.643001e+00   1.564660e+00   6.233217e+05   2.496597e+04  -1.752258e+04  -1.444452e+07   5.145501e+10   7.279413e+10   6.240675e+05   1.102758e-23   0.000000e+00   0.000000e+00
     1024000   1.023999e-05   5.258209e+00   3.645163e+00   1.563492e+00   6.232784e+05   2.911701e+04  -1.168651e+04  -1.073560e+09   5.232474e+10   7.310416e+10   6.240675e+05   1.121720e-23   0.000000e+00   0.000000e+00
     1032000   1.031999e-05   5.308067e+00   3.647661e+00   1.562791e+00   6.231491e+05   3.334027e+04  -5.828333e+03  -2.169389e+09   5.335353e+10   7.324329e+10   6.240675e+05   1.140126e-23   0.000000e+00   0.000000e+00
     1040000   1.039999e-05   5.357911e+00   3.650500e+00   1.562560e+00   6.229310e+05   3.764677e+04   3.837298e+01  -3.286757e+09   5.431248e+10   7.342028e+10   6.240675e+05   1.158902e-23   0.000000e+00   0.000000e+00
     1048000   1.047999e-05   5.407733e+00   3.653687e+00   1.562798e+00   6.226224e+05   4.203022e+04   5.921069e+03  -4.430657e+09   5.523879e+10   7.380644e+10   6.240675e+05   1.182099e-23   0.000000e+00   0.000000e+00
     1056000   1.055999e-05   5.457528e+00   3.657227e+00   1.563508e+00   6.222211e+05   4.648790e+04   1.183439e+04  -5.607113e+09   5.620699e+10   7.402209e+10   6.240675e+05   1.203135e-23   0.000000e+00   0.000000e+00
     1064000   1.063999e-05   5.507286e+00   3.661127e+00   1.564692e+00   6.217243e+05   5.102633e+04   1.776174e+04  -6.826216e+09   5.740895e+10   7.402118e+10   6.240676e+05   1.224171e-23   0.000000e+00   0.000000e+00
     1072000   1.071999e-05   5.557001e+00   3.665394e+00   1.566350e+00   6.211286e+05   5.566444e+04   2.368664e+04  -8.072397e+09   5.854715e+10   7.409631e+10   6.240676e+05   1.246607e-23   0.000000e+00   0.000000e+00
     1080000   1.079999e-05   5.606664e+00   3.670036e+00   1.568482e+00   6.204320e+05   6.039196e+04   2.961952e+04  -9.342146e+09   5.946589e+10   7.444403e+10   6.240676e+05   1.271889e-23   0.000000e+00   0.000000e+00
     1088000   1.087999e-05   5.656267e+00   3.675058e+00   1.571090e+00   6.196326e+05   6.519053e+04   3.558003e+04  -1.064668e+10   6.050201e+10   7.456338e+10   6.240676e+05   1.295225e-23   0.000000e+00   0.000000e+00
     1096000   1.095999e-05   5.705803e+00   3.680468e+00   1.574175e+00   6.187276e+05   7.007449e+04   4.154630e+04  -1.198612e+10   6.173665e+10   7.437665e+10   6.240676e+05   1.316516e-23   0.000000e+00   0.000000e+00
     1104000   1.103999e-05   5.755261e+00   3.686273e+00   1.577736e+00   6.177141e+05   7.505892e+04   4.749459e+04  -1.335476e+10   6.287699e+10   7.432514e+10   6.240676e+05   1.339985e-23   0.000000e+00   0.000000e+00
     1112000   1.111999e-05   5.804634e+00   3.692480e+00   1.581774e+00   6.165898e+05   8.013469e+04   5.344027e+04  -1.477936e+10   6.395290e+10   7.462646e+10   6.240676e+05   1.370712e-23   0.000000e+00   0.000000e+00
     1120000   1.119999e-05   5.853912e+00   3.699097e+00   1.586288e+00   6.153498e+05   8.529634e+04   5.941022e+04  -1.622640e+10   6.509143e+10   7.461595e+10   6.240676e+05   1.397109e-23   0.000000e+00   0.000000e+00
     1128000   1.127999e-05   5.903087e+00   3.706130e+00   1.591279e+00   6.139928e+05   9.056133e+04   6.535901e+04  -1.772357e+10   6.641739e+10   7.447173e+10   6.240676e+05   1.425377e-23   0.000000e+00   0.000000e+00
     1136000   1.135999e-05   5.952148e+00   3.713589e+00   1.596746e+00   6.125140e+05   9.592264e+04   7.131459e+04  -1.925278e+10   6.761828e+10   7.441085e+10   6.240676e+05   1.454302e-23   0.000000e+00   0.000000e+00
     1144000   1.143999e-05   6.001086e+00   3.721481e+00   1.602689e+00   6.109120e+05   1.013827e+05   7.725620e+04  -2.081060e+10   6.890612e+10   7.413860e+10   6.240676e+05   1.481750e-23   0.000000e+00   0.000000e+00
     1152000   1.151999e-05   6.049890e+00   3.729813e+00   1.609106e+00   6.091825e+05   1.069470e+05   8.318281e+04  -2.243197e+10   7.020460e+10   7.401896e+10   6.240676e+05   1.514086e-23   0.000000e+00   0.000000e+00
     1160000   1.159999e-05   6.098551e+00   3.738595e+00   1.615998e+00   6.073217e+05   1.126159e+05   8.909794e+04  -2.409639e+10   7.152082e+10   7.385118e+10   6.240676e+05   1.547277e-23   0.000000e+00   0.000000e+00
     1168000   1.167999e-05   6.147058e+00   3.747834e+00   1.623361e+00   6.053285e+05   1.183868e+05   9.498598e+04  -2.575610e+10   7.278418e+10   7.342479e+10   6.240676e+05   1.575344e-23   0.000000e+00   0.000000e+00
     1176000   1.175999e-05   6.195400e+00   3.757540e+00   1.631195e+00   6.031996e+05   1.242617e+05   1.008448e+05  -2.747347e+10   7.409010e+10   7.303833e+10   6.240676e+05   1.606792e-23   0.000000e+00   0.000000e+00
     1184000   1.183999e-05   6.243566e+00   3.767719e+00   1.639496e+00   6.009270e+05   1.302477e+05   1.066895e+05  -2.931237e+10   7.551232e+10   7.291629e+10   6.240677e+05   1.648337e-23   0.000000e+00   0.000000e+00
     1192000   1.191999e-05   6.291545e+00   3.778382e+00   1.648264e+00   5.985088e+05   1.363436e+05   1.125084e+05  -3.115210e+10   7.688514e+10   7.254685e+10   6.240677e+05   1.685348e-23   0.000000e+00   0.000000e+00
     1200000   1.199999e-05   6.339324e+00   3.789537e+00   1.657496e+00   5.959441e+05   1.425469e+05   1.182854e+05  -3.298574e+10   7.821156e+10   7.193589e+10   6.240677e+05   1.717968e-23   0.000000e+00   0.000000e+00
     1208000   1.207999e-05   6.386892e+00   3.801193e+00   1.667189e+00   5.932290e+05   1.488588e+05   1.240198e+05  -3.495555e+10   7.968008e+10   7.156672e+10   6.240677e+05   1.761364e-23   0.000000e+00   0.000000e+00
     1216000   1.215999e-05   6.434236e+00   3.813358e+00   1.677339e+00   5.903541e+05   1.552877e+05   1.297236e+05  -3.691777e+10   8.103686e+10   7.100218e+10   6.240677e+05   1.800026e-23   0.000000e+00   0.000000e+00
     1224000   1.223999e-05   6.481344e+00   3.826042e+00   1.687943e+00   5.873210e+05   1.618250e+05   1.353780e+05  -3.891779e+10   8.239632e+10   7.034806e+10   6.240677e+05   1.839076e-23   0.000000e+00   0.000000e+00
     1232000   1.231999e-05   6.528203e+00   3.839253e+00   1.698998e+00   5.841223e+05   1.684807e+05   1.409818e+05  -4.105463e+10   8.398728e+10   6.973119e+10   6.240677e+05   1.887532e-23   0.000000e+00   0.000000e+00
     1240000   1.239999e-05   6.574799e+00   3.853001e+00   1.710499e+00   5.807536e+05   1.752539e+05   1.465325e+05  -4.317806e+10   8.537975e+10   6.901412e+10   6.240677e+05   1.931274e-23   0.000000e+00   0.000000e+00
     1248000   1.247999e-05   6.621119e+00   3.867297e+00   1.722441e+00   5.772127e+05   1.821420e+05   1.520205e+05  -4.534916e+10   8.682248e+10   6.816336e+10   6.240677e+05   1.976228e-23   0.000000e+00   0.000000e+00
     1256000   1.255999e-05   6.667149e+00   3.882147e+00   1.734820e+00   5.734963e+05   1.891450e+05   1.574378e+05  -4.756883e+10   8.824935e+10   6.725686e+10   6.240677e+05   2.022479e-23   0.000000e+00   0.000000e+00
     1264000   1.263999e-05   6.712874e+00   3.897563e+00   1.747629e+00   5.695988e+05   1.962643e+05   1.627824e+05  -4.991586e+10   8.978723e+10   6.640849e+10   6.240677e+05   2.076489e-23   0.000000e+00   0.000000e+00
     1272000   1.271999e-05   6.758280e+00   3.913553e+00   1.760863e+00   5.655143e+05   2.035008e+05   1.680523e+05  -5.221777e+10   9.115229e+10   6.533965e+10   6.240677e+05   2.123849e-23   0.000000e+00   0.000000e+00
     1280000   1.279999e-05   6.803351e+00   3.930126e+00   1.774516e+00   5.612423e+05   2.108488e+05   1.732352e+05  -5.460324e+10   9.253705e+10   6.427372e+10   6.240678e+05   2.175336e-23   0.000000e+00   0.000000e+00
     1288000   1.287999e-05   6.848073e+00   3.947291e+00   1.788579e+00   5.567767e+05   2.183081e+05   1.783307e+05  -5.704357e+10   9.394233e+10   6.309805e+10   6.240678e+05   2.228730e-23   0.000000e+00   0.000000e+00
     1296000   1.295999e-05   6.892430e+00   3.965058e+00   1.803046e+00   5.521145e+05   2.258791e+05   1.833271e+05  -5.950013e+10   9.532812e+10   6.173893e+10   6.240678e+05   2.281313e-23   0.000000e+00   0.000000e+00
     1304000   1.303999e-05   6.936406e+00   3.983435e+00   1.817908e+00   5.472529e+05   2.335622e+05   1.882116e+05  -6.204064e+10   9.673791e+10   6.034572e+10   6.240678e+05   2.338134e-23   0.000000e+00   0.000000e+00
     1312000   1.311999e-05   6.979985e+00   4.002431e+00   1.833157e+00   5.421871e+05   2.413556e+05   1.929797e+05  -6.459550e+10   9.804645e+10   5.886088e+10   6.240678e+05   2.393839e-23   0.000000e+00   0.000000e+00
     1320000   1.319999e-05   7.023151e+00   4.022055e+00   1.848782e+00   5.369163e+05   2.492510e+05   1.976245e+05  -6.717703e+10   9.932026e+10   5.724463e+10   6.240678e+05   2.449893e-23   0.000000e+00   0.000000e+00
     1328000   1.327999e-05   7.065886e+00   4.042314e+00   1.864773e+00   5.314377e+05   2.572456e+05   2.021370e+05  -6.979492e+10   1.005377e+11   5.555124e+10   6.240678e+05   2.506911e-23   0.000000e+00   0.000000e+00
     1336000   1.335999e-05   7.108175e+00   4.063217e+00   1.881120e+00   5.257465e+05   2.653383e+05   2.065111e+05  -7.255688e+10   1.018663e+11   5.383578e+10   6.240678e+05   2.572749e-23   0.000000e+00   0.000000e+00
     1344000   1.343999e-05   7.150000e+00   4.084771e+00   1.897811e+00   5.198323e+05   2.735362e+05   2.107440e+05  -7.530595e+10   1.030747e+11   5.196818e+10   6.240678e+05   2.636104e-23   0.000000e+00   0.000000e+00
     1352000   1.351999e-05   7.191342e+00   4.106985e+00   1.914835e+00   5.137001e+05   2.818255e+05   2.148191e+05  -7.806906e+10   1.042264e+11   4.995185e+10   6.240679e+05   2.699528e-23   0.000000e+00   0.000000e+00
     1360000   1.359999e-05   7.232186e+00   4.129866e+00   1.932178e+00   5.073414e+05   2.902089e+05   2.187331e+05  -8.090101e+10   1.053471e+11   4.787550e+10   6.240679e+05   2.766407e-23   0.000000e+00   0.000000e+00
     1368000   1.367999e-05   7.272511e+00   4.153420e+00   1.949827e+00   5.007552e+05   2.986795e+05   2.224759e+05  -8.376101e+10   1.064078e+11   4.567742e+10   6.240679e+05   2.834392e-23   0.000000e+00   0.000000e+00
     1376000   1.375999e-05   7.312300e+00   4.177656e+00   1.967769e+00   4.939382e+05   3.072340e+05   2.260377e+05  -8.667946e+10   1.074712e+11   4.333654e+10   6.240679e+05   2.906066e-23   0.000000e+00   0.000000e+00
     1384000   1.383999e-05   7.351535e+00   4.202580e+00   1.985988e+00   4.868860e+05   3.158718e+05   2.294075e+05  -8.967543e+10   1.085040e+11   4.092528e+10   6.240679e+05   2.982145e-23   0.000000e+00   0.000000e+00
     1392000   1.391999e-05   7.390196e+00   4.228198e+00   2.004469e+00   4.795926e+05   3.245898e+05   2.325793e+05  -9.266993e+10   1.094729e+11   3.831062e+10   6.240679e+05   3.058475e-23   0.000000e+00   0.000000e+00
     1400000   1.399999e-05   7.428263e+00   4.254517e+00   2.023195e+00   4.720574e+05   3.333822e+05   2.355396e+05  -9.571570e+10   1.103260e+11   3.567465e+10   6.240679e+05   3.137059e-23   0.000000e+00   0.000000e+00
     1408000   1.407999e-05   7.465718e+00   4.281541e+00   2.042150e+00   4.642777e+05   3.422399e+05   2.382832e+05  -9.877941e+10   1.111025e+11   3.289197e+10   6.240680e+05   3.217131e-23   0.000000e+00   0.000000e+00
     1416000   1.415999e-05   7.502541e+00   4.309276e+00   2.061314e+00   4.562520e+05   3.511582e+05   2.407963e+05  -1.019011e+11   1.118877e+11   2.991138e+10   6.240680e+05   3.302387e-23   0.000000e+00   0.000000e+00
     1424000   1.423999e-05   7.538712e+00   4.337728e+00   2.080671e+00   4.479745e+05   3.601355e+05   2.430682e+05  -1.050377e+11   1.125276e+11   2.686197e+10   6.240680e+05   3.388366e-23   0.000000e+00   0.000000e+00
     1432000   1.431999e-05   7.574210e+00   4.366899e+00   2.100199e+00   4.394458e+05   3.691599e+05   2.450902e+05  -1.080884e+11   1.130143e+11   2.357851e+10   6.240680e+05   3.470841e-23   0.000000e+00   0.000000e+00
     1440000   1.439999e-05   7.609017e+00   4.396794e+00   2.119878e+00   4.306732e+05   3.782195e+05   2.468431e+05  -1.112887e+11   1.135106e+11   2.024509e+10   6.240680e+05   3.563597e-23   0.000000e+00   0.000000e+00
     1448000   1.447999e-05   7.643111e+00   4.427415e+00   2.139686e+00   4.216463e+05   3.873122e+05   2.483236e+05  -1.143883e+11   1.137948e+11   1.674249e+10   6.240680e+05   3.651658e-23   0.000000e+00   0.000000e+00
     1456000   1.455999e-05   7.676473e+00   4.458765e+00   2.159602e+00   4.123712e+05   3.964236e+05   2.495180e+05  -1.174851e+11   1.139705e+11   1.309379e+10   6.240680e+05   3.741752e-23   0.000000e+00   0.000000e+00
     1464000   1.463999e-05   7.709084e+00   4.490843e+00   2.179601e+00   4.028479e+05   4.055456e+05   2.504142e+05  -1.206213e+11   1.140935e+11   9.273443e+09   6.240681e+05   3.837413e-23   0.000000e+00   0.000000e+00
     1472000   1.471999e-05   7.740922e+00   4.523652e+00   2.199660e+00   3.930739e+05   4.146712e+05   2.510014e+05  -1.237134e+11   1.140196e+11   5.371046e+09   6.240681e+05   3.931982e-23   0.000000e+00   0.000000e+00
     1480000   1.479999e-05   7.771969e+00   4.557191e+00   2.219753e+00   3.830577e+05   4.237850e+05   2.512648e+05  -1.266999e+11   1.137997e+11   1.221986e+09   6.240681e+05   4.025018e-23   0.000000e+00   0.000000e+00
     1488000   1.487999e-05   7.802205e+00   4.591457e+00   2.239853e+00   3.728021e+05   4.328759e+05   2.511932e+05  -1.298193e+11   1.135431e+11  -2.997152e+09   6.240681e+05   4.129007e-23   0.000000e+00   0.000000e+00
     1496000   1.495999e-05   7.831611e+00   4.626450e+00   2.259935e+00   3.622992e+05   4.419392e+05   2.507790e+05  -1.327432e+11   1.130132e+11  -7.384661e+09   6.240681e+05   4.225201e-23   0.000000e+00   0.000000e+00
     1504000   1.503999e-05   7.860167e+00   4.662166e+00   2.279969e+00   3.515644e+05   4.509542e+05   2.500076e+05  -1.356137e+11   1.123357e+11  -1.192368e+10   6.240682e+05   4.323078e-23   0.000000e+00   0.000000e+00
     1512000   1.511999e-05   7.887855e+00   4.698601e+00   2.299926e+00   3.406028e+05   4.599085e+05   2.488673e+05  -1.384132e+11   1.114948e+11  -1.660804e+10   6.240682e+05   4.421961e-23   0.000000e+00   0.000000e+00
     1520000   1.519999e-05   7.914657e+00   4.735750e+00   2.319777e+00   3.294013e+05   4.688044e+05   2.473426e+05  -1.414345e+11   1.107227e+11  -2.150145e+10   6.240682e+05   4.541362e-23   0.000000e+00   0.000000e+00
     1528000   1.527999e-05   7.940553e+00   4.773608e+00   2.339490e+00   3.179758e+05   4.776192e+05   2.454231e+05  -1.441886e+11   1.096167e+11  -2.651016e+10   6.240682e+05   4.650076e-23   0.000000e+00   0.000000e+00
     1536000   1.535999e-05   7.965527e+00   4.812167e+00   2.359034e+00   3.063323e+05   4.863394e+05   2.430961e+05  -1.469072e+11   1.083825e+11  -3.170732e+10   6.240682e+05   4.764547e-23   0.000000e+00   0.000000e+00
     1544000   1.543999e-05   7.989561e+00   4.851419e+00   2.378374e+00   2.944757e+05   4.949530e+05   2.403473e+05  -1.494889e+11   1.069240e+11  -3.703441e+10   6.240683e+05   4.877977e-23   0.000000e+00   0.000000e+00
     1552000   1.551999e-05   8.012638e+00   4.891356e+00   2.397478e+00   2.824190e+05   5.034397e+05   2.371692e+05  -1.518993e+11   1.052045e+11  -4.243606e+10   6.240683e+05   4.987745e-23   0.000000e+00   0.000000e+00
     1560000   1.559999e-05   8.034743e+00   4.931966e+00   2.416310e+00   2.701745e+05   5.117831e+05   2.335488e+05  -1.541742e+11   1.033277e+11  -4.807164e+10   6.240683e+05   5.100841e-23   0.000000e+00   0.000000e+00
     1568000   1.567999e-05   8.055861e+00   4.973237e+00   2.434834e+00   2.577554e+05   5.199662e+05   2.294747e+05  -1.562765e+11   1.012124e+11  -5.379919e+10   6.240683e+05   5.212338e-23   0.000000e+00   0.000000e+00
     1576000   1.575999e-05   8.075979e+00   5.015156e+00   2.453013e+00   2.451694e+05   5.279736e+05   2.249382e+05  -1.584128e+11   9.896507e+10  -5.962791e+10   6.240684e+05   5.334947e-23   0.000000e+00   0.000000e+00
     1584000   1.583999e-05   8.095084e+00   5.057707e+00   2.470811e+00   2.324208e+05   5.357915e+05   2.199303e+05  -1.602712e+11   9.644600e+10  -6.558527e+10   6.240684e+05   5.452340e-23   0.000000e+00   0.000000e+00
     1592000   1.591999e-05   8.113163e+00   5.100876e+00   2.488189e+00   2.195435e+05   5.433950e+05   2.144385e+05  -1.616979e+11   9.359751e+10  -7.163030e+10   6.240684e+05   5.556071e-23   0.000000e+00   0.000000e+00
     1600000   1.599999e-05   8.130208e+00   5.144644e+00   2.505109e+00   2.065501e+05   5.507649e+05   2.084623e+05  -1.630951e+11   9.061590e+10  -7.780948e+10   6.240684e+05   5.670967e-23   0.000000e+00   0.000000e+00
     1608000   1.607999e-05   8.146209e+00   5.188992e+00   2.521530e+00   1.934541e+05   5.578869e+05   2.019881e+05  -1.642680e+11   8.739581e+10  -8.405566e+10   6.240685e+05   5.785008e-23   0.000000e+00   0.000000e+00
     1616000   1.615999e-05   8.161158e+00   5.233899e+00   2.537413e+00   1.802695e+05   5.647417e+05   1.950158e+05  -1.652934e+11   8.393843e+10  -9.027850e+10   6.240685e+05   5.900250e-23   0.000000e+00   0.000000e+00
     1624000   1.623999e-05   8.175050e+00   5.279343e+00   2.552719e+00   1.670144e+05   5.713108e+05   1.875411e+05  -1.660446e+11   8.025119e+10  -9.659808e+10   6.240685e+05   6.014665e-23   0.000000e+00   0.000000e+00
     1632000   1.631999e-05   8.187879e+00   5.325301e+00   2.567406e+00   1.537112e+05   5.775778e+05   1.795503e+05  -1.664822e+11   7.638314e+10  -1.031833e+11   6.240685e+05   6.133348e-23   0.000000e+00   0.000000e+00
     1640000   1.639999e-05   8.199643e+00   5.371747e+00   2.581433e+00   1.403837e+05   5.835243e+05   1.710361e+05  -1.666583e+11   7.224209e+10  -1.096754e+11   6.240686e+05   6.247851e-23   0.000000e+00   0.000000e+00
     1648000   1.647999e-05   8.210340e+00   5.418656e+00   2.594759e+00   1.270538e+05   5.891270e+05   1.620133e+05  -1.665882e+11   6.785581e+10  -1.160989e+11   6.240686e+05   6.360586e-23   0.000000e+00   0.000000e+00
     1656000   1.655999e-05   8.219972e+00   5.465998e+00   2.607341e+00   1.137392e+05   5.943733e+05   1.524647e+05  -1.662311e+11   6.326320e+10  -1.226153e+11   6.240686e+05   6.476394e-23   0.000000e+00   0.000000e+00
     1664000   1.663999e-05   8.228540e+00   5.513745e+00   2.619139e+00   1.004658e+05   5.992429e+05   1.423948e+05  -1.655509e+11   5.843927e+10  -1.291244e+11   6.240687e+05   6.590998e-23   0.000000e+00   0.000000e+00
     1672000   1.671999e-05   8.236048e+00   5.561866e+00   2.630111e+00   8.725879e+04   6.037177e+05   1.318051e+05  -1.645700e+11   5.339418e+10  -1.356120e+11   6.240687e+05   6.706110e-23   0.000000e+00   0.000000e+00
     1680000   1.679999e-05   8.242504e+00   5.610329e+00   2.640214e+00   7.414305e+04   6.077802e+05   1.206974e+05  -1.632883e+11   4.813786e+10  -1.420913e+11   6.240687e+05   6.823430e-23   0.000000e+00   0.000000e+00
     1688000   1.687999e-05   8.247914e+00   5.659100e+00   2.649408e+00   6.114265e+04   6.114133e+05   1.090743e+05  -1.616636e+11   4.265485e+10  -1.484741e+11   6.240688e+05   6.938453e-23   0.000000e+00   0.000000e+00
     1696000   1.695999e-05   8.252290e+00   5.708143e+00   2.657652e+00   4.828681e+04   6.145993e+05   9.694304e+04  -1.596454e+11   3.696585e+10  -1.548323e+11   6.240688e+05   7.053224e-23   0.000000e+00   0.000000e+00
     1704000   1.703999e-05   8.255645e+00   5.757423e+00   2.664906e+00   3.560812e+04   6.173220e+05   8.430591e+04  -1.572606e+11   3.106956e+10  -1.610759e+11   6.240688e+05   7.166395e-23   0.000000e+00   0.000000e+00
     1712000   1.711999e-05   8.257993e+00   5.806902e+00   2.671128e+00   2.313453e+04   6.195652e+05   7.117351e+04  -1.545525e+11   2.498548e+10  -1.672548e+11   6.240689e+05   7.283415e-23   0.000000e+00   0.000000e+00
     1720000   1.719999e-05   8.259353e+00   5.856541e+00   2.676280e+00   1.089437e+04   6.213139e+05   5.755325e+04  -1.513881e+11   1.870135e+10  -1.732239e+11   6.240689e+05   7.393003e-23   0.000000e+00   0.000000e+00
     1728000   1.727999e-05   8.259743e+00   5.906299e+00   2.680324e+00  -1.078424e+03   6.225528e+05   4.346157e+04  -1.479546e+11   1.224717e+10  -1.790898e+11   6.240689e+05   7.509449e-23   0.000000e+00   0.000000e+00
     1736000   1.735999e-05   8.259188e+00   5.956135e+00   2.683222e+00  -1.276095e+04   6.232685e+05   2.890755e+04  -1.440432e+11   5.619385e+09  -1.847256e+11   6.240690e+05   7.619061e-23   0.000000e+00   0.000000e+00
     1744000   1.743999e-05   8.257710e+00   6.006007e+00   2.684938e+00  -2.411527e+04   6.234477e+05   1.391097e+04  -1.397930e+11  -1.163147e+09  -1.901684e+11   6.240690e+05   7.730618e-23   0.000000e+00   0.000000e+00
     1752000   1.751999e-05   8.255339e+00   6.055872e+00   2.685436e+00  -3.511575e+04   6.230785e+05  -1.510418e+03  -1.351544e+11  -8.089674e+09  -1.953233e+11   6.240690e+05   7.838286e-23   0.000000e+00   0.000000e+00
     1760000   1.759999e-05   8.252102e+00   6.105685e+00   2.684685e+00  -4.572877e+04   6.221500e+05  -1.733527e+04  -1.300440e+11  -1.514088e+10  -2.003843e+11   6.240691e+05   7.950867e-23   0.000000e+00   0.000000e+00
     1768000   1.767999e-05   8.248034e+00   6.155401e+00   2.682652e+00  -5.591598e+04   6.206527e+05  -3.355440e+04  -1.245717e+11  -2.230727e+10  -2.050430e+11   6.240691e+05   8.056861e-23   0.000000e+00   0.000000e+00
     1776000   1.775999e-05   8.243168e+00   6.204974e+00   2.679307e+00  -6.564965e+04   6.185783e+05  -5.013334e+04  -1.186858e+11  -2.955989e+10  -2.093219e+11   6.240691e+05   8.156420e-23   0.000000e+00   0.000000e+00
     1784000   1.783999e-05   8.237543e+00   6.254358e+00   2.674622e+00  -7.489605e+04   6.159209e+05  -6.704008e+04  -1.124128e+11  -3.688388e+10  -2.132884e+11   6.240692e+05   8.255395e-23   0.000000e+00   0.000000e+00
     1792000   1.791999e-05   8.231198e+00   6.303506e+00   2.668572e+00  -8.362652e+04   6.126751e+05  -8.425077e+04  -1.058998e+11  -4.429812e+10  -2.170297e+11   6.240692e+05   8.365026e-23   0.000000e+00   0.000000e+00
     1800000   1.799999e-05   8.224176e+00   6.352370e+00   2.661134e+00  -9.182214e+04   6.088338e+05  -1.017471e+05  -9.893141e+10  -5.173800e+10  -2.203144e+11   6.240693e+05   8.465454e-23   0.000000e+00   0.000000e+00
     1808000   1.807999e-05   8.216522e+00   6.400903e+00   2.652286e+00  -9.944599e+04   6.043964e+05  -1.194904e+05  -9.158226e+10  -5.918414e+10  -2.231461e+11   6.240693e+05   8.560038e-23   0.000000e+00   0.000000e+00
     1816000   1.815999e-05   8.208281e+00   6.449057e+00   2.642010e+00  -1.064698e+05   5.993634e+05  -1.374419e+05  -8.395862e+10  -6.663953e+10  -2.255707e+11   6.240693e+05   8.655480e-23   0.000000e+00   0.000000e+00
     1824000   1.823999e-05   8.199503e+00   6.496785e+00   2.630291e+00  -1.128706e+05   5.937345e+05  -1.555706e+05  -7.596558e+10  -7.409261e+10  -2.276631e+11   6.240694e+05   8.755257e-23   0.000000e+00   0.000000e+00
     1832000   1.831999e-05   8.190239e+00   6.544039e+00   2.617115e+00  -1.186229e+05   5.875127e+05  -1.738391e+05  -6.774084e+10  -8.145639e+10  -2.290722e+11   6.240694e+05   8.839497e-23   0.000000e+00   0.000000e+00
     1840000   1.839999e-05   8.180542e+00   6.590772e+00   2.602474e+00  -1.237012e+05   5.807029e+05  -1.922104e+05  -5.917270e+10  -8.877671e+10  -2.301322e+11   6.240695e+05   8.929081e-23   0.000000e+00   0.000000e+00
     1848000   1.847999e-05   8.170466e+00   6.636936e+00   2.586360e+00  -1.280766e+05   5.733091e+05  -2.106556e+05  -5.023792e+10  -9.604802e+10  -2.308581e+11   6.240695e+05   9.026358e-23   0.000000e+00   0.000000e+00
     1856000   1.855999e-05   8.160069e+00   6.682486e+00   2.568768e+00  -1.317339e+05   5.653377e+05  -2.291338e+05  -4.115679e+10  -1.032194e+11  -2.310124e+11   6.240695e+05   9.119381e-23   0.000000e+00   0.000000e+00
     1864000   1.863999e-05   8.149408e+00   6.727375e+00   2.549698e+00  -1.346543e+05   5.567959e+05  -2.476073e+05  -3.182956e+10  -1.102979e+11  -2.307206e+11   6.240696e+05   9.215954e-23   0.000000e+00   0.000000e+00
     1872000   1.871999e-05   8.138544e+00   6.771558e+00   2.529152e+00  -1.368223e+05   5.476942e+05  -2.660331e+05  -2.234216e+10  -1.172207e+11  -2.298393e+11   6.240696e+05   9.306882e-23   0.000000e+00   0.000000e+00
     1880000   1.879999e-05   8.127537e+00   6.814991e+00   2.507135e+00  -1.382233e+05   5.380446e+05  -2.843682e+05  -1.263257e+10  -1.239937e+11  -2.284669e+11   6.240697e+05   9.399189e-23   0.000000e+00   0.000000e+00
     1888000   1.887999e-05   8.116449e+00   6.857631e+00   2.483657e+00  -1.388428e+05   5.278591e+05  -3.025730e+05  -2.804886e+09  -1.306204e+11  -2.265914e+11   6.240697e+05   9.493842e-23   0.000000e+00   0.000000e+00
     1896000   1.895999e-05   8.105343e+00   6.899435e+00   2.458728e+00  -1.386669e+05   5.171498e+05  -3.206098e+05   7.219691e+09  -1.370822e+11  -2.242410e+11   6.240698e+05   9.592994e-23   0.000000e+00   0.000000e+00
     1904000   1.903999e-05   8.094284e+00   6.940361e+00   2.432365e+00  -1.376837e+05   5.059311e+05  -3.384376e+05   1.730569e+10  -1.433355e+11  -2.213149e+11   6.240698e+05   9.689735e-23   0.000000e+00   0.000000e+00
     1912000   1.911999e-05   8.083335e+00   6.980371e+00   2.404585e+00  -1.358934e+05   4.942202e+05  -3.560092e+05   2.746024e+10  -1.494003e+11  -2.178849e+11   6.240698e+05   9.790142e-23   0.000000e+00   0.000000e+00
     1920000   1.919999e-05   8.072563e+00   7.019424e+00   2.375411e+00  -1.332862e+05   4.820341e+05  -3.732843e+05   3.771480e+10  -1.552859e+11  -2.139941e+11   6.240699e+05   9.898562e-23   0.000000e+00   0.000000e+00
     1928000   1.927999e-05   8.062031e+00   7.057484e+00   2.344868e+00  -1.298625e+05   4.693843e+05  -3.902273e+05   4.787640e+10  -1.609170e+11  -2.094932e+11   6.240699e+05   1.000184e-22   0.000000e+00   0.000000e+00
     1936000   1.935999e-05   8.051806e+00   7.094514e+00   2.312985e+00  -1.256265e+05   4.562938e+05  -4.067891e+05   5.801623e+10  -1.663049e+11  -2.044622e+11   6.240700e+05   1.010650e-22   0.000000e+00   0.000000e+00
     1944000   1.943999e-05   8.041953e+00   7.130480e+00   2.279794e+00  -1.205820e+05   4.427849e+05  -4.229242e+05   6.808513e+10  -1.713875e+11  -1.988497e+11   6.240700e+05   1.020676e-22   0.000000e+00   0.000000e+00
     1952000   1.951999e-05   8.032535e+00   7.165349e+00   2.245330e+00  -1.147349e+05   4.288791e+05  -4.385910e+05   7.807463e+10  -1.762116e+11  -1.927357e+11   6.240701e+05   1.030984e-22   0.000000e+00   0.000000e+00
     1960000   1.959999e-05   8.023616e+00   7.199090e+00   2.209633e+00  -1.080931e+05   4.145984e+05  -4.537484e+05   8.794616e+10  -1.807597e+11  -1.861160e+11   6.240701e+05   1.041455e-22   0.000000e+00   0.000000e+00
     1968000   1.967999e-05   8.015261e+00   7.231675e+00   2.172745e+00  -1.006664e+05   3.999648e+05  -4.683567e+05   9.766657e+10  -1.850094e+11  -1.789870e+11   6.240702e+05   1.051944e-22   0.000000e+00   0.000000e+00
     1976000   1.975999e-05   8.007530e+00   7.263076e+00   2.134711e+00  -9.247183e+04   3.850051e+05  -4.823730e+05   1.071626e+11  -1.889333e+11  -1.713416e+11   6.240702e+05   1.062129e-22   0.000000e+00   0.000000e+00
     1984000   1.983999e-05   8.000485e+00   7.293268e+00   2.095582e+00  -8.352627e+04   3.697436e+05  -4.957588e+05   1.164055e+11  -1.925532e+11  -1.632225e+11   6.240703e+05   1.072274e-22   0.000000e+00   0.000000e+00
     1992000   1.991999e-05   7.994186e+00   7.322228e+00   2.055408e+00  -7.384538e+04   3.542046e+05  -5.084778e+05   1.255110e+11  -1.958698e+11  -1.546718e+11   6.240703e+05   1.082998e-22   0.000000e+00   0.000000e+00
     2000000   1.999999e-05   7.988689e+00   7.349934e+00   2.014244e+00  -6.344983e+04   3.384122e+05  -5.204951e+05   1.343304e+11  -1.988900e+11  -1.456898e+11   6.240704e+05   1.093907e-22   0.000000e+00   0.000000e+00
     2008000   2.007999e-05   7.984052e+00   7.376367e+00   1.972148e+00  -5.236220e+04   3.223938e+05  -5.317747e+05   1.428367e+11  -2.015583e+11  -1.362629e+11   6.240704e+05   1.104567e-22   0.000000e+00   0.000000e+00
     2016000   2.015999e-05   7.980329e+00   7.401511e+00   1.929180e+00  -4.060112e+04   3.061676e+05  -5.422886e+05   1.513725e+11  -2.042045e+11  -1.266254e+11   6.240705e+05   1.119159e-22   0.000000e+00   0.000000e+00
     2024000   2.023999e-05   7.977574e+00   7.425349e+00   1.885403e+00  -2.817424e+04   2.897442e+05  -5.520132e+05   1.592032e+11  -2.063055e+11  -1.164140e+11   6.240705e+05   1.130438e-22   0.000000e+00   0.000000e+00
     2032000   2.031999e-05   7.975838e+00   7.447866e+00   1.840880e+00  -1.513059e+04   2.731630e+05  -5.609074e+05   1.668255e+11  -2.081729e+11  -1.058822e+11   6.240706e+05   1.143176e-22   0.000000e+00   0.000000e+00
     2040000   2.039999e-05   7.975169e+00   7.469051e+00   1.795681e+00  -1.492746e+03   2.564457e+05  -5.689442e+05   1.739936e+11  -2.096115e+11  -9.493816e+10   6.240706e+05   1.154920e-22   0.000000e+00   0.000000e+00
     2048000   2.047999e-05   7.975614e+00   7.488895e+00   1.749873e+00   1.269916e+04   2.396274e+05  -5.760917e+05   1.807341e+11  -2.107935e+11  -8.369774e+10   6.240707e+05   1.167132e-22   0.000000e+00   0.000000e+00
     2056000   2.055999e-05   7.977215e+00   7.507389e+00   1.703530e+00   2.741577e+04   2.227235e+05  -5.823289e+05   1.871226e+11  -2.117718e+11  -7.218824e+10   6.240707e+05   1.180584e-22   0.000000e+00   0.000000e+00
     2064000   2.063999e-05   7.980013e+00   7.524529e+00   1.656725e+00   4.262246e+04   2.057620e+05  -5.876306e+05   1.929606e+11  -2.122420e+11  -6.032316e+10   6.240708e+05   1.192324e-22   0.000000e+00   0.000000e+00
     2072000   2.071999e-05   7.984046e+00   7.540311e+00   1.609535e+00   5.827718e+04   1.887729e+05  -5.919738e+05   1.983287e+11  -2.124326e+11  -4.821895e+10   6.240709e+05   1.204365e-22   0.000000e+00   0.000000e+00
     2080000   2.079999e-05   7.989348e+00   7.554733e+00   1.562036e+00   7.434377e+04   1.717808e+05  -5.953393e+05   2.032409e+11  -2.122979e+11  -3.587851e+10   6.240709e+05   1.216543e-22   0.000000e+00   0.000000e+00
     2088000   2.087999e-05   7.995951e+00   7.567796e+00   1.514307e+00   9.078227e+04   1.548140e+05  -5.977088e+05   2.076379e+11  -2.118213e+11  -2.332900e+10   6.240710e+05   1.228499e-22   0.000000e+00   0.000000e+00
     2096000   2.095999e-05   8.003883e+00   7.579504e+00   1.466429e+00   1.075586e+05   1.378910e+05  -5.990675e+05   2.116292e+11  -2.111452e+11  -1.060543e+10   6.240710e+05   1.241761e-22   0.000000e+00   0.000000e+00
     2104000   2.103999e-05   8.013168e+00   7.589861e+00   1.418484e+00   1.246309e+05   1.210362e+05  -5.994015e+05   2.150894e+11  -2.101744e+11   2.280874e+09   6.240711e+05   1.255087e-22   0.000000e+00   0.000000e+00
     2112000   2.111999e-05   8.023831e+00   7.598872e+00   1.370553e+00   1.419685e+05   1.042632e+05  -5.986977e+05   2.182387e+11  -2.090884e+11   1.533643e+10   6.240711e+05   1.270898e-22   0.000000e+00   0.000000e+00
     2120000   2.119999e-05   8.035889e+00   7.606546e+00   1.322720e+00   1.595217e+05   8.759913e+04  -5.969456e+05   2.206032e+11  -2.075381e+11   2.849492e+10   6.240712e+05   1.284339e-22   0.000000e+00   0.000000e+00
     2128000   2.127999e-05   8.049359e+00   7.612891e+00   1.275070e+00   1.772510e+05   7.106608e+04  -5.941352e+05   2.225035e+11  -2.057081e+11   4.177360e+10   6.240713e+05   1.298478e-22   0.000000e+00   0.000000e+00
     2136000   2.135999e-05   8.064253e+00   7.617921e+00   1.227687e+00   1.951058e+05   5.469460e+04  -5.902603e+05   2.237742e+11  -2.035279e+11   5.510589e+10   6.240713e+05   1.311891e-22   0.000000e+00   0.000000e+00
     2144000   2.143999e-05   8.080578e+00   7.621647e+00   1.180656e+00   2.130433e+05   3.850760e+04  -5.853160e+05   2.245721e+11  -2.010849e+11   6.850884e+10   6.240714e+05   1.326130e-22   0.000000e+00   0.000000e+00
     2152000   2.151999e-05   8.098340e+00   7.624088e+00   1.134065e+00   2.310160e+05   2.253499e+04  -5.793004e+05   2.246511e+11  -1.981798e+11   8.187643e+10   6.240714e+05   1.338424e-22   0.000000e+00   0.000000e+00
     2160000   2.159999e-05   8.117540e+00   7.625260e+00   1.087997e+00   2.489694e+05   6.808713e+03  -5.722177e+05   2.241689e+11  -1.949629e+11   9.521338e+10   6.240715e+05   1.350647e-22   0.000000e+00   0.000000e+00
     2168000   2.167999e-05   8.138174e+00   7.625184e+00   1.042538e+00   2.668638e+05  -8.648111e+03  -5.640694e+05   2.230975e+11  -1.914082e+11   1.084813e+11   6.240716e+05   1.362441e-22   0.000000e+00   0.000000e+00
     2176000   2.175999e-05   8.160235e+00   7.623884e+00   9.977740e-01   2.846498e+05  -2.380845e+04  -5.548631e+05   2.214089e+11  -1.875227e+11   1.216293e+11   6.240716e+05   1.373580e-22   0.000000e+00   0.000000e+00
     2184000   2.183999e-05   8.183714e+00   7.621383e+00   9.537881e-01   3.022808e+05  -3.864581e+04  -5.446084e+05   2.192736e+11  -1.833610e+11   1.347157e+11   6.240717e+05   1.385655e-22   0.000000e+00   0.000000e+00
     2192000   2.191999e-05   8.208595e+00   7.617710e+00   9.106644e-01   3.197195e+05  -5.313890e+04  -5.333116e+05   2.166108e+11  -1.789285e+11   1.476843e+11   6.240718e+05   1.398086e-22   0.000000e+00   0.000000e+00
     2200000   2.199999e-05   8.234863e+00   7.612891e+00   8.684858e-01   3.369241e+05  -6.726953e+04  -5.209823e+05   2.134315e+11  -1.743107e+11   1.605332e+11   6.240718e+05   1.411434e-22   0.000000e+00   0.000000e+00
     2208000   2.207999e-05   8.262496e+00   7.606957e+00   8.273345e-01   3.538540e+05  -8.102025e+04  -5.076305e+05   2.097250e+11  -1.694050e+11   1.732288e+11   6.240719e+05   1.425072e-22   0.000000e+00   0.000000e+00
     2216000   2.215999e-05   8.291471e+00   7.599938e+00   7.872918e-01   3.704636e+05  -9.436503e+04  -4.932725e+05   2.055480e+11  -1.640967e+11   1.857634e+11   6.240719e+05   1.438879e-22   0.000000e+00   0.000000e+00
     2224000   2.223999e-05   8.321760e+00   7.591870e+00   7.484374e-01   3.867117e+05  -1.072789e+05  -4.779238e+05   2.006127e+11  -1.586451e+11   1.979343e+11   6.240720e+05   1.451452e-22   0.000000e+00   0.000000e+00
     2232000   2.231999e-05   8.353334e+00   7.582786e+00   7.108497e-01   4.025498e+05  -1.197370e+05  -4.616088e+05   1.952538e+11  -1.527526e+11   2.098930e+11   6.240721e+05   1.464230e-22   0.000000e+00   0.000000e+00
     2240000   2.239999e-05   8.386156e+00   7.572725e+00   6.746052e-01   4.179372e+05  -1.317122e+05  -4.443495e+05   1.893352e+11  -1.465470e+11   2.215176e+11   6.240722e+05   1.476462e-22   0.000000e+00   0.000000e+00
     2248000   2.247999e-05   8.420190e+00   7.561726e+00   6.397782e-01   4.328321e+05  -1.431717e+05  -4.261741e+05   1.829465e+11  -1.398906e+11   2.327979e+11   6.240722e+05   1.488116e-22   0.000000e+00   0.000000e+00
     2256000   2.255999e-05   8.455395e+00   7.549832e+00   6.064410e-01   4.471941e+05  -1.540880e+05  -4.071125e+05   1.760233e+11  -1.329662e+11   2.436771e+11   6.240723e+05   1.499345e-22   0.000000e+00   0.000000e+00
     2264000   2.263999e-05   8.491726e+00   7.537086e+00   5.746632e-01   4.609838e+05  -1.644499e+05  -3.871904e+05   1.686462e+11  -1.259148e+11   2.542645e+11   6.240724e+05   1.511887e-22   0.000000e+00   0.000000e+00
     2272000   2.271999e-05   8.529136e+00   7.523536e+00   5.445123e-01   4.741643e+05  -1.742120e+05  -3.664488e+05   1.607933e+11  -1.181838e+11   2.642399e+11   6.240724e+05   1.521575e-22   0.000000e+00   0.000000e+00
     2280000   2.279999e-05   8.567575e+00   7.509229e+00   5.160524e-01   4.866992e+05  -1.833543e+05  -3.449226e+05   1.525085e+11  -1.103228e+11   2.738378e+11   6.240725e+05   1.532295e-22   0.000000e+00   0.000000e+00
     2288000   2.287999e-05   8.606990e+00   7.494216e+00   4.893447e-01   4.985539e+05  -1.918575e+05  -3.226473e+05   1.438893e+11  -1.022469e+11   2.831336e+11   6.240726e+05   1.544869e-22   0.000000e+00   0.000000e+00
     2296000   2.295999e-05   8.647325e+00   7.478549e+00   4.644483e-01   5.097042e+05  -1.996999e+05  -2.996469e+05   1.348019e+11  -9.376639e+10   2.917871e+11   6.240726e+05   1.555697e-22   0.000000e+00   0.000000e+00
     2304000   2.303999e-05   8.688523e+00   7.462283e+00   4.414191e-01   5.201120e+05  -2.068523e+05  -2.759754e+05   1.253332e+11  -8.499675e+10   2.999105e+11   6.240727e+05   1.566463e-22   0.000000e+00   0.000000e+00
     2312000   2.311999e-05   8.730522e+00   7.445472e+00   4.203087e-01   5.297448e+05  -2.132898e+05  -2.516839e+05   1.154553e+11  -7.591718e+10   3.073421e+11   6.240728e+05   1.575808e-22   0.000000e+00   0.000000e+00
     2320000   2.319999e-05   8.773261e+00   7.428176e+00   4.011651e-01   5.385769e+05  -2.189925e+05  -2.268131e+05   1.052932e+11  -6.660609e+10   3.143272e+11   6.240729e+05   1.586523e-22   0.000000e+00   0.000000e+00
     2328000   2.327999e-05   8.816673e+00   7.410453e+00   3.840331e-01   5.465839e+05  -2.239434e+05  -2.014012e+05   9.482225e+10  -5.706865e+10   3.207891e+11   6.240729e+05   1.598029e-22   0.000000e+00   0.000000e+00
     2336000   2.335999e-05   8.860692e+00   7.392366e+00   3.689539e-01   5.537410e+05  -2.281169e+05  -1.755011e+05   8.405975e+10  -4.721654e+10   3.265909e+11   6.240730e+05   1.609178e-22   0.000000e+00   0.000000e+00
     2344000   2.343999e-05   8.905248e+00   7.373976e+00   3.559646e-01   5.600248e+05  -2.314932e+05  -1.491655e+05   7.297834e+10  -3.720777e+10   3.317246e+11   6.240731e+05   1.620202e-22   0.000000e+00   0.000000e+00
     2352000   2.351999e-05   8.950272e+00   7.355348e+00   3.450977e-01   5.654116e+05  -2.340596e+05  -1.224464e+05   6.165391e+10  -2.691656e+10   3.361369e+11   6.240732e+05   1.630781e-22   0.000000e+00   0.000000e+00
     2360000   2.359999e-05   8.995690e+00   7.336549e+00   3.363818e-01   5.698833e+05  -2.357940e+05  -9.540238e+04   5.010324e+10  -1.641266e+10   3.398429e+11   6.240732e+05   1.641317e-22   0.000000e+00   0.000000e+00
     2368000   2.367999e-05   9.041428e+00   7.317644e+00   3.298406e-01   5.734251e+05  -2.366757e+05  -6.808675e+04   3.838195e+10  -5.651192e+09   3.428785e+11   6.240733e+05   1.652389e-22   0.000000e+00   0.000000e+00
     2376000   2.375999e-05   9.087412e+00   7.298703e+00   3.254935e-01   5.760193e+05  -2.366940e+05  -4.056260e+04   2.643685e+10   5.207008e+09   3.450091e+11   6.240734e+05   1.661917e-22   0.000000e+00   0.000000e+00
     2384000   2.383999e-05   9.133566e+00   7.279796e+00   3.233545e-01   5.776524e+05  -2.358372e+05  -1.289137e+04   1.436585e+10   1.623724e+10   3.465821e+11   6.240735e+05   1.673462e-22   0.000000e+00   0.000000e+00
     2392000   2.391999e-05   9.179811e+00   7.260993e+00   3.234331e-01   5.783143e+05  -2.340926e+05   1.486693e+04   2.164422e+09   2.739502e+10   3.472452e+11   6.240735e+05   1.683804e-22   0.000000e+00   0.000000e+00
     2400000   2.399999e-05   9.226070e+00   7.242365e+00   3.257337e-01   5.779959e+05  -2.314522e+05   4.264403e+04  -1.013450e+10   3.862783e+10   3.470455e+11   6.240736e+05   1.693532e-22   0.000000e+00   0.000000e+00
     2408000   2.407999e-05   9.272264e+00   7.223985e+00   3.302550e-01   5.766911e+05  -2.279096e+05   7.037431e+04  -2.249168e+10   4.994516e+10   3.460775e+11   6.240737e+05   1.703727e-22   0.000000e+00   0.000000e+00
     2416000   2.415999e-05   9.318314e+00   7.205924e+00   3.369907e-01   5.743960e+05  -2.234584e+05   9.799840e+04  -3.489222e+10   6.135277e+10   3.444237e+11   6.240738e+05   1.715375e-22   0.000000e+00   0.000000e+00
     2424000   2.423999e-05   9.364141e+00   7.188256e+00   3.459300e-01   5.711077e+05  -2.180986e+05   1.254478e+05  -4.731003e+10   7.265062e+10   3.416989e+11   6.240739e+05   1.724606e-22   0.000000e+00   0.000000e+00
     2432000   2.431999e-05   9.409665e+00   7.171053e+00   3.570559e-01   5.668262e+05  -2.118308e+05   1.526565e+05  -5.973942e+10   8.412584e+10   3.385611e+11   6.240739e+05   1.738416e-22   0.000000e+00   0.000000e+00
     2440000   2.439999e-05   9.454806e+00   7.154387e+00   3.703476e-01   5.615507e+05  -2.046475e+05   1.795789e+05  -7.214105e+10   9.544343e+10   3.343621e+11   6.240740e+05   1.750104e-22   0.000000e+00   0.000000e+00
     2448000   2.447999e-05   9.499486e+00   7.138333e+00   3.857787e-01   5.552849e+05  -1.965618e+05   2.061324e+05  -8.449082e+10   1.066825e+11   3.293390e+11   6.240741e+05   1.762209e-22   0.000000e+00   0.000000e+00
     2456000   2.455999e-05   9.543626e+00   7.122961e+00   4.033165e-01   5.480386e+05  -1.875867e+05   2.322359e+05  -9.671681e+10   1.177791e+11   3.233765e+11   6.240742e+05   1.773511e-22   0.000000e+00   0.000000e+00
     2464000   2.463999e-05   9.587146e+00   7.108343e+00   4.229234e-01   5.398130e+05  -1.777232e+05   2.578470e+05  -1.089056e+11   1.287793e+11   3.167654e+11   6.240743e+05   1.787201e-22   0.000000e+00   0.000000e+00
     2472000   2.471999e-05   9.629970e+00   7.094549e+00   4.445570e-01   5.306171e+05  -1.669866e+05   2.828953e+05  -1.209811e+11   1.395708e+11   3.093102e+11   6.240743e+05   1.801139e-22   0.000000e+00   0.000000e+00
     2480000   2.479999e-05   9.672019e+00   7.081648e+00   4.681698e-01   5.204604e+05  -1.553963e+05   3.073139e+05  -1.329103e+11   1.501468e+11   3.010215e+11   6.240744e+05   1.815488e-22   0.000000e+00   0.000000e+00
     2488000   2.487999e-05   9.713218e+00   7.069708e+00   4.937087e-01   5.093586e+05  -1.429649e+05   3.310346e+05  -1.445580e+11   1.606669e+11   2.918211e+11   6.240745e+05   1.830022e-22   0.000000e+00   0.000000e+00
     2496000   2.495999e-05   9.753492e+00   7.058795e+00   5.211149e-01   4.973292e+05  -1.297113e+05   3.539883e+05  -1.561365e+11   1.706429e+11   2.818931e+11   6.240746e+05   1.845161e-22   0.000000e+00   0.000000e+00
     2504000   2.503999e-05   9.792767e+00   7.048975e+00   5.503248e-01   4.843823e+05  -1.156698e+05   3.761163e+05  -1.674978e+11   1.803357e+11   2.711760e+11   6.240747e+05   1.861142e-22   0.000000e+00   0.000000e+00
     2512000   2.511999e-05   9.830969e+00   7.040309e+00   5.812700e-01   4.705315e+05  -1.008551e+05   3.973634e+05  -1.787093e+11   1.898747e+11   2.598114e+11   6.240748e+05   1.880273e-22   0.000000e+00   0.000000e+00
     2520000   2.519999e-05   9.868028e+00   7.032858e+00   6.138776e-01   4.557985e+05  -8.530458e+04   4.176605e+05  -1.895377e+11   1.987994e+11   2.474519e+11   6.240749e+05   1.896742e-22   0.000000e+00   0.000000e+00
     2528000   2.527999e-05   9.903874e+00   7.026679e+00   6.480685e-01   4.402106e+05  -6.905765e+04   4.369384e+05  -2.001686e+11   2.073136e+11   2.344364e+11   6.240749e+05   1.915181e-22   0.000000e+00   0.000000e+00
     2536000   2.535999e-05   9.938439e+00   7.021826e+00   6.837593e-01   4.237820e+05  -5.214861e+04   4.551472e+05  -2.104960e+11   2.153265e+11   2.206644e+11   6.240750e+05   1.934055e-22   0.000000e+00   0.000000e+00
     2544000   2.543999e-05   9.971658e+00   7.018351e+00   7.208618e-01   4.065444e+05  -3.462242e+04   4.722210e+05  -2.203823e+11   2.227199e+11   2.060638e+11   6.240751e+05   1.951652e-22   0.000000e+00   0.000000e+00
     2552000   2.551999e-05   1.000347e+01   7.016302e+00   7.592829e-01   3.885266e+05  -1.652739e+04   4.881022e+05  -2.300492e+11   2.295886e+11   1.908947e+11   6.240752e+05   1.971630e-22   0.000000e+00   0.000000e+00
     2560000   2.559999e-05   1.003380e+01   7.015721e+00   7.989252e-01   3.697478e+05   2.093817e+03   5.027446e+05  -2.393584e+11   2.358369e+11   1.750588e+11   6.240753e+05   1.992207e-22   0.000000e+00   0.000000e+00
     2568000   2.567999e-05   1.006261e+01   7.016650e+00   8.396875e-01   3.502402e+05   2.119729e+04   5.160936e+05  -2.483017e+11   2.416085e+11   1.585861e+11   6.240754e+05   2.014701e-22   0.000000e+00   0.000000e+00
     2576000   2.575999e-05   1.008982e+01   7.019124e+00   8.814644e-01   3.300300e+05   4.073321e+04   5.281015e+05  -2.568821e+11   2.466738e+11   1.415116e+11   6.240755e+05   2.038070e-22   0.000000e+00   0.000000e+00
     2584000   2.583999e-05   1.011539e+01   7.023177e+00   9.241466e-01   3.091571e+05   6.063797e+04   5.387163e+05  -2.649033e+11   2.508486e+11   1.237892e+11   6.240756e+05   2.059729e-22   0.000000e+00   0.000000e+00
     2592000   2.591999e-05   1.013927e+01   7.028835e+00   9.676207e-01   2.876534e+05   8.085358e+04   5.478948e+05  -2.726093e+11   2.544149e+11   1.055826e+11   6.240757e+05   2.084263e-22   0.000000e+00   0.000000e+00
     2600000   2.599999e-05   1.016140e+01   7.036120e+00   1.011770e+00   2.655582e+05   1.013209e+05   5.555929e+05  -2.795390e+11   2.570662e+11   8.673475e+10   6.240758e+05   2.105879e-22   0.000000e+00   0.000000e+00
     2608000   2.607999e-05   1.018174e+01   7.045051e+00   1.056475e+00   2.429301e+05   1.219687e+05   5.617645e+05  -2.860752e+11   2.589913e+11   6.748196e+10   6.240759e+05   2.129768e-22   0.000000e+00   0.000000e+00
     2616000   2.615999e-05   1.020026e+01   7.055638e+00   1.101611e+00   2.198005e+05   1.427373e+05   5.663785e+05  -2.922419e+11   2.601419e+11   4.785582e+10   6.240760e+05   2.156135e-22   0.000000e+00   0.000000e+00
     2624000   2.623999e-05   1.021690e+01   7.067890e+00   1.147053e+00   1.961972e+05   1.635662e+05   5.694065e+05  -2.977393e+11   2.604337e+11   2.778169e+10   6.240761e+05   2.182182e-22   0.000000e+00   0.000000e+00
     2632000   2.631999e-05   1.023164e+01   7.081809e+00   1.192673e+00   1.721784e+05   1.843831e+05   5.708139e+05  -3.026252e+11   2.598408e+11   7.352452e+09   6.240762e+05   2.208649e-22   0.000000e+00   0.000000e+00
     2640000   2.639999e-05   1.024444e+01   7.097389e+00   1.238340e+00   1.478153e+05   2.050982e+05   5.705756e+05  -3.064619e+11   2.579941e+11  -1.334224e+10   6.240763e+05   2.229529e-22   0.000000e+00   0.000000e+00
     2648000   2.647999e-05   1.025528e+01   7.114620e+00   1.283921e+00   1.231347e+05   2.256598e+05   5.686711e+05  -3.102671e+11   2.557606e+11  -3.430562e+10   6.240764e+05   2.260035e-22   0.000000e+00   0.000000e+00
     2656000   2.655999e-05   1.026413e+01   7.133488e+00   1.329282e+00   9.820138e+04   2.459841e+05   5.650839e+05  -3.129967e+11   2.522293e+11  -5.540069e+10   6.240765e+05   2.285011e-22   0.000000e+00   0.000000e+00
     2664000   2.663999e-05   1.027099e+01   7.153969e+00   1.374289e+00   7.307082e+04   2.659955e+05   5.598023e+05  -3.151400e+11   2.478987e+11  -7.665334e+10   6.240766e+05   2.312585e-22   0.000000e+00   0.000000e+00
     2672000   2.671999e-05   1.027582e+01   7.176037e+00   1.418805e+00   4.780118e+04   2.856230e+05   5.528167e+05  -3.164437e+11   2.426277e+11  -9.799269e+10   6.240767e+05   2.339852e-22   0.000000e+00   0.000000e+00
     2680000   2.679999e-05   1.027863e+01   7.199657e+00   1.462694e+00   2.246142e+04   3.047889e+05   5.441242e+05  -3.169129e+11   2.363606e+11  -1.193111e+11   6.240768e+05   2.366606e-22   0.000000e+00   0.000000e+00
     2688000   2.687999e-05   1.027941e+01   7.224790e+00   1.505819e+00  -2.900327e+03   3.234358e+05   5.337161e+05  -3.167040e+11   2.293108e+11  -1.406818e+11   6.240769e+05   2.396319e-22   0.000000e+00   0.000000e+00
     2696000   2.695999e-05   1.027817e+01   7.251390e+00   1.548043e+00  -2.818809e+04   3.414581e+05   5.216167e+05  -3.153434e+11   2.210919e+11  -1.617679e+11   6.240770e+05   2.421518e-22   0.000000e+00   0.000000e+00
     2704000   2.703999e-05   1.027491e+01   7.279404e+00   1.589233e+00  -5.333142e+04   3.587858e+05   5.078393e+05  -3.130888e+11   2.119516e+11  -1.826187e+11   6.240771e+05   2.446578e-22   0.000000e+00   0.000000e+00
     2712000   2.711999e-05   1.026964e+01   7.308776e+00   1.629253e+00  -7.827761e+04   3.753608e+05   4.923914e+05  -3.102187e+11   2.021379e+11  -2.034074e+11   6.240773e+05   2.476724e-22   0.000000e+00   0.000000e+00
     2720000   2.719999e-05   1.026239e+01   7.339440e+00   1.667972e+00  -1.029383e+05   3.911026e+05   4.753052e+05  -3.061378e+11   1.912622e+11  -2.236765e+11   6.240774e+05   2.502576e-22   0.000000e+00   0.000000e+00
     2728000   2.727999e-05   1.025318e+01   7.371328e+00   1.705259e+00  -1.272341e+05   4.059403e+05   4.566144e+05  -3.011205e+11   1.795794e+11  -2.435523e+11   6.240775e+05   2.529046e-22   0.000000e+00   0.000000e+00
     2736000   2.735999e-05   1.024205e+01   7.404365e+00   1.740988e+00  -1.510892e+05   4.198107e+05   4.363530e+05  -2.951910e+11   1.671142e+11  -2.629858e+11   6.240776e+05   2.556613e-22   0.000000e+00   0.000000e+00
     2744000   2.743999e-05   1.022902e+01   7.438470e+00   1.775035e+00  -1.744310e+05   4.326530e+05   4.145579e+05  -2.881840e+11   1.538140e+11  -2.817808e+11   6.240777e+05   2.582743e-22   0.000000e+00   0.000000e+00
     2752000   2.751999e-05   1.021415e+01   7.473560e+00   1.807278e+00  -1.971699e+05   4.443990e+05   3.912885e+05  -2.800780e+11   1.396725e+11  -2.997568e+11   6.240778e+05   2.606294e-22   0.000000e+00   0.000000e+00
     2760000   2.759999e-05   1.019749e+01   7.509543e+00   1.837603e+00  -2.192201e+05   4.549862e+05   3.666108e+05  -2.709905e+11   1.248898e+11  -3.170333e+11   6.240780e+05   2.630402e-22   0.000000e+00   0.000000e+00
     2768000   2.767999e-05   1.017910e+01   7.546325e+00   1.865900e+00  -2.405008e+05   4.643640e+05   3.405861e+05  -2.608592e+11   1.094553e+11  -3.334313e+11   6.240781e+05   2.653456e-22   0.000000e+00   0.000000e+00
     2776000   2.775999e-05   1.015904e+01   7.583808e+00   1.892063e+00  -2.609305e+05   4.724831e+05   3.132868e+05  -2.497146e+11   9.343171e+10  -3.488852e+11   6.240782e+05   2.675706e-22   0.000000e+00   0.000000e+00
     2784000   2.783999e-05   1.013737e+01   7.621888e+00   1.915993e+00  -2.804400e+05   4.793028e+05   2.847735e+05  -2.377661e+11   7.694418e+10  -3.636460e+11   6.240783e+05   2.701850e-22   0.000000e+00   0.000000e+00
     2792000   2.791999e-05   1.011419e+01   7.660460e+00   1.937597e+00  -2.989416e+05   4.847797e+05   2.551400e+05  -2.246146e+11   5.990977e+10  -3.769998e+11   6.240785e+05   2.722365e-22   0.000000e+00   0.000000e+00
     2800000   2.799999e-05   1.008957e+01   7.699416e+00   1.956788e+00  -3.163551e+05   4.888808e+05   2.244753e+05  -2.105750e+11   4.257359e+10  -3.894768e+11   6.240786e+05   2.745636e-22   0.000000e+00   0.000000e+00
     2808000   2.807999e-05   1.006361e+01   7.738643e+00   1.973489e+00  -3.326022e+05   4.915679e+05   1.929016e+05  -1.955123e+11   2.468265e+10  -3.999916e+11   6.240787e+05   2.759253e-22   0.000000e+00   0.000000e+00
     2816000   2.815999e-05   1.003639e+01   7.778029e+00   1.987631e+00  -3.476139e+05   4.928237e+05   1.605111e+05  -1.796418e+11   6.681054e+09  -4.095452e+11   6.240788e+05   2.776122e-22   0.000000e+00   0.000000e+00
     2824000   2.823999e-05   1.000802e+01   7.817457e+00   1.999152e+00  -3.613226e+05   4.926359e+05   1.273988e+05  -1.629388e+11  -1.138521e+10  -4.180786e+11   6.240790e+05   2.795903e-22   0.000000e+00   0.000000e+00
     2832000   2.831999e-05   9.978614e+00   7.856812e+00   2.007998e+00  -3.736633e+05   4.909946e+05   9.367372e+04  -1.454525e+11  -2.964116e+10  -4.248212e+11   6.240791e+05   2.810332e-22   0.000000e+00   0.000000e+00
     2840000   2.839999e-05   9.948275e+00   7.895977e+00   2.014127e+00  -3.845765e+05   4.878928e+05   5.946802e+04  -1.272677e+11  -4.789295e+10  -4.300715e+11   6.240792e+05   2.823438e-22   0.000000e+00   0.000000e+00
     2848000   2.847999e-05   9.917121e+00   7.934836e+00   2.017504e+00  -3.940120e+05   4.833310e+05   2.491450e+04  -1.084970e+11  -6.609049e+10  -4.336231e+11   6.240794e+05   2.833378e-22   0.000000e+00   0.000000e+00
     2856000   2.855999e-05   9.885274e+00   7.973271e+00   2.018107e+00  -4.019205e+05   4.773233e+05  -9.878881e+03  -8.913152e+10  -8.407006e+10  -4.359675e+11   6.240795e+05   2.846028e-22   0.000000e+00   0.000000e+00
     2864000   2.863999e-05   9.852856e+00   8.011169e+00   2.015921e+00  -4.082613e+05   4.698855e+05  -4.478507e+04  -6.933182e+10  -1.018218e+11  -4.363318e+11   6.240796e+05   2.852692e-22   0.000000e+00   0.000000e+00
     2872000   2.871999e-05   9.819995e+00   8.048415e+00   2.010942e+00  -4.130023e+05   4.610409e+05  -7.966121e+04  -4.913844e+10  -1.192289e+11  -4.353082e+11   6.240798e+05   2.860511e-22   0.000000e+00   0.000000e+00
     2880000   2.879999e-05   9.786819e+00   8.084899e+00   2.003178e+00  -4.161139e+05   4.508191e+05  -1.143989e+05  -2.859910e+10  -1.362464e+11  -4.329071e+11   6.240799e+05   2.869758e-22   0.000000e+00   0.000000e+00
     2888000   2.887999e-05   9.753460e+00   8.120511e+00   1.992646e+00  -4.175752e+05   4.392558e+05  -1.488661e+05  -7.903749e+09  -1.527578e+11  -4.285824e+11   6.240800e+05   2.873794e-22   0.000000e+00   0.000000e+00
     2896000   2.895999e-05   9.720051e+00   8.155145e+00   1.979371e+00  -4.173775e+05   4.263915e+05  -1.829271e+05   1.285083e+10  -1.687504e+11  -4.226792e+11   6.240802e+05   2.876838e-22   0.000000e+00   0.000000e+00
     2904000   2.903999e-05   9.686724e+00   8.188700e+00   1.963392e+00  -4.155229e+05   4.122733e+05  -2.164432e+05   3.347660e+10  -1.840830e+11  -4.149118e+11   6.240803e+05   2.874890e-22   0.000000e+00   0.000000e+00
     2912000   2.911999e-05   9.653612e+00   8.221077e+00   1.944757e+00  -4.120128e+05   3.969517e+05  -2.493012e+05   5.420885e+10  -1.988260e+11  -4.061800e+11   6.240804e+05   2.878964e-22   0.000000e+00   0.000000e+00
     2920000   2.919999e-05   9.620846e+00   8.252182e+00   1.923524e+00  -4.068579e+05   3.804817e+05  -2.813838e+05   7.461915e+10  -2.127975e+11  -3.956411e+11   6.240805e+05   2.877996e-22   0.000000e+00   0.000000e+00
     2928000   2.927999e-05   9.588558e+00   8.281925e+00   1.899760e+00  -4.000834e+05   3.629263e+05  -3.125611e+05   9.478198e+10  -2.260639e+11  -3.838203e+11   6.240807e+05   2.878329e-22   0.000000e+00   0.000000e+00
     2936000   2.935999e-05   9.556875e+00   8.310222e+00   1.873541e+00  -3.917119e+05   3.443436e+05  -3.427334e+05   1.144042e+11  -2.383309e+11  -3.702098e+11   6.240808e+05   2.871928e-22   0.000000e+00   0.000000e+00
     2944000   2.943999e-05   9.525925e+00   8.336994e+00   1.844953e+00  -3.817865e+05   3.248099e+05  -3.717723e+05   1.336393e+11  -2.498665e+11  -3.555479e+11   6.240809e+05   2.868623e-22   0.000000e+00   0.000000e+00
     2952000   2.951999e-05   9.495830e+00   8.362168e+00   1.814090e+00  -3.703443e+05   3.043873e+05  -3.995881e+05   1.523262e+11  -2.606105e+11  -3.397041e+11   6.240811e+05   2.866030e-22   0.000000e+00   0.000000e+00
     2960000   2.959999e-05   9.466709e+00   8.385675e+00   1.781054e+00  -3.574327e+05   2.831486e+05  -4.260823e+05   1.703511e+11  -2.702356e+11  -3.224916e+11   6.240812e+05   2.859475e-22   0.000000e+00   0.000000e+00
     2968000   2.967999e-05   9.438678e+00   8.407452e+00   1.745955e+00  -3.431089e+05   2.611679e+05  -4.511598e+05   1.876038e+11  -2.791360e+11  -3.042647e+11   6.240813e+05   2.854501e-22   0.000000e+00   0.000000e+00
     2976000   2.975999e-05   9.411848e+00   8.427444e+00   1.708908e+00  -3.274351e+05   2.385149e+05  -4.747363e+05   2.041003e+11  -2.870296e+11  -2.849845e+11   6.240815e+05   2.848534e-22   0.000000e+00   0.000000e+00
     2984000   2.983999e-05   9.386323e+00   8.445599e+00   1.670039e+00  -3.104795e+05   2.152722e+05  -4.967275e+05   2.196379e+11  -2.938891e+11  -2.646546e+11   6.240816e+05   2.840134e-22   0.000000e+00   0.000000e+00
     2992000   2.991999e-05   9.362203e+00   8.461873e+00   1.629476e+00  -2.923121e+05   1.915130e+05  -5.170633e+05   2.343845e+11  -2.999337e+11  -2.436001e+11   6.240817e+05   2.834357e-22   0.000000e+00   0.000000e+00
     3000000   2.999999e-05   9.339584e+00   8.476229e+00   1.587355e+00  -2.729994e+05   1.673052e+05  -5.356851e+05   2.483372e+11  -3.051402e+11  -2.218644e+11   6.240819e+05   2.831145e-22   0.000000e+00   0.000000e+00
     3008000   3.007999e-05   9.318552e+00   8.488632e+00   1.543814e+00  -2.526186e+05   1.427239e+05  -5.525324e+05   2.610003e+11  -3.092330e+11  -1.992110e+11   6.240820e+05   2.823173e-22   0.000000e+00   0.000000e+00
     3016000   3.015999e-05   9.299190e+00   8.499057e+00   1.498998e+00  -2.312691e+05   1.178534e+05  -5.675418e+05   2.724587e+11  -3.121407e+11  -1.758463e+11   6.240821e+05   2.811464e-22   0.000000e+00   0.000000e+00
     3024000   3.023999e-05   9.281572e+00   8.507483e+00   1.453057e+00  -2.090459e+05   9.277124e+04  -5.806651e+05   2.828711e+11  -3.145524e+11  -1.520954e+11   6.240823e+05   2.804594e-22   0.000000e+00   0.000000e+00
     3032000   3.031999e-05   9.265764e+00   8.513897e+00   1.406143e+00  -1.860415e+05   6.755162e+04  -5.918650e+05   2.920381e+11  -3.157854e+11  -1.278417e+11   6.240824e+05   2.794296e-22   0.000000e+00   0.000000e+00
     3040000   3.039999e-05   9.251824e+00   8.518290e+00   1.358411e+00  -1.623602e+05   4.227773e+04  -6.011079e+05   2.998751e+11  -3.160017e+11  -1.032254e+11   6.240825e+05   2.781633e-22   0.000000e+00   0.000000e+00
     3048000   3.047999e-05   9.239802e+00   8.520661e+00   1.310019e+00  -1.380929e+05   1.701368e+04  -6.083749e+05   3.065993e+11  -3.154542e+11  -7.841913e+10   6.240826e+05   2.770899e-22   0.000000e+00   0.000000e+00
     3056000   3.055999e-05   9.229742e+00   8.521014e+00   1.261124e+00  -1.133300e+05  -8.177627e+03  -6.136520e+05   3.121899e+11  -3.141328e+11  -5.347269e+10   6.240828e+05   2.761703e-22   0.000000e+00   0.000000e+00
     3064000   3.063999e-05   9.221679e+00   8.519357e+00   1.211888e+00  -8.817776e+04  -3.322353e+04  -6.169282e+05   3.164084e+11  -3.118760e+11  -2.843207e+10   6.240829e+05   2.750435e-22   0.000000e+00   0.000000e+00
     3072000   3.071999e-05   9.215641e+00   8.515704e+00   1.162469e+00  -6.273798e+04  -5.805736e+04  -6.182014e+05   3.194484e+11  -3.088642e+11  -3.415853e+09   6.240830e+05   2.740260e-22   0.000000e+00   0.000000e+00
     3080000   3.079999e-05   9.211647e+00   8.510075e+00   1.113029e+00  -3.709725e+04  -8.262090e+04  -6.174766e+05   3.213634e+11  -3.050923e+11   2.151229e+10   6.240832e+05   2.731414e-22   0.000000e+00   0.000000e+00
     3088000   3.087999e-05   9.209708e+00   8.502494e+00   1.063726e+00  -1.135451e+04  -1.068501e+05  -6.147634e+05   3.220005e+11  -3.005386e+11   4.628520e+10   6.240833e+05   2.722138e-22   0.000000e+00   0.000000e+00
     3096000   3.095999e-05   9.209830e+00   8.492989e+00   1.014719e+00   1.439355e+04  -1.306938e+05  -6.100754e+05   3.214390e+11  -2.953300e+11   7.084779e+10   6.240834e+05   2.713982e-22   0.000000e+00   0.000000e+00
     3104000   3.103999e-05   9.212008e+00   8.481595e+00   9.661659e-01   4.002370e+04  -1.540647e+05  -6.034421e+05   3.192877e+11  -2.889895e+11   9.495561e+10   6.240835e+05   2.698909e-22   0.000000e+00   0.000000e+00
     3112000   3.111999e-05   9.216229e+00   8.468352e+00   9.182199e-01   6.545721e+04  -1.769216e+05  -5.948903e+05   3.163551e+11  -2.823164e+11   1.187675e+11   6.240837e+05   2.690760e-22   0.000000e+00   0.000000e+00
     3120000   3.119999e-05   9.222474e+00   8.453303e+00   8.710338e-01   9.061357e+04  -1.992142e+05  -5.844514e+05   3.122787e+11  -2.748444e+11   1.420951e+11   6.240838e+05   2.681874e-22   0.000000e+00   0.000000e+00
     3128000   3.127999e-05   9.230717e+00   8.436495e+00   8.247567e-01   1.153862e+05  -2.208781e+05  -5.721710e+05   3.068550e+11  -2.666463e+11   1.648130e+11   6.240839e+05   2.670428e-22   0.000000e+00   0.000000e+00
     3136000   3.135999e-05   9.240923e+00   8.417981e+00   7.795342e-01   1.396816e+05  -2.418645e+05  -5.580963e+05   3.003698e+11  -2.579120e+11   1.869462e+11   6.240840e+05   2.660241e-22   0.000000e+00   0.000000e+00
     3144000   3.143999e-05   9.253051e+00   8.397816e+00   7.355078e-01   1.634177e+05  -2.621207e+05  -5.422807e+05   2.927475e+11  -2.482611e+11   2.082180e+11   6.240841e+05   2.646363e-22   0.000000e+00   0.000000e+00
     3152000   3.151999e-05   9.267052e+00   8.376062e+00   6.928139e-01   1.865115e+05  -2.815908e+05  -5.247869e+05   2.846448e+11  -2.386183e+11   2.291984e+11   6.240843e+05   2.643642e-22   0.000000e+00   0.000000e+00
     3160000   3.159999e-05   9.282874e+00   8.352783e+00   6.515858e-01   2.089112e+05  -3.002588e+05  -5.056501e+05   2.751933e+11  -2.279947e+11   2.490784e+11   6.240844e+05   2.633370e-22   0.000000e+00   0.000000e+00
     3168000   3.167999e-05   9.300457e+00   8.328044e+00   6.119514e-01   2.305181e+05  -3.180555e+05  -4.849573e+05   2.647712e+11  -2.167842e+11   2.680279e+11   6.240845e+05   2.622062e-22   0.000000e+00   0.000000e+00
     3176000   3.175999e-05   9.319734e+00   8.301918e+00   5.740322e-01   2.512599e+05  -3.349384e+05  -4.627811e+05   2.535903e+11  -2.051987e+11   2.861917e+11   6.240846e+05   2.613489e-22   0.000000e+00   0.000000e+00
     3184000   3.183999e-05   9.340634e+00   8.274479e+00   5.379440e-01   2.710665e+05  -3.508756e+05  -4.391936e+05   2.414884e+11  -1.931277e+11   3.033317e+11   6.240848e+05   2.603841e-22   0.000000e+00   0.000000e+00
     3192000   3.191999e-05   9.363078e+00   8.245804e+00   5.037967e-01   2.898782e+05  -3.658265e+05  -4.142747e+05   2.286856e+11  -1.805732e+11   3.194681e+11   6.240849e+05   2.594664e-22   0.000000e+00   0.000000e+00
     3200000   3.199999e-05   9.386986e+00   8.215974e+00   4.716932e-01   3.076391e+05  -3.797504e+05  -3.881107e+05   2.152275e+11  -1.675456e+11   3.345336e+11   6.240850e+05   2.585553e-22   0.000000e+00   0.000000e+00
     3208000   3.207999e-05   9.412271e+00   8.185072e+00   4.417302e-01   3.242964e+05  -3.926239e+05  -3.607777e+05   2.011005e+11  -1.542260e+11   3.486000e+11   6.240851e+05   2.577809e-22   0.000000e+00   0.000000e+00
     3216000   3.215999e-05   9.438843e+00   8.153183e+00   4.139976e-01   3.398004e+05  -4.044159e+05  -3.323640e+05   1.864092e+11  -1.405151e+11   3.615512e+11   6.240852e+05   2.570359e-22   0.000000e+00   0.000000e+00
     3224000   3.223999e-05   9.466607e+00   8.120395e+00   3.885784e-01   3.541092e+05  -4.150968e+05  -3.029585e+05   1.712355e+11  -1.264485e+11   3.733929e+11   6.240854e+05   2.563712e-22   0.000000e+00   0.000000e+00
     3232000   3.231999e-05   9.495467e+00   8.086798e+00   3.655481e-01   3.671768e+05  -4.246405e+05  -2.726616e+05   1.553401e+11  -1.121118e+11   3.837821e+11   6.240855e+05   2.553376e-22   0.000000e+00   0.000000e+00
     3240000   3.239999e-05   9.525322e+00   8.052484e+00   3.449741e-01   3.789774e+05  -4.330205e+05  -2.415621e+05   1.394571e+11  -9.738728e+10   3.933561e+11   6.240856e+05   2.548843e-22   0.000000e+00   0.000000e+00
     3248000   3.247999e-05   9.556069e+00   8.017547e+00   3.269169e-01   3.894780e+05  -4.402166e+05  -2.097597e+05   1.230104e+11  -8.248181e+10   4.014969e+11   6.240857e+05   2.541531e-22   0.000000e+00   0.000000e+00
     3256000   3.255999e-05   9.587603e+00   7.982081e+00   3.114285e-01   3.986482e+05  -4.462134e+05  -1.773594e+05   1.062188e+11  -6.739957e+10   4.083047e+11   6.240858e+05   2.533251e-22   0.000000e+00   0.000000e+00
     3264000   3.263999e-05   9.619817e+00   7.946185e+00   2.985527e-01   4.064738e+05  -4.509923e+05  -1.444584e+05   8.935181e+10  -5.206552e+10   4.139495e+11   6.240859e+05   2.526464e-22   0.000000e+00   0.000000e+00
     3272000   3.271999e-05   9.652602e+00   7.909955e+00   2.883256e-01   4.129397e+05  -4.545409e+05  -1.111610e+05   7.227677e+10  -3.663409e+10   4.182745e+11   6.240861e+05   2.519120e-22   0.000000e+00   0.000000e+00
     3280000   3.279999e-05   9.685851e+00   7.873492e+00   2.807745e-01   4.180392e+05  -4.568459e+05  -7.757918e+04   5.517318e+10  -2.103079e+10   4.211256e+11   6.240862e+05   2.509595e-22   0.000000e+00   0.000000e+00
     3288000   3.287999e-05   9.719452e+00   7.836893e+00   2.759182e-01   4.217607e+05  -4.579115e+05  -4.380238e+04   3.787235e+10  -5.589016e+09   4.230487e+11   6.240863e+05   2.504081e-22   0.000000e+00   0.000000e+00
     3296000   3.295999e-05   9.753296e+00   7.800259e+00   2.737686e-01   4.241018e+05  -4.577367e+05  -9.931652e+03   2.066356e+10   9.952221e+09   4.235104e+11   6.240864e+05   2.496468e-22   0.000000e+00   0.000000e+00
     3304000   3.303999e-05   9.787272e+00   7.763689e+00   2.743278e-01   4.250774e+05  -4.563135e+05   2.390045e+04   3.655077e+09   2.552434e+10   4.223854e+11   6.240865e+05   2.485188e-22   0.000000e+00   0.000000e+00
     3312000   3.311999e-05   9.821272e+00   7.727282e+00   2.775900e-01   4.246828e+05  -4.536596e+05   5.763358e+04  -1.347070e+10   4.082617e+10   4.206531e+11   6.240866e+05   2.481345e-22   0.000000e+00   0.000000e+00
     3320000   3.319999e-05   9.855185e+00   7.691136e+00   2.835435e-01   4.229333e+05  -4.497801e+05   9.115629e+04  -3.013289e+10   5.618495e+10   4.170514e+11   6.240867e+05   2.470235e-22   0.000000e+00   0.000000e+00
     3328000   3.327999e-05   9.888906e+00   7.655349e+00   2.921661e-01   4.198574e+05  -4.446816e+05   1.243481e+05  -4.672390e+10   7.124226e+10   4.125458e+11   6.240869e+05   2.462685e-22   0.000000e+00   0.000000e+00
     3336000   3.335999e-05   9.922327e+00   7.620018e+00   3.034288e-01   4.154544e+05  -4.383908e+05   1.571489e+05  -6.321607e+10   8.603448e+10   4.071419e+11   6.240870e+05   2.458663e-22   0.000000e+00   0.000000e+00
     3344000   3.343999e-05   9.955344e+00   7.585238e+00   3.172966e-01   4.097512e+05  -4.309245e+05   1.894537e+05  -7.931110e+10   1.005647e+11   4.002844e+11   6.240871e+05   2.451286e-22   0.000000e+00   0.000000e+00
     3352000   3.351999e-05   9.987853e+00   7.551101e+00   3.337256e-01   4.027747e+05  -4.223076e+05   2.211645e+05  -9.504217e+10   1.147993e+11   3.923006e+11   6.240872e+05   2.444079e-22   0.000000e+00   0.000000e+00
     3360000   3.359999e-05   1.001975e+01   7.517699e+00   3.526648e-01   3.945535e+05  -4.125640e+05   2.521974e+05  -1.104289e+11   1.287147e+11   3.833303e+11   6.240873e+05   2.438424e-22   0.000000e+00   0.000000e+00
     3368000   3.367999e-05   1.005095e+01   7.485120e+00   3.740567e-01   3.851181e+05  -4.017257e+05   2.824634e+05  -1.253736e+11   1.421651e+11   3.731342e+11   6.240874e+05   2.430854e-22   0.000000e+00   0.000000e+00
     3376000   3.375999e-05   1.008134e+01   7.453451e+00   3.978362e-01   3.745031e+05  -3.898293e+05   3.118746e+05  -1.399268e+11   1.551652e+11   3.619811e+11   6.240875e+05   2.424297e-22   0.000000e+00   0.000000e+00
     3384000   3.383999e-05   1.011084e+01   7.422775e+00   4.239323e-01   3.627340e+05  -3.769082e+05   3.403668e+05  -1.540844e+11   1.677402e+11   3.499637e+11   6.240877e+05   2.419681e-22   0.000000e+00   0.000000e+00
     3392000   3.391999e-05   1.013935e+01   7.393172e+00   4.522678e-01   3.498568e+05  -3.630057e+05   3.678487e+05  -1.678464e+11   1.797366e+11   3.370119e+11   6.240878e+05   2.415536e-22   0.000000e+00   0.000000e+00
     3400000   3.399999e-05   1.016679e+01   7.364719e+00   4.827595e-01   3.358988e+05  -3.481661e+05   3.942562e+05  -1.810172e+11   1.911516e+11   3.230329e+11   6.240879e+05   2.410009e-22   0.000000e+00   0.000000e+00
     3408000   3.407999e-05   1.019307e+01   7.337489e+00   5.153179e-01   3.209163e+05  -3.324411e+05   4.195015e+05  -1.934320e+11   2.018424e+11   3.079320e+11   6.240880e+05   2.400602e-22   0.000000e+00   0.000000e+00
     3416000   3.415999e-05   1.021811e+01   7.311551e+00   5.498469e-01   3.049533e+05  -3.158858e+05   4.435151e+05  -2.055296e+11   2.119159e+11   2.922558e+11   6.240881e+05   2.394854e-22   0.000000e+00   0.000000e+00
     3424000   3.423999e-05   1.024183e+01   7.286968e+00   5.862460e-01   2.880465e+05  -2.985551e+05   4.662405e+05  -2.170478e+11   2.212312e+11   2.757617e+11   6.240882e+05   2.388378e-22   0.000000e+00   0.000000e+00
     3432000   3.431999e-05   1.026417e+01   7.263801e+00   6.244094e-01   2.702487e+05  -2.805081e+05   4.876136e+05  -2.278021e+11   2.297907e+11   2.584487e+11   6.240883e+05   2.379993e-22   0.000000e+00   0.000000e+00
     3440000   3.439999e-05   1.028505e+01   7.242104e+00   6.642265e-01   2.516111e+05  -2.618101e+05   5.075763e+05  -2.380366e+11   2.375255e+11   2.405174e+11   6.240884e+05   2.372155e-22   0.000000e+00   0.000000e+00
     3448000   3.447999e-05   1.030441e+01   7.221927e+00   7.055827e-01   2.321748e+05  -2.425249e+05   5.260827e+05  -2.478619e+11   2.444723e+11   2.220936e+11   6.240885e+05   2.366596e-22   0.000000e+00   0.000000e+00
     3456000   3.455999e-05   1.032218e+01   7.203314e+00   7.483599e-01   2.119778e+05  -2.227168e+05   5.430924e+05  -2.569593e+11   2.505899e+11   2.030629e+11   6.240886e+05   2.360076e-22   0.000000e+00   0.000000e+00
     3464000   3.463999e-05   1.033831e+01   7.186305e+00   7.924366e-01   1.910670e+05  -2.024463e+05   5.585657e+05  -2.656266e+11   2.559795e+11   1.836423e+11   6.240888e+05   2.356600e-22   0.000000e+00   0.000000e+00
     3472000   3.471999e-05   1.035273e+01   7.170933e+00   8.376882e-01   1.695048e+05  -1.817874e+05   5.724582e+05  -2.734575e+11   2.604257e+11   1.636734e+11   6.240889e+05   2.350801e-22   0.000000e+00   0.000000e+00
     3480000   3.479999e-05   1.036541e+01   7.157227e+00   8.839870e-01   1.473279e+05  -1.608002e+05   5.847434e+05  -2.808588e+11   2.641056e+11   1.433933e+11   6.240890e+05   2.348103e-22   0.000000e+00   0.000000e+00
     3488000   3.487999e-05   1.037629e+01   7.145211e+00   9.312033e-01   1.245977e+05  -1.395631e+05   5.953862e+05  -2.872930e+11   2.666794e+11   1.226369e+11   6.240891e+05   2.341164e-22   0.000000e+00   0.000000e+00
     3496000   3.495999e-05   1.038533e+01   7.134902e+00   9.792043e-01   1.013746e+05  -1.181535e+05   6.043594e+05  -2.931745e+11   2.684045e+11   1.016532e+11   6.240892e+05   2.336039e-22   0.000000e+00   0.000000e+00
     3504000   3.503999e-05   1.039250e+01   7.126310e+00   1.027856e+00   7.768604e+04  -9.663240e+04   6.116490e+05  -2.988908e+11   2.694465e+11   8.053407e+10   6.240893e+05   2.337388e-22   0.000000e+00   0.000000e+00
     3512000   3.511999e-05   1.039775e+01   7.119442e+00   1.077023e+00   5.358432e+04  -7.507453e+04   6.172359e+05  -3.035379e+11   2.693423e+11   5.911404e+10   6.240894e+05   2.333950e-22   0.000000e+00   0.000000e+00
     3520000   3.519999e-05   1.040106e+01   7.114297e+00   1.126568e+00   2.914666e+04  -5.356847e+04   6.211027e+05  -3.072752e+11   2.681383e+11   3.754851e+10   6.240895e+05   2.327721e-22   0.000000e+00   0.000000e+00
     3528000   3.527999e-05   1.040241e+01   7.110867e+00   1.176353e+00   4.433489e+03  -3.219484e+04   6.232429e+05  -3.104365e+11   2.660438e+11   1.595402e+10   6.240896e+05   2.323261e-22   0.000000e+00   0.000000e+00
     3536000   3.535999e-05   1.040177e+01   7.109140e+00   1.226241e+00  -2.050592e+04  -1.102599e+04   6.236553e+05  -3.129490e+11   2.630259e+11  -5.636951e+09   6.240897e+05   2.319748e-22   0.000000e+00   0.000000e+00
     3544000   3.543999e-05   1.039912e+01   7.109096e+00   1.276092e+00  -4.561405e+04   9.860455e+03   6.223425e+05  -3.144946e+11   2.588862e+11  -2.714974e+10   6.240898e+05   2.313011e-22   0.000000e+00   0.000000e+00
     3552000   3.551999e-05   1.039446e+01   7.110708e+00   1.325770e+00  -7.083166e+04   3.038895e+04   6.193122e+05  -3.158579e+11   2.542007e+11  -4.859578e+10   6.240899e+05   2.314118e-22   0.000000e+00   0.000000e+00
     3560000   3.559999e-05   1.038779e+01   7.113947e+00   1.375136e+00  -9.612076e+04   5.050071e+04   6.145721e+05  -3.162443e+11   2.484416e+11  -6.987374e+10   6.240900e+05   2.312318e-22   0.000000e+00   0.000000e+00
     3568000   3.567999e-05   1.037908e+01   7.118775e+00   1.424056e+00  -1.214103e+05   7.011589e+04   6.081380e+05  -3.158798e+11   2.418018e+11  -9.093913e+10   6.240902e+05   2.310960e-22   0.000000e+00   0.000000e+00
     3576000   3.575999e-05   1.036836e+01   7.125150e+00   1.472394e+00  -1.466423e+05   8.916566e+04   6.000285e+05  -3.147904e+11   2.342965e+11  -1.117466e+11   6.240903e+05   2.310365e-22   0.000000e+00   0.000000e+00
     3584000   3.583999e-05   1.035563e+01   7.133024e+00   1.520016e+00  -1.717484e+05   1.075725e+05   5.902707e+05  -3.126522e+11   2.256630e+11  -1.320936e+11   6.240904e+05   2.305491e-22   0.000000e+00   0.000000e+00
     3592000   3.591999e-05   1.034089e+01   7.142342e+00   1.566794e+00  -1.966512e+05   1.252561e+05   5.789025e+05  -3.097888e+11   2.162919e+11  -1.520300e+11   6.240905e+05   2.301891e-22   0.000000e+00   0.000000e+00
     3600000   3.599999e-05   1.032417e+01   7.153044e+00   1.612599e+00  -2.212980e+05   1.421608e+05   5.659563e+05  -3.063469e+11   2.062632e+11  -1.715942e+11   6.240906e+05   2.301518e-22   0.000000e+00   0.000000e+00
     3608000   3.607999e-05   1.030549e+01   7.165066e+00   1.657306e+00  -2.456364e+05   1.582316e+05   5.514659e+05  -3.019817e+11   1.953853e+11  -1.905688e+11   6.240907e+05   2.299400e-22   0.000000e+00   0.000000e+00
     3616000   3.615999e-05   1.028488e+01   7.178337e+00   1.700794e+00  -2.695901e+05   1.733980e+05   5.354845e+05  -2.966525e+11   1.836802e+11  -2.088253e+11   6.240908e+05   2.294741e-22   0.000000e+00   0.000000e+00
     3624000   3.623999e-05   1.026237e+01   7.192784e+00   1.742945e+00  -2.930880e+05   1.876052e+05   5.180667e+05  -2.906661e+11   1.713910e+11  -2.265016e+11   6.240909e+05   2.292183e-22   0.000000e+00   0.000000e+00
     3632000   3.631999e-05   1.023800e+01   7.208327e+00   1.783647e+00  -3.160874e+05   2.008136e+05   4.992517e+05  -2.841848e+11   1.587185e+11  -2.437616e+11   6.240910e+05   2.295065e-22   0.000000e+00   0.000000e+00
     3640000   3.639999e-05   1.021181e+01   7.224886e+00   1.822790e+00  -3.385231e+05   2.129714e+05   4.790982e+05  -2.765876e+11   1.451408e+11  -2.599477e+11   6.240911e+05   2.291834e-22   0.000000e+00   0.000000e+00
     3648000   3.647999e-05   1.018385e+01   7.242374e+00   1.860269e+00  -3.603290e+05   2.240316e+05   4.576709e+05  -2.684183e+11   1.312669e+11  -2.755805e+11   6.240912e+05   2.293008e-22   0.000000e+00   0.000000e+00
     3656000   3.655999e-05   1.015417e+01   7.260701e+00   1.895985e+00  -3.814449e+05   2.339560e+05   4.350337e+05  -2.593527e+11   1.167701e+11  -2.901986e+11   6.240913e+05   2.291487e-22   0.000000e+00   0.000000e+00
     3664000   3.663999e-05   1.012284e+01   7.279775e+00   1.929845e+00  -4.017944e+05   2.426916e+05   4.112811e+05  -2.493967e+11   1.016951e+11  -3.036489e+11   6.240914e+05   2.286338e-22   0.000000e+00   0.000000e+00
     3672000   3.671999e-05   1.008991e+01   7.299499e+00   1.961762e+00  -4.213334e+05   2.502217e+05   3.864679e+05  -2.390105e+11   8.654400e+10  -3.166023e+11   6.240915e+05   2.287861e-22   0.000000e+00   0.000000e+00
     3680000   3.679999e-05   1.005545e+01   7.319777e+00   1.991654e+00  -4.399954e+05   2.565119e+05   3.606883e+05  -2.275886e+11   7.080475e+10  -3.279801e+11   6.240916e+05   2.281310e-22   0.000000e+00   0.000000e+00
     3688000   3.687999e-05   1.001953e+01   7.340508e+00   2.019448e+00  -4.577330e+05   2.615451e+05   3.340137e+05  -2.156940e+11   5.496775e+10  -3.386243e+11   6.240917e+05   2.278965e-22   0.000000e+00   0.000000e+00
     3696000   3.695999e-05   9.982237e+00   7.361590e+00   2.045075e+00  -4.744870e+05   2.653027e+05   3.065407e+05  -2.030556e+11   3.895959e+10  -3.480180e+11   6.240918e+05   2.274166e-22   0.000000e+00   0.000000e+00
     3704000   3.703999e-05   9.943643e+00   7.382922e+00   2.068475e+00  -4.902065e+05   2.677752e+05   2.783610e+05  -1.898374e+11   2.284506e+10  -3.562828e+11   6.240920e+05   2.269055e-22   0.000000e+00   0.000000e+00
     3712000   3.711999e-05   9.903833e+00   7.404400e+00   2.089596e+00  -5.048460e+05   2.689554e+05   2.495685e+05  -1.760619e+11   6.595665e+09  -3.632528e+11   6.240921e+05   2.262065e-22   0.000000e+00   0.000000e+00
     3720000   3.719999e-05   9.862897e+00   7.425920e+00   2.108393e+00  -5.183617e+05   2.688438e+05   2.202616e+05  -1.617661e+11  -9.498444e+09  -3.690980e+11   6.240922e+05   2.255099e-22   0.000000e+00   0.000000e+00
     3728000   3.727999e-05   9.820926e+00   7.447380e+00   2.124827e+00  -5.307158e+05   2.674447e+05   1.905394e+05  -1.470166e+11  -2.545108e+10  -3.737582e+11   6.240923e+05   2.247675e-22   0.000000e+00   0.000000e+00
     3736000   3.735999e-05   9.778015e+00   7.468678e+00   2.138870e+00  -5.418723e+05   2.647844e+05   1.604836e+05  -1.318302e+11  -4.102734e+10  -3.774225e+11   6.240924e+05   2.241476e-22   0.000000e+00   0.000000e+00
     3744000   3.743999e-05   9.734260e+00   7.489713e+00   2.150498e+00  -5.518002e+05   2.608787e+05   1.301933e+05  -1.163173e+11  -5.656594e+10  -3.796312e+11   6.240925e+05   2.232305e-22   0.000000e+00   0.000000e+00
     3752000   3.751999e-05   9.689760e+00   7.510386e+00   2.159698e+00  -5.604764e+05   2.557380e+05   9.977870e+04  -1.005321e+11  -7.181568e+10  -3.806249e+11   6.240926e+05   2.222456e-22   0.000000e+00   0.000000e+00
     3760000   3.759999e-05   9.644617e+00   7.530599e+00   2.166462e+00  -5.678799e+05   2.493939e+05   6.933059e+04  -8.452611e+10  -8.671956e+10  -3.803770e+11   6.240927e+05   2.211522e-22   0.000000e+00   0.000000e+00
     3768000   3.767999e-05   9.598934e+00   7.550257e+00   2.170792e+00  -5.739963e+05   2.418737e+05   3.895086e+04  -6.841559e+10  -1.013763e+11  -3.786421e+11   6.240928e+05   2.197312e-22   0.000000e+00   0.000000e+00
     3776000   3.775999e-05   9.552812e+00   7.569268e+00   2.172699e+00  -5.788190e+05   2.332034e+05   8.753068e+03  -5.214268e+10  -1.152963e+11  -3.761102e+11   6.240929e+05   2.185424e-22   0.000000e+00   0.000000e+00
     3784000   3.783999e-05   9.506357e+00   7.587541e+00   2.172200e+00  -5.823378e+05   2.234402e+05  -2.119623e+04  -3.582538e+10  -1.286926e+11  -3.724341e+11   6.240930e+05   2.172676e-22   0.000000e+00   0.000000e+00
     3792000   3.791999e-05   9.459673e+00   7.604991e+00   2.169316e+00  -5.845469e+05   2.126367e+05  -5.082063e+04  -1.952183e+10  -1.415217e+11  -3.676233e+11   6.240931e+05   2.158855e-22   0.000000e+00   0.000000e+00
     3800000   3.799999e-05   9.412864e+00   7.621535e+00   2.164080e+00  -5.854596e+05   2.008216e+05  -8.000064e+04  -3.316604e+09  -1.537506e+11  -3.617002e+11   6.240932e+05   2.143879e-22   0.000000e+00   0.000000e+00
     3808000   3.807999e-05   9.366034e+00   7.637097e+00   2.156530e+00  -5.850781e+05   1.880611e+05  -1.086693e+05   1.278495e+10  -1.652235e+11  -3.547812e+11   6.240933e+05   2.127985e-22   0.000000e+00   0.000000e+00
     3816000   3.815999e-05   9.319286e+00   7.651601e+00   2.146709e+00  -5.834211e+05   1.744005e+05  -1.367361e+05   2.859646e+10  -1.761735e+11  -3.467265e+11   6.240934e+05   2.110529e-22   0.000000e+00   0.000000e+00
     3824000   3.823999e-05   9.272720e+00   7.664978e+00   2.134670e+00  -5.805129e+05   1.598869e+05  -1.641145e+05   4.407698e+10  -1.865037e+11  -3.376195e+11   6.240935e+05   2.091644e-22   0.000000e+00   0.000000e+00
     3832000   3.831999e-05   9.226437e+00   7.677162e+00   2.120471e+00  -5.763749e+05   1.445841e+05  -1.907361e+05   5.931306e+10  -1.959431e+11  -3.277739e+11   6.240936e+05   2.072689e-22   0.000000e+00   0.000000e+00
     3840000   3.839999e-05   9.180532e+00   7.688092e+00   2.104174e+00  -5.710318e+05   1.285572e+05  -2.165379e+05   7.419116e+10  -2.046057e+11  -3.171294e+11   6.240937e+05   2.053141e-22   0.000000e+00   0.000000e+00
     3848000   3.847999e-05   9.135103e+00   7.697714e+00   2.085849e+00  -5.645239e+05   1.118686e+05  -2.414356e+05   8.848265e+10  -2.125133e+11  -3.053635e+11   6.240938e+05   2.029536e-22   0.000000e+00   0.000000e+00
     3856000   3.855999e-05   9.090239e+00   7.705975e+00   2.065570e+00  -5.568821e+05   9.457228e+04  -2.653894e+05   1.024112e+11  -2.197373e+11  -2.932050e+11   6.240939e+05   2.008771e-22   0.000000e+00   0.000000e+00
     3864000   3.863999e-05   9.046030e+00   7.712831e+00   2.043414e+00  -5.481505e+05   7.673034e+04  -2.883344e+05   1.157861e+11  -2.261840e+11  -2.803161e+11   6.240939e+05   1.986581e-22   0.000000e+00   0.000000e+00
     3872000   3.871999e-05   9.002563e+00   7.718239e+00   2.019464e+00  -5.383715e+05   5.840299e+04  -3.102234e+05   1.285886e+11  -2.318732e+11  -2.668139e+11   6.240940e+05   1.963642e-22   0.000000e+00   0.000000e+00
     3880000   3.879999e-05   8.959918e+00   7.722164e+00   1.993807e+00  -5.275934e+05   3.965263e+04  -3.310081e+05   1.407092e+11  -2.367478e+11  -2.526414e+11   6.240941e+05   1.938474e-22   0.000000e+00   0.000000e+00
     3888000   3.887999e-05   8.918173e+00   7.724574e+00   1.966534e+00  -5.158715e+05   2.053913e+04  -3.506399e+05   1.522282e+11  -2.409656e+11  -2.380812e+11   6.240942e+05   1.914107e-22   0.000000e+00   0.000000e+00
     3896000   3.895999e-05   8.877402e+00   7.725442e+00   1.937737e+00  -5.032534e+05   1.118696e+03  -3.690914e+05   1.630983e+11  -2.444338e+11  -2.231278e+11   6.240943e+05   1.889327e-22   0.000000e+00   0.000000e+00
     3904000   3.903999e-05   8.837675e+00   7.724746e+00   1.907512e+00  -4.897958e+05  -1.855234e+04  -3.863285e+05   1.732224e+11  -2.472228e+11  -2.077464e+11   6.240944e+05   1.863635e-22   0.000000e+00   0.000000e+00
     3912000   3.911999e-05   8.799056e+00   7.722468e+00   1.875957e+00  -4.755565e+05  -3.841834e+04  -4.023232e+05   1.826682e+11  -2.493518e+11  -1.921110e+11   6.240945e+05   1.838196e-22   0.000000e+00   0.000000e+00
     3920000   3.919999e-05   8.761605e+00   7.718595e+00   1.843173e+00  -4.605908e+05  -5.842649e+04  -4.170569e+05   1.913494e+11  -2.507402e+11  -1.761995e+11   6.240946e+05   1.811562e-22   0.000000e+00   0.000000e+00
     3928000   3.927999e-05   8.725379e+00   7.713118e+00   1.809262e+00  -4.449605e+05  -7.851922e+04  -4.305101e+05   1.992807e+11  -2.514705e+11  -1.601078e+11   6.240946e+05   1.784545e-22   0.000000e+00   0.000000e+00
     3936000   3.935999e-05   8.690428e+00   7.706031e+00   1.774326e+00  -4.287267e+05  -9.864437e+04  -4.426702e+05   2.064195e+11  -2.515551e+11  -1.438640e+11   6.240947e+05   1.756804e-22   0.000000e+00   0.000000e+00
     3944000   3.943999e-05   8.656797e+00   7.697335e+00   1.738470e+00  -4.119492e+05  -1.187507e+05  -4.535311e+05   2.129091e+11  -2.510008e+11  -1.276703e+11   6.240948e+05   1.729680e-22   0.000000e+00   0.000000e+00
     3952000   3.951999e-05   8.624529e+00   7.687033e+00   1.701796e+00  -3.946862e+05  -1.387902e+05  -4.630924e+05   2.185374e+11  -2.498905e+11  -1.113657e+11   6.240949e+05   1.701574e-22   0.000000e+00   0.000000e+00
     3960000   3.959999e-05   8.593658e+00   7.675132e+00   1.664410e+00  -3.770051e+05  -1.587141e+05  -4.713507e+05   2.234987e+11  -2.482048e+11  -9.518974e+10   6.240950e+05   1.673987e-22   0.000000e+00   0.000000e+00
     3968000   3.967999e-05   8.564218e+00   7.661643e+00   1.626414e+00  -3.589551e+05  -1.784884e+05  -4.783176e+05   2.276255e+11  -2.460666e+11  -7.900290e+10   6.240950e+05   1.646026e-22   0.000000e+00   0.000000e+00
     3976000   3.975999e-05   8.536233e+00   7.646579e+00   1.587913e+00  -3.406058e+05  -1.980700e+05  -4.839945e+05   2.309802e+11  -2.433750e+11  -6.295338e+10   6.240951e+05   1.617475e-22   0.000000e+00   0.000000e+00
     3984000   3.983999e-05   8.509727e+00   7.629958e+00   1.549009e+00  -3.220134e+05  -2.174193e+05  -4.883964e+05   2.337091e+11  -2.402823e+11  -4.712687e+10   6.240952e+05   1.590136e-22   0.000000e+00   0.000000e+00
     3992000   3.991999e-05   8.484716e+00   7.611799e+00   1.509803e+00  -3.032308e+05  -2.365038e+05  -4.915404e+05   2.357265e+11  -2.367499e+11  -3.150997e+10   6.240953e+05   1.562851e-22   0.000000e+00   0.000000e+00
     4000000   3.999999e-05   8.461214e+00   7.592125e+00   1.470396e+00  -2.843171e+05  -2.552863e+05  -4.934447e+05   2.369792e+11  -2.327653e+11  -1.612451e+10   6.240953e+05   1.534934e-22   0.000000e+00   0.000000e+00
     4008000   4.007999e-05   8.439228e+00   7.570962e+00   1.430885e+00  -2.653258e+05  -2.737407e+05  -4.941288e+05   2.376939e+11  -2.285344e+11  -1.028536e+09   6.240954e+05   1.508962e-22   0.000000e+00   0.000000e+00
     4016000   4.015999e-05   8.418763e+00   7.548336e+00   1.391367e+00  -2.463025e+05  -2.918436e+05  -4.936168e+05   2.378153e+11  -2.240162e+11   1.378018e+10   6.240955e+05   1.484007e-22   0.000000e+00   0.000000e+00
     4024000   4.023999e-05   8.399819e+00   7.524277e+00   1.351937e+00  -2.272978e+05  -3.095701e+05  -4.919322e+05   2.370973e+11  -2.189763e+11   2.824737e+10   6.240955e+05   1.456728e-22   0.000000e+00   0.000000e+00
     4032000   4.031999e-05   8.382393e+00   7.498816e+00   1.312688e+00  -2.083700e+05  -3.268871e+05  -4.891034e+05   2.361137e+11  -2.140309e+11   4.245300e+10   6.240956e+05   1.434488e-22   0.000000e+00   0.000000e+00
     4040000   4.039999e-05   8.366477e+00   7.471986e+00   1.273711e+00  -1.895583e+05  -3.437821e+05  -4.851566e+05   2.341486e+11  -2.083752e+11   5.616712e+10   6.240957e+05   1.407278e-22   0.000000e+00   0.000000e+00
     4048000   4.047999e-05   8.352059e+00   7.443823e+00   1.235092e+00  -1.709165e+05  -3.602254e+05  -4.801257e+05   2.318050e+11  -2.026653e+11   6.953368e+10   6.240957e+05   1.382869e-22   0.000000e+00   0.000000e+00
     4056000   4.055999e-05   8.339124e+00   7.414362e+00   1.196919e+00  -1.524838e+05  -3.762023e+05  -4.740423e+05   2.289211e+11  -1.967166e+11   8.247685e+10   6.240958e+05   1.358762e-22   0.000000e+00   0.000000e+00
     4064000   4.063999e-05   8.327655e+00   7.383643e+00   1.159273e+00  -1.343043e+05  -3.916922e+05  -4.669424e+05   2.254890e+11  -1.905038e+11   9.494479e+10   6.240959e+05   1.334430e-22   0.000000e+00   0.000000e+00
     4072000   4.071999e-05   8.317628e+00   7.351705e+00   1.122234e+00  -1.164174e+05  -4.066787e+05  -4.588629e+05   2.216072e+11  -1.841293e+11   1.069635e+11   6.240959e+05   1.310880e-22   0.000000e+00   0.000000e+00
     4080000   4.079999e-05   8.309019e+00   7.318589e+00   1.085880e+00  -9.885975e+04  -4.211480e+05  -4.498410e+05   2.172582e+11  -1.775675e+11   1.184934e+11   6.240960e+05   1.287529e-22   0.000000e+00   0.000000e+00
     4088000   4.087999e-05   8.301801e+00   7.284336e+00   1.050283e+00  -8.166528e+04  -4.350847e+05  -4.399181e+05   2.125253e+11  -1.708267e+11   1.294951e+11   6.240960e+05   1.264571e-22   0.000000e+00   0.000000e+00
     4096000   4.095999e-05   8.295942e+00   7.248989e+00   1.015516e+00  -6.487258e+04  -4.484782e+05  -4.291326e+05   2.072752e+11  -1.639788e+11   1.400349e+11   6.240961e+05   1.241589e-22   0.000000e+00   0.000000e+00
     4104000   4.103999e-05   8.291410e+00   7.212594e+00   9.816442e-01  -4.850582e+04  -4.613214e+05  -4.175233e+05   2.018227e+11  -1.570743e+11   1.501025e+11   6.240962e+05   1.220407e-22   0.000000e+00   0.000000e+00
     4112000   4.111999e-05   8.288169e+00   7.175193e+00   9.487325e-01  -3.260775e+04  -4.735928e+05  -4.051452e+05   1.957171e+11  -1.498094e+11   1.593649e+11   6.240962e+05   1.195560e-22   0.000000e+00   0.000000e+00
     4120000   4.119999e-05   8.286180e+00   7.136834e+00   9.168407e-01  -1.718947e+04  -4.852963e+05  -3.920309e+05   1.896928e+11  -1.427644e+11   1.684089e+11   6.240963e+05   1.175872e-22   0.000000e+00   0.000000e+00
     4128000   4.127999e-05   8.285405e+00   7.097561e+00   8.860264e-01  -2.262109e+03  -4.964363e+05  -3.782091e+05   1.833035e+11  -1.356200e+11   1.769159e+11   6.240963e+05   1.155966e-22   0.000000e+00   0.000000e+00
     4136000   4.135999e-05   8.285804e+00   7.057420e+00   8.563446e-01   1.214236e+04  -5.070001e+05  -3.637304e+05   1.767697e+11  -1.284666e+11   1.849671e+11   6.240964e+05   1.137532e-22   0.000000e+00   0.000000e+00
     4144000   4.143999e-05   8.287334e+00   7.016456e+00   8.278462e-01   2.601502e+04  -5.169896e+05  -3.486278e+05   1.700128e+11  -1.212655e+11   1.925121e+11   6.240964e+05   1.119582e-22   0.000000e+00   0.000000e+00
     4152000   4.151999e-05   8.289952e+00   6.974717e+00   8.005797e-01   3.934071e+04  -5.264030e+05  -3.329393e+05   1.630793e+11  -1.140491e+11   1.995879e+11   6.240965e+05   1.102467e-22   0.000000e+00   0.000000e+00
     4160000   4.159999e-05   8.293613e+00   6.932247e+00   7.745903e-01   5.209661e+04  -5.352366e+05  -3.167085e+05   1.558548e+11  -1.067897e+11   2.061090e+11   6.240965e+05   1.084957e-22   0.000000e+00   0.000000e+00
     4168000   4.167999e-05   8.298272e+00   6.889094e+00   7.499198e-01   6.427297e+04  -5.434884e+05  -2.999765e+05   1.485159e+11  -9.949167e+10   2.120744e+11   6.240966e+05   1.067685e-22   0.000000e+00   0.000000e+00
     4176000   4.175999e-05   8.303881e+00   6.845305e+00   7.266064e-01   7.585977e+04  -5.511586e+05  -2.827827e+05   1.411205e+11  -9.225125e+10   2.176571e+11   6.240966e+05   1.051985e-22   0.000000e+00   0.000000e+00
     4184000   4.183999e-05   8.310393e+00   6.800924e+00   7.046858e-01   8.684867e+04  -5.582479e+05  -2.651664e+05   1.335891e+11  -8.498552e+10   2.226688e+11   6.240967e+05   1.036026e-22   0.000000e+00   0.000000e+00
     4192000   4.191999e-05   8.317761e+00   6.756000e+00   6.841901e-01   9.723267e+04  -5.647583e+05  -2.471652e+05   1.260038e+11  -7.775897e+10   2.272407e+11   6.240967e+05   1.020923e-22   0.000000e+00   0.000000e+00
     4200000   4.199999e-05   8.325934e+00   6.710579e+00   6.651484e-01   1.070079e+05  -5.706896e+05  -2.288220e+05   1.183710e+11  -7.052999e+10   2.312567e+11   6.240968e+05   1.005714e-22   0.000000e+00   0.000000e+00
     4208000   4.207999e-05   8.334865e+00   6.664705e+00   6.475865e-01   1.161696e+05  -5.760431e+05  -2.101804e+05   1.107071e+11  -6.333383e+10   2.347655e+11   6.240968e+05   9.906724e-23   0.000000e+00   0.000000e+00
     4216000   4.215999e-05   8.344505e+00   6.618427e+00   6.315268e-01   1.247217e+05  -5.808245e+05  -1.912701e+05   1.030956e+11  -5.621019e+10   2.379138e+11   6.240969e+05   9.769224e-23   0.000000e+00   0.000000e+00
     4224000   4.223999e-05   8.354805e+00   6.571789e+00   6.169895e-01   1.326663e+05  -5.850383e+05  -1.721244e+05   9.550055e+10  -4.913806e+10   2.406205e+11   6.240969e+05   9.636251e-23   0.000000e+00   0.000000e+00
     4232000   4.231999e-05   8.365715e+00   6.524836e+00   6.039920e-01   1.400007e+05  -5.886879e+05  -1.527854e+05   8.786864e+10  -4.211388e+10   2.427778e+11   6.240969e+05   9.497801e-23   0.000000e+00   0.000000e+00
     4240000   4.239999e-05   8.377189e+00   6.477614e+00   5.925480e-01   1.467262e+05  -5.917786e+05  -1.332915e+05   8.028596e+10  -3.517144e+10   2.445249e+11   6.240970e+05   9.364533e-23   0.000000e+00   0.000000e+00
     4248000   4.247999e-05   8.389176e+00   6.430166e+00   5.826686e-01   1.528470e+05  -5.943172e+05  -1.136749e+05   7.274827e+10  -2.830924e+10   2.458181e+11   6.240970e+05   9.231990e-23   0.000000e+00   0.000000e+00
     4256000   4.255999e-05   8.401628e+00   6.382537e+00   5.743623e-01   1.583680e+05  -5.963102e+05  -9.397304e+04   6.531337e+10  -2.152799e+10   2.466692e+11   6.240971e+05   9.100799e-23   0.000000e+00   0.000000e+00
     4264000   4.263999e-05   8.414499e+00   6.334771e+00   5.676344e-01   1.632981e+05  -5.977648e+05  -7.421758e+04   5.795633e+10  -1.485447e+10   2.471515e+11   6.240971e+05   8.974298e-23   0.000000e+00   0.000000e+00
     4272000   4.271999e-05   8.427740e+00   6.286909e+00   5.624881e-01   1.676432e+05  -5.986899e+05  -5.443780e+04   5.067936e+10  -8.296758e+09   2.473024e+11   6.240972e+05   8.853865e-23   0.000000e+00   0.000000e+00
     4280000   4.279999e-05   8.441306e+00   6.238994e+00   5.589242e-01   1.714124e+05  -5.990939e+05  -3.466372e+04   4.357257e+10  -1.824914e+09   2.469886e+11   6.240972e+05   8.730287e-23   0.000000e+00   0.000000e+00
     4288000   4.287999e-05   8.455151e+00   6.191068e+00   5.569408e-01   1.746184e+05  -5.989848e+05  -1.493152e+04   3.660792e+10   4.534645e+09   2.461647e+11   6.240972e+05   8.598789e-23   0.000000e+00   0.000000e+00
