     timestep     time              x             y              z              vx             vy             vz             ax             ay             az         v_magnitude      ELoss        Electronic      Nuclear
           0   0.000000e+00   1.000000e-01   1.043774e+01   1.538687e+01  -1.322272e+05  -8.289435e+03   6.467578e+04   0.000000e+00   0.000000e+00   0.000000e+00   1.474304e+05   0.000000e+00   0.000000e+00   0.000000e+00
        8000   7.999000e-08   8.946826e-02   1.043655e+01   1.539203e+01  -1.308417e+05  -2.146252e+04   6.446352e+04   2.572490e+10  -1.637761e+11  -2.309580e+09   1.474304e+05   2.129008e-24   0.000000e+00   0.000000e+00
       16000   1.599900e-07   7.910105e-02   1.043431e+01   1.539718e+01  -1.281169e+05  -3.444761e+04   6.430530e+04   4.234074e+10  -1.605659e+11  -1.652604e+09   1.474305e+05   2.135762e-24   0.000000e+00   0.000000e+00
       24000   2.399900e-07   6.900461e-02   1.043105e+01   1.540232e+01  -1.240784e+05  -4.710610e+04   6.419777e+04   5.853863e+10  -1.556168e+11  -1.041270e+09   1.474306e+05   2.140995e-24   0.000000e+00   0.000000e+00
       32000   3.199900e-07   5.928253e-02   1.042679e+01   1.540746e+01  -1.187649e+05  -5.930461e+04   6.413778e+04   7.418557e+10  -1.490765e+11  -4.677986e+08   1.474307e+05   2.147432e-24   0.000000e+00   0.000000e+00
       40000   3.999900e-07   5.003485e-02   1.042157e+01   1.541259e+01  -1.122283e+05  -7.091600e+04   6.412144e+04   8.909189e+10  -1.409514e+11   4.983453e+07   1.474307e+05   2.153410e-24   0.000000e+00   0.000000e+00
       48000   4.799900e-07   4.135688e-02   1.041546e+01   1.541772e+01  -1.045342e+05  -8.181668e+04   6.414424e+04   1.030955e+11  -1.313243e+11   5.108381e+08   1.474308e+05   2.158860e-24   0.000000e+00   0.000000e+00
       56000   5.599900e-07   3.333816e-02   1.040850e+01   1.542285e+01  -9.576101e+04  -9.189037e+04   6.420171e+04   1.160441e+11  -1.202946e+11   9.168107e+08   1.474309e+05   2.163730e-24   0.000000e+00   0.000000e+00
       64000   6.399900e-07   2.606150e-02   1.040078e+01   1.542799e+01  -8.599890e+04  -1.010294e+05   6.428957e+04   1.277967e+11  -1.079776e+11   1.271462e+09   1.474310e+05   2.167984e-24   0.000000e+00   0.000000e+00
       72000   7.199900e-07   1.960200e-02   1.039237e+01   1.543314e+01  -7.534952e+04  -1.091353e+05   6.440372e+04   1.382152e+11  -9.449790e+10   1.578600e+09   1.474310e+05   2.171318e-24   0.000000e+00   0.000000e+00
       80000   7.999900e-07   1.402632e-02   1.038335e+01   1.543830e+01  -6.392261e+04  -1.161218e+05   6.454113e+04   1.472082e+11  -8.000890e+10   1.850556e+09   1.474311e+05   2.174366e-24   0.000000e+00   0.000000e+00
       88000   8.799900e-07   9.391954e-03   1.037382e+01   1.544347e+01  -5.183706e+04  -1.219136e+05   6.469897e+04   1.546667e+11  -6.465625e+10   2.090804e+09   1.474312e+05   2.176806e-24   0.000000e+00   0.000000e+00
       96000   9.599900e-07   5.746596e-03   1.036388e+01   1.544865e+01  -3.921897e+04  -1.264480e+05   6.487502e+04   1.605094e+11  -4.860196e+10   2.307171e+09   1.474313e+05   2.178680e-24   0.000000e+00   0.000000e+00
      104000   1.039990e-06   3.127604e-03   1.035362e+01   1.545385e+01  -2.620030e+04  -1.296755e+05   6.506768e+04   1.646728e+11  -3.201540e+10   2.507275e+09   1.474314e+05   2.180048e-24   0.000000e+00   0.000000e+00
      112000   1.119990e-06   1.561599e-03   1.034316e+01   1.545906e+01  -1.291732e+04  -1.315607e+05   6.527594e+04   1.671111e+11  -1.507131e+10   2.698017e+09   1.474314e+05   2.180991e-24   0.000000e+00   0.000000e+00
      120000   1.199990e-06   1.064171e-03   1.033261e+01   1.546429e+01   4.907531e+02  -1.320820e+05   6.549927e+04   1.677972e+11   2.052051e+09   2.885126e+09   1.474315e+05   2.181606e-24   0.000000e+00   0.000000e+00
      128000   1.279990e-06   1.639705e-03   1.032207e+01   1.546954e+01   1.388327e+04  -1.312322e+05   6.573758e+04   1.667226e+11   1.917493e+10   3.072770e+09   1.474316e+05   2.182002e-24   0.000000e+00   0.000000e+00
      136000   1.359990e-06   3.281328e-03   1.031165e+01   1.547481e+01   2.711964e+04  -1.290186e+05   6.599100e+04   1.638969e+11   3.611795e+10   3.263243e+09   1.474317e+05   2.182301e-24   0.000000e+00   0.000000e+00
      144000   1.439990e-06   5.970971e-03   1.030146e+01   1.548010e+01   4.006078e+04  -1.254627e+05   6.625978e+04   1.593483e+11   5.270395e+10   3.456754e+09   1.474317e+05   2.182627e-24   0.000000e+00   0.000000e+00
      152000   1.519990e-06   9.679594e-03   1.029161e+01   1.548541e+01   5.257195e+04  -1.205997e+05   6.654359e+04   1.531416e+11   6.876580e+10   3.643672e+09   1.474318e+05   2.183622e-24   0.000000e+00   0.000000e+00
      160000   1.599990e-06   1.436746e-02   1.028220e+01   1.549075e+01   6.452005e+04  -1.144787e+05   6.684279e+04   1.452991e+11   8.412736e+10   3.835309e+09   1.474319e+05   2.184367e-24   0.000000e+00   0.000000e+00
      168000   1.679990e-06   1.998441e-02   1.027332e+01   1.549611e+01   7.577877e+04  -1.071620e+05   6.715701e+04   1.359216e+11   9.863133e+10   4.018036e+09   1.474320e+05   2.185533e-24   0.000000e+00   0.000000e+00
      176000   1.759990e-06   2.647049e-02   1.026508e+01   1.550149e+01   8.622838e+04  -9.872428e+04   6.748622e+04   1.250766e+11   1.121339e+11   4.230076e+09   1.474320e+05   2.186859e-24   0.000000e+00   0.000000e+00
      184000   1.839990e-06   3.375638e-02   1.025756e+01   1.550690e+01   9.575706e+04  -8.925133e+04   6.783078e+04   1.129296e+11   1.244858e+11   4.378628e+09   1.474321e+05   2.189410e-24   0.000000e+00   0.000000e+00
      192000   1.919990e-06   4.176438e-02   1.025083e+01   1.551235e+01   1.042647e+05  -7.884051e+04   6.818579e+04   9.957156e+10   1.355601e+11   4.489451e+09   1.474322e+05   2.192682e-24   0.000000e+00   0.000000e+00
      200000   1.999990e-06   5.040905e-02   1.024496e+01   1.551781e+01   1.116597e+05  -6.759882e+04   6.854777e+04   8.513696e+10   1.452394e+11   4.550579e+09   1.474323e+05   2.196734e-24   0.000000e+00   0.000000e+00
      208000   2.079990e-06   5.959810e-02   1.024003e+01   1.552331e+01   1.178616e+05  -5.564210e+04   6.891224e+04   6.977111e+10   1.534197e+11   4.549938e+09   1.474323e+05   2.201603e-24   0.000000e+00   0.000000e+00
      216000   2.159990e-06   6.923326e-02   1.023608e+01   1.552884e+01   1.228022e+05  -4.309395e+04   6.927380e+04   5.362899e+10   1.600117e+11   4.475945e+09   1.474324e+05   2.207300e-24   0.000000e+00   0.000000e+00
      224000   2.239990e-06   7.921131e-02   1.023315e+01   1.553440e+01   1.264257e+05  -3.008452e+04   6.962615e+04   3.687387e+10   1.649411e+11   4.318106e+09   1.474325e+05   2.213811e-24   0.000000e+00   0.000000e+00
      232000   2.319990e-06   8.942512e-02   1.023127e+01   1.553998e+01   1.286900e+05  -1.674924e+04   6.996222e+04   1.967586e+10   1.681496e+11   4.067595e+09   1.474326e+05   2.221100e-24   0.000000e+00   0.000000e+00
      240000   2.399990e-06   9.976470e-02   1.023047e+01   1.554559e+01   1.295666e+05  -3.227572e+03   7.027431e+04   2.210481e+09   1.695955e+11   3.717789e+09   1.474327e+05   2.229108e-24   0.000000e+00   0.000000e+00
      248000   2.479990e-06   1.101183e-01   1.023076e+01   1.555122e+01   1.290393e+05   1.033874e+04   7.055758e+04  -1.536638e+10   1.692510e+11   3.306717e+09   1.474327e+05   2.237754e-24   0.000000e+00   0.000000e+00
      256000   2.559990e-06   1.203736e-01   1.023212e+01   1.555688e+01   1.271104e+05   2.380469e+04   7.080050e+04  -3.282240e+10   1.670993e+11   2.748743e+09   1.474328e+05   2.246594e-24   0.000000e+00   0.000000e+00
      264000   2.639990e-06   1.304190e-01   1.023456e+01   1.556255e+01   1.237951e+05   3.702706e+04   7.099463e+04  -4.999762e+10   1.631651e+11   2.087841e+09   1.474329e+05   2.255885e-24   0.000000e+00   0.000000e+00
      272000   2.719990e-06   1.401446e-01   1.023804e+01   1.556824e+01   1.191230e+05   4.986429e+04   7.113195e+04  -6.671100e+10   1.574776e+11   1.329823e+09   1.474330e+05   2.265518e-24   0.000000e+00   0.000000e+00
      280000   2.799990e-06   1.494436e-01   1.024252e+01   1.557393e+01   1.131382e+05   6.217790e+04   7.120505e+04  -8.278432e+10   1.500839e+11   4.839692e+08   1.474331e+05   2.275382e-24   0.000000e+00   0.000000e+00
      288000   2.879990e-06   1.582133e-01   1.024797e+01   1.557963e+01   1.058990e+05   7.383385e+04   7.120737e+04  -9.804387e+10   1.410487e+11  -4.370918e+08   1.474331e+05   2.285365e-24   0.000000e+00   0.000000e+00
      296000   2.959990e-06   1.663559e-01   1.025432e+01   1.558532e+01   9.747722e+04   8.470400e+04   7.113351e+04  -1.123221e+11   1.304542e+11  -1.417648e+09   1.474332e+05   2.295362e-24   0.000000e+00   0.000000e+00
      304000   3.039990e-06   1.737803e-01   1.026150e+01   1.559101e+01   8.795777e+04   9.466745e+04   7.097944e+04  -1.254596e+11   1.183996e+11  -2.439293e+09   1.474333e+05   2.305274e-24   0.000000e+00   0.000000e+00
      312000   3.119990e-06   1.804025e-01   1.026944e+01   1.559668e+01   7.743799e+04   1.036119e+05   7.074267e+04  -1.373064e+11   1.050006e+11  -3.481430e+09   1.474334e+05   2.315019e-24   0.000000e+00   0.000000e+00
      320000   3.199990e-06   1.861466e-01   1.027804e+01   1.560232e+01   6.602638e+04   1.114371e+05   7.041954e+04  -1.477373e+11   9.045294e+10  -4.614518e+09   1.474335e+05   2.325791e-24   0.000000e+00   0.000000e+00
      328000   3.279990e-06   1.909461e-01   1.028723e+01   1.560794e+01   5.384165e+04   1.180530e+05   7.000863e+04  -1.566112e+11   7.478156e+10  -5.651878e+09   1.474335e+05   2.335239e-24   0.000000e+00   0.000000e+00
      336000   3.359990e-06   1.947441e-01   1.029690e+01   1.561352e+01   4.101290e+04   1.233777e+05   6.951653e+04  -1.638210e+11   5.820086e+10  -6.640384e+09   1.474336e+05   2.344337e-24   0.000000e+00   0.000000e+00
      344000   3.439990e-06   1.974946e-01   1.030694e+01   1.561906e+01   2.767731e+04   1.273452e+05   6.894825e+04  -1.692694e+11   4.088073e+10  -7.552594e+09   1.474337e+05   2.352988e-24   0.000000e+00   0.000000e+00
      352000   3.519990e-06   1.991628e-01   1.031724e+01   1.562455e+01   1.397862e+04   1.299037e+05   6.831060e+04  -1.728860e+11   2.300826e+10  -8.371261e+09   1.474338e+05   2.361403e-24   0.000000e+00   0.000000e+00
      360000   3.599990e-06   1.997255e-01   1.032768e+01   1.562999e+01   6.605241e+01   1.310167e+05   6.761189e+04  -1.746087e+11   4.773975e+09  -9.075787e+09   1.474339e+05   2.369486e-24   0.000000e+00   0.000000e+00
      368000   3.679990e-06   1.991717e-01   1.033816e+01   1.563537e+01  -1.390724e+04   1.306631e+05   6.686196e+04  -1.743996e+11  -1.362231e+10  -9.649376e+09   1.474340e+05   2.377275e-24   0.000000e+00   0.000000e+00
      376000   3.759990e-06   1.975029e-01   1.034855e+01   1.564069e+01  -2.778589e+04   1.288381e+05   6.607183e+04  -1.722420e+11  -3.197555e+10  -1.007874e+10   1.474340e+05   2.384825e-24   0.000000e+00   0.000000e+00
      384000   3.839990e-06   1.947327e-01   1.035874e+01   1.564594e+01  -4.141409e+04   1.255535e+05   6.525346e+04  -1.681413e+11  -5.007779e+10  -1.035456e+10   1.474341e+05   2.392200e-24   0.000000e+00   0.000000e+00
      392000   3.919990e-06   1.908874e-01   1.036860e+01   1.565113e+01  -5.463736e+04   1.208377e+05   6.441933e+04  -1.621253e+11  -6.772059e+10  -1.047183e+10   1.474342e+05   2.399471e-24   0.000000e+00   0.000000e+00
      400000   3.999990e-06   1.860055e-01   1.037803e+01   1.565625e+01  -6.730432e+04   1.147358e+05   6.358221e+04  -1.542444e+11  -8.469757e+10  -1.043001e+10   1.474343e+05   2.406712e-24   0.000000e+00   0.000000e+00
      408000   4.079990e-06   1.801375e-01   1.038692e+01   1.566130e+01  -7.926858e+04   1.073091e+05   6.275468e+04  -1.445718e+11  -1.008071e+11  -1.023302e+10   1.474344e+05   2.413993e-24   0.000000e+00   0.000000e+00
      416000   4.159990e-06   1.733450e-01   1.039517e+01   1.566629e+01  -9.039044e+04   9.863481e+04   6.194885e+04  -1.332027e+11  -1.158549e+11  -9.889035e+09   1.474345e+05   2.421378e-24   0.000000e+00   0.000000e+00
      424000   4.239990e-06   1.657010e-01   1.040267e+01   1.567121e+01  -1.005382e+05   8.880586e+04   6.117627e+04  -1.202358e+11  -1.296400e+11  -9.402068e+09   1.474345e+05   2.428234e-24   0.000000e+00   0.000000e+00
      432000   4.319990e-06   1.572881e-01   1.040935e+01   1.567608e+01  -1.095906e+05   7.792936e+04   6.044730e+04  -1.058495e+11  -1.420214e+11  -8.803788e+09   1.474346e+05   2.435991e-24   0.000000e+00   0.000000e+00
      440000   4.399990e-06   1.481986e-01   1.041512e+01   1.568088e+01  -1.174397e+05   6.612430e+04   5.977036e+04  -9.017803e+10  -1.528293e+11  -8.104836e+09   1.474347e+05   2.443962e-24   0.000000e+00   0.000000e+00
      448000   4.479990e-06   1.385325e-01   1.041991e+01   1.568564e+01  -1.239893e+05   5.352225e+04   5.915268e+04  -7.339522e+10  -1.619248e+11  -7.325560e+09   1.474348e+05   2.452143e-24   0.000000e+00   0.000000e+00
      456000   4.559990e-06   1.283971e-01   1.042366e+01   1.569035e+01  -1.291581e+05   4.026512e+04   5.859984e+04  -5.569039e+10  -1.691881e+11  -6.487519e+09   1.474349e+05   2.460508e-24   0.000000e+00   0.000000e+00
      464000   4.639990e-06   1.179058e-01   1.042634e+01   1.569502e+01  -1.328804e+05   2.650358e+04   5.811567e+04  -3.726608e+10  -1.745210e+11  -5.612630e+09   1.474350e+05   2.469008e-24   0.000000e+00   0.000000e+00
      472000   4.719990e-06   1.071762e-01   1.042789e+01   1.569965e+01  -1.351070e+05   1.239523e+04   5.770224e+04  -1.833566e+10  -1.778480e+11  -4.722336e+09   1.474351e+05   2.477575e-24   0.000000e+00   0.000000e+00
      480000   4.799990e-06   9.632937e-02   1.042832e+01   1.570425e+01  -1.358065e+05  -1.897975e+03   5.735947e+04   8.795643e+08  -1.791326e+11  -3.839255e+09   1.474351e+05   2.486531e-24   0.000000e+00   0.000000e+00
      488000   4.879990e-06   8.548824e-02   1.042759e+01   1.570883e+01  -1.349644e+05  -1.621029e+04   5.708744e+04   2.016084e+10  -1.783272e+11  -2.967683e+09   1.474352e+05   2.495196e-24   0.000000e+00   0.000000e+00
      496000   4.959990e-06   7.477607e-02   1.042573e+01   1.571339e+01  -1.325851e+05  -3.037469e+04   5.688347e+04   3.927126e+10  -1.754369e+11  -2.140011e+09   1.474353e+05   2.503647e-24   0.000000e+00   0.000000e+00
      504000   5.039990e-06   6.431502e-02   1.042274e+01   1.571793e+01  -1.286915e+05  -4.422522e+04   5.674353e+04   5.798234e+10  -1.704873e+11  -1.368974e+09   1.474354e+05   2.511770e-24   0.000000e+00   0.000000e+00
      512000   5.119990e-06   5.422473e-02   1.041866e+01   1.572247e+01  -1.233244e+05  -5.759903e+04   5.666269e+04   7.606938e+10  -1.635296e+11  -6.637050e+08   1.474355e+05   2.519454e-24   0.000000e+00   0.000000e+00
      520000   5.199990e-06   4.462085e-02   1.041354e+01   1.572700e+01  -1.165427e+05  -7.033834e+04   5.663544e+04   9.331443e+10  -1.546399e+11  -2.960445e+07   1.474356e+05   2.526596e-24   0.000000e+00   0.000000e+00
      528000   5.279990e-06   3.561362e-02   1.040743e+01   1.573153e+01  -1.084220e+05  -8.229245e+04   5.665601e+04   1.095092e+11  -1.439186e+11   5.316183e+08   1.474357e+05   2.533106e-24   0.000000e+00   0.000000e+00
      536000   5.359990e-06   2.730660e-02   1.040040e+01   1.573607e+01  -9.905430e+04  -9.331961e+04   5.671861e+04   1.244578e+11  -1.314885e+11   1.021714e+09   1.474358e+05   2.538911e-24   0.000000e+00   0.000000e+00
      544000   5.439990e-06   1.979536e-02   1.039253e+01   1.574061e+01  -8.854645e+04  -1.032890e+05   5.681760e+04   1.379813e+11  -1.174957e+11   1.444386e+09   1.474358e+05   2.544037e-24   0.000000e+00   0.000000e+00
      552000   5.519990e-06   1.316635e-02   1.038390e+01   1.574516e+01  -7.701964e+04  -1.120814e+05   5.694814e+04   1.499097e+11  -1.020976e+11   1.809933e+09   1.474359e+05   2.548219e-24   0.000000e+00   0.000000e+00
      560000   5.599990e-06   7.495843e-03   1.037463e+01   1.574972e+01  -6.460710e+04  -1.195919e+05   5.710587e+04   1.601024e+11  -8.547981e+10   2.125634e+09   1.474360e+05   2.551629e-24   0.000000e+00   0.000000e+00
      568000   5.679990e-06   2.849003e-03   1.036480e+01   1.575430e+01  -5.145275e+04  -1.257307e+05   5.728719e+04   1.684363e+11  -6.783745e+10   2.401806e+09   1.474361e+05   2.554295e-24   0.000000e+00   0.000000e+00
