     timestep     time              x             y              z              vx             vy             vz             ax             ay             az         v_magnitude      ELoss        Electronic      Nuclear
           0  1.273197e-313   1.000000e-01   2.357426e+00   1.594729e+01   1.343323e+04  -1.274178e+05   7.293812e+04   0.000000e+00   0.000000e+00   0.000000e+00   1.474304e+05   0.000000e+00   0.000000e+00   0.000000e+00
        8000   7.999000e-08   1.012953e-01   2.347269e+00   1.595314e+01   1.894027e+04  -1.264626e+05   7.337710e+04   6.851874e+10   1.350660e+10   5.592558e+09   1.474304e+05   3.801524e-25   0.000000e+00   0.000000e+00
       16000   1.599900e-07   1.030290e-01   2.337199e+00   1.595903e+01   2.439258e+04  -1.252574e+05   7.383301e+04   6.776659e+10   1.661857e+10   5.805611e+09   1.474304e+05   3.796622e-25   0.000000e+00   0.000000e+00
       24000   2.399900e-07   1.051963e-01   2.327235e+00   1.596496e+01   2.977931e+04  -1.238044e+05   7.430609e+04   6.687929e+10   1.970075e+10   6.021971e+09   1.474304e+05   3.792774e-25   0.000000e+00   0.000000e+00
       32000   3.199900e-07   1.077916e-01   2.317396e+00   1.597092e+01   3.508969e+04  -1.221061e+05   7.479662e+04   6.585827e+10   2.274868e+10   6.241673e+09   1.474304e+05   3.790102e-25   0.000000e+00   0.000000e+00
       40000   3.999900e-07   1.108084e-01   2.307704e+00   1.597693e+01   4.031309e+04  -1.201656e+05   7.530485e+04   6.470499e+10   2.575798e+10   6.464563e+09   1.474304e+05   3.788729e-25   0.000000e+00   0.000000e+00
       48000   4.799900e-07   1.142391e-01   2.298176e+00   1.598297e+01   4.543850e+04  -1.179866e+05   7.583042e+04   6.338897e+10   2.868608e+10   6.650649e+09   1.474305e+05   3.783528e-25   0.000000e+00   0.000000e+00
       56000   5.599900e-07   1.180756e-01   2.288832e+00   1.598906e+01   5.045392e+04  -1.155749e+05   7.637144e+04   6.197560e+10   3.159791e+10   6.875087e+09   1.474305e+05   3.784602e-25   0.000000e+00   0.000000e+00
       64000   6.399900e-07   1.223086e-01   2.279691e+00   1.599519e+01   5.535120e+04  -1.129323e+05   7.693046e+04   6.043559e+10   3.445771e+10   7.100605e+09   1.474305e+05   3.787346e-25   0.000000e+00   0.000000e+00
       72000   7.199900e-07   1.269284e-01   2.270769e+00   1.600137e+01   6.012066e+04  -1.100619e+05   7.750890e+04   5.879207e+10   3.732860e+10   7.404159e+09   1.474305e+05   3.798608e-25   0.000000e+00   0.000000e+00
       80000   7.999900e-07   1.319243e-01   2.262087e+00   1.600759e+01   6.475311e+04  -1.069650e+05   7.811069e+04   5.699887e+10   4.008432e+10   7.640610e+09   1.474305e+05   3.805772e-25   0.000000e+00   0.000000e+00
       88000   8.799900e-07   1.372849e-01   2.253661e+00   1.601387e+01   6.923718e+04  -1.036501e+05   7.873136e+04   5.508274e+10   4.277652e+10   7.875716e+09   1.474305e+05   3.815038e-25   0.000000e+00   0.000000e+00
       96000   9.599900e-07   1.429980e-01   2.245508e+00   1.602019e+01   7.356309e+04  -1.001225e+05   7.937073e+04   5.304529e+10   4.540096e+10   8.107925e+09   1.474305e+05   3.826518e-25   0.000000e+00   0.000000e+00
      104000   1.039990e-06   1.490505e-01   2.237647e+00   1.602657e+01   7.772121e+04  -9.638784e+04   8.002851e+04   5.088816e+10   4.795333e+10   8.335504e+09   1.474305e+05   3.840318e-25   0.000000e+00   0.000000e+00
      112000   1.119990e-06   1.554287e-01   2.230092e+00   1.603300e+01   8.170203e+04  -9.245200e+04   8.070424e+04   4.861305e+10   5.042924e+10   8.556540e+09   1.474306e+05   3.856539e-25   0.000000e+00   0.000000e+00
      120000   1.199990e-06   1.621179e-01   2.222859e+00   1.603948e+01   8.549618e+04  -8.832130e+04   8.139733e+04   4.622174e+10   5.282420e+10   8.768957e+09   1.474306e+05   3.875274e-25   0.000000e+00   0.000000e+00
      128000   1.279990e-06   1.691028e-01   2.215965e+00   1.604602e+01   8.909444e+04  -8.400239e+04   8.210699e+04   4.371613e+10   5.513363e+10   8.970523e+09   1.474306e+05   3.896608e-25   0.000000e+00   0.000000e+00
      136000   1.359990e-06   1.763675e-01   2.209424e+00   1.605262e+01   9.248774e+04  -7.950230e+04   8.283226e+04   4.109820e+10   5.735278e+10   9.158867e+09   1.474306e+05   3.920618e-25   0.000000e+00   0.000000e+00
      144000   1.439990e-06   1.838952e-01   2.203250e+00   1.605927e+01   9.566718e+04  -7.482846e+04   8.357199e+04   3.837008e+10   5.947681e+10   9.331497e+09   1.474306e+05   3.947371e-25   0.000000e+00   0.000000e+00
      152000   1.519990e-06   1.916683e-01   2.197456e+00   1.606599e+01   9.862508e+04  -6.998925e+04   8.432312e+04   3.556340e+10   6.148390e+10   9.437749e+09   1.474306e+05   3.976234e-25   0.000000e+00   0.000000e+00
      160000   1.599990e-06   1.996690e-01   2.192055e+00   1.607277e+01   1.013533e+05  -6.499314e+04   8.508350e+04   3.262413e+10   6.340050e+10   9.568097e+09   1.474306e+05   4.008304e-25   0.000000e+00   0.000000e+00
      168000   1.679990e-06   2.078782e-01   2.187061e+00   1.607960e+01   1.038336e+05  -5.984254e+04   8.586768e+04   2.946637e+10   6.527666e+10   9.861393e+09   1.474307e+05   4.047842e-25   0.000000e+00   0.000000e+00
      176000   1.759990e-06   2.162758e-01   2.182484e+00   1.608650e+01   1.060656e+05  -5.455221e+04   8.666001e+04   2.631738e+10   6.696136e+10   9.942016e+09   1.474307e+05   4.085571e-25   0.000000e+00   0.000000e+00
      184000   1.839990e-06   2.248418e-01   2.178336e+00   1.609347e+01   1.080418e+05  -4.913196e+04   8.745762e+04   2.307238e+10   6.852388e+10   9.993245e+09   1.474307e+05   4.126193e-25   0.000000e+00   0.000000e+00
      192000   1.919990e-06   2.335555e-01   2.174626e+00   1.610050e+01   1.097544e+05  -4.359127e+04   8.825864e+04   1.968883e+10   7.005202e+10   1.011543e+10   1.474307e+05   4.180048e-25   0.000000e+00   0.000000e+00
      200000   1.999990e-06   2.423952e-01   2.171365e+00   1.610759e+01   1.111923e+05  -3.793321e+04   8.906826e+04   1.624523e+10   7.137637e+10   1.011858e+10   1.474307e+05   4.229322e-25   0.000000e+00   0.000000e+00
      208000   2.079990e-06   2.513388e-01   2.168560e+00   1.611475e+01   1.123513e+05  -3.217476e+04   8.987658e+04   1.271453e+10   7.256100e+10   1.008265e+10   1.474307e+05   4.281629e-25   0.000000e+00   0.000000e+00
      216000   2.159990e-06   2.603637e-01   2.166219e+00   1.612197e+01   1.132244e+05  -2.632734e+04   9.068036e+04   9.101407e+09   7.359948e+10   1.000473e+10   1.474307e+05   4.336924e-25   0.000000e+00   0.000000e+00
      224000   2.239990e-06   2.694469e-01   2.164350e+00   1.612926e+01   1.138054e+05  -2.040290e+04   9.147614e+04   5.411007e+09   7.448525e+10   9.882035e+09   1.474308e+05   4.395143e-25   0.000000e+00   0.000000e+00
      232000   2.319990e-06   2.785647e-01   2.162956e+00   1.613661e+01   1.140882e+05  -1.441394e+04   9.226022e+04   1.648994e+09   7.521164e+10   9.711910e+09   1.474308e+05   4.456208e-25   0.000000e+00   0.000000e+00
      240000   2.399990e-06   2.876929e-01   2.162045e+00   1.614402e+01   1.140674e+05  -8.373464e+03   9.302871e+04  -2.178424e+09   7.577193e+10   9.491900e+09   1.474308e+05   4.520023e-25   0.000000e+00   0.000000e+00
      248000   2.479990e-06   2.968072e-01   2.161618e+00   1.615149e+01   1.137381e+05  -2.295036e+03   9.377753e+04  -6.064456e+09   7.615935e+10   9.219769e+09   1.474308e+05   4.586474e-25   0.000000e+00   0.000000e+00
      256000   2.559990e-06   3.058826e-01   2.161678e+00   1.615902e+01   1.130924e+05   3.808537e+03   9.450640e+04  -1.006709e+10   7.638922e+10   8.969125e+09   1.474308e+05   4.660110e-25   0.000000e+00   0.000000e+00
      264000   2.639990e-06   3.148935e-01   2.162227e+00   1.616661e+01   1.121280e+05   9.921453e+03   9.520890e+04  -1.404854e+10   7.640209e+10   8.584029e+09   1.474308e+05   4.730760e-25   0.000000e+00   0.000000e+00
      272000   2.719990e-06   3.238145e-01   2.163265e+00   1.617426e+01   1.108437e+05   1.602773e+04   9.587830e+04  -1.806302e+10   7.622232e+10   8.141176e+09   1.474309e+05   4.803614e-25   0.000000e+00   0.000000e+00
      280000   2.799990e-06   3.326199e-01   2.164791e+00   1.618195e+01   1.092372e+05   2.211172e+04   9.650992e+04  -2.210110e+10   7.584368e+10   7.639544e+09   1.474309e+05   4.878500e-25   0.000000e+00   0.000000e+00
      288000   2.879990e-06   3.412838e-01   2.166802e+00   1.618970e+01   1.073071e+05   2.815725e+04   9.709903e+04  -2.615271e+10   7.526015e+10   7.078509e+09   1.474309e+05   4.955233e-25   0.000000e+00   0.000000e+00
      296000   2.959990e-06   3.497804e-01   2.169295e+00   1.619749e+01   1.050527e+05   3.414772e+04   9.764088e+04  -3.020707e+10   7.446605e+10   6.457876e+09   1.474309e+05   5.033613e-25   0.000000e+00   0.000000e+00
      304000   3.039990e-06   3.580835e-01   2.172264e+00   1.620532e+01   1.024688e+05   4.007209e+04   9.813388e+04  -3.436140e+10   7.357450e+10   5.836440e+09   1.474309e+05   5.133222e-25   0.000000e+00   0.000000e+00
      312000   3.119990e-06   3.661667e-01   2.175704e+00   1.621319e+01   9.955752e+04   4.591110e+04   9.857157e+04  -3.841502e+10   7.236348e+10   5.095630e+09   1.474309e+05   5.218552e-25   0.000000e+00   0.000000e+00
      320000   3.199990e-06   3.740041e-01   2.179607e+00   1.622109e+01   9.632315e+04   5.164416e+04   9.894756e+04  -4.243734e+10   7.092469e+10   4.294404e+09   1.474310e+05   5.304930e-25   0.000000e+00   0.000000e+00
      328000   3.279990e-06   3.815699e-01   2.183964e+00   1.622902e+01   9.276870e+04   5.725285e+04   9.925710e+04  -4.641461e+10   6.925402e+10   3.434539e+09   1.474310e+05   5.392100e-25   0.000000e+00   0.000000e+00
      336000   3.359990e-06   3.888386e-01   2.188764e+00   1.623697e+01   8.889836e+04   6.271851e+04   9.949558e+04  -5.033243e+10   6.734810e+10   2.518395e+09   1.474310e+05   5.479796e-25   0.000000e+00   0.000000e+00
      344000   3.439990e-06   3.957853e-01   2.193994e+00   1.624493e+01   8.471746e+04   6.802219e+04   9.965861e+04  -5.417578e+10   6.520435e+10   1.548928e+09   1.474310e+05   5.567746e-25   0.000000e+00   0.000000e+00
      352000   3.519990e-06   4.023853e-01   2.199642e+00   1.625291e+01   8.023018e+04   7.314747e+04   9.974204e+04  -5.801231e+10   6.291331e+10   5.259740e+08   1.474310e+05   5.672123e-25   0.000000e+00   0.000000e+00
      360000   3.599990e-06   4.086141e-01   2.205693e+00   1.626089e+01   7.544193e+04   7.807856e+04   9.974051e+04  -6.166902e+10   6.030920e+10  -5.649785e+08   1.474311e+05   5.762582e-25   0.000000e+00   0.000000e+00
      368000   3.679990e-06   4.144483e-01   2.212129e+00   1.626887e+01   7.036644e+04   8.279048e+04   9.965051e+04  -6.519578e+10   5.744954e+10  -1.691963e+09   1.474311e+05   5.850267e-25   0.000000e+00   0.000000e+00
      376000   3.759990e-06   4.198654e-01   2.218933e+00   1.627683e+01   6.501431e+04   8.726416e+04   9.946876e+04  -6.858198e+10   5.435349e+10  -2.857420e+09   1.474311e+05   5.937129e-25   0.000000e+00   0.000000e+00
      384000   3.839990e-06   4.248436e-01   2.226085e+00   1.628478e+01   5.939748e+04   9.148078e+04   9.919244e+04  -7.181075e+10   5.102406e+10  -4.055409e+09   1.474311e+05   6.022889e-25   0.000000e+00   0.000000e+00
      392000   3.919990e-06   4.293623e-01   2.233563e+00   1.629270e+01   5.352921e+04   9.542186e+04   9.881919e+04  -7.486509e+10   4.746563e+10  -5.279445e+09   1.474311e+05   6.107275e-25   0.000000e+00   0.000000e+00
      400000   3.999990e-06   4.334019e-01   2.241344e+00   1.630059e+01   4.742375e+04   9.906965e+04   9.834704e+04  -7.779473e+10   4.374415e+10  -6.551494e+09   1.474312e+05   6.202423e-25   0.000000e+00   0.000000e+00
      408000   4.079990e-06   4.369440e-01   2.249406e+00   1.630843e+01   4.109134e+04   1.024112e+05   9.777224e+04  -8.047917e+10   3.975807e+10  -7.820134e+09   1.474312e+05   6.287823e-25   0.000000e+00   0.000000e+00
      416000   4.159990e-06   4.399710e-01   2.257721e+00   1.631623e+01   3.455305e+04   1.054253e+05   9.709563e+04  -8.293898e+10   3.556046e+10  -9.095087e+09   1.474312e+05   6.370992e-25   0.000000e+00   0.000000e+00
      424000   4.239990e-06   4.424675e-01   2.266264e+00   1.632396e+01   2.782752e+04   1.080954e+05   9.631707e+04  -8.515752e+10   3.116141e+10  -1.036784e+10   1.474312e+05   6.451686e-25   0.000000e+00   0.000000e+00
      432000   4.319990e-06   4.444190e-01   2.275007e+00   1.633163e+01   2.093469e+04   1.104060e+05   9.543706e+04  -8.711871e+10   2.657267e+10  -1.162959e+10   1.474313e+05   6.529676e-25   0.000000e+00   0.000000e+00
      440000   4.399990e-06   4.458131e-01   2.283919e+00   1.633923e+01   1.389578e+04   1.123423e+05   9.445685e+04  -8.880719e+10   2.180760e+10  -1.287133e+10   1.474313e+05   6.604753e-25   0.000000e+00   0.000000e+00
      448000   4.479990e-06   4.466390e-01   2.292971e+00   1.634675e+01   6.733183e+03   1.138908e+05   9.337841e+04  -9.020845e+10   1.688119e+10  -1.408395e+10   1.474313e+05   6.676734e-25   0.000000e+00   0.000000e+00
      456000   4.559990e-06   4.468877e-01   2.302131e+00   1.635417e+01  -5.296513e+02   1.150399e+05   9.220379e+04  -9.131342e+10   1.183741e+10  -1.529277e+10   1.474313e+05   6.747398e-25   0.000000e+00   0.000000e+00
      464000   4.639990e-06   4.465522e-01   2.311367e+00   1.636150e+01  -7.868333e+03   1.157796e+05   9.093499e+04  -9.210042e+10   6.636708e+09  -1.641815e+10   1.474313e+05   6.812423e-25   0.000000e+00   0.000000e+00
      472000   4.719990e-06   4.456275e-01   2.320645e+00   1.636872e+01  -1.525709e+04   1.160988e+05   8.957840e+04  -9.256362e+10   1.328448e+09  -1.748629e+10   1.474314e+05   6.873974e-25   0.000000e+00   0.000000e+00
      480000   4.799990e-06   4.441105e-01   2.329931e+00   1.637583e+01  -2.266963e+04   1.159898e+05   8.813893e+04  -9.269352e+10  -4.066425e+09  -1.848870e+10   1.474314e+05   6.931983e-25   0.000000e+00   0.000000e+00
      488000   4.879990e-06   4.420004e-01   2.339192e+00   1.638282e+01  -3.007895e+04   1.154464e+05   8.662217e+04  -9.248221e+10  -9.525698e+09  -1.941731e+10   1.474314e+05   6.986411e-25   0.000000e+00   0.000000e+00
      496000   4.959990e-06   4.392987e-01   2.348391e+00   1.638968e+01  -3.745751e+04   1.144645e+05   8.503432e+04  -9.192350e+10  -1.502602e+10  -2.026462e+10   1.474314e+05   7.037248e-25   0.000000e+00   0.000000e+00
      504000   5.039990e-06   4.360088e-01   2.357494e+00   1.639642e+01  -4.477732e+04   1.130418e+05   8.338217e+04  -9.101306e+10  -2.054307e+10  -2.102374e+10   1.474315e+05   7.084514e-25   0.000000e+00   0.000000e+00
      512000   5.119990e-06   4.321366e-01   2.366466e+00   1.640302e+01  -5.201215e+04   1.111793e+05   8.166966e+04  -8.980670e+10  -2.601307e+10  -2.178081e+10   1.474315e+05   7.137906e-25   0.000000e+00   0.000000e+00
      520000   5.199990e-06   4.276898e-01   2.375271e+00   1.640949e+01  -5.913487e+04   1.088784e+05   7.990381e+04  -8.820192e+10  -3.150318e+10  -2.234812e+10   1.474315e+05   7.180615e-25   0.000000e+00   0.000000e+00
      528000   5.279990e-06   4.226788e-01   2.383875e+00   1.641581e+01  -6.611496e+04   1.061403e+05   7.809678e+04  -8.624154e+10  -3.693612e+10  -2.280953e+10   1.474315e+05   7.219874e-25   0.000000e+00   0.000000e+00
      536000   5.359990e-06   4.171160e-01   2.392242e+00   1.642198e+01  -7.292410e+04   1.029708e+05   7.625720e+04  -8.392902e+10  -4.228511e+10  -2.316140e+10   1.474316e+05   7.255819e-25   0.000000e+00   0.000000e+00
      544000   5.439990e-06   4.110163e-01   2.400339e+00   1.642801e+01  -7.953435e+04   9.937762e+04   7.439389e+04  -8.127586e+10  -4.751600e+10  -2.341727e+10   1.474316e+05   7.289391e-25   0.000000e+00   0.000000e+00
      552000   5.519990e-06   4.043965e-01   2.408132e+00   1.643388e+01  -8.591874e+04   9.537102e+04   7.251496e+04  -7.827856e+10  -5.262325e+10  -2.353678e+10   1.474316e+05   7.319454e-25   0.000000e+00   0.000000e+00
      560000   5.599990e-06   3.972760e-01   2.415587e+00   1.643961e+01  -9.204891e+04   9.096013e+04   7.063528e+04  -7.490923e+10  -5.763765e+10  -2.339468e+10   1.474316e+05   7.342756e-25   0.000000e+00   0.000000e+00
      568000   5.679990e-06   3.896762e-01   2.422675e+00   1.644519e+01  -9.789736e+04   8.615731e+04   6.876861e+04  -7.125080e+10  -6.239823e+10  -2.325345e+10   1.474317e+05   7.366100e-25   0.000000e+00   0.000000e+00
      576000   5.759990e-06   3.816206e-01   2.429363e+00   1.645061e+01  -1.034409e+05   8.098213e+04   6.691769e+04  -6.728914e+10  -6.694270e+10  -2.300128e+10   1.474317e+05   7.387226e-25   0.000000e+00   0.000000e+00
      584000   5.839990e-06   3.731344e-01   2.435622e+00   1.645589e+01  -1.086559e+05   7.545283e+04   6.509127e+04  -6.304014e+10  -7.124737e+10  -2.264164e+10   1.474317e+05   7.406342e-25   0.000000e+00   0.000000e+00
      592000   5.919990e-06   3.642450e-01   2.441426e+00   1.646103e+01  -1.135201e+05   6.958950e+04   6.329778e+04  -5.852146e+10  -7.528988e+10  -2.217898e+10   1.474317e+05   7.423650e-25   0.000000e+00   0.000000e+00
      600000   5.999990e-06   3.549811e-01   2.446748e+00   1.646602e+01  -1.180126e+05   6.341396e+04   6.154524e+04  -5.375237e+10  -7.904938e+10  -2.161871e+10   1.474318e+05   7.439340e-25   0.000000e+00   0.000000e+00
      608000   6.079990e-06   3.453734e-01   2.451565e+00   1.647088e+01  -1.221143e+05   5.694962e+04   5.984123e+04  -4.875362e+10  -8.250666e+10  -2.096707e+10   1.474318e+05   7.453587e-25   0.000000e+00   0.000000e+00
      616000   6.159990e-06   3.354537e-01   2.455853e+00   1.647560e+01  -1.258076e+05   5.022138e+04   5.819277e+04  -4.354725e+10  -8.564434e+10  -2.023108e+10   1.474318e+05   7.466547e-25   0.000000e+00   0.000000e+00
      624000   6.239990e-06   3.252555e-01   2.459594e+00   1.648019e+01  -1.290769e+05   4.325544e+04   5.660631e+04  -3.815643e+10  -8.844698e+10  -1.941840e+10   1.474319e+05   7.478356e-25   0.000000e+00   0.000000e+00
      632000   6.319990e-06   3.148131e-01   2.462769e+00   1.648466e+01  -1.319083e+05   3.607914e+04   5.508766e+04  -3.260526e+10  -9.090118e+10  -1.853722e+10   1.474319e+05   7.489124e-25   0.000000e+00   0.000000e+00
      640000   6.399990e-06   3.041621e-01   2.465362e+00   1.648901e+01  -1.342901e+05   2.872082e+04   5.364196e+04  -2.691859e+10  -9.299564e+10  -1.759614e+10   1.474319e+05   7.498939e-25   0.000000e+00   0.000000e+00
      648000   6.479990e-06   2.933390e-01   2.467360e+00   1.649324e+01  -1.362084e+05   2.120115e+04   5.228730e+04  -2.103616e+10  -9.488914e+10  -1.632224e+10   1.474319e+05   7.522533e-25   0.000000e+00   0.000000e+00
      656000   6.559990e-06   2.823813e-01   2.468751e+00   1.649737e+01  -1.376558e+05   1.355425e+04   5.102304e+04  -1.513810e+10  -9.621947e+10  -1.527871e+10   1.474320e+05   7.528657e-25   0.000000e+00   0.000000e+00
      664000   6.639990e-06   2.713267e-01   2.469526e+00   1.650141e+01  -1.386306e+05   5.817537e+03   4.983887e+04  -9.240924e+09  -9.712503e+10  -1.436527e+10   1.474320e+05   7.531943e-25   0.000000e+00   0.000000e+00
      672000   6.719990e-06   2.602131e-01   2.469680e+00   1.650535e+01  -1.391303e+05  -1.978515e+03   4.873444e+04  -3.250073e+09  -9.771167e+10  -1.324341e+10   1.474320e+05   7.538525e-25   0.000000e+00   0.000000e+00
      680000   6.799990e-06   2.490787e-01   2.469208e+00   1.650921e+01  -1.391504e+05  -9.806023e+03   4.772020e+04   2.745638e+09  -9.791167e+10  -1.211164e+10   1.474320e+05   7.544262e-25   0.000000e+00   0.000000e+00
      688000   6.879990e-06   2.379618e-01   2.468111e+00   1.651299e+01  -1.386915e+05  -1.763412e+04   4.679661e+04   8.720546e+09  -9.772709e+10  -1.097876e+10   1.474321e+05   7.549096e-25   0.000000e+00   0.000000e+00
      696000   6.959990e-06   2.269008e-01   2.466388e+00   1.651670e+01  -1.377563e+05  -2.543220e+04   4.596342e+04   1.464955e+10  -9.716200e+10  -9.853033e+09   1.474321e+05   7.552956e-25   0.000000e+00   0.000000e+00
      704000   7.039990e-06   2.159334e-01   2.464043e+00   1.652034e+01  -1.363494e+05  -3.317005e+04   4.521974e+04   2.050825e+10  -9.622240e+10  -8.742127e+09   1.474321e+05   7.555762e-25   0.000000e+00   0.000000e+00
      712000   7.119990e-06   2.050973e-01   2.461083e+00   1.652393e+01  -1.344774e+05  -4.081800e+04   4.456411e+04   2.627311e+10  -9.491611e+10  -7.652998e+09   1.474321e+05   7.557429e-25   0.000000e+00   0.000000e+00
      720000   7.199990e-06   1.944293e-01   2.457515e+00   1.652748e+01  -1.321464e+05  -4.835114e+04   4.399710e+04   3.197829e+10  -9.334242e+10  -6.529952e+09   1.474322e+05   7.573035e-25   0.000000e+00   0.000000e+00
      728000   7.279990e-06   1.839658e-01   2.453351e+00   1.653098e+01  -1.293666e+05  -5.573937e+04   4.351608e+04   3.748928e+10  -9.130693e+10  -5.502102e+09   1.474322e+05   7.568868e-25   0.000000e+00   0.000000e+00
      736000   7.359990e-06   1.737422e-01   2.448602e+00   1.653444e+01  -1.261524e+05  -6.295134e+04   4.311568e+04   4.283727e+10  -8.893844e+10  -4.515132e+09   1.474322e+05   7.563287e-25   0.000000e+00   0.000000e+00
      744000   7.439990e-06   1.637926e-01   2.443284e+00   1.653788e+01  -1.225175e+05  -6.996099e+04   4.279248e+04   4.800331e+10  -8.625123e+10  -3.572586e+09   1.474322e+05   7.556235e-25   0.000000e+00   0.000000e+00
      752000   7.519990e-06   1.541502e-01   2.437414e+00   1.654129e+01  -1.184771e+05  -7.674342e+04   4.254282e+04   5.296984e+10  -8.326060e+10  -2.677093e+09   1.474323e+05   7.547673e-25   0.000000e+00   0.000000e+00
      760000   7.599990e-06   1.448467e-01   2.431012e+00   1.654469e+01  -1.140480e+05  -8.327499e+04   4.236286e+04   5.772064e+10  -7.998273e+10  -1.830378e+09   1.474323e+05   7.537579e-25   0.000000e+00   0.000000e+00
      768000   7.679990e-06   1.359124e-01   2.424097e+00   1.654807e+01  -1.092479e+05  -8.953341e+04   4.224865e+04   6.224092e+10  -7.643453e+10  -1.033292e+09   1.474323e+05   7.525947e-25   0.000000e+00   0.000000e+00
      776000   7.759990e-06   1.273764e-01   2.416694e+00   1.655145e+01  -1.040959e+05  -9.549774e+04   4.219621e+04   6.651726e+10  -7.263349e+10  -2.858474e+08   1.474324e+05   7.512795e-25   0.000000e+00   0.000000e+00
      784000   7.839990e-06   1.192659e-01   2.408826e+00   1.655482e+01  -9.861196e+04  -1.011485e+05   4.220161e+04   7.053766e+10  -6.859753e+10   4.127286e+08   1.474324e+05   7.498160e-25   0.000000e+00   0.000000e+00
      792000   7.919990e-06   1.116068e-01   2.400519e+00   1.655820e+01  -9.281696e+04  -1.064675e+05   4.226099e+04   7.429145e+10  -6.434488e+10   1.063934e+09   1.474324e+05   7.482102e-25   0.000000e+00   0.000000e+00
      800000   7.999990e-06   1.044228e-01   2.391801e+00   1.656159e+01  -8.673497e+04  -1.114368e+05   4.236995e+04   7.773215e+10  -5.987064e+10   1.661576e+09   1.474324e+05   7.458039e-25   0.000000e+00   0.000000e+00
      808000   8.079990e-06   9.773630e-02   2.382699e+00   1.656498e+01  -8.038352e+04  -1.160454e+05   4.252403e+04   8.104523e+10  -5.534812e+10   2.161266e+09   1.474325e+05   7.463365e-25   0.000000e+00   0.000000e+00
      816000   8.159990e-06   9.156812e-02   2.373243e+00   1.656839e+01  -7.378276e+04  -1.202816e+05   4.271754e+04   8.392422e+10  -5.053304e+10   2.670166e+09   1.474325e+05   7.438257e-25   0.000000e+00   0.000000e+00
      824000   8.239990e-06   8.593689e-02   2.363464e+00   1.657182e+01  -6.696358e+04  -1.241269e+05   4.295030e+04   8.650478e+10  -4.558053e+10   3.143018e+09   1.474325e+05   7.412352e-25   0.000000e+00   0.000000e+00
      832000   8.319990e-06   8.085913e-02   2.353394e+00   1.657526e+01  -5.995002e+04  -1.275712e+05   4.321958e+04   8.878331e+10  -4.050887e+10   3.583821e+09   1.474325e+05   7.385825e-25   0.000000e+00   0.000000e+00
      840000   8.399990e-06   7.634942e-02   2.343064e+00   1.657873e+01  -5.276635e+04  -1.306056e+05   4.352297e+04   9.075726e+10  -3.533595e+10   3.996788e+09   1.474326e+05   7.358872e-25   0.000000e+00   0.000000e+00
      848000   8.479990e-06   7.242040e-02   2.332508e+00   1.658223e+01  -4.543701e+04  -1.332227e+05   4.385844e+04   9.242510e+10  -3.007926e+10   4.386253e+09   1.474326e+05   7.331703e-25   0.000000e+00   0.000000e+00
      856000   8.559990e-06   6.908273e-02   2.321760e+00   1.658575e+01  -3.798650e+04  -1.354165e+05   4.422427e+04   9.378620e+10  -2.475584e+10   4.756581e+09   1.474326e+05   7.304542e-25   0.000000e+00   0.000000e+00
      864000   8.639990e-06   6.634513e-02   2.310853e+00   1.658931e+01  -3.043938e+04  -1.371822e+05   4.461910e+04   9.484076e+10  -1.938218e+10   5.112080e+09   1.474326e+05   7.277627e-25   0.000000e+00   0.000000e+00
      872000   8.719990e-06   6.421435e-02   2.299822e+00   1.659289e+01  -2.282011e+04  -1.385167e+05   4.504186e+04   9.559873e+10  -1.399140e+10   5.408867e+09   1.474327e+05   7.252505e-25   0.000000e+00   0.000000e+00
      880000   8.799990e-06   6.269520e-02   2.288702e+00   1.659651e+01  -1.515285e+04  -1.394189e+05   4.548804e+04   9.603234e+10  -8.563648e+09   5.744856e+09   1.474327e+05   7.224948e-25   0.000000e+00   0.000000e+00
      888000   8.879990e-06   6.179050e-02   2.277526e+00   1.660017e+01  -7.462869e+03  -1.398865e+05   4.596157e+04   9.618988e+10  -3.080268e+09   6.245598e+09   1.474327e+05   7.203605e-25   0.000000e+00   0.000000e+00
      896000   8.959990e-06   6.150118e-02   2.266331e+00   1.660387e+01   2.276225e+02  -1.399159e+05   4.647488e+04   9.602288e+10   2.343679e+09   6.587506e+09   1.474327e+05   7.179050e-25   0.000000e+00   0.000000e+00
      904000   9.039990e-06   6.182625e-02   2.255151e+00   1.660761e+01   7.892907e+03  -1.395122e+05   4.701568e+04   9.556033e+10   7.742185e+09   6.933274e+09   1.474328e+05   7.156210e-25   0.000000e+00   0.000000e+00
      912000   9.119990e-06   6.276275e-02   2.244021e+00   1.661139e+01   1.550949e+04  -1.386781e+05   4.758438e+04   9.480599e+10   1.310209e+10   7.285432e+09   1.474328e+05   7.135401e-25   0.000000e+00   0.000000e+00
      920000   9.199990e-06   6.430585e-02   2.232974e+00   1.661522e+01   2.305418e+04  -1.374172e+05   4.818157e+04   9.376391e+10   1.841074e+10   7.645944e+09   1.474328e+05   7.116945e-25   0.000000e+00   0.000000e+00
      928000   9.279990e-06   6.644889e-02   2.222046e+00   1.661910e+01   3.050414e+04  -1.357340e+05   4.880799e+04   9.243838e+10   2.365594e+10   8.016169e+09   1.474328e+05   7.101170e-25   0.000000e+00   0.000000e+00
      936000   9.359990e-06   6.918339e-02   2.211268e+00   1.662303e+01   3.783687e+04  -1.336342e+05   4.946444e+04   9.083390e+10   2.882589e+10   8.396823e+09   1.474329e+05   7.088407e-25   0.000000e+00   0.000000e+00
      944000   9.439990e-06   7.249907e-02   2.200675e+00   1.662702e+01   4.503023e+04  -1.311241e+05   5.015177e+04   8.895513e+10   3.390918e+10   8.787958e+09   1.474329e+05   7.078992e-25   0.000000e+00   0.000000e+00
      952000   9.519990e-06   7.638412e-02   2.190299e+00   1.663106e+01   5.206750e+04  -1.282114e+05   5.086526e+04   8.687101e+10   3.889336e+10   9.112435e+09   1.474329e+05   7.080719e-25   0.000000e+00   0.000000e+00
      960000   9.599990e-06   8.082499e-02   2.180172e+00   1.663515e+01   5.892218e+04  -1.249040e+05   5.161035e+04   8.445276e+10   4.377094e+10   9.515883e+09   1.474329e+05   7.077943e-25   0.000000e+00   0.000000e+00
      968000   9.679990e-06   8.580623e-02   2.170325e+00   1.663931e+01   6.557303e+04  -1.212112e+05   5.238797e+04   8.177606e+10   4.852840e+10   9.925439e+09   1.474330e+05   7.079592e-25   0.000000e+00   0.000000e+00
      976000   9.759990e-06   9.131070e-02   2.160788e+00   1.664354e+01   7.199957e+04  -1.171429e+05   5.319851e+04   7.884606e+10   5.315543e+10   1.033847e+10   1.474330e+05   7.085977e-25   0.000000e+00   0.000000e+00
      984000   9.839990e-06   9.731965e-02   2.151591e+00   1.664783e+01   7.818175e+04  -1.127100e+05   5.404213e+04   7.566804e+10   5.764182e+10   1.075169e+10   1.474330e+05   7.097400e-25   0.000000e+00   0.000000e+00
      992000   9.919990e-06   1.038126e-01   2.142764e+00   1.665219e+01   8.409592e+04  -1.079215e+05   5.493013e+04   7.215818e+10   6.203441e+10   1.140963e+10   1.474330e+05   7.113991e-25   0.000000e+00   0.000000e+00
     1000000   9.999990e-06   1.107674e-01   2.134333e+00   1.665662e+01   8.972351e+04  -1.027908e+05   5.585917e+04   6.849292e+10   6.620519e+10   1.181458e+10   1.474331e+05   7.136253e-25   0.000000e+00   0.000000e+00
     1008000   1.007999e-05   1.181603e-01   2.126326e+00   1.666112e+01   9.504856e+04  -9.733326e+04   5.682009e+04   6.459549e+10   7.020354e+10   1.220562e+10   1.474331e+05   7.164214e-25   0.000000e+00   0.000000e+00
     1016000   1.015999e-05   1.259666e-01   2.118768e+00   1.666571e+01   1.000527e+05  -9.156309e+04   5.781156e+04   6.047200e+10   7.401889e+10   1.257714e+10   1.474331e+05   7.198102e-25   0.000000e+00   0.000000e+00
     1024000   1.023999e-05   1.341597e-01   2.111684e+00   1.667037e+01   1.047182e+05  -8.549537e+04   5.883176e+04   5.612887e+10   7.764051e+10   1.292303e+10   1.474331e+05   7.238114e-25   0.000000e+00   0.000000e+00
     1032000   1.031999e-05   1.427120e-01   2.105096e+00   1.667512e+01   1.090276e+05  -7.914603e+04   5.987839e+04   5.157289e+10   8.105743e+10   1.323681e+10   1.474332e+05   7.284416e-25   0.000000e+00   0.000000e+00
     1040000   1.039999e-05   1.515942e-01   2.099028e+00   1.667996e+01   1.129643e+05  -7.253230e+04   6.094812e+04   4.681254e+10   8.422869e+10   1.347456e+10   1.474332e+05   7.332566e-25   0.000000e+00   0.000000e+00
     1048000   1.047999e-05   1.607759e-01   2.093498e+00   1.668488e+01   1.165124e+05  -6.567360e+04   6.203532e+04   4.185908e+10   8.719957e+10   1.369706e+10   1.474332e+05   7.391513e-25   0.000000e+00   0.000000e+00
     1056000   1.055999e-05   1.702254e-01   2.088526e+00   1.668988e+01   1.196567e+05  -5.858669e+04   6.313826e+04   3.671650e+10   8.993212e+10   1.386715e+10   1.474332e+05   7.457059e-25   0.000000e+00   0.000000e+00
     1064000   1.063999e-05   1.799098e-01   2.084129e+00   1.669498e+01   1.223822e+05  -5.129111e+04   6.425247e+04   3.139369e+10   9.241430e+10   1.397768e+10   1.474333e+05   7.529211e-25   0.000000e+00   0.000000e+00
     1072000   1.071999e-05   1.897951e-01   2.080324e+00   1.670016e+01   1.246749e+05  -4.380683e+04   6.537359e+04   2.583384e+10   9.485701e+10   1.429711e+10   1.474333e+05   7.644075e-25   0.000000e+00   0.000000e+00
     1080000   1.079999e-05   1.998457e-01   2.077125e+00   1.670544e+01   1.265152e+05  -3.613727e+04   6.651752e+04   2.014838e+10   9.683487e+10   1.428753e+10   1.474333e+05   7.735031e-25   0.000000e+00   0.000000e+00
     1088000   1.087999e-05   2.100250e-01   2.074546e+00   1.671081e+01   1.278889e+05  -2.832568e+04   6.766594e+04   1.423824e+10   9.845545e+10   1.430567e+10   1.474333e+05   7.823152e-25   0.000000e+00   0.000000e+00
     1096000   1.095999e-05   2.202953e-01   2.072597e+00   1.671626e+01   1.287897e+05  -2.039238e+04   6.880384e+04   8.260513e+09   9.982538e+10   1.412582e+10   1.474334e+05   7.925408e-25   0.000000e+00   0.000000e+00
     1104000   1.103999e-05   2.306184e-01   2.071286e+00   1.672181e+01   1.292072e+05  -1.236204e+04   6.992343e+04   2.158926e+09   1.008794e+11   1.384700e+10   1.474334e+05   8.033977e-25   0.000000e+00   0.000000e+00
     1112000   1.111999e-05   2.409553e-01   2.070621e+00   1.672745e+01   1.291322e+05  -4.260455e+03   7.101655e+04  -4.050975e+09   1.016040e+11   1.346300e+10   1.474334e+05   8.148585e-25   0.000000e+00   0.000000e+00
     1120000   1.119999e-05   2.512662e-01   2.070605e+00   1.673318e+01   1.285566e+05   3.885456e+03   7.207455e+04  -1.035218e+10   1.019855e+11   1.296833e+10   1.474335e+05   8.268909e-25   0.000000e+00   0.000000e+00
     1128000   1.127999e-05   2.615108e-01   2.071243e+00   1.673898e+01   1.274738e+05   1.204772e+04   7.308840e+04  -1.672610e+10   1.020105e+11   1.235838e+10   1.474335e+05   8.394578e-25   0.000000e+00   0.000000e+00
     1136000   1.135999e-05   2.716484e-01   2.072533e+00   1.674487e+01   1.258789e+05   2.019728e+04   7.404872e+04  -2.315254e+10   1.016659e+11   1.162952e+10   1.474335e+05   8.525175e-25   0.000000e+00   0.000000e+00
     1144000   1.143999e-05   2.816377e-01   2.074473e+00   1.675083e+01   1.237685e+05   2.830407e+04   7.494588e+04  -2.960959e+10   1.009392e+11   1.077921e+10   1.474335e+05   8.660240e-25   0.000000e+00   0.000000e+00
     1152000   1.151999e-05   2.914376e-01   2.077059e+00   1.675686e+01   1.211411e+05   3.633703e+04   7.577011e+04  -3.607363e+10   9.981822e+10   9.806193e+09   1.474336e+05   8.799275e-25   0.000000e+00   0.000000e+00
     1160000   1.159999e-05   3.010065e-01   2.080284e+00   1.676295e+01   1.179963e+05   4.426468e+04   7.651258e+04  -4.261782e+10   9.835184e+10   8.826644e+09   1.474336e+05   8.958925e-25   0.000000e+00   0.000000e+00
     1168000   1.167999e-05   3.103030e-01   2.084138e+00   1.676910e+01   1.143306e+05   5.205744e+04   7.717005e+04  -4.901420e+10   9.639788e+10   7.589899e+09   1.474336e+05   9.102428e-25   0.000000e+00   0.000000e+00
     1176000   1.175999e-05   3.192859e-01   2.088609e+00   1.677529e+01   1.101561e+05   5.967708e+04   7.772373e+04  -5.533311e+10   9.402268e+10   6.232294e+09   1.474337e+05   9.248278e-25   0.000000e+00   0.000000e+00
     1184000   1.183999e-05   3.279146e-01   2.093681e+00   1.678153e+01   1.054801e+05   6.708964e+04   7.816410e+04  -6.154441e+10   9.121981e+10   4.758294e+09   1.474337e+05   9.395866e-25   0.000000e+00   0.000000e+00
     1192000   1.191999e-05   3.361496e-01   2.099337e+00   1.678780e+01   1.003126e+05   7.426070e+04   7.848210e+04  -6.761654e+10   8.798476e+10   3.174023e+09   1.474337e+05   9.544560e-25   0.000000e+00   0.000000e+00
     1200000   1.199999e-05   3.439518e-01   2.105555e+00   1.679408e+01   9.466520e+04   8.115687e+04   7.866880e+04  -7.352607e+10   8.433088e+10   1.480324e+09   1.474338e+05   9.696819e-25   0.000000e+00   0.000000e+00
     1208000   1.207999e-05   3.512836e-01   2.112313e+00   1.680038e+01   8.855362e+04   8.774224e+04   7.871648e+04  -7.929800e+10   8.030263e+10  -3.008198e+08   1.474338e+05   9.864740e-25   0.000000e+00   0.000000e+00
     1216000   1.215999e-05   3.581082e-01   2.119585e+00   1.680667e+01   8.198871e+04   9.398873e+04   7.861748e+04  -8.478119e+10   7.578806e+10  -2.187725e+09   1.474338e+05   1.001941e-24   0.000000e+00   0.000000e+00
     1224000   1.223999e-05   3.643904e-01   2.127342e+00   1.681295e+01   7.499593e+04   9.985681e+04   7.836439e+04  -8.998878e+10   7.084347e+10  -4.150845e+09   1.474339e+05   1.017241e-24   0.000000e+00   0.000000e+00
     1232000   1.231999e-05   3.700968e-01   2.135551e+00   1.681921e+01   6.759877e+04   1.053124e+05   7.795170e+04  -9.488459e+10   6.547733e+10  -6.175094e+09   1.474339e+05   1.032305e-24   0.000000e+00   0.000000e+00
     1240000   1.239999e-05   3.751961e-01   2.144180e+00   1.682542e+01   5.982363e+04   1.103222e+05   7.737517e+04  -9.943244e+10   5.970163e+10  -8.243863e+09   1.474340e+05   1.047064e-24   0.000000e+00   0.000000e+00
     1248000   1.247999e-05   3.796593e-01   2.153190e+00   1.683158e+01   5.169977e+04   1.148541e+05   7.663195e+04  -1.035965e+11   5.353199e+10  -1.033919e+10   1.474340e+05   1.061452e-24   0.000000e+00   0.000000e+00
     1256000   1.255999e-05   3.834596e-01   2.162543e+00   1.683768e+01   4.325931e+04   1.188773e+05   7.572067e+04  -1.073419e+11   4.698788e+10  -1.244198e+10   1.474340e+05   1.075405e-24   0.000000e+00   0.000000e+00
     1264000   1.263999e-05   3.865733e-01   2.172196e+00   1.684369e+01   3.453710e+04   1.223627e+05   7.464154e+04  -1.106348e+11   4.009272e+10  -1.453224e+10   1.474341e+05   1.088860e-24   0.000000e+00   0.000000e+00
     1272000   1.271999e-05   3.889791e-01   2.182106e+00   1.684962e+01   2.557063e+04   1.252834e+05   7.339638e+04  -1.134431e+11   3.287387e+10  -1.658933e+10   1.474341e+05   1.101761e-24   0.000000e+00   0.000000e+00
     1280000   1.279999e-05   3.906591e-01   2.192226e+00   1.685543e+01   1.639990e+04   1.276147e+05   7.198867e+04  -1.157369e+11   2.536270e+10  -1.859230e+10   1.474341e+05   1.114056e-24   0.000000e+00   0.000000e+00
     1288000   1.287999e-05   3.915987e-01   2.202508e+00   1.686113e+01   7.068285e+03   1.293347e+05   7.042304e+04  -1.174302e+11   1.760717e+10  -2.054786e+10   1.474342e+05   1.124754e-24   0.000000e+00   0.000000e+00
     1296000   1.295999e-05   3.917870e-01   2.212902e+00   1.686670e+01  -2.377175e+03   1.304253e+05   6.870546e+04  -1.186102e+11   9.625219e+09  -2.237351e+10   1.474342e+05   1.135560e-24   0.000000e+00   0.000000e+00
     1304000   1.303999e-05   3.912165e-01   2.223359e+00   1.687212e+01  -1.189373e+04   1.308700e+05   6.684639e+04  -1.192046e+11   1.468343e+09  -2.408210e+10   1.474343e+05   1.145648e-24   0.000000e+00   0.000000e+00
     1312000   1.311999e-05   3.898834e-01   2.233824e+00   1.687739e+01  -2.143384e+04   1.306567e+05   6.485593e+04  -1.191966e+11  -6.818033e+09  -2.565488e+10   1.474343e+05   1.154994e-24   0.000000e+00   0.000000e+00
     1320000   1.319999e-05   3.877877e-01   2.244246e+00   1.688249e+01  -3.094878e+04   1.297769e+05   6.274568e+04  -1.185735e+11  -1.518568e+10  -2.707446e+10   1.474343e+05   1.163578e-24   0.000000e+00   0.000000e+00
     1328000   1.327999e-05   3.849336e-01   2.254570e+00   1.688743e+01  -4.038897e+04   1.282261e+05   6.052851e+04  -1.173271e+11  -2.358401e+10  -2.832521e+10   1.474344e+05   1.171390e-24   0.000000e+00   0.000000e+00
     1336000   1.335999e-05   3.813288e-01   2.264744e+00   1.689218e+01  -4.970437e+04   1.260039e+05   5.821850e+04  -1.154537e+11  -3.196054e+10  -2.939351e+10   1.474344e+05   1.178426e-24   0.000000e+00   0.000000e+00
     1344000   1.343999e-05   3.769855e-01   2.274713e+00   1.689674e+01  -5.884485e+04   1.231143e+05   5.583071e+04  -1.129547e+11  -4.026147e+10  -3.026799e+10   1.474345e+05   1.184692e-24   0.000000e+00   0.000000e+00
     1352000   1.351999e-05   3.719196e-01   2.284425e+00   1.690111e+01  -6.776191e+04   1.195680e+05   5.337371e+04  -1.099033e+11  -4.831418e+10  -3.129393e+10   1.474345e+05   1.192159e-24   0.000000e+00   0.000000e+00
     1360000   1.359999e-05   3.661508e-01   2.293827e+00   1.690528e+01  -7.640964e+04   1.153808e+05   5.085052e+04  -1.061897e+11  -5.632903e+10  -3.174931e+10   1.474345e+05   1.197189e-24   0.000000e+00   0.000000e+00
     1368000   1.367999e-05   3.597027e-01   2.302869e+00   1.690924e+01  -8.473530e+04   1.105630e+05   4.829814e+04  -1.018415e+11  -6.405193e+10  -3.204346e+10   1.474346e+05   1.200589e-24   0.000000e+00   0.000000e+00
     1376000   1.375999e-05   3.526030e-01   2.311501e+00   1.691300e+01  -9.269128e+04   1.051371e+05   4.573287e+04  -9.696492e+10  -7.154314e+10  -3.205159e+10   1.474346e+05   1.204215e-24   0.000000e+00   0.000000e+00
     1384000   1.383999e-05   3.448831e-01   2.319675e+00   1.691656e+01  -1.002350e+05   9.912509e+04   4.317569e+04  -9.154034e+10  -7.869436e+10  -3.184215e+10   1.474347e+05   1.207193e-24   0.000000e+00   0.000000e+00
     1392000   1.391999e-05   3.365775e-01   2.327346e+00   1.691991e+01  -1.073239e+05   9.255629e+04   4.064378e+04  -8.559785e+10  -8.545583e+10  -3.142081e+10   1.474347e+05   1.209564e-24   0.000000e+00   0.000000e+00
     1400000   1.399999e-05   3.277244e-01   2.334470e+00   1.692306e+01  -1.139177e+05   8.546374e+04   3.815379e+04  -7.917176e+10  -9.178071e+10  -3.079605e+10   1.474348e+05   1.211369e-24   0.000000e+00   0.000000e+00
     1408000   1.407999e-05   3.183649e-01   2.341007e+00   1.692602e+01  -1.199794e+05   7.788412e+04   3.572155e+04  -7.230021e+10  -9.762558e+10  -2.997900e+10   1.474348e+05   1.212652e-24   0.000000e+00   0.000000e+00
     1416000   1.415999e-05   3.085428e-01   2.346920e+00   1.692878e+01  -1.254749e+05   6.985745e+04   3.336193e+04  -6.502479e+10  -1.029509e+11  -2.898313e+10   1.474348e+05   1.213452e-24   0.000000e+00   0.000000e+00
     1424000   1.423999e-05   2.983048e-01   2.352174e+00   1.693136e+01  -1.303737e+05   6.142533e+04   3.109129e+04  -5.738978e+10  -1.078272e+11  -2.761675e+10   1.474349e+05   1.214680e-24   0.000000e+00   0.000000e+00
     1432000   1.431999e-05   2.876997e-01   2.356738e+00   1.693376e+01  -1.346481e+05   5.262839e+04   2.893435e+04  -4.942365e+10  -1.119950e+11  -2.628465e+10   1.474349e+05   1.214175e-24   0.000000e+00   0.000000e+00
     1440000   1.439999e-05   2.767784e-01   2.360586e+00   1.693599e+01  -1.382745e+05   4.352252e+04   2.688903e+04  -4.119839e+10  -1.155467e+11  -2.482969e+10   1.474350e+05   1.213279e-24   0.000000e+00   0.000000e+00
     1448000   1.447999e-05   2.655936e-01   2.363695e+00   1.693807e+01  -1.412342e+05   3.415784e+04   2.496436e+04  -3.276514e+10  -1.184627e+11  -2.327205e+10   1.474350e+05   1.212017e-24   0.000000e+00   0.000000e+00
     1456000   1.455999e-05   2.541991e-01   2.366046e+00   1.693999e+01  -1.435127e+05   2.458580e+04   2.316771e+04  -2.417585e+10  -1.207287e+11  -2.163242e+10   1.474351e+05   1.210413e-24   0.000000e+00   0.000000e+00
     1464000   1.463999e-05   2.426500e-01   2.367624e+00   1.694178e+01  -1.450995e+05   1.485881e+04   2.150482e+04  -1.548276e+10  -1.223355e+11  -1.993158e+10   1.474351e+05   1.208485e-24   0.000000e+00   0.000000e+00
     1472000   1.471999e-05   2.310018e-01   2.368420e+00   1.694343e+01  -1.459885e+05   5.029800e+03   1.997976e+04  -6.737917e+09  -1.232793e+11  -1.819003e+10   1.474351e+05   1.206248e-24   0.000000e+00   0.000000e+00
     1480000   1.479999e-05   2.193105e-01   2.368428e+00   1.694498e+01  -1.461775e+05  -4.848221e+03   1.859499e+04   2.007330e+09  -1.235613e+11  -1.642759e+10   1.474352e+05   1.203712e-24   0.000000e+00   0.000000e+00
     1488000   1.487999e-05   2.076320e-01   2.367645e+00   1.694641e+01  -1.456685e+05  -1.472253e+04   1.735142e+04   1.070276e+10  -1.231878e+11  -1.466308e+10   1.474352e+05   1.200885e-24   0.000000e+00   0.000000e+00
     1496000   1.495999e-05   1.960220e-01   2.366074e+00   1.694776e+01  -1.444664e+05  -2.454456e+04   1.625408e+04   1.934536e+10  -1.222889e+11  -1.271174e+10   1.474353e+05   1.199771e-24   0.000000e+00   0.000000e+00
     1504000   1.503999e-05   1.845357e-01   2.363720e+00   1.694902e+01  -1.425794e+05  -3.426406e+04   1.530583e+04   2.779883e+10  -1.205954e+11  -1.100209e+10   1.474353e+05   1.195642e-24   0.000000e+00   0.000000e+00
     1512000   1.511999e-05   1.732271e-01   2.360596e+00   1.695021e+01  -1.400237e+05  -4.382353e+04   1.449243e+04   3.605401e+10  -1.182918e+11  -9.342452e+09   1.474354e+05   1.191232e-24   0.000000e+00   0.000000e+00
     1520000   1.519999e-05   1.621492e-01   2.356714e+00   1.695134e+01  -1.368170e+05  -5.317509e+04   1.380940e+04   4.406911e+10  -1.154020e+11  -7.744792e+09   1.474354e+05   1.186551e-24   0.000000e+00   0.000000e+00
     1528000   1.527999e-05   1.513532e-01   2.352094e+00   1.695242e+01  -1.329801e+05  -6.227290e+04   1.325136e+04   5.180522e+10  -1.119528e+11  -6.218924e+09   1.474354e+05   1.181609e-24   0.000000e+00   0.000000e+00
     1536000   1.535999e-05   1.408886e-01   2.346759e+00   1.695346e+01  -1.285365e+05  -7.107337e+04   1.281226e+04   5.922644e+10  -1.079738e+11  -4.772476e+09   1.474355e+05   1.176421e-24   0.000000e+00   0.000000e+00
     1544000   1.543999e-05   1.308028e-01   2.340732e+00   1.695447e+01  -1.235130e+05  -7.953538e+04   1.248551e+04   6.630006e+10  -1.034968e+11  -3.410883e+09   1.474355e+05   1.171003e-24   0.000000e+00   0.000000e+00
     1552000   1.551999e-05   1.211412e-01   2.334043e+00   1.695546e+01  -1.179385e+05  -8.762043e+04   1.226418e+04   7.299655e+10  -9.855544e+10  -2.137428e+09   1.474356e+05   1.165375e-24   0.000000e+00   0.000000e+00
     1560000   1.559999e-05   1.119465e-01   2.326724e+00   1.695644e+01  -1.118443e+05  -9.529274e+04   1.214115e+04   7.928964e+10  -9.318460e+10  -9.533299e+08   1.474356e+05   1.159557e-24   0.000000e+00   0.000000e+00
     1568000   1.567999e-05   1.032591e-01   2.318808e+00   1.695741e+01  -1.052635e+05  -1.025194e+05   1.210930e+04   8.515626e+10  -8.742025e+10   1.421322e+08   1.474356e+05   1.153577e-24   0.000000e+00   0.000000e+00
     1576000   1.575999e-05   9.511648e-02   2.310333e+00   1.695838e+01  -9.822935e+04  -1.092722e+05   1.215977e+04   9.060555e+10  -8.132724e+10   1.107379e+09   1.474357e+05   1.148219e-24   0.000000e+00   0.000000e+00
     1584000   1.583999e-05   8.755345e-02   2.301338e+00   1.695936e+01  -9.078051e+04  -1.155217e+05   1.228514e+04   9.553574e+10  -7.486208e+10   2.013417e+09   1.474357e+05   1.141307e-24   0.000000e+00   0.000000e+00
     1592000   1.591999e-05   8.060171e-02   2.291864e+00   1.696035e+01  -8.295344e+04  -1.212447e+05   1.247972e+04   1.000241e+11  -6.814379e+10   2.837889e+09   1.474358e+05   1.135188e-24   0.000000e+00   0.000000e+00
     1600000   1.599999e-05   7.428985e-02   2.281953e+00   1.696135e+01  -7.479029e+04  -1.264179e+05   1.273735e+04   1.039716e+11  -6.115004e+10   3.591890e+09   1.474358e+05   1.127897e-24   0.000000e+00   0.000000e+00
     1608000   1.607999e-05   6.864315e-02   2.271652e+00   1.696239e+01  -6.633125e+04  -1.310233e+05   1.305278e+04   1.074204e+11  -5.395646e+10   4.284050e+09   1.474358e+05   1.120654e-24   0.000000e+00   0.000000e+00
     1616000   1.615999e-05   6.368367e-02   2.261005e+00   1.696344e+01  -5.761641e+04  -1.350465e+05   1.342138e+04   1.103664e+11  -4.659869e+10   4.922690e+09   1.474359e+05   1.113500e-24   0.000000e+00   0.000000e+00
     1624000   1.623999e-05   5.943027e-02   2.250060e+00   1.696453e+01  -4.868606e+04  -1.384756e+05   1.383922e+04   1.128078e+11  -3.911134e+10   5.516506e+09   1.474359e+05   1.106476e-24   0.000000e+00   0.000000e+00
     1632000   1.631999e-05   5.589857e-02   2.238865e+00   1.696566e+01  -3.958059e+04  -1.413017e+05   1.430307e+04   1.147449e+11  -3.152781e+10   6.074335e+09   1.474360e+05   1.099628e-24   0.000000e+00   0.000000e+00
     1640000   1.639999e-05   5.310098e-02   2.227468e+00   1.696682e+01  -3.034025e+04  -1.435183e+05   1.481039e+04   1.161800e+11  -2.388023e+10   6.604907e+09   1.474360e+05   1.092996e-24   0.000000e+00   0.000000e+00
     1648000   1.647999e-05   5.104666e-02   2.215919e+00   1.696803e+01  -2.100507e+04  -1.451215e+05   1.535935e+04   1.171169e+11  -1.619939e+10   7.116633e+09   1.474360e+05   1.086626e-24   0.000000e+00   0.000000e+00
     1656000   1.655999e-05   4.974164e-02   2.204265e+00   1.696928e+01  -1.161469e+04  -1.461100e+05   1.594876e+04   1.175610e+11  -8.514718e+09   7.617387e+09   1.474361e+05   1.080561e-24   0.000000e+00   0.000000e+00
     1664000   1.663999e-05   4.918879e-02   2.192557e+00   1.697058e+01  -2.206610e+03  -1.464849e+05   1.657419e+04   1.175468e+11  -8.621693e+08   8.038038e+09   1.474361e+05   1.075256e-24   0.000000e+00   0.000000e+00
     1672000   1.671999e-05   4.938796e-02   2.180844e+00   1.697194e+01   7.178889e+03  -1.462490e+05   1.723709e+04   1.170119e+11   6.748778e+09   8.535329e+09   1.474361e+05   1.069648e-24   0.000000e+00   0.000000e+00
     1680000   1.679999e-05   5.033577e-02   2.169174e+00   1.697334e+01   1.650281e+04  -1.454072e+05   1.794002e+04   1.160090e+11   1.428061e+10   9.039353e+09   1.474362e+05   1.064500e-24   0.000000e+00   0.000000e+00
     1688000   1.687999e-05   5.202578e-02   2.157595e+00   1.697481e+01   2.572809e+04  -1.439667e+05   1.868368e+04   1.145478e+11   2.170963e+10   9.554100e+09   1.474362e+05   1.059858e-24   0.000000e+00   0.000000e+00
     1696000   1.695999e-05   5.444866e-02   2.146155e+00   1.697633e+01   3.481850e+04  -1.419369e+05   1.946905e+04   1.126389e+11   2.901342e+10   1.008232e+10   1.474363e+05   1.055766e-24   0.000000e+00   0.000000e+00
     1704000   1.703999e-05   5.759220e-02   2.134900e+00   1.697792e+01   4.373865e+04  -1.393284e+05   2.029726e+04   1.102932e+11   3.617070e+10   1.062543e+10   1.474363e+05   1.052270e-24   0.000000e+00   0.000000e+00
     1712000   1.711999e-05   6.144139e-02   2.123877e+00   1.697958e+01   5.245404e+04  -1.361539e+05   2.116952e+04   1.075219e+11   4.316124e+10   1.118350e+10   1.474363e+05   1.049414e-24   0.000000e+00   0.000000e+00
     1720000   1.719999e-05   6.597849e-02   2.113130e+00   1.698131e+01   6.093108e+04  -1.324275e+05   2.208699e+04   1.043366e+11   4.996577e+10   1.175515e+10   1.474364e+05   1.047243e-24   0.000000e+00   0.000000e+00
     1728000   1.727999e-05   7.118313e-02   2.102703e+00   1.698312e+01   6.913713e+04  -1.281648e+05   2.305064e+04   1.007489e+11   5.656581e+10   1.233762e+10   1.474364e+05   1.045800e-24   0.000000e+00   0.000000e+00
     1736000   1.735999e-05   7.703236e-02   2.092638e+00   1.698500e+01   7.704065e+04  -1.233836e+05   2.405672e+04   9.677432e+10   6.292951e+10   1.284665e+10   1.474364e+05   1.044884e-24   0.000000e+00   0.000000e+00
     1744000   1.743999e-05   8.350075e-02   2.082975e+00   1.698697e+01   8.461086e+04  -1.181022e+05   2.510762e+04   9.241967e+10   6.906437e+10   1.342539e+10   1.474365e+05   1.044970e-24   0.000000e+00   0.000000e+00
     1752000   1.751999e-05   9.056042e-02   2.073754e+00   1.698902e+01   9.181802e+04  -1.123401e+05   2.620463e+04   8.770001e+10   7.494319e+10   1.399821e+10   1.474365e+05   1.045915e-24   0.000000e+00   0.000000e+00
     1760000   1.759999e-05   9.818118e-02   2.065013e+00   1.699116e+01   9.863341e+04  -1.061185e+05   2.734697e+04   8.262758e+10   8.054960e+10   1.455720e+10   1.474365e+05   1.047754e-24   0.000000e+00   0.000000e+00
     1768000   1.767999e-05   1.063304e-01   2.056787e+00   1.699340e+01   1.050226e+05  -9.945647e+04   2.856938e+04   7.710022e+10   8.591716e+10   1.567719e+10   1.474366e+05   1.051202e-24   0.000000e+00   0.000000e+00
     1776000   1.775999e-05   1.149728e-01   2.049111e+00   1.699573e+01   1.109625e+05  -9.238095e+04   2.984361e+04   7.134448e+10   9.091762e+10   1.617196e+10   1.474366e+05   1.054735e-24   0.000000e+00   0.000000e+00
     1784000   1.783999e-05   1.240718e-01   2.042016e+00   1.699817e+01   1.164293e+05  -8.491825e+04   3.115569e+04   6.527528e+10   9.559404e+10   1.662167e+10   1.474367e+05   1.059211e-24   0.000000e+00   0.000000e+00
     1792000   1.791999e-05   1.335883e-01   2.035534e+00   1.700072e+01   1.213981e+05  -7.709363e+04   3.250604e+04   5.888885e+10   9.999137e+10   1.722256e+10   1.474367e+05   1.065982e-24   0.000000e+00   0.000000e+00
     1800000   1.799999e-05   1.434815e-01   2.029690e+00   1.700338e+01   1.258444e+05  -6.893196e+04   3.389938e+04   5.222115e+10   1.039891e+11   1.759830e+10   1.474367e+05   1.072775e-24   0.000000e+00   0.000000e+00
     1808000   1.807999e-05   1.537088e-01   2.024513e+00   1.700614e+01   1.297462e+05  -6.046526e+04   3.531957e+04   4.528197e+10   1.076146e+11   1.789143e+10   1.474368e+05   1.080596e-24   0.000000e+00   0.000000e+00
     1816000   1.815999e-05   1.642258e-01   2.020023e+00   1.700903e+01   1.330826e+05  -5.172399e+04   3.675944e+04   3.808797e+10   1.108503e+11   1.808827e+10   1.474368e+05   1.089444e-24   0.000000e+00   0.000000e+00
     1824000   1.823999e-05   1.749865e-01   2.016243e+00   1.701203e+01   1.358339e+05  -4.274005e+04   3.821076e+04   3.065714e+10   1.136785e+11   1.817518e+10   1.474368e+05   1.099306e-24   0.000000e+00   0.000000e+00
     1832000   1.831999e-05   1.859432e-01   2.013191e+00   1.701514e+01   1.379819e+05  -3.354676e+04   3.966418e+04   2.300894e+10   1.160808e+11   1.813879e+10   1.474369e+05   1.110163e-24   0.000000e+00   0.000000e+00
     1840000   1.839999e-05   1.970470e-01   2.010880e+00   1.701837e+01   1.395100e+05  -2.417896e+04   4.110933e+04   1.516457e+10   1.180385e+11   1.796631e+10   1.474369e+05   1.121988e-24   0.000000e+00   0.000000e+00
     1848000   1.847999e-05   2.082478e-01   2.009326e+00   1.702172e+01   1.404018e+05  -1.467320e+04   4.254050e+04   7.116646e+09   1.195163e+11   1.773940e+10   1.474370e+05   1.134663e-24   0.000000e+00   0.000000e+00
     1856000   1.855999e-05   2.194940e-01   2.008535e+00   1.702518e+01   1.406454e+05  -5.069499e+03   4.394131e+04  -1.046348e+09   1.204940e+11   1.725384e+10   1.474370e+05   1.147685e-24   0.000000e+00   0.000000e+00
     1864000   1.863999e-05   2.307335e-01   2.008516e+00   1.702875e+01   1.402313e+05   4.592465e+03   4.529664e+04  -9.322931e+09   1.209699e+11   1.660092e+10   1.474370e+05   1.161523e-24   0.000000e+00   0.000000e+00
     1872000   1.871999e-05   2.419133e-01   2.009271e+00   1.703242e+01   1.391514e+05   1.427184e+04   4.659278e+04  -1.768281e+10   1.209265e+11   1.577273e+10   1.474371e+05   1.176119e-24   0.000000e+00   0.000000e+00
     1880000   1.879999e-05   2.529799e-01   2.010799e+00   1.703620e+01   1.374006e+05   2.392640e+04   4.781544e+04  -2.609319e+10   1.203467e+11   1.476323e+10   1.474371e+05   1.191413e-24   0.000000e+00   0.000000e+00
     1888000   1.887999e-05   2.638794e-01   2.013097e+00   1.704007e+01   1.349760e+05   3.351257e+04   4.894994e+04  -3.451872e+10   1.192143e+11   1.356849e+10   1.474372e+05   1.207336e-24   0.000000e+00   0.000000e+00
     1896000   1.895999e-05   2.745581e-01   2.016158e+00   1.704403e+01   1.318781e+05   4.298555e+04   4.998140e+04  -4.292141e+10   1.175146e+11   1.218696e+10   1.474372e+05   1.223815e-24   0.000000e+00   0.000000e+00
     1904000   1.903999e-05   2.849620e-01   2.019970e+00   1.704807e+01   1.281102e+05   5.229941e+04   5.089488e+04  -5.126065e+10   1.152343e+11   1.061967e+10   1.474373e+05   1.240773e-24   0.000000e+00   0.000000e+00
     1912000   1.911999e-05   2.950380e-01   2.024520e+00   1.705217e+01   1.236792e+05   6.140723e+04   5.167567e+04  -5.949327e+10   1.123623e+11   8.870390e+09   1.474373e+05   1.258126e-24   0.000000e+00   0.000000e+00
     1920000   1.919999e-05   3.047332e-01   2.029789e+00   1.705633e+01   1.185929e+05   7.026267e+04   5.231306e+04  -6.763076e+10   1.089174e+11   7.031916e+09   1.474373e+05   1.276945e-24   0.000000e+00   0.000000e+00
     1928000   1.927999e-05   3.139958e-01   2.035754e+00   1.706054e+01   1.128663e+05   7.881600e+04   5.279214e+04  -7.549324e+10   1.048160e+11   4.918063e+09   1.474374e+05   1.294252e-24   0.000000e+00   0.000000e+00
     1936000   1.935999e-05   3.227753e-01   2.042390e+00   1.706477e+01   1.065207e+05   8.701712e+04   5.309576e+04  -8.310026e+10   1.001121e+11   2.648112e+09   1.474374e+05   1.311702e-24   0.000000e+00   0.000000e+00
     1944000   1.943999e-05   3.310232e-01   2.049666e+00   1.706903e+01   9.957839e+04   9.481789e+04   5.321206e+04  -9.040113e+10   9.480842e+10   2.374691e+08   1.474375e+05   1.329205e-24   0.000000e+00   0.000000e+00
     1952000   1.951999e-05   3.386927e-01   2.057549e+00   1.707328e+01   9.206599e+04   1.021706e+05   5.313047e+04  -9.734405e+10   8.891216e+10  -2.295460e+09   1.474375e+05   1.346668e-24   0.000000e+00   0.000000e+00
     1960000   1.959999e-05   3.457394e-01   2.066000e+00   1.707752e+01   8.401422e+04   1.090283e+05   5.284206e+04  -1.038767e+11   8.243523e+10  -4.929392e+09   1.474376e+05   1.363997e-24   0.000000e+00   0.000000e+00
     1968000   1.967999e-05   3.521215e-01   2.074979e+00   1.708173e+01   7.545800e+04   1.153451e+05   5.233968e+04  -1.099465e+11   7.539476e+10  -7.640372e+09   1.474376e+05   1.381097e-24   0.000000e+00   0.000000e+00
     1976000   1.975999e-05   3.578002e-01   2.084440e+00   1.708589e+01   6.643644e+04   1.210769e+05   5.161822e+04  -1.155019e+11   6.781348e+10  -1.040204e+10   1.474377e+05   1.397872e-24   0.000000e+00   0.000000e+00
     1984000   1.983999e-05   3.627401e-01   2.094335e+00   1.708998e+01   5.699272e+04   1.261815e+05   5.067473e+04  -1.204921e+11   5.971994e+10  -1.318599e+10   1.474377e+05   1.414227e-24   0.000000e+00   0.000000e+00
     1992000   1.991999e-05   3.669091e-01   2.104611e+00   1.709399e+01   4.717621e+04   1.306193e+05   4.950663e+04  -1.248023e+11   5.114803e+10  -1.601877e+10   1.474378e+05   1.428916e-24   0.000000e+00   0.000000e+00
     2000000   1.999999e-05   3.702797e-01   2.115215e+00   1.709790e+01   3.703960e+04   1.343536e+05   4.811529e+04  -1.284992e+11   4.214352e+10  -1.875476e+10   1.474378e+05   1.443752e-24   0.000000e+00   0.000000e+00
     2008000   2.007999e-05   3.728283e-01   2.126088e+00   1.710168e+01   2.663303e+04   1.373550e+05   4.649949e+04  -1.315554e+11   3.284231e+10  -2.165936e+10   1.474379e+05   1.460384e-24   0.000000e+00   0.000000e+00
     2016000   2.015999e-05   3.745353e-01   2.137171e+00   1.710533e+01   1.601234e+04   1.395954e+05   4.466177e+04  -1.338353e+11   2.311554e+10  -2.426270e+10   1.474379e+05   1.474352e-24   0.000000e+00   0.000000e+00
     2024000   2.023999e-05   3.753862e-01   2.148402e+00   1.710882e+01   5.239964e+03   1.410459e+05   4.262113e+04  -1.353428e+11   1.310586e+10  -2.672721e+10   1.474380e+05   1.487433e-24   0.000000e+00   0.000000e+00
     2032000   2.031999e-05   3.753713e-01   2.159717e+00   1.711215e+01  -5.621174e+03   1.416864e+05   4.038995e+04  -1.360503e+11   2.876714e+09  -2.902109e+10   1.474380e+05   1.499551e-24   0.000000e+00   0.000000e+00
     2040000   2.039999e-05   3.744862e-01   2.171050e+00   1.711528e+01  -1.650620e+04   1.415020e+05   3.798308e+04  -1.359370e+11  -7.503666e+09  -3.111447e+10   1.474381e+05   1.510635e-24   0.000000e+00   0.000000e+00
     2048000   2.047999e-05   3.727315e-01   2.182335e+00   1.711822e+01  -2.734881e+04   1.404836e+05   3.541769e+04  -1.349885e+11  -1.796296e+10  -3.298008e+10   1.474381e+05   1.520626e-24   0.000000e+00   0.000000e+00
     2056000   2.055999e-05   3.701133e-01   2.193505e+00   1.712095e+01  -3.808189e+04   1.386277e+05   3.271298e+04  -1.331981e+11  -2.842558e+10  -3.459379e+10   1.474382e+05   1.529475e-24   0.000000e+00   0.000000e+00
     2064000   2.063999e-05   3.666431e-01   2.204493e+00   1.712345e+01  -4.863565e+04   1.359388e+05   2.988719e+04  -1.304938e+11  -3.876745e+10  -3.601706e+10   1.474382e+05   1.535849e-24   0.000000e+00   0.000000e+00
     2072000   2.071999e-05   3.623382e-01   2.215234e+00   1.712572e+01  -5.894218e+04   1.324270e+05   2.696208e+04  -1.270327e+11  -4.899409e+10  -3.706098e+10   1.474383e+05   1.542238e-24   0.000000e+00   0.000000e+00
     2080000   2.079999e-05   3.572206e-01   2.225660e+00   1.712776e+01  -6.893914e+04   1.281059e+05   2.396547e+04  -1.227583e+11  -5.898780e+10  -3.780308e+10   1.474383e+05   1.547429e-24   0.000000e+00   0.000000e+00
     2088000   2.087999e-05   3.513179e-01   2.235710e+00   1.712956e+01  -7.856242e+04   1.229972e+05   2.092181e+04  -1.176950e+11  -6.867008e+10  -3.823666e+10   1.474384e+05   1.551420e-24   0.000000e+00   0.000000e+00
     2096000   2.095999e-05   3.446623e-01   2.245320e+00   1.713111e+01  -8.775011e+04   1.171289e+05   1.785588e+04  -1.118748e+11  -7.796429e+10  -3.835999e+10   1.474385e+05   1.554221e-24   0.000000e+00   0.000000e+00
     2104000   2.103999e-05   3.372910e-01   2.254431e+00   1.713241e+01  -9.644318e+04   1.105351e+05   1.479241e+04  -1.053367e+11  -8.679675e+10  -3.817631e+10   1.474385e+05   1.555852e-24   0.000000e+00   0.000000e+00
     2112000   2.111999e-05   3.292460e-01   2.262987e+00   1.713348e+01  -1.045860e+05   1.032555e+05   1.175565e+04  -9.812674e+10  -9.509774e+10  -3.769369e+10   1.474386e+05   1.556343e-24   0.000000e+00   0.000000e+00
     2120000   2.119999e-05   3.205733e-01   2.270935e+00   1.713430e+01  -1.121268e+05   9.533531e+04   8.769060e+03  -9.029686e+10  -1.028025e+11  -3.692482e+10   1.474386e+05   1.555729e-24   0.000000e+00   0.000000e+00
     2128000   2.127999e-05   3.113231e-01   2.278225e+00   1.713488e+01  -1.190184e+05   8.682455e+04   5.854876e+03  -8.190462e+10  -1.098519e+11  -3.588666e+10   1.474387e+05   1.554054e-24   0.000000e+00   0.000000e+00
     2136000   2.135999e-05   3.015488e-01   2.284812e+00   1.713524e+01  -1.252182e+05   7.777781e+04   3.033836e+03  -7.301227e+10  -1.161937e+11  -3.459998e+10   1.474387e+05   1.551364e-24   0.000000e+00   0.000000e+00
     2144000   2.143999e-05   2.913075e-01   2.290656e+00   1.713537e+01  -1.306928e+05   6.824555e+04   3.480446e+02  -6.373852e+10  -1.218918e+11  -3.273736e+10   1.474388e+05   1.548501e-24   0.000000e+00   0.000000e+00
     2152000   2.151999e-05   2.806583e-01   2.295720e+00   1.713530e+01  -1.354057e+05   5.829793e+04  -2.203067e+03  -5.403064e+10  -1.266628e+11  -3.101095e+10   1.474388e+05   1.543274e-24   0.000000e+00   0.000000e+00
     2160000   2.159999e-05   2.696636e-01   2.299975e+00   1.713502e+01  -1.393300e+05   4.800150e+04  -4.609334e+03  -4.403455e+10  -1.306076e+11  -2.912127e+10   1.474389e+05   1.537156e-24   0.000000e+00   0.000000e+00
     2168000   2.167999e-05   2.583872e-01   2.303393e+00   1.713456e+01  -1.424439e+05   3.742804e+04  -6.863917e+03  -3.381052e+10  -1.336510e+11  -2.715509e+10   1.474389e+05   1.529234e-24   0.000000e+00   0.000000e+00
     2176000   2.175999e-05   2.468945e-01   2.305957e+00   1.713393e+01  -1.447357e+05   2.664014e+04  -8.951392e+03  -2.346847e+10  -1.359030e+11  -2.501779e+10   1.474390e+05   1.521732e-24   0.000000e+00   0.000000e+00
     2184000   2.183999e-05   2.352516e-01   2.307652e+00   1.713313e+01  -1.461969e+05   1.570652e+04  -1.086487e+04  -1.305616e+10  -1.372936e+11  -2.281025e+10   1.474391e+05   1.513526e-24   0.000000e+00   0.000000e+00
     2192000   2.191999e-05   2.235252e-01   2.308468e+00   1.713219e+01  -1.468247e+05   4.696028e+03  -1.259994e+04  -2.644946e+09  -1.378263e+11  -2.056258e+10   1.474391e+05   1.504665e-24   0.000000e+00   0.000000e+00
     2200000   2.199999e-05   2.117818e-01   2.308403e+00   1.713112e+01  -1.466219e+05  -6.323091e+03  -1.415455e+04   7.695872e+09  -1.375118e+11  -1.830341e+10   1.474392e+05   1.495203e-24   0.000000e+00   0.000000e+00
     2208000   2.207999e-05   2.000876e-01   2.307458e+00   1.712993e+01  -1.455969e+05  -1.728372e+04  -1.552887e+04   1.789966e+10  -1.363677e+11  -1.605943e+10   1.474392e+05   1.485190e-24   0.000000e+00   0.000000e+00
     2216000   2.215999e-05   1.885078e-01   2.305641e+00   1.712864e+01  -1.437645e+05  -2.811947e+04  -1.671507e+04   2.788023e+10  -1.343837e+11  -1.373485e+10   1.474393e+05   1.473611e-24   0.000000e+00   0.000000e+00
     2224000   2.223999e-05   1.771064e-01   2.302964e+00   1.712726e+01  -1.411431e+05  -3.876445e+04  -1.772823e+04   3.760414e+10  -1.316152e+11  -1.160652e+10   1.474393e+05   1.461715e-24   0.000000e+00   0.000000e+00
     2232000   2.231999e-05   1.659454e-01   2.299445e+00   1.712581e+01  -1.377561e+05  -4.915926e+04  -1.857420e+04   4.703566e+10  -1.281998e+11  -9.552468e+09   1.474394e+05   1.451448e-24   0.000000e+00   0.000000e+00
     2240000   2.239999e-05   1.550851e-01   2.295107e+00   1.712430e+01  -1.336294e+05  -5.925057e+04  -1.925992e+04   5.606321e+10  -1.239710e+11  -7.607687e+09   1.474394e+05   1.438358e-24   0.000000e+00   0.000000e+00
     2248000   2.247999e-05   1.445835e-01   2.289975e+00   1.712273e+01  -1.287972e+05  -6.897721e+04  -1.979425e+04   6.466431e+10  -1.190911e+11  -5.769330e+09   1.474395e+05   1.425011e-24   0.000000e+00   0.000000e+00
     2256000   2.255999e-05   1.344954e-01   2.284081e+00   1.712113e+01  -1.232954e+05  -7.828899e+04  -2.018605e+04   7.279842e+10  -1.136077e+11  -4.045327e+09   1.474395e+05   1.411477e-24   0.000000e+00   0.000000e+00
     2264000   2.263999e-05   1.248730e-01   2.277461e+00   1.711951e+01  -1.171628e+05  -8.713964e+04  -2.044466e+04   8.043006e+10  -1.075710e+11  -2.440341e+09   1.474396e+05   1.397828e-24   0.000000e+00   0.000000e+00
     2272000   2.271999e-05   1.157651e-01   2.270153e+00   1.711787e+01  -1.104408e+05  -9.548691e+04  -2.057970e+04   8.752881e+10  -1.010322e+11  -9.559376e+08   1.474396e+05   1.384138e-24   0.000000e+00   0.000000e+00
     2280000   2.279999e-05   1.072171e-01   2.262198e+00   1.711622e+01  -1.031730e+05  -1.032927e+05  -2.060078e+04   9.406921e+10  -9.404352e+10   4.091914e+08   1.474397e+05   1.370479e-24   0.000000e+00   0.000000e+00
     2288000   2.287999e-05   9.927075e-02   2.253641e+00   1.711457e+01  -9.540470e+04  -1.105235e+05  -2.051746e+04   1.000807e+11  -8.669594e+10   1.637252e+09   1.474397e+05   1.358215e-24   0.000000e+00   0.000000e+00
     2296000   2.295999e-05   9.196449e-02   2.244530e+00   1.711294e+01  -8.718058e+04  -1.171507e+05  -2.034054e+04   1.054206e+11  -7.893345e+10   2.768238e+09   1.474398e+05   1.344013e-24   0.000000e+00   0.000000e+00
     2304000   2.303999e-05   8.533260e-02   2.234914e+00   1.711132e+01  -7.855365e+04  -1.231451e+05  -2.007717e+04   1.101493e+11  -7.088464e+10   3.800266e+09   1.474398e+05   1.330094e-24   0.000000e+00   0.000000e+00
     2312000   2.311999e-05   7.940534e-02   2.224844e+00   1.710973e+01  -6.957312e+04  -1.284859e+05  -1.973487e+04   1.142604e+11  -6.260009e+10   4.743252e+09   1.474399e+05   1.316521e-24   0.000000e+00   0.000000e+00
     2320000   2.319999e-05   7.420901e-02   2.214374e+00   1.710816e+01  -6.028850e+04  -1.331561e+05  -1.932032e+04   1.177513e+11  -5.412871e+10   5.608205e+09   1.474399e+05   1.303356e-24   0.000000e+00   0.000000e+00
     2328000   2.327999e-05   6.976597e-02   2.203557e+00   1.710664e+01  -5.074940e+04  -1.371427e+05  -1.883932e+04   1.206227e+11  -4.551755e+10   6.406828e+09   1.474399e+05   1.290655e-24   0.000000e+00   0.000000e+00
     2336000   2.335999e-05   6.609471e-02   2.192450e+00   1.710515e+01  -4.100037e+04  -1.404373e+05  -1.829949e+04   1.229645e+11  -3.682533e+10   7.098357e+09   1.474400e+05   1.280122e-24   0.000000e+00   0.000000e+00
     2344000   2.343999e-05   6.321007e-02   2.181106e+00   1.710371e+01  -3.109382e+04  -1.430326e+05  -1.770339e+04   1.245980e+11  -2.805264e+10   7.797921e+09   1.474400e+05   1.268169e-24   0.000000e+00   0.000000e+00
     2352000   2.351999e-05   6.112254e-02   2.169583e+00   1.710232e+01  -2.108070e+04  -1.449255e+05  -1.705265e+04   1.256306e+11  -1.927140e+10   8.466260e+09   1.474401e+05   1.256837e-24   0.000000e+00   0.000000e+00
     2360000   2.359999e-05   5.983873e-02   2.157937e+00   1.710098e+01  -1.100864e+04  -1.461167e+05  -1.634933e+04   1.260737e+11  -1.051947e+10   9.114106e+09   1.474401e+05   1.246162e-24   0.000000e+00   0.000000e+00
     2368000   2.367999e-05   5.936147e-02   2.146223e+00   1.709971e+01  -9.257092e+02  -1.466097e+05  -1.559950e+04   1.258662e+11  -1.805636e+09   9.490613e+09   1.474402e+05   1.234339e-24   0.000000e+00   0.000000e+00
     2376000   2.375999e-05   5.968961e-02   2.134498e+00   1.709849e+01   9.120140e+03  -1.464102e+05  -1.481566e+04   1.251877e+11   6.774483e+09   1.010538e+10   1.474402e+05   1.225380e-24   0.000000e+00   0.000000e+00
     2384000   2.383999e-05   6.081866e-02   2.122816e+00   1.709734e+01   1.908974e+04  -1.455290e+05  -1.398258e+04   1.239626e+11   1.522947e+10   1.072228e+10   1.474402e+05   1.217143e-24   0.000000e+00   0.000000e+00
     2392000   2.391999e-05   6.274078e-02   2.111231e+00   1.709625e+01   2.893998e+04  -1.439775e+05  -1.309989e+04   1.222068e+11   2.353056e+10   1.134630e+10   1.474403e+05   1.209654e-24   0.000000e+00   0.000000e+00
     2400000   2.399999e-05   6.544476e-02   2.099797e+00   1.709524e+01   3.862908e+04  -1.417689e+05  -1.216707e+04   1.199289e+11   3.165980e+10   1.185302e+10   1.474403e+05   1.202595e-24   0.000000e+00   0.000000e+00
     2408000   2.407999e-05   6.891603e-02   2.088565e+00   1.709431e+01   4.811570e+04  -1.389182e+05  -1.119327e+04   1.171558e+11   3.957030e+10   1.249362e+10   1.474404e+05   1.196522e-24   0.000000e+00   0.000000e+00
     2416000   2.415999e-05   7.313684e-02   2.077586e+00   1.709345e+01   5.736123e+04  -1.354436e+05  -1.016778e+04   1.139048e+11   4.725143e+10   1.314531e+10   1.474404e+05   1.191288e-24   0.000000e+00   0.000000e+00
     2424000   2.423999e-05   7.808639e-02   2.066910e+00   1.709268e+01   6.632815e+04  -1.313645e+05  -9.089766e+03   1.101935e+11   5.468203e+10   1.380632e+10   1.474405e+05   1.186915e-24   0.000000e+00   0.000000e+00
     2432000   2.431999e-05   8.374095e-02   2.056584e+00   1.709200e+01   7.498034e+04  -1.267017e+05  -7.958608e+03   1.060393e+11   6.184228e+10   1.447315e+10   1.474405e+05   1.183424e-24   0.000000e+00   0.000000e+00
     2440000   2.439999e-05   9.007393e-02   2.046653e+00   1.709141e+01   8.328304e+04  -1.214774e+05  -6.774037e+03   1.014595e+11   6.871353e+10   1.514061e+10   1.474405e+05   1.180835e-24   0.000000e+00   0.000000e+00
     2448000   2.447999e-05   9.705603e-02   2.037162e+00   1.709092e+01   9.120292e+04  -1.157156e+05  -5.536266e+03   9.647152e+10   7.527808e+10   1.580190e+10   1.474406e+05   1.179164e-24   0.000000e+00   0.000000e+00
     2456000   2.455999e-05   1.046553e-01   2.028152e+00   1.709053e+01   9.870785e+04  -1.094428e+05  -4.214410e+03   9.108515e+10   8.149098e+10   1.709906e+10   1.474406e+05   1.179662e-24   0.000000e+00   0.000000e+00
     2464000   2.463999e-05   1.128374e-01   2.019664e+00   1.709025e+01   1.057664e+05  -1.026852e+05  -2.822317e+03   8.531813e+10   8.739027e+10   1.769803e+10   1.474407e+05   1.179647e-24   0.000000e+00   0.000000e+00
     2472000   2.471999e-05   1.215653e-01   2.011735e+00   1.709008e+01   1.123492e+05  -9.546994e+04  -1.383691e+03   7.919435e+10   9.292978e+10   1.826052e+10   1.474407e+05   1.180551e-24   0.000000e+00   0.000000e+00
     2480000   2.479999e-05   1.307998e-01   2.004400e+00   1.709002e+01   1.184284e+05  -8.782642e+04   9.808569e+01   7.273191e+10   9.809363e+10   1.877477e+10   1.474407e+05   1.182384e-24   0.000000e+00   0.000000e+00
     2488000   2.487999e-05   1.404997e-01   1.997693e+00   1.709009e+01   1.239771e+05  -7.978623e+04   1.616197e+03   6.593226e+10   1.028357e+11   1.913910e+10   1.474408e+05   1.184225e-24   0.000000e+00   0.000000e+00
     2496000   2.495999e-05   1.506214e-01   1.991644e+00   1.709028e+01   1.289707e+05  -7.138179e+04   3.162467e+03   5.885849e+10   1.072059e+11   1.950414e+10   1.474408e+05   1.188043e-24   0.000000e+00   0.000000e+00
     2504000   2.503999e-05   1.611196e-01   1.986281e+00   1.709060e+01   1.333869e+05  -6.264447e+04   4.734530e+03   5.150249e+10   1.111552e+11   1.978165e+10   1.474409e+05   1.192805e-24   0.000000e+00   0.000000e+00
     2512000   2.511999e-05   1.719473e-01   1.981629e+00   1.709104e+01   1.372040e+05  -5.360856e+04   6.324832e+03   4.388427e+10   1.146677e+11   1.995783e+10   1.474409e+05   1.198501e-24   0.000000e+00   0.000000e+00
     2520000   2.519999e-05   1.830557e-01   1.977710e+00   1.709161e+01   1.404019e+05  -4.430968e+04   7.924713e+03   3.602487e+10   1.177271e+11   2.001885e+10   1.474410e+05   1.205114e-24   0.000000e+00   0.000000e+00
     2528000   2.527999e-05   1.943946e-01   1.974545e+00   1.709231e+01   1.429621e+05  -3.478473e+04   9.524415e+03   2.794666e+10   1.203165e+11   1.995115e+10   1.474410e+05   1.212623e-24   0.000000e+00   0.000000e+00
     2536000   2.535999e-05   2.059121e-01   1.972150e+00   1.709314e+01   1.448657e+05  -2.507502e+04   1.113682e+04   1.961552e+10   1.223389e+11   2.031023e+10   1.474410e+05   1.221063e-24   0.000000e+00   0.000000e+00
     2544000   2.543999e-05   2.175552e-01   1.970537e+00   1.709409e+01   1.460983e+05  -1.522155e+04   1.274652e+04   1.117441e+10   1.239119e+11   1.990569e+10   1.474411e+05   1.229675e-24   0.000000e+00   0.000000e+00
     2552000   2.551999e-05   2.292697e-01   1.969717e+00   1.709517e+01   1.466499e+05  -5.263020e+03   1.431732e+04   2.598026e+09   1.249630e+11   1.933617e+10   1.474411e+05   1.239057e-24   0.000000e+00   0.000000e+00
     2560000   2.559999e-05   2.410008e-01   1.969697e+00   1.709638e+01   1.465111e+05   4.758187e+03   1.583564e+04  -6.083460e+09   1.254762e+11   1.859202e+10   1.474412e+05   1.249171e-24   0.000000e+00   0.000000e+00
     2568000   2.567999e-05   2.526929e-01   1.970479e+00   1.709771e+01   1.456745e+05   1.479841e+04   1.728716e+04  -1.483766e+10   1.254359e+11   1.766517e+10   1.474412e+05   1.259972e-24   0.000000e+00   0.000000e+00
     2576000   2.575999e-05   2.642900e-01   1.972064e+00   1.709914e+01   1.441359e+05   2.481276e+04   1.865702e+04  -2.362981e+10   1.248271e+11   1.654954e+10   1.474413e+05   1.271411e-24   0.000000e+00   0.000000e+00
     2584000   2.583999e-05   2.757358e-01   1.974447e+00   1.710069e+01   1.418918e+05   3.475808e+04   1.993792e+04  -3.247968e+10   1.237211e+11   1.547104e+10   1.474413e+05   1.285908e-24   0.000000e+00   0.000000e+00
     2592000   2.591999e-05   2.869739e-01   1.977622e+00   1.710233e+01   1.389419e+05   4.458886e+04   2.111695e+04  -4.125748e+10   1.219484e+11   1.397072e+10   1.474413e+05   1.298890e-24   0.000000e+00   0.000000e+00
     2600000   2.599999e-05   2.979479e-01   1.981577e+00   1.710406e+01   1.352926e+05   5.425362e+04   2.216776e+04  -4.995672e+10   1.195687e+11   1.226603e+10   1.474414e+05   1.312371e-24   0.000000e+00   0.000000e+00
     2608000   2.607999e-05   3.086024e-01   1.986296e+00   1.710588e+01   1.309563e+05   6.369380e+04   2.307657e+04  -5.845026e+10   1.164121e+11   1.039455e+10   1.474414e+05   1.322709e-24   0.000000e+00   0.000000e+00
     2616000   2.615999e-05   3.188829e-01   1.991761e+00   1.710775e+01   1.259446e+05   7.286507e+04   2.382512e+04  -6.680765e+10   1.127669e+11   8.288269e+09   1.474415e+05   1.336037e-24   0.000000e+00   0.000000e+00
     2624000   2.623999e-05   3.287359e-01   1.997946e+00   1.710968e+01   1.202731e+05   8.171992e+04   2.439784e+04  -7.493760e+10   1.085016e+11   6.000812e+09   1.474415e+05   1.349665e-24   0.000000e+00   0.000000e+00
     2632000   2.631999e-05   3.381095e-01   2.004826e+00   1.711165e+01   1.139638e+05   9.020640e+04   2.478080e+04  -8.274884e+10   1.035702e+11   3.545183e+09   1.474416e+05   1.362251e-24   0.000000e+00   0.000000e+00
     2640000   2.639999e-05   3.469537e-01   2.012368e+00   1.711364e+01   1.070415e+05   9.827571e+04   2.496092e+04  -9.024804e+10   9.806228e+10   9.342218e+08   1.474416e+05   1.375813e-24   0.000000e+00   0.000000e+00
     2648000   2.647999e-05   3.552206e-01   2.020538e+00   1.711564e+01   9.953428e+04   1.058803e+05   2.492674e+04  -9.736177e+10   9.195378e+10  -1.808483e+09   1.474417e+05   1.389469e-24   0.000000e+00   0.000000e+00
     2656000   2.655999e-05   3.628645e-01   2.029295e+00   1.711762e+01   9.147518e+04   1.129726e+05   2.466864e+04  -1.040374e+11   8.525928e+10  -4.659382e+09   1.474417e+05   1.403146e-24   0.000000e+00   0.000000e+00
     2664000   2.663999e-05   3.698429e-01   2.038599e+00   1.711958e+01   8.290131e+04   1.195066e+05   2.417902e+04  -1.102227e+11   7.799865e+10  -7.592022e+09   1.474418e+05   1.416766e-24   0.000000e+00   0.000000e+00
     2672000   2.671999e-05   3.761161e-01   2.048400e+00   1.712149e+01   7.385395e+04   1.254379e+05   2.345248e+04  -1.158661e+11   7.019741e+10  -1.057736e+10   1.474418e+05   1.430248e-24   0.000000e+00   0.000000e+00
     2680000   2.679999e-05   3.816481e-01   2.058651e+00   1.712333e+01   6.437846e+04   1.307245e+05   2.248604e+04  -1.209178e+11   6.188696e+10  -1.358418e+10   1.474419e+05   1.443505e-24   0.000000e+00   0.000000e+00
     2688000   2.687999e-05   3.864065e-01   2.069298e+00   1.712508e+01   5.452410e+04   1.353271e+05   2.127929e+04  -1.253304e+11   5.310477e+10  -1.657954e+10   1.474419e+05   1.456448e-24   0.000000e+00   0.000000e+00
     2696000   2.695999e-05   3.903632e-01   2.080285e+00   1.712672e+01   4.434378e+04   1.392098e+05   1.983450e+04  -1.290596e+11   4.389444e+10  -1.952931e+10   1.474420e+05   1.468980e-24   0.000000e+00   0.000000e+00
     2704000   2.703999e-05   3.934943e-01   2.091552e+00   1.712825e+01   3.389383e+04   1.423401e+05   1.815671e+04  -1.320649e+11   3.430564e+10  -2.239880e+10   1.474420e+05   1.481006e-24   0.000000e+00   0.000000e+00
     2712000   2.711999e-05   3.957807e-01   2.103038e+00   1.712962e+01   2.323732e+04   1.446895e+05   1.625240e+04  -1.341317e+11   2.437550e+10  -2.521631e+10   1.474421e+05   1.488878e-24   0.000000e+00   0.000000e+00
     2720000   2.719999e-05   3.972087e-01   2.114681e+00   1.713084e+01   1.244415e+04   1.462350e+05   1.412980e+04  -1.355640e+11   1.422554e+10  -2.782055e+10   1.474421e+05   1.499150e-24   0.000000e+00   0.000000e+00
     2728000   2.727999e-05   3.977696e-01   2.126414e+00   1.713188e+01   1.568670e+03   1.469604e+05   1.180597e+04  -1.361865e+11   3.884445e+09  -3.024173e+10   1.474422e+05   1.508638e-24   0.000000e+00   0.000000e+00
     2736000   2.735999e-05   3.974592e-01   2.138172e+00   1.713272e+01  -9.323650e+03   1.468532e+05   9.296795e+03  -1.359828e+11  -6.577882e+09  -3.244955e+10   1.474422e+05   1.517248e-24   0.000000e+00   0.000000e+00
     2744000   2.743999e-05   3.962791e-01   2.149888e+00   1.713336e+01  -2.016627e+04   1.459066e+05   6.620451e+03  -1.349432e+11  -1.708800e+10  -3.441652e+10   1.474423e+05   1.524887e-24   0.000000e+00   0.000000e+00
     2752000   2.751999e-05   3.942358e-01   2.161495e+00   1.713378e+01  -3.089219e+04   1.441197e+05   3.797203e+03  -1.330657e+11  -2.756975e+10  -3.611849e+10   1.474423e+05   1.531470e-24   0.000000e+00   0.000000e+00
     2760000   2.759999e-05   3.913412e-01   2.172925e+00   1.713397e+01  -4.143456e+04   1.414981e+05   8.490865e+02  -1.303560e+11  -3.794521e+10  -3.753526e+10   1.474424e+05   1.536917e-24   0.000000e+00   0.000000e+00
     2768000   2.767999e-05   3.876129e-01   2.184112e+00   1.713391e+01  -5.172729e+04   1.380533e+05  -2.200417e+03  -1.268277e+11  -4.813575e+10  -3.865093e+10   1.474425e+05   1.541161e-24   0.000000e+00   0.000000e+00
     2776000   2.775999e-05   3.830733e-01   2.194992e+00   1.713361e+01  -6.170568e+04   1.338033e+05  -5.326739e+03  -1.225019e+11  -5.806304e+10  -3.945430e+10   1.474425e+05   1.544143e-24   0.000000e+00   0.000000e+00
     2784000   2.783999e-05   3.777501e-01   2.205500e+00   1.713306e+01  -7.130308e+04   1.287741e+05  -8.509039e+03  -1.173149e+11  -6.760226e+10  -4.004063e+10   1.474426e+05   1.544255e-24   0.000000e+00   0.000000e+00
     2792000   2.791999e-05   3.716765e-01   2.215576e+00   1.713225e+01  -8.046019e+04   1.229964e+05  -1.172049e+04  -1.114955e+11  -7.676506e+10  -4.019239e+10   1.474426e+05   1.544523e-24   0.000000e+00   0.000000e+00
     2800000   2.799999e-05   3.648896e-01   2.225160e+00   1.713118e+01  -8.912399e+04   1.165045e+05  -1.493136e+04  -1.049900e+11  -8.544373e+10  -4.002696e+10   1.474427e+05   1.543450e-24   0.000000e+00   0.000000e+00
     2808000   2.807999e-05   3.574312e-01   2.234199e+00   1.712986e+01  -9.724153e+04   1.093400e+05  -1.811658e+04  -9.784751e+10  -9.357246e+10  -3.955323e+10   1.474427e+05   1.541028e-24   0.000000e+00   0.000000e+00
     2816000   2.815999e-05   3.493469e-01   2.242638e+00   1.712829e+01  -1.047640e+05   1.015492e+05  -2.125200e+04  -9.012296e+10  -1.010909e+11  -3.878467e+10   1.474428e+05   1.537262e-24   0.000000e+00   0.000000e+00
     2824000   2.823999e-05   3.406860e-01   2.250431e+00   1.712646e+01  -1.116472e+05   9.318310e+04  -2.431473e+04  -8.187599e+10  -1.079449e+11  -3.773901e+10   1.474428e+05   1.532170e-24   0.000000e+00   0.000000e+00
     2832000   2.831999e-05   3.315014e-01   2.257534e+00   1.712440e+01  -1.178518e+05   8.429689e+04  -2.728341e+04  -7.317028e+10  -1.140872e+11  -3.643770e+10   1.474429e+05   1.525779e-24   0.000000e+00   0.000000e+00
     2840000   2.839999e-05   3.218487e-01   2.263906e+00   1.712210e+01  -1.233439e+05   7.494913e+04  -3.013858e+04  -6.407269e+10  -1.194781e+11  -3.490539e+10   1.474429e+05   1.518128e-24   0.000000e+00   0.000000e+00
     2848000   2.847999e-05   3.117862e-01   2.269515e+00   1.711958e+01  -1.280948e+05   6.520125e+04  -3.286283e+04  -5.465235e+10  -1.240854e+11  -3.316935e+10   1.474430e+05   1.509265e-24   0.000000e+00   0.000000e+00
     2856000   2.855999e-05   3.013740e-01   2.274330e+00   1.711685e+01  -1.320814e+05   5.511697e+04  -3.544100e+04  -4.497978e+10  -1.278852e+11  -3.125875e+10   1.474430e+05   1.499246e-24   0.000000e+00   0.000000e+00
     2864000   2.863999e-05   2.906738e-01   2.278326e+00   1.711391e+01  -1.352915e+05   4.475734e+04  -3.784797e+04  -3.518906e+10  -1.309101e+11  -2.902669e+10   1.474431e+05   1.488664e-24   0.000000e+00   0.000000e+00
     2872000   2.871999e-05   2.797485e-01   2.281485e+00   1.711080e+01  -1.377080e+05   3.419438e+04  -4.008418e+04  -2.521334e+10  -1.330242e+11  -2.686330e+10   1.474432e+05   1.475847e-24   0.000000e+00   0.000000e+00
     2880000   2.879999e-05   2.686619e-01   2.283794e+00   1.710750e+01  -1.393246e+05   2.349570e+04  -4.214398e+04  -1.520276e+10  -1.343039e+11  -2.462119e+10   1.474432e+05   1.462064e-24   0.000000e+00   0.000000e+00
     2888000   2.887999e-05   2.574779e-01   2.285243e+00   1.710406e+01  -1.401412e+05   1.272778e+04  -4.402226e+04  -5.225556e+09  -1.347576e+11  -2.233043e+10   1.474433e+05   1.447402e-24   0.000000e+00   0.000000e+00
     2896000   2.895999e-05   2.462605e-01   2.285830e+00   1.710047e+01  -1.401632e+05   1.956106e+03  -4.571629e+04   4.652712e+09  -1.344010e+11  -2.001970e+10   1.474433e+05   1.431951e-24   0.000000e+00   0.000000e+00
     2904000   2.903999e-05   2.350726e-01   2.285558e+00   1.709675e+01  -1.394050e+05  -8.751561e+03  -4.721448e+04   1.431781e+10  -1.332138e+11  -1.758629e+10   1.474434e+05   1.414454e-24   0.000000e+00   0.000000e+00
     2912000   2.911999e-05   2.239762e-01   2.284433e+00   1.709292e+01  -1.378773e+05  -1.933855e+04  -4.853263e+04   2.383129e+10  -1.313373e+11  -1.537322e+10   1.474434e+05   1.398466e-24   0.000000e+00   0.000000e+00
     2920000   2.919999e-05   2.130322e-01   2.282468e+00   1.708899e+01  -1.355990e+05  -2.974615e+04  -4.967530e+04   3.307575e+10  -1.287352e+11  -1.320259e+10   1.474435e+05   1.381990e-24   0.000000e+00   0.000000e+00
     2928000   2.927999e-05   2.022998e-01   2.279680e+00   1.708497e+01  -1.325936e+05  -3.991777e+04  -5.064664e+04   4.200105e+10  -1.254440e+11  -1.109260e+10   1.474435e+05   1.365127e-24   0.000000e+00   0.000000e+00
     2936000   2.935999e-05   1.918357e-01   2.276089e+00   1.708089e+01  -1.288951e+05  -4.979759e+04  -5.143788e+04   5.045262e+10  -1.214549e+11  -8.847740e+09   1.474435e+05   1.345894e-24   0.000000e+00   0.000000e+00
     2944000   2.943999e-05   1.816943e-01   2.271721e+00   1.707675e+01  -1.245304e+05  -5.933481e+04  -5.206898e+04   5.859253e+10  -1.168801e+11  -6.945815e+09   1.474436e+05   1.327866e-24   0.000000e+00   0.000000e+00
     2952000   2.951999e-05   1.719277e-01   2.266606e+00   1.707256e+01  -1.195321e+05  -6.848359e+04  -5.255182e+04   6.628544e+10  -1.117518e+11  -5.142432e+09   1.474436e+05   1.309770e-24   0.000000e+00   0.000000e+00
     2960000   2.959999e-05   1.625851e-01   2.260775e+00   1.706834e+01  -1.139374e+05  -7.720159e+04  -5.289455e+04   7.350116e+10  -1.061188e+11  -3.443736e+09   1.474437e+05   1.291708e-24   0.000000e+00   0.000000e+00
     2968000   2.967999e-05   1.537126e-01   2.254266e+00   1.706410e+01  -1.077853e+05  -8.545041e+04  -5.310569e+04   8.021437e+10  -1.000309e+11  -1.853143e+09   1.474437e+05   1.273774e-24   0.000000e+00   0.000000e+00
     2976000   2.975999e-05   1.453532e-01   2.247117e+00   1.705985e+01  -1.011169e+05  -9.319568e+04  -5.319394e+04   8.640454e+10  -9.353828e+10  -3.715115e+08   1.474438e+05   1.256063e-24   0.000000e+00   0.000000e+00
     2984000   2.983999e-05   1.375465e-01   2.239369e+00   1.705559e+01  -9.397487e+04  -1.004070e+05  -5.316798e+04   9.205569e+10  -8.669105e+10   1.002627e+09   1.474438e+05   1.238658e-24   0.000000e+00   0.000000e+00
     2992000   2.991999e-05   1.303287e-01   2.231067e+00   1.705135e+01  -8.640267e+04  -1.070580e+05  -5.303628e+04   9.715617e+10  -7.953865e+10   2.272811e+09   1.474439e+05   1.221639e-24   0.000000e+00   0.000000e+00
     3000000   2.999999e-05   1.237324e-01   2.222255e+00   1.704711e+01  -7.844473e+04  -1.131263e+05  -5.280695e+04   1.016984e+11  -7.212950e+10   3.444360e+09   1.474439e+05   1.205079e-24   0.000000e+00   0.000000e+00
     3008000   3.007999e-05   1.177867e-01   2.212982e+00   1.704290e+01  -7.014589e+04  -1.185931e+05  -5.248762e+04   1.056784e+11  -6.451064e+10   4.524071e+09   1.474439e+05   1.189040e-24   0.000000e+00   0.000000e+00
     3016000   3.015999e-05   1.125169e-01   2.203297e+00   1.703871e+01  -6.155115e+04  -1.234435e+05  -5.208533e+04   1.090959e+11  -5.672746e+10   5.519910e+09   1.474440e+05   1.173577e-24   0.000000e+00   0.000000e+00
     3024000   3.023999e-05   1.079451e-01   2.193248e+00   1.703457e+01  -5.270627e+04  -1.276655e+05  -5.160729e+04   1.119333e+11  -4.881022e+10   6.426362e+09   1.474440e+05   1.158271e-24   0.000000e+00   0.000000e+00
     3032000   3.031999e-05   1.040894e-01   2.182887e+00   1.703046e+01  -4.365637e+04  -1.312514e+05  -5.105834e+04   1.142219e+11  -4.082800e+10   7.287103e+09   1.474441e+05   1.143855e-24   0.000000e+00   0.000000e+00
     3040000   3.039999e-05   1.009644e-01   2.172265e+00   1.702640e+01  -3.444531e+04  -1.341969e+05  -5.044284e+04   1.159643e+11  -3.280813e+10   8.091840e+09   1.474441e+05   1.130137e-24   0.000000e+00   0.000000e+00
     3048000   3.047999e-05   9.858136e-02   2.161433e+00   1.702239e+01  -2.511463e+04  -1.364989e+05  -4.977032e+04   1.172011e+11  -2.475321e+10   8.743772e+09   1.474441e+05   1.117410e-24   0.000000e+00   0.000000e+00
     3056000   3.055999e-05   9.694808e-02   2.150442e+00   1.701844e+01  -1.570825e+04  -1.381592e+05  -4.904149e+04   1.178723e+11  -1.676497e+10   9.472067e+09   1.474442e+05   1.104970e-24   0.000000e+00   0.000000e+00
     3064000   3.063999e-05   9.606892e-02   2.139344e+00   1.701455e+01  -6.268595e+03  -1.391830e+05  -4.825545e+04   1.180357e+11  -8.845060e+09   1.017549e+10   1.474442e+05   1.093316e-24   0.000000e+00   0.000000e+00
     3072000   3.071999e-05   9.594493e-02   2.128190e+00   1.701072e+01   3.164336e+03  -1.395769e+05  -4.741387e+04   1.177069e+11  -1.022132e+09   1.086160e+10   1.474443e+05   1.082450e-24   0.000000e+00   0.000000e+00
     3080000   3.079999e-05   9.657400e-02   2.117029e+00   1.700696e+01   1.255181e+04  -1.393498e+05  -4.651787e+04   1.169022e+11   6.677583e+09   1.153699e+10   1.474443e+05   1.072371e-24   0.000000e+00   0.000000e+00
     3088000   3.087999e-05   9.795101e-02   2.105910e+00   1.700328e+01   2.185644e+04  -1.385124e+05  -4.556808e+04   1.156387e+11   1.423018e+10   1.220716e+10   1.474443e+05   1.063076e-24   0.000000e+00   0.000000e+00
     3096000   3.095999e-05   1.000679e-01   2.094883e+00   1.699967e+01   3.104474e+04  -1.370743e+05  -4.457259e+04   1.138627e+11   2.161795e+10   1.282040e+10   1.474444e+05   1.053208e-24   0.000000e+00   0.000000e+00
     3104000   3.103999e-05   1.029137e-01   2.083994e+00   1.699615e+01   4.007194e+04  -1.350553e+05  -4.352199e+04   1.117478e+11   2.882315e+10   1.344372e+10   1.474444e+05   1.045668e-24   0.000000e+00   0.000000e+00
     3112000   3.111999e-05   1.064745e-01   2.073289e+00   1.699271e+01   4.891344e+04  -1.324679e+05  -4.242170e+04   1.092231e+11   3.582587e+10   1.406275e+10   1.474444e+05   1.038841e-24   0.000000e+00   0.000000e+00
     3120000   3.119999e-05   1.107341e-01   2.062814e+00   1.698936e+01   5.753714e+04  -1.293289e+05  -4.127204e+04   1.063057e+11   4.260918e+10   1.467807e+10   1.474445e+05   1.032719e-24   0.000000e+00   0.000000e+00
     3128000   3.127999e-05   1.156738e-01   2.052611e+00   1.698611e+01   6.591230e+04  -1.256566e+05  -4.007332e+04   1.030126e+11   4.915764e+10   1.528896e+10   1.474445e+05   1.027291e-24   0.000000e+00   0.000000e+00
     3136000   3.135999e-05   1.212726e-01   2.042722e+00   1.698295e+01   7.400954e+04  -1.214703e+05  -3.882597e+04   9.936034e+10   5.545718e+10   1.589351e+10   1.474446e+05   1.022548e-24   0.000000e+00   0.000000e+00
     3144000   3.143999e-05   1.275072e-01   2.033189e+00   1.697990e+01   8.180078e+04  -1.167904e+05  -3.753061e+04   9.536546e+10   6.149491e+10   1.648852e+10   1.474446e+05   1.018480e-24   0.000000e+00   0.000000e+00
     3152000   3.151999e-05   1.343519e-01   2.024048e+00   1.697695e+01   8.925926e+04  -1.116383e+05  -3.618817e+04   9.104404e+10   6.725892e+10   1.706964e+10   1.474446e+05   1.015079e-24   0.000000e+00   0.000000e+00
     3160000   3.159999e-05   1.417791e-01   2.015338e+00   1.697411e+01   9.635950e+04  -1.060365e+05  -3.479997e+04   8.641185e+10   7.273816e+10   1.763139e+10   1.474447e+05   1.012334e-24   0.000000e+00   0.000000e+00
     3168000   3.167999e-05   1.497592e-01   2.007094e+00   1.697138e+01   1.030772e+05  -1.000081e+05  -3.336783e+04   8.148439e+10   7.792227e+10   1.816724e+10   1.474447e+05   1.010237e-24   0.000000e+00   0.000000e+00
     3176000   3.175999e-05   1.582606e-01   1.999348e+00   1.696877e+01   1.093895e+05  -9.357687e+04  -3.189457e+04   7.627521e+10   8.282269e+10   1.860149e+10   1.474447e+05   1.008834e-24   0.000000e+00   0.000000e+00
     3184000   3.183999e-05   1.672501e-01   1.992132e+00   1.696628e+01   1.152744e+05  -8.676596e+04  -3.038832e+04   7.080491e+10   8.739663e+10   1.904709e+10   1.474448e+05   1.008120e-24   0.000000e+00   0.000000e+00
     3192000   3.191999e-05   1.766926e-01   1.985475e+00   1.696391e+01   1.207115e+05  -7.960197e+04  -2.884838e+04   6.508384e+10   9.164805e+10   1.944213e+10   1.474448e+05   1.008041e-24   0.000000e+00   0.000000e+00
     3200000   3.199999e-05   1.865515e-01   1.979404e+00   1.696166e+01   1.256814e+05  -7.211107e+04  -2.727917e+04   5.912668e+10   9.556772e+10   1.977714e+10   1.474448e+05   1.008585e-24   0.000000e+00   0.000000e+00
     3208000   3.207999e-05   1.967887e-01   1.973945e+00   1.695954e+01   1.301658e+05  -6.432019e+04  -2.568590e+04   5.294818e+10   9.914632e+10   2.004221e+10   1.474449e+05   1.009740e-24   0.000000e+00   0.000000e+00
     3216000   3.215999e-05   2.073646e-01   1.969120e+00   1.695755e+01   1.341480e+05  -5.626474e+04  -2.405377e+04   4.657059e+10   1.022304e+11   2.058964e+10   1.474449e+05   1.010407e-24   0.000000e+00   0.000000e+00
     3224000   3.223999e-05   2.182385e-01   1.964949e+00   1.695570e+01   1.376118e+05  -4.796968e+04  -2.240357e+04   3.999383e+10   1.050843e+11   2.064987e+10   1.474449e+05   1.012331e-24   0.000000e+00   0.000000e+00
     3232000   3.231999e-05   2.293683e-01   1.961451e+00   1.695397e+01   1.405424e+05  -3.946116e+04  -2.075243e+04   3.324635e+10   1.075654e+11   2.061133e+10   1.474450e+05   1.014798e-24   0.000000e+00   0.000000e+00
     3240000   3.239999e-05   2.407108e-01   1.958640e+00   1.695237e+01   1.429270e+05  -3.076939e+04  -1.910865e+04   2.634545e+10   1.096642e+11   2.046438e+10   1.474450e+05   1.017791e-24   0.000000e+00   0.000000e+00
     3248000   3.247999e-05   2.522218e-01   1.956531e+00   1.695091e+01   1.447540e+05  -2.192534e+04  -1.748127e+04   1.930922e+10   1.113707e+11   2.019972e+10   1.474451e+05   1.021292e-24   0.000000e+00   0.000000e+00
     3256000   3.255999e-05   2.638563e-01   1.955135e+00   1.694958e+01   1.460133e+05  -1.296079e+04  -1.588006e+04   1.215678e+10   1.126750e+11   1.980863e+10   1.474451e+05   1.025283e-24   0.000000e+00   0.000000e+00
     3264000   3.263999e-05   2.755685e-01   1.954460e+00   1.694837e+01   1.466965e+05  -3.908324e+03  -1.431548e+04   4.908342e+09   1.135671e+11   1.928310e+10   1.474451e+05   1.029745e-24   0.000000e+00   0.000000e+00
     3272000   3.271999e-05   2.873122e-01   1.954511e+00   1.694729e+01   1.467966e+05   5.198687e+03  -1.279855e+04  -2.414568e+09   1.140369e+11   1.861605e+10   1.474452e+05   1.034657e-24   0.000000e+00   0.000000e+00
     3280000   3.279999e-05   2.990403e-01   1.955292e+00   1.694632e+01   1.463087e+05   1.432607e+04  -1.134085e+04  -9.789050e+09   1.140747e+11   1.780152e+10   1.474452e+05   1.039998e-24   0.000000e+00   0.000000e+00
     3288000   3.287999e-05   3.107059e-01   1.956803e+00   1.694547e+01   1.452321e+05   2.342909e+04  -9.940441e+03  -1.714899e+10   1.135262e+11   1.701118e+10   1.474452e+05   1.043556e-24   0.000000e+00   0.000000e+00
     3296000   3.295999e-05   3.222617e-01   1.959040e+00   1.694473e+01   1.435648e+05   3.247904e+04  -8.624498e+03  -2.453061e+10   1.126470e+11   1.586188e+10   1.474453e+05   1.049058e-24   0.000000e+00   0.000000e+00
     3304000   3.303999e-05   3.336605e-01   1.961997e+00   1.694409e+01   1.413080e+05   4.144040e+04  -7.406673e+03  -3.187914e+10   1.113103e+11   1.455811e+10   1.474453e+05   1.054906e-24   0.000000e+00   0.000000e+00
     3312000   3.311999e-05   3.448553e-01   1.965667e+00   1.694354e+01   1.384657e+05   5.027630e+04  -6.299329e+03  -3.916548e+10   1.095095e+11   1.310006e+10   1.474453e+05   1.061080e-24   0.000000e+00   0.000000e+00
     3320000   3.319999e-05   3.557996e-01   1.970037e+00   1.694308e+01   1.350439e+05   5.894939e+04  -5.314741e+03  -4.635901e+10   1.072396e+11   1.148976e+10   1.474454e+05   1.067557e-24   0.000000e+00   0.000000e+00
     3328000   3.327999e-05   3.664471e-01   1.975093e+00   1.694269e+01   1.310515e+05   6.742198e+04  -4.464939e+03  -5.342768e+10   1.044966e+11   9.731257e+09   1.474454e+05   1.074316e-24   0.000000e+00   0.000000e+00
     3336000   3.335999e-05   3.767529e-01   1.980818e+00   1.694236e+01   1.264997e+05   7.565614e+04  -3.761549e+03  -6.033806e+10   1.012785e+11   7.830666e+09   1.474455e+05   1.081334e-24   0.000000e+00   0.000000e+00
     3344000   3.343999e-05   3.866725e-01   1.987191e+00   1.694208e+01   1.214025e+05   8.361384e+04  -3.215623e+03  -6.705553e+10   9.758536e+10   5.796225e+09   1.474455e+05   1.088586e-24   0.000000e+00   0.000000e+00
     3352000   3.351999e-05   3.961632e-01   1.994188e+00   1.694184e+01   1.157768e+05   9.125715e+04  -2.837468e+03  -7.354443e+10   9.341957e+10   3.638320e+09   1.474455e+05   1.096046e-24   0.000000e+00   0.000000e+00
     3360000   3.359999e-05   4.051834e-01   2.001783e+00   1.694162e+01   1.096488e+05   9.854128e+04  -2.635499e+03  -7.962021e+10   8.863349e+10   1.385706e+09   1.474456e+05   1.099761e-24   0.000000e+00   0.000000e+00
     3368000   3.367999e-05   4.136942e-01   2.009944e+00   1.694141e+01   1.030427e+05   1.054303e+05  -2.619443e+03  -8.547875e+10   8.351947e+10  -9.985090e+08   1.474456e+05   1.106418e-24   0.000000e+00   0.000000e+00
     3376000   3.375999e-05   4.216581e-01   2.018640e+00   1.694120e+01   9.598137e+04   1.118927e+05  -2.797378e+03  -9.099256e+10   7.796803e+10  -3.461134e+09   1.474456e+05   1.113198e-24   0.000000e+00   0.000000e+00
     3384000   3.383999e-05   4.290399e-01   2.027835e+00   1.694096e+01   8.849394e+04   1.178939e+05  -3.174852e+03  -9.612636e+10   7.199479e+10  -5.983805e+09   1.474457e+05   1.120069e-24   0.000000e+00   0.000000e+00
     3392000   3.391999e-05   4.358066e-01   2.037490e+00   1.694068e+01   8.061216e+04   1.234010e+05  -3.755881e+03  -1.008456e+11   6.561881e+10  -8.546526e+09   1.474457e+05   1.126993e-24   0.000000e+00   0.000000e+00
     3400000   3.399999e-05   4.419282e-01   2.047565e+00   1.694035e+01   7.237054e+04   1.283827e+05  -4.542820e+03  -1.051169e+11   5.886277e+10  -1.112789e+10   1.474458e+05   1.133928e-24   0.000000e+00   0.000000e+00
     3408000   3.407999e-05   4.473773e-01   2.058016e+00   1.693995e+01   6.380621e+04   1.328096e+05  -5.536267e+03  -1.089084e+11   5.175306e+10  -1.370537e+10   1.474458e+05   1.140825e-24   0.000000e+00   0.000000e+00
     3416000   3.415999e-05   4.521296e-01   2.068799e+00   1.693946e+01   5.495876e+04   1.366545e+05  -6.734977e+03  -1.121902e+11   4.431980e+10  -1.625556e+10   1.474458e+05   1.147633e-24   0.000000e+00   0.000000e+00
     3424000   3.423999e-05   4.561643e-01   2.079865e+00   1.693887e+01   4.587007e+04   1.398929e+05  -8.135817e+03  -1.149349e+11   3.659684e+10  -1.875458e+10   1.474459e+05   1.154293e-24   0.000000e+00   0.000000e+00
     3432000   3.431999e-05   4.594636e-01   2.091165e+00   1.693815e+01   3.658412e+04   1.425032e+05  -9.733729e+03  -1.171181e+11   2.862159e+10  -2.117840e+10   1.474459e+05   1.160745e-24   0.000000e+00   0.000000e+00
     3440000   3.439999e-05   4.620137e-01   2.102648e+00   1.693731e+01   2.714867e+04   1.444662e+05  -1.152267e+04  -1.186088e+11   2.041184e+10  -2.355361e+10   1.474460e+05   1.165014e-24   0.000000e+00   0.000000e+00
     3448000   3.447999e-05   4.638048e-01   2.114262e+00   1.693631e+01   1.761668e+04   1.457664e+05  -1.349587e+04  -1.195898e+11   1.206974e+10  -2.575345e+10   1.474460e+05   1.170527e-24   0.000000e+00   0.000000e+00
     3456000   3.455999e-05   4.648309e-01   2.125953e+00   1.693514e+01   8.030582e+03   1.463942e+05  -1.563935e+04  -1.199600e+11   3.610903e+09  -2.780712e+10   1.474461e+05   1.175643e-24   0.000000e+00   0.000000e+00
     3464000   3.463999e-05   4.650896e-01   2.137667e+00   1.693380e+01  -1.560404e+03   1.463422e+05  -1.794057e+04  -1.197110e+11  -4.915676e+09  -2.969392e+10   1.474461e+05   1.180288e-24   0.000000e+00   0.000000e+00
     3472000   3.471999e-05   4.645825e-01   2.149349e+00   1.693227e+01  -1.110656e+04   1.456071e+05  -2.038543e+04  -1.188391e+11  -1.345910e+10  -3.139497e+10   1.474461e+05   1.184387e-24   0.000000e+00   0.000000e+00
     3480000   3.479999e-05   4.633151e-01   2.160946e+00   1.693053e+01  -2.055806e+04   1.441896e+05  -2.295838e+04  -1.173453e+11  -2.196705e+10  -3.289357e+10   1.474462e+05   1.187868e-24   0.000000e+00   0.000000e+00
     3488000   3.487999e-05   4.612970e-01   2.172402e+00   1.692859e+01  -2.986536e+04   1.420947e+05  -2.564264e+04  -1.152354e+11  -3.038636e+10  -3.417543e+10   1.474462e+05   1.190659e-24   0.000000e+00   0.000000e+00
     3496000   3.495999e-05   4.585418e-01   2.183663e+00   1.692643e+01  -3.897956e+04   1.393315e+05  -2.842037e+04  -1.125202e+11  -3.866357e+10  -3.522898e+10   1.474463e+05   1.192695e-24   0.000000e+00   0.000000e+00
     3504000   3.503999e-05   4.550667e-01   2.194677e+00   1.692404e+01  -4.785283e+04   1.359136e+05  -3.127296e+04  -1.092154e+11  -4.674561e+10  -3.604557e+10   1.474463e+05   1.193912e-24   0.000000e+00   0.000000e+00
     3512000   3.511999e-05   4.508930e-01   2.205392e+00   1.692142e+01  -5.643608e+04   1.318592e+05  -3.418381e+04  -1.052749e+11  -5.456616e+10  -3.668119e+10   1.474463e+05   1.193396e-24   0.000000e+00   0.000000e+00
     3520000   3.519999e-05   4.460458e-01   2.215758e+00   1.691857e+01  -6.468501e+04   1.271906e+05  -3.713264e+04  -1.008607e+11  -6.209473e+10  -3.699827e+10   1.474464e+05   1.192756e-24   0.000000e+00   0.000000e+00
     3528000   3.527999e-05   4.405534e-01   2.225727e+00   1.691548e+01  -7.256009e+04   1.219332e+05  -4.009699e+04  -9.593420e+10  -6.927755e+10  -3.706998e+10   1.474464e+05   1.191163e-24   0.000000e+00   0.000000e+00
     3536000   3.535999e-05   4.344472e-01   2.235253e+00   1.691216e+01  -8.002165e+04   1.161166e+05  -4.305739e+04  -9.052857e+10  -7.606945e+10  -3.690032e+10   1.474465e+05   1.188583e-24   0.000000e+00   0.000000e+00
     3544000   3.543999e-05   4.277619e-01   2.244292e+00   1.690859e+01  -8.703281e+04   1.097736e+05  -4.599479e+04  -8.468067e+10  -8.242860e+10  -3.649633e+10   1.474465e+05   1.184994e-24   0.000000e+00   0.000000e+00
     3552000   3.551999e-05   4.205349e-01   2.252803e+00   1.690480e+01  -9.355976e+04   1.029405e+05  -4.889081e+04  -7.843048e+10  -8.831698e+10  -3.586784e+10   1.474466e+05   1.180382e-24   0.000000e+00   0.000000e+00
     3560000   3.559999e-05   4.128061e-01   2.260750e+00   1.690077e+01  -9.957203e+04   9.565629e+04  -5.172798e+04  -7.182061e+10  -9.370075e+10  -3.502733e+10   1.474466e+05   1.174744e-24   0.000000e+00   0.000000e+00
     3568000   3.567999e-05   4.046179e-01   2.268098e+00   1.689652e+01  -1.050415e+05   8.796440e+04  -5.448908e+04  -6.487691e+10  -9.852857e+10  -3.399561e+10   1.474466e+05   1.167591e-24   0.000000e+00   0.000000e+00
     3576000   3.575999e-05   3.960144e-01   2.274815e+00   1.689206e+01  -1.099550e+05   7.990642e+04  -5.714345e+04  -5.794288e+10  -1.028244e+11  -3.229361e+10   1.474467e+05   1.159886e-24   0.000000e+00   0.000000e+00
     3584000   3.583999e-05   3.870404e-01   2.280874e+00   1.688738e+01  -1.142945e+05   7.152732e+04  -5.967533e+04  -5.051071e+10  -1.065552e+11  -3.097863e+10   1.474467e+05   1.151513e-24   0.000000e+00   0.000000e+00
     3592000   3.591999e-05   3.777433e-01   2.286252e+00   1.688251e+01  -1.180320e+05   6.287334e+04  -6.209627e+04  -4.290123e+10  -1.096942e+11  -2.952311e+10   1.474468e+05   1.142213e-24   0.000000e+00   0.000000e+00
     3600000   3.599999e-05   3.681717e-01   2.290928e+00   1.687745e+01  -1.211552e+05   5.399225e+04  -6.439578e+04  -3.516298e+10  -1.122321e+11  -2.794639e+10   1.474468e+05   1.132028e-24   0.000000e+00   0.000000e+00
     3608000   3.607999e-05   3.583751e-01   2.294886e+00   1.687221e+01  -1.236558e+05   4.493234e+04  -6.656497e+04  -2.734412e+10  -1.141642e+11  -2.626833e+10   1.474468e+05   1.121007e-24   0.000000e+00   0.000000e+00
     3616000   3.615999e-05   3.484035e-01   2.298113e+00   1.686680e+01  -1.255293e+05   3.574210e+04  -6.859653e+04  -1.949195e+10  -1.154912e+11  -2.450895e+10   1.474469e+05   1.109206e-24   0.000000e+00   0.000000e+00
     3624000   3.623999e-05   3.383072e-01   2.300602e+00   1.686124e+01  -1.267741e+05   2.647010e+04  -7.048579e+04  -1.162391e+10  -1.162028e+11  -2.273408e+10   1.474469e+05   1.096518e-24   0.000000e+00   0.000000e+00
     3632000   3.631999e-05   3.281364e-01   2.302348e+00   1.685553e+01  -1.273926e+05   1.716432e+04  -7.222965e+04  -3.850897e+09  -1.163444e+11  -2.085760e+10   1.474469e+05   1.083416e-24   0.000000e+00   0.000000e+00
     3640000   3.639999e-05   3.179408e-01   2.303349e+00   1.684969e+01  -1.273928e+05   7.870340e+03  -7.382239e+04   3.824410e+09  -1.159106e+11  -1.895897e+10   1.474470e+05   1.069741e-24   0.000000e+00   0.000000e+00
     3648000   3.647999e-05   3.077697e-01   2.303608e+00   1.684372e+01  -1.267842e+05  -1.366491e+03  -7.526295e+04   1.136241e+10  -1.149189e+11  -1.705588e+10   1.474470e+05   1.055566e-24   0.000000e+00   0.000000e+00
     3656000   3.655999e-05   2.976713e-01   2.303133e+00   1.683765e+01  -1.255808e+05  -1.050139e+04  -7.654950e+04   1.865165e+10  -1.133365e+11  -1.505212e+10   1.474471e+05   1.039551e-24   0.000000e+00   0.000000e+00
     3664000   3.663999e-05   2.876922e-01   2.301932e+00   1.683148e+01  -1.238009e+05  -1.948913e+04  -7.767985e+04   2.580618e+10  -1.112740e+11  -1.321228e+10   1.474471e+05   1.024276e-24   0.000000e+00   0.000000e+00
     3672000   3.671999e-05   2.778781e-01   2.300020e+00   1.682522e+01  -1.214582e+05  -2.829226e+04  -7.866448e+04   3.271608e+10  -1.087261e+11  -1.141124e+10   1.474471e+05   1.008746e-24   0.000000e+00   0.000000e+00
     3680000   3.679999e-05   2.682733e-01   2.297411e+00   1.681890e+01  -1.185732e+05  -3.687579e+04  -7.950623e+04   3.935953e+10  -1.057528e+11  -9.652032e+09   1.474472e+05   9.935672e-25   0.000000e+00   0.000000e+00
     3688000   3.687999e-05   2.589203e-01   2.294126e+00   1.681251e+01  -1.151686e+05  -4.520130e+04  -8.021037e+04   4.570177e+10  -1.023173e+11  -7.962311e+09   1.474472e+05   9.776800e-25   0.000000e+00   0.000000e+00
     3696000   3.695999e-05   2.498595e-01   2.290187e+00   1.680607e+01  -1.112694e+05  -5.323605e+04  -8.078197e+04   5.172271e+10  -9.848904e+10  -6.339449e+09   1.474472e+05   9.617715e-25   0.000000e+00   0.000000e+00
     3704000   3.703999e-05   2.411296e-01   2.285617e+00   1.679959e+01  -1.069025e+05  -6.094940e+04  -8.122641e+04   5.731497e+10  -9.420023e+10  -4.749514e+09   1.474473e+05   9.436238e-25   0.000000e+00   0.000000e+00
     3712000   3.711999e-05   2.327667e-01   2.280444e+00   1.679307e+01  -1.021009e+05  -6.830858e+04  -8.154786e+04   6.266428e+10  -8.972786e+10  -3.298880e+09   1.474473e+05   9.287150e-25   0.000000e+00   0.000000e+00
     3720000   3.719999e-05   2.248045e-01   2.274698e+00   1.678654e+01  -9.688583e+04  -7.529796e+04  -8.175616e+04   6.765007e+10  -8.496099e+10  -1.921104e+09   1.474473e+05   9.139822e-25   0.000000e+00   0.000000e+00
     3728000   3.727999e-05   2.172752e-01   2.268407e+00   1.678000e+01  -9.128680e+04  -8.189532e+04  -8.185721e+04   7.226213e+10  -7.993284e+10  -6.177750e+08   1.474474e+05   8.994859e-25   0.000000e+00   0.000000e+00
     3736000   3.735999e-05   2.102081e-01   2.261605e+00   1.677345e+01  -8.533402e+04  -8.808107e+04  -8.185698e+04   7.649296e+10  -7.467625e+10   6.108029e+08   1.474474e+05   8.852817e-25   0.000000e+00   0.000000e+00
     3744000   3.743999e-05   2.036303e-01   2.254326e+00   1.676690e+01  -7.905819e+04  -9.383824e+04  -8.176144e+04   8.033763e+10  -6.922348e+10   1.765492e+09   1.474474e+05   8.714199e-25   0.000000e+00   0.000000e+00
     3752000   3.751999e-05   1.975665e-01   2.246603e+00   1.676037e+01  -7.249367e+04  -9.914864e+04  -8.157798e+04   8.369056e+10  -6.349410e+10   2.797412e+09   1.474475e+05   8.554850e-25   0.000000e+00   0.000000e+00
     3760000   3.759999e-05   1.920382e-01   2.238474e+00   1.675385e+01  -6.567342e+04  -1.039992e+05  -8.131373e+04   8.675066e+10  -5.775213e+10   3.798328e+09   1.474475e+05   8.424695e-25   0.000000e+00   0.000000e+00
     3768000   3.767999e-05   1.870649e-01   2.229976e+00   1.674736e+01  -5.862386e+04  -1.083862e+05  -8.097187e+04   8.942366e+10  -5.190801e+10   4.738003e+09   1.474475e+05   8.299255e-25   0.000000e+00   0.000000e+00
     3776000   3.775999e-05   1.826637e-01   2.221145e+00   1.674090e+01  -5.137583e+04  -1.123025e+05  -8.055716e+04   9.171339e+10  -4.598950e+10   5.620581e+09   1.474475e+05   8.178791e-25   0.000000e+00   0.000000e+00
     3784000   3.783999e-05   1.788492e-01   2.212020e+00   1.673447e+01  -4.395978e+04  -1.157432e+05  -8.007397e+04   9.362532e+10  -4.002290e+10   6.450613e+09   1.474476e+05   8.063504e-25   0.000000e+00   0.000000e+00
     3792000   3.791999e-05   1.756338e-01   2.202639e+00   1.672809e+01  -3.640566e+04  -1.187055e+05  -7.952633e+04   9.516631e+10  -3.403299e+10   7.232915e+09   1.474476e+05   7.953539e-25   0.000000e+00   0.000000e+00
     3800000   3.799999e-05   1.730273e-01   2.193040e+00   1.672175e+01  -2.874046e+04  -1.211869e+05  -7.892099e+04   9.638278e+10  -2.801513e+10   7.917785e+09   1.474476e+05   7.852831e-25   0.000000e+00   0.000000e+00
     3808000   3.807999e-05   1.710374e-01   2.183262e+00   1.671546e+01  -2.099484e+04  -1.231889e+05  -7.825928e+04   9.719955e+10  -2.204175e+10   8.618923e+09   1.474477e+05   7.752669e-25   0.000000e+00   0.000000e+00
     3816000   3.815999e-05   1.696695e-01   2.173342e+00   1.670923e+01  -1.319770e+04  -1.247147e+05  -7.754285e+04   9.767226e+10  -1.611086e+10   9.286638e+09   1.474477e+05   7.658003e-25   0.000000e+00   0.000000e+00
     3824000   3.823999e-05   1.689264e-01   2.163320e+00   1.670306e+01  -5.376158e+03  -1.257682e+05  -7.677418e+04   9.781172e+10  -1.024081e+10   9.925475e+09   1.474477e+05   7.568804e-25   0.000000e+00   0.000000e+00
     3832000   3.831999e-05   1.688091e-01   2.153232e+00   1.669695e+01   2.437001e+03  -1.263508e+05  -7.596294e+04   9.747032e+10  -4.343030e+09   1.034958e+10   1.474477e+05   7.457191e-25   0.000000e+00   0.000000e+00
     3840000   3.839999e-05   1.693156e-01   2.143116e+00   1.669090e+01   1.021780e+04  -1.264701e+05  -7.511153e+04   9.699880e+10   1.343093e+09   1.093251e+10   1.474478e+05   7.382556e-25   0.000000e+00   0.000000e+00
     3848000   3.847999e-05   1.704426e-01   2.133009e+00   1.668493e+01   1.794883e+04  -1.261386e+05  -7.421421e+04   9.622828e+10   6.927402e+09   1.149750e+10   1.474478e+05   7.312818e-25   0.000000e+00   0.000000e+00
     3856000   3.855999e-05   1.721854e-01   2.122946e+00   1.667903e+01   2.560664e+04  -1.253648e+05  -7.327233e+04   9.517028e+10   1.239721e+10   1.204717e+10   1.474478e+05   7.247860e-25   0.000000e+00   0.000000e+00
     3864000   3.863999e-05   1.745371e-01   2.112962e+00   1.667321e+01   3.316870e+04  -1.241583e+05  -7.228701e+04   9.383632e+10   1.774109e+10   1.258362e+10   1.474478e+05   7.187549e-25   0.000000e+00   0.000000e+00
     3872000   3.871999e-05   1.774893e-01   2.103092e+00   1.666747e+01   4.061339e+04  -1.225298e+05  -7.125925e+04   9.223791e+10   2.294875e+10   1.310843e+10   1.474479e+05   7.131743e-25   0.000000e+00   0.000000e+00
     3880000   3.879999e-05   1.810316e-01   2.093368e+00   1.666181e+01   4.792082e+04  -1.204877e+05  -7.019392e+04   9.039997e+10   2.806077e+10   1.354778e+10   1.474479e+05   7.082783e-25   0.000000e+00   0.000000e+00
     3888000   3.887999e-05   1.851524e-01   2.083824e+00   1.665624e+01   5.507049e+04  -1.180453e+05  -6.909013e+04   8.830257e+10   3.297376e+10   1.404511e+10   1.474479e+05   7.035356e-25   0.000000e+00   0.000000e+00
     3896000   3.895999e-05   1.898382e-01   2.074491e+00   1.665075e+01   6.204306e+04  -1.152161e+05  -6.794699e+04   8.597440e+10   3.772610e+10   1.453146e+10   1.474479e+05   6.992086e-25   0.000000e+00   0.000000e+00
     3904000   3.903999e-05   1.950741e-01   2.065400e+00   1.664536e+01   6.882050e+04  -1.120135e+05  -6.676540e+04   8.342604e+10   4.231133e+10   1.500616e+10   1.474480e+05   6.952827e-25   0.000000e+00   0.000000e+00
     3912000   3.911999e-05   2.008438e-01   2.056579e+00   1.664007e+01   7.538586e+04  -1.084521e+05  -6.554412e+04   8.069027e+10   4.662160e+10   1.566286e+10   1.474480e+05   6.917568e-25   0.000000e+00   0.000000e+00
     3920000   3.919999e-05   2.071298e-01   2.048056e+00   1.663488e+01   8.172366e+04  -1.045513e+05  -6.427432e+04   7.772235e+10   5.086664e+10   1.607940e+10   1.474480e+05   6.884187e-25   0.000000e+00   0.000000e+00
     3928000   3.927999e-05   2.139130e-01   2.039859e+00   1.662979e+01   8.781631e+04  -1.003183e+05  -6.297190e+04   7.456342e+10   5.492664e+10   1.647799e+10   1.474480e+05   6.854317e-25   0.000000e+00   0.000000e+00
     3936000   3.935999e-05   2.211734e-01   2.032014e+00   1.662480e+01   9.364893e+04  -9.576804e+04  -6.163838e+04   7.122306e+10   5.879716e+10   1.685616e+10   1.474481e+05   6.827822e-25   0.000000e+00   0.000000e+00
     3944000   3.943999e-05   2.288896e-01   2.024544e+00   1.661993e+01   9.920737e+04  -9.091587e+04  -6.027553e+04   6.771049e+10   6.247414e+10   1.721099e+10   1.474481e+05   6.804574e-25   0.000000e+00   0.000000e+00
     3952000   3.951999e-05   2.370389e-01   2.017475e+00   1.661516e+01   1.044782e+05  -8.577741e+04  -5.888533e+04   6.403468e+10   6.595381e+10   1.753910e+10   1.474481e+05   6.784449e-25   0.000000e+00   0.000000e+00
     3960000   3.959999e-05   2.455981e-01   2.010827e+00   1.661051e+01   1.094488e+05  -8.036858e+04  -5.747008e+04   6.020435e+10   6.923260e+10   1.783673e+10   1.474481e+05   6.767331e-25   0.000000e+00   0.000000e+00
     3968000   3.967999e-05   2.545424e-01   2.004623e+00   1.660597e+01   1.141070e+05  -7.470561e+04  -5.603237e+04   5.622798e+10   7.230709e+10   1.809978e+10   1.474482e+05   6.753109e-25   0.000000e+00   0.000000e+00
     3976000   3.975999e-05   2.638466e-01   1.998881e+00   1.660154e+01   1.184419e+05  -6.880366e+04  -5.457595e+04   5.213739e+10   7.525565e+10   1.827362e+10   1.474482e+05   6.751671e-25   0.000000e+00   0.000000e+00
     3984000   3.983999e-05   2.734841e-01   1.993620e+00   1.659723e+01   1.224383e+05  -6.267400e+04  -5.312059e+04   4.778454e+10   7.794800e+10   1.817111e+10   1.474482e+05   6.731374e-25   0.000000e+00   0.000000e+00
     3992000   3.991999e-05   2.834275e-01   1.988858e+00   1.659304e+01   1.260871e+05  -5.633805e+04  -5.166270e+04   4.341631e+10   8.041436e+10   1.826779e+10   1.474482e+05   6.728057e-25   0.000000e+00   0.000000e+00
     4000000   3.999999e-05   2.936486e-01   1.984611e+00   1.658897e+01   1.293818e+05  -4.981348e+04  -5.019913e+04   3.893184e+10   8.266294e+10   1.831218e+10   1.474482e+05   6.727306e-25   0.000000e+00   0.000000e+00
     4008000   4.007999e-05   3.041189e-01   1.980893e+00   1.658501e+01   1.323152e+05  -4.312411e+04  -4.872355e+04   3.440037e+10   8.449040e+10   1.863644e+10   1.474483e+05   6.715800e-25   0.000000e+00   0.000000e+00
     4016000   4.015999e-05   3.148092e-01   1.977715e+00   1.658117e+01   1.348802e+05  -3.629131e+04  -4.723642e+04   2.970827e+10   8.629101e+10   1.853138e+10   1.474483e+05   6.717972e-25   0.000000e+00   0.000000e+00
     4024000   4.023999e-05   3.256896e-01   1.975090e+00   1.657745e+01   1.370661e+05  -2.932372e+04  -4.576025e+04   2.492727e+10   8.785944e+10   1.836161e+10   1.474483e+05   6.722364e-25   0.000000e+00   0.000000e+00
     4032000   4.031999e-05   3.367295e-01   1.973026e+00   1.657385e+01   1.388664e+05  -2.224009e+04  -4.430040e+04   2.006655e+10   8.919150e+10   1.812299e+10   1.474483e+05   6.728899e-25   0.000000e+00   0.000000e+00
     4040000   4.039999e-05   3.478978e-01   1.971534e+00   1.657036e+01   1.402749e+05  -1.505949e+04  -4.286252e+04   1.513563e+10   9.028288e+10   1.781155e+10   1.474484e+05   6.737503e-25   0.000000e+00   0.000000e+00
     4048000   4.047999e-05   3.591629e-01   1.970619e+00   1.656699e+01   1.412864e+05  -7.801352e+03  -4.145260e+04   1.014444e+10   9.112921e+10   1.742358e+10   1.474484e+05   6.748108e-25   0.000000e+00   0.000000e+00
     4056000   4.055999e-05   3.704929e-01   1.970287e+00   1.656373e+01   1.418966e+05  -4.854593e+02  -4.007688e+04   5.103343e+09   9.172607e+10   1.695567e+10   1.474484e+05   6.760649e-25   0.000000e+00   0.000000e+00
     4064000   4.063999e-05   3.818555e-01   1.970542e+00   1.656058e+01   1.421019e+05   6.868052e+03  -3.874191e+04   2.325920e+07   9.206899e+10   1.640478e+10   1.474484e+05   6.775064e-25   0.000000e+00   0.000000e+00
     4072000   4.071999e-05   3.932183e-01   1.971387e+00   1.655753e+01   1.418995e+05   1.423869e+04  -3.745441e+04  -5.084339e+09   9.215356e+10   1.576832e+10   1.474485e+05   6.791297e-25   0.000000e+00   0.000000e+00
     4080000   4.079999e-05   4.045486e-01   1.972820e+00   1.655458e+01   1.412900e+05   2.160111e+04  -3.621584e+04  -1.014040e+10   9.183364e+10   1.521113e+10   1.474485e+05   6.791961e-25   0.000000e+00   0.000000e+00
     4088000   4.087999e-05   4.158139e-01   1.974842e+00   1.655174e+01   1.402741e+05   2.893148e+04  -3.503157e+04  -1.525517e+10   9.138095e+10   1.438112e+10   1.474485e+05   6.809309e-25   0.000000e+00   0.000000e+00
     4096000   4.095999e-05   4.269815e-01   1.977448e+00   1.654898e+01   1.388495e+05   3.621483e+04  -3.391721e+04  -2.035601e+10   9.065759e+10   1.346337e+10   1.474485e+05   6.828224e-25   0.000000e+00   0.000000e+00
     4104000   4.103999e-05   4.380189e-01   1.980634e+00   1.654631e+01   1.370178e+05   4.342938e+04  -3.287978e+04  -2.542883e+10   8.966041e+10   1.245767e+10   1.474486e+05   6.848661e-25   0.000000e+00   0.000000e+00
     4112000   4.111999e-05   4.488936e-01   1.984394e+00   1.654371e+01   1.347820e+05   5.055311e+04  -3.192632e+04  -3.045886e+10   8.838668e+10   1.136454e+10   1.474486e+05   6.870580e-25   0.000000e+00   0.000000e+00
     4120000   4.119999e-05   4.595734e-01   1.988720e+00   1.654120e+01   1.321459e+05   5.756380e+04  -3.106377e+04  -3.543071e+10   8.683418e+10   1.018526e+10   1.474486e+05   6.893937e-25   0.000000e+00   0.000000e+00
     4128000   4.127999e-05   4.700264e-01   1.993601e+00   1.653874e+01   1.291150e+05   6.443909e+04  -3.029894e+04  -4.032836e+10   8.500133e+10   8.921895e+09   1.474486e+05   6.918692e-25   0.000000e+00   0.000000e+00
     4136000   4.135999e-05   4.802214e-01   1.999026e+00   1.653634e+01   1.256957e+05   7.115650e+04  -2.963844e+04  -4.513516e+10   8.288729e+10   7.577380e+09   1.474487e+05   6.944801e-25   0.000000e+00   0.000000e+00
     4144000   4.143999e-05   4.901277e-01   2.004981e+00   1.653400e+01   1.219002e+05   7.768708e+04  -2.908904e+04  -4.976537e+10   8.039047e+10   6.146720e+09   1.474487e+05   6.954176e-25   0.000000e+00   0.000000e+00
     4152000   4.151999e-05   4.997156e-01   2.011450e+00   1.653169e+01   1.177360e+05   8.401278e+04  -2.865688e+04  -5.431734e+10   7.770637e+10   4.645813e+09   1.474487e+05   6.979925e-25   0.000000e+00   0.000000e+00
     4160000   4.159999e-05   5.089560e-01   2.018417e+00   1.652941e+01   1.132166e+05   9.010906e+04  -2.834583e+04  -5.867123e+10   7.469276e+10   3.099107e+09   1.474487e+05   6.995954e-25   0.000000e+00   0.000000e+00
     4168000   4.167999e-05   5.178211e-01   2.025861e+00   1.652715e+01   1.083529e+05   9.595651e+04  -2.816268e+04  -6.289202e+10   7.144944e+10   1.470655e+09   1.474488e+05   7.020487e-25   0.000000e+00   0.000000e+00
     4176000   4.175999e-05   5.262837e-01   2.033763e+00   1.652490e+01   1.031588e+05   1.015339e+05  -2.811194e+04  -6.692830e+10   6.794214e+10  -2.099020e+08   1.474488e+05   7.046042e-25   0.000000e+00   0.000000e+00
     4184000   4.183999e-05   5.343181e-01   2.042099e+00   1.652265e+01   9.764971e+04   1.068204e+05  -2.819746e+04  -7.076224e+10   6.417742e+10  -1.934530e+09   1.474488e+05   7.072540e-25   0.000000e+00   0.000000e+00
     4192000   4.191999e-05   5.418997e-01   2.050846e+00   1.652038e+01   9.184263e+04   1.117956e+05  -2.842242e+04  -7.437614e+10   6.016326e+10  -3.694435e+09   1.474488e+05   7.099886e-25   0.000000e+00   0.000000e+00
     4200000   4.199999e-05   5.490054e-01   2.059977e+00   1.651810e+01   8.575582e+04   1.164400e+05  -2.878927e+04  -7.775257e+10   5.590911e+10  -5.480125e+09   1.474489e+05   7.127966e-25   0.000000e+00   0.000000e+00
     4208000   4.207999e-05   5.556137e-01   2.069467e+00   1.651577e+01   7.940897e+04   1.207349e+05  -2.929967e+04  -8.087453e+10   5.142598e+10  -7.281477e+09   1.474489e+05   7.156646e-25   0.000000e+00   0.000000e+00
     4216000   4.215999e-05   5.617045e-01   2.079285e+00   1.651340e+01   7.282309e+04   1.246624e+05  -2.995446e+04  -8.372563e+10   4.672646e+10  -9.087828e+09   1.474489e+05   7.185768e-25   0.000000e+00   0.000000e+00
     4224000   4.223999e-05   5.672596e-01   2.089403e+00   1.651098e+01   6.602048e+04   1.282057e+05  -3.075358e+04  -8.629021e+10   4.182473e+10  -1.088806e+10   1.474489e+05   7.215151e-25   0.000000e+00   0.000000e+00
     4232000   4.231999e-05   5.722626e-01   2.099787e+00   1.650848e+01   5.902467e+04   1.313493e+05  -3.169610e+04  -8.855356e+10   3.673659e+10  -1.267074e+10   1.474490e+05   7.244591e-25   0.000000e+00   0.000000e+00
     4240000   4.239999e-05   5.766993e-01   2.110407e+00   1.650590e+01   5.186610e+04   1.340756e+05  -3.278466e+04  -9.042155e+10   3.143828e+10  -1.448240e+10   1.474490e+05   7.261872e-25   0.000000e+00   0.000000e+00
     4248000   4.247999e-05   5.805574e-01   2.121228e+00   1.650323e+01   4.456580e+04   1.363755e+05  -3.401207e+04  -9.203046e+10   2.603615e+10  -1.619462e+10   1.474490e+05   7.289446e-25   0.000000e+00   0.000000e+00
     4256000   4.255999e-05   5.838267e-01   2.132216e+00   1.650046e+01   3.715021e+04   1.382380e+05  -3.537436e+04  -9.330219e+10   2.050646e+10  -1.785244e+10   1.474490e+05   7.316384e-25   0.000000e+00   0.000000e+00
     4264000   4.263999e-05   5.864990e-01   2.143334e+00   1.649757e+01   2.964386e+04   1.396564e+05  -3.685841e+04  -9.427331e+10   1.491300e+10  -1.931777e+10   1.474491e+05   7.346217e-25   0.000000e+00   0.000000e+00
     4272000   4.271999e-05   5.885681e-01   2.154549e+00   1.649456e+01   2.207638e+04   1.406212e+05  -3.846476e+04  -9.485409e+10   9.195014e+09  -2.082728e+10   1.474491e+05   7.371467e-25   0.000000e+00   0.000000e+00
     4280000   4.279999e-05   5.900304e-01   2.165822e+00   1.649141e+01   1.447678e+04   1.411260e+05  -4.018850e+04  -9.507581e+10   3.417207e+09  -2.225089e+10   1.474491e+05   7.395150e-25   0.000000e+00   0.000000e+00
     4288000   4.287999e-05   5.908843e-01   2.177116e+00   1.648812e+01   6.873926e+03   1.411670e+05  -4.202236e+04  -9.493478e+10  -2.395475e+09  -2.357870e+10   1.474491e+05   7.416933e-25   0.000000e+00   0.000000e+00
