     timestep     time              x             y              z              vx             vy             vz             ax             ay             az         v_magnitude      ELoss        Electronic      Nuclear
           0   0.000000e+00   1.000000e-01   1.179250e+01   2.074779e+01   1.866162e+05   7.088968e+04   8.719430e+05   0.000000e+00   0.000000e+00   0.000000e+00   8.945030e+05   0.000000e+00   0.000000e+00   0.000000e+00
        8000   7.999000e-08   1.149293e-01   1.179818e+01   2.081755e+01   1.866144e+05   7.089446e+04   8.719430e+05  -9.914966e+07   2.609901e+08  -5.774928e-15   8.945030e+05   1.279920e-25   0.000000e+00   0.000000e+00
       16000   1.599900e-07   1.298582e-01   1.180385e+01   2.088730e+01   1.866097e+05   7.090670e+04   8.719430e+05  -1.723140e+07   4.534899e+07   1.255258e-15   8.945030e+05   3.867921e-27   0.000000e+00   0.000000e+00
       24000   2.399900e-07   1.447868e-01   1.180952e+01   2.095706e+01   1.866063e+05   7.091569e+04   8.719430e+05  -6.453897e+07   1.698267e+08  -4.105857e-15   8.945030e+05   5.419543e-26   0.000000e+00   0.000000e+00
       32000   3.199900e-07   1.597151e-01   1.181519e+01   2.102681e+01   1.866018e+05   7.092763e+04   8.719430e+05  -1.550952e+07   4.080362e+07   2.446669e-15   8.945030e+05   3.131954e-27   0.000000e+00   0.000000e+00
       40000   3.999900e-07   1.746433e-01   1.182087e+01   2.109657e+01   1.866027e+05   7.092511e+04   8.719430e+05   3.939874e+07  -1.036574e+08  -6.900421e-15   8.945030e+05   2.018731e-26   0.000000e+00   0.000000e+00
       48000   4.799900e-07   1.895714e-01   1.182654e+01   2.116633e+01   1.865992e+05   7.093453e+04   8.719430e+05  -6.661414e+07   1.752340e+08   3.829506e-14   8.945030e+05   5.770623e-26   0.000000e+00   0.000000e+00
       56000   5.599900e-07   2.044992e-01   1.183222e+01   2.123608e+01   1.865964e+05   7.094184e+04   8.719430e+05  -9.232578e+06   2.428420e+07  -2.985876e-15   8.945030e+05   1.108119e-27   0.000000e+00   0.000000e+00
       64000   6.399900e-07   2.194268e-01   1.183789e+01   2.130584e+01   1.865953e+05   7.094461e+04   8.719430e+05  -4.975143e+06   1.308540e+07  -1.621092e-15   8.945030e+05   3.220353e-28   0.000000e+00   0.000000e+00
       72000   7.199900e-07   2.343544e-01   1.184357e+01   2.137559e+01   1.865954e+05   7.094438e+04   8.719430e+05   7.222684e+06  -1.899685e+07  -1.416295e-15   8.945030e+05   6.780208e-28   0.000000e+00   0.000000e+00
       80000   7.999900e-07   2.492821e-01   1.184924e+01   2.144535e+01   1.865952e+05   7.094498e+04   8.719430e+05  -1.278994e+07   3.363933e+07   6.117054e-15   8.945030e+05   2.126534e-27   0.000000e+00   0.000000e+00
       88000   8.799900e-07   2.642097e-01   1.185492e+01   2.151510e+01   1.865942e+05   7.094760e+04   8.719430e+05   4.619866e+06  -1.215038e+07  -5.775572e-16   8.945030e+05   2.773076e-28   0.000000e+00   0.000000e+00
       96000   9.599900e-07   2.791372e-01   1.186060e+01   2.158486e+01   1.865950e+05   7.094535e+04   8.719430e+05   1.681771e+07  -4.423266e+07   5.611736e-15   8.945030e+05   3.676819e-27   0.000000e+00   0.000000e+00
      104000   1.039990e-06   2.940648e-01   1.186627e+01   2.165461e+01   1.865946e+05   7.094655e+04   8.719430e+05  -1.634733e+07   4.299466e+07  -2.806936e-15   8.945030e+05   3.473989e-27   0.000000e+00   0.000000e+00
      112000   1.119990e-06   3.089923e-01   1.187195e+01   2.172437e+01   1.865940e+05   7.094809e+04   8.719430e+05  -1.202066e+01   3.161442e+01   5.516754e-21   8.945030e+05   1.878263e-39   0.000000e+00   0.000000e+00
      120000   1.199990e-06   3.239199e-01   1.187762e+01   2.179412e+01   1.865940e+05   7.094809e+04   8.719430e+05  -2.129477e+01   5.600541e+01   1.736322e-20   8.945030e+05   5.894982e-39   0.000000e+00   0.000000e+00
      128000   1.279990e-06   3.388474e-01   1.188330e+01   2.186388e+01   1.865940e+05   7.094809e+04   8.719430e+05   1.147132e+01  -3.016966e+01   1.399787e-21   8.945030e+05   1.710603e-39   0.000000e+00   0.000000e+00
      136000   1.359990e-06   3.537749e-01   1.188897e+01   2.193364e+01   1.865940e+05   7.094809e+04   8.719430e+05  -2.320107e+01   6.101899e+01  -8.436634e-22   8.945030e+05   6.997717e-39   0.000000e+00   0.000000e+00
      144000   1.439990e-06   3.687024e-01   1.189465e+01   2.200339e+01   1.865940e+05   7.094809e+04   8.719430e+05   7.765623e+00  -2.042365e+01   4.707299e-22   8.945030e+05   7.838733e-40   0.000000e+00   0.000000e+00
      152000   1.519990e-06   3.836299e-01   1.190033e+01   2.207315e+01   1.865940e+05   7.094809e+04   8.719430e+05  -6.421700e+00   1.688912e+01   9.819416e-22   8.945030e+05   5.358382e-40   0.000000e+00   0.000000e+00
      160000   1.599990e-06   3.985575e-01   1.190600e+01   2.214290e+01   1.865940e+05   7.094809e+04   8.719430e+05   3.116175e+01  -8.195563e+01  -2.191732e-20   8.945030e+05   1.262262e-38   0.000000e+00   0.000000e+00
      168000   1.679990e-06   4.134850e-01   1.191168e+01   2.221266e+01   1.865940e+05   7.094809e+04   8.719430e+05   1.160738e+01  -3.052748e+01  -4.552838e-21   8.945030e+05   1.751402e-39   0.000000e+00   0.000000e+00
      176000   1.759990e-06   4.284125e-01   1.191735e+01   2.228241e+01   1.865940e+05   7.094809e+04   8.719430e+05   1.866205e+01  -4.908133e+01   8.379775e-21   8.945030e+05   4.527530e-39   0.000000e+00   0.000000e+00
      184000   1.839990e-06   4.433400e-01   1.192303e+01   2.235217e+01   1.865940e+05   7.094809e+04   8.719430e+05   1.395340e+01  -3.669755e+01  -1.001614e-21   8.945030e+05   2.531652e-39   0.000000e+00   0.000000e+00
      192000   1.919990e-06   4.582675e-01   1.192871e+01   2.242192e+01   1.865940e+05   7.094809e+04   8.719430e+05   1.224410e+01  -3.220208e+01   2.398892e-21   8.945030e+05   1.948835e-39   0.000000e+00   0.000000e+00
      200000   1.999990e-06   4.731951e-01   1.193438e+01   2.249168e+01   1.865940e+05   7.094809e+04   8.719430e+05   1.929878e+01  -5.075592e+01  -9.923490e-21   8.945030e+05   4.841763e-39   0.000000e+00   0.000000e+00
      208000   2.079990e-06   4.881226e-01   1.194006e+01   2.256143e+01   1.865940e+05   7.094809e+04   8.719430e+05   1.125694e+01  -2.960583e+01   2.678815e-21   8.945030e+05   1.647779e-39   0.000000e+00   0.000000e+00
      216000   2.159990e-06   5.030501e-01   1.194573e+01   2.263119e+01   1.865940e+05   7.094809e+04   8.719430e+05   9.340667e+00  -2.456602e+01   5.198973e-21   8.945030e+05   1.134299e-39   0.000000e+00   0.000000e+00
      224000   2.239990e-06   5.179776e-01   1.195141e+01   2.270095e+01   1.865940e+05   7.094809e+04   8.719430e+05   1.120291e+01  -2.946374e+01  -2.197615e-22   8.945030e+05   1.631907e-39   0.000000e+00   0.000000e+00
      232000   2.319990e-06   5.329051e-01   1.195708e+01   2.277070e+01   1.865940e+05   7.094809e+04   8.719430e+05   6.070268e+00  -1.596485e+01   1.656958e-21   8.945030e+05   4.791718e-40   0.000000e+00   0.000000e+00
      240000   2.399990e-06   5.478327e-01   1.196276e+01   2.284046e+01   1.865940e+05   7.094809e+04   8.719430e+05   2.123131e+00  -5.583850e+00  -1.139370e-21   8.945030e+05   5.859821e-41   0.000000e+00   0.000000e+00
      248000   2.479990e-06   5.627602e-01   1.196844e+01   2.291021e+01   1.865940e+05   7.094809e+04   8.719430e+05   6.127629e+00  -1.611571e+01  -1.048262e-21   8.945030e+05   4.882694e-40   0.000000e+00   0.000000e+00
      256000   2.559990e-06   5.776877e-01   1.197411e+01   2.297997e+01   1.865940e+05   7.094809e+04   8.719430e+05   9.949846e-01  -2.616817e+00   3.292032e-22   8.945030e+05   1.288773e-41   0.000000e+00   0.000000e+00
      264000   2.639990e-06   5.926152e-01   1.197979e+01   2.304972e+01   1.865940e+05   7.094809e+04   8.719430e+05  -5.094405e+00   1.339832e+01  -6.172313e-22   8.945030e+05   3.374369e-40   0.000000e+00   0.000000e+00
      272000   2.719990e-06   6.075427e-01   1.198546e+01   2.311948e+01   1.865940e+05   7.094809e+04   8.719430e+05   8.259996e+00  -2.172385e+01  -3.517294e-21   8.945030e+05   8.872360e-40   0.000000e+00   0.000000e+00
      280000   2.799990e-06   6.224703e-01   1.199114e+01   2.318923e+01   1.865940e+05   7.094809e+04   8.719430e+05   9.710935e-01  -2.553983e+00  -2.476356e-22   8.945030e+05   1.228345e-41   0.000000e+00   0.000000e+00
      288000   2.879990e-06   6.373978e-01   1.199682e+01   2.325899e+01   1.865940e+05   7.094809e+04   8.719430e+05   1.979088e+01  -5.205016e+01  -1.056283e-20   8.945030e+05   5.091593e-39   0.000000e+00   0.000000e+00
      296000   2.959990e-06   6.523253e-01   1.200249e+01   2.332874e+01   1.865940e+05   7.094809e+04   8.719430e+05   9.182252e+00  -2.414939e+01   3.587505e-22   8.945030e+05   1.096239e-39   0.000000e+00   0.000000e+00
      304000   3.039990e-06   6.672528e-01   1.200817e+01   2.339850e+01   1.865940e+05   7.094809e+04   8.719430e+05   7.236557e+00  -1.903220e+01  -2.429704e-21   8.945030e+05   6.808899e-40   0.000000e+00   0.000000e+00
      312000   3.119990e-06   6.821803e-01   1.201384e+01   2.346826e+01   1.865940e+05   7.094809e+04   8.719430e+05   2.650209e+01  -6.970069e+01   1.151371e-20   8.945030e+05   9.131220e-39   0.000000e+00   0.000000e+00
      320000   3.199990e-06   6.971079e-01   1.201952e+01   2.353801e+01   1.865940e+05   7.094809e+04   8.719430e+05   6.411727e+00  -1.686289e+01   1.745755e-21   8.945030e+05   5.345234e-40   0.000000e+00   0.000000e+00
      328000   3.279990e-06   7.120354e-01   1.202520e+01   2.360777e+01   1.865940e+05   7.094809e+04   8.719430e+05   2.119406e+01  -5.574053e+01   6.801536e-21   8.945030e+05   5.841347e-39   0.000000e+00   0.000000e+00
      336000   3.359990e-06   7.269629e-01   1.203087e+01   2.367752e+01   1.865940e+05   7.094809e+04   8.719430e+05   1.472851e+00  -3.873608e+00   9.470732e-23   8.945030e+05   2.829787e-41   0.000000e+00   0.000000e+00
      344000   3.439990e-06   7.418904e-01   1.203655e+01   2.374728e+01   1.865940e+05   7.094809e+04   8.719430e+05   1.942947e+01  -5.109965e+01   5.058451e-21   8.945030e+05   4.907099e-39   0.000000e+00   0.000000e+00
      352000   3.519990e-06   7.568179e-01   1.204222e+01   2.381703e+01   1.865940e+05   7.094809e+04   8.719430e+05   5.152959e+00  -1.355232e+01   9.045301e-22   8.945030e+05   3.455513e-40   0.000000e+00   0.000000e+00
      360000   3.599990e-06   7.717455e-01   1.204790e+01   2.388679e+01   1.865940e+05   7.094809e+04   8.719430e+05  -1.456825e+01   3.831460e+01   1.836898e-21   8.945030e+05   2.758363e-39   0.000000e+00   0.000000e+00
      368000   3.679990e-06   7.866730e-01   1.205357e+01   2.395654e+01   1.865940e+05   7.094809e+04   8.719430e+05   1.969071e+01  -5.178671e+01   2.468186e-21   8.945030e+05   5.039954e-39   0.000000e+00   0.000000e+00
      376000   3.759990e-06   8.016005e-01   1.205925e+01   2.402630e+01   1.865940e+05   7.094809e+04   8.719430e+05   3.018117e+00  -7.937669e+00  -3.035868e-22   8.945030e+05   1.184910e-40   0.000000e+00   0.000000e+00
      384000   3.839990e-06   8.165280e-01   1.206493e+01   2.409605e+01   1.865940e+05   7.094809e+04   8.719430e+05  -3.366890e+00   8.854945e+00  -1.305546e-21   8.945030e+05   1.473111e-40   0.000000e+00   0.000000e+00
      392000   3.919990e-06   8.314555e-01   1.207060e+01   2.416581e+01   1.865940e+05   7.094809e+04   8.719430e+05   7.356438e+00  -1.934749e+01   2.851652e-21   8.945030e+05   7.035087e-40   0.000000e+00   0.000000e+00
      400000   3.999990e-06   8.463831e-01   1.207628e+01   2.423557e+01   1.865940e+05   7.094809e+04   8.719430e+05  -6.645518e+00   1.747776e+01  -6.388218e-22   8.945030e+05   5.740332e-40   0.000000e+00   0.000000e+00
      408000   4.079990e-06   8.613106e-01   1.208195e+01   2.430532e+01   1.865940e+05   7.094809e+04   8.719430e+05   4.562421e+00  -1.199920e+01  -5.175779e-22   8.945030e+05   2.705794e-40   0.000000e+00   0.000000e+00
      416000   4.159990e-06   8.762381e-01   1.208763e+01   2.437508e+01   1.865940e+05   7.094809e+04   8.719430e+05   7.911104e+00  -2.080626e+01  -4.091631e-22   8.945030e+05   8.136019e-40   0.000000e+00   0.000000e+00
      424000   4.239990e-06   8.911656e-01   1.209331e+01   2.444483e+01   1.865940e+05   7.094809e+04   8.719430e+05  -1.630915e+01   4.289319e+01  -2.964036e-21   8.945030e+05   3.457832e-39   0.000000e+00   0.000000e+00
      432000   4.319990e-06   9.060931e-01   1.209898e+01   2.451459e+01   1.865940e+05   7.094809e+04   8.719430e+05   1.158328e+01  -3.046411e+01  -6.696591e-21   8.945030e+05   1.744761e-39   0.000000e+00   0.000000e+00
      440000   4.399990e-06   9.210207e-01   1.210466e+01   2.458434e+01   1.865940e+05   7.094809e+04   8.719430e+05   2.039072e+01  -5.362775e+01   2.402550e-21   8.945030e+05   5.405305e-39   0.000000e+00   0.000000e+00
      448000   4.479990e-06   9.359482e-01   1.211033e+01   2.465410e+01   1.865940e+05   7.094809e+04   8.719430e+05   1.382398e+01  -3.635716e+01  -1.030856e-21   8.945030e+05   2.484890e-39   0.000000e+00   0.000000e+00
      456000   4.559990e-06   9.508757e-01   1.211601e+01   2.472385e+01   1.865940e+05   7.094809e+04   8.719430e+05   1.496741e+01  -3.936441e+01   6.998707e-21   8.945030e+05   2.912313e-39   0.000000e+00   0.000000e+00
      464000   4.639990e-06   9.658032e-01   1.212168e+01   2.479361e+01   1.865940e+05   7.094809e+04   8.719430e+05   2.037619e+01  -5.358952e+01  -2.895292e-21   8.945030e+05   5.397601e-39   0.000000e+00   0.000000e+00
      472000   4.719990e-06   9.807307e-01   1.212736e+01   2.486336e+01   1.865940e+05   7.094809e+04   8.719430e+05   8.117088e+00  -2.134800e+01  -3.427046e-21   8.945030e+05   8.568051e-40   0.000000e+00   0.000000e+00
      480000   4.799990e-06   9.956583e-01   1.213304e+01   2.493312e+01   1.865940e+05   7.094809e+04   8.719430e+05   1.495288e+01  -3.932618e+01   1.260562e-21   8.945030e+05   2.906658e-39   0.000000e+00   0.000000e+00
      488000   4.879990e-06   1.010586e+00   1.213871e+01   2.500287e+01   1.865940e+05   7.094809e+04   8.719430e+05   9.559316e+00  -2.514107e+01   3.709347e-22   8.945030e+05   1.188121e-39   0.000000e+00   0.000000e+00
      496000   4.959990e-06   1.025513e+00   1.214439e+01   2.507263e+01   1.865940e+05   7.094809e+04   8.719430e+05   7.494811e+00  -1.971141e+01   5.216145e-22   8.945030e+05   7.303566e-40   0.000000e+00   0.000000e+00
      504000   5.039990e-06   1.040441e+00   1.215006e+01   2.514239e+01   1.865940e+05   7.094809e+04   8.719430e+05   1.376590e+01  -3.620443e+01  -7.785982e-21   8.945030e+05   2.463673e-39   0.000000e+00   0.000000e+00
      512000   5.119990e-06   1.055368e+00   1.215574e+01   2.521214e+01   1.865940e+05   7.094809e+04   8.719430e+05   4.785458e+00  -1.258579e+01  -2.310834e-21   8.945030e+05   2.977677e-40   0.000000e+00   0.000000e+00
      520000   5.199990e-06   1.070296e+00   1.216142e+01   2.528190e+01   1.865940e+05   7.094809e+04   8.719430e+05   2.720953e+00  -7.156126e+00  -8.751011e-22   8.945030e+05   9.627381e-41   0.000000e+00   0.000000e+00
      528000   5.279990e-06   1.085223e+00   1.216709e+01   2.535165e+01   1.865940e+05   7.094809e+04   8.719430e+05   1.614829e+01  -4.247012e+01  -5.304976e-21   8.945030e+05   3.390223e-39   0.000000e+00   0.000000e+00
      536000   5.359990e-06   1.100151e+00   1.217277e+01   2.542141e+01   1.865940e+05   7.094809e+04   8.719430e+05   1.076053e+01  -2.830028e+01  -5.435148e-21   8.945030e+05   1.504911e-39   0.000000e+00   0.000000e+00
      544000   5.439990e-06   1.115078e+00   1.217844e+01   2.549116e+01   1.865940e+05   7.094809e+04   8.719430e+05   2.467374e+01  -6.489210e+01   2.866845e-21   8.945030e+05   7.913931e-39   0.000000e+00   0.000000e+00
      552000   5.519990e-06   1.130006e+00   1.218412e+01   2.556092e+01   1.865940e+05   7.094809e+04   8.719430e+05  -5.192180e+00   1.365547e+01  -2.414474e-21   8.945030e+05   3.503078e-40   0.000000e+00   0.000000e+00
      560000   5.599990e-06   1.144933e+00   1.218979e+01   2.563067e+01   1.865940e+05   7.094809e+04   8.719430e+05   2.559607e+01  -6.731786e+01   1.438310e-21   8.945030e+05   8.516701e-39   0.000000e+00   0.000000e+00
      568000   5.679990e-06   1.159861e+00   1.219547e+01   2.570043e+01   1.865940e+05   7.094809e+04   8.719430e+05  -6.068492e-01   1.596018e+00  -1.173494e-23   8.945030e+05   4.765916e-42   0.000000e+00   0.000000e+00
      576000   5.759990e-06   1.174788e+00   1.220115e+01   2.577018e+01   1.865940e+05   7.094809e+04   8.719430e+05   1.409309e+01  -3.706493e+01   3.320004e-21   8.945030e+05   2.581943e-39   0.000000e+00   0.000000e+00
      584000   5.839990e-06   1.189716e+00   1.220682e+01   2.583994e+01   1.865940e+05   7.094809e+04   8.719430e+05   1.038135e+01  -2.730303e+01   1.614925e-21   8.945030e+05   1.401310e-39   0.000000e+00   0.000000e+00
      592000   5.919990e-06   1.204644e+00   1.221250e+01   2.590970e+01   1.865940e+05   7.094809e+04   8.719430e+05   1.009999e+01  -2.656304e+01   1.147864e-21   8.945030e+05   1.326235e-39   0.000000e+00   0.000000e+00
      600000   5.999990e-06   1.219571e+00   1.221817e+01   2.597945e+01   1.865940e+05   7.094809e+04   8.719430e+05   1.054386e+01  -2.773042e+01  -3.410735e-21   8.945030e+05   1.445367e-39   0.000000e+00   0.000000e+00
      608000   6.079990e-06   1.234499e+00   1.222385e+01   2.604921e+01   1.865940e+05   7.094809e+04   8.719430e+05   1.027079e+00  -2.701225e+00   4.967378e-22   8.945030e+05   1.373413e-41   0.000000e+00   0.000000e+00
      616000   6.159990e-06   1.249426e+00   1.222953e+01   2.611896e+01   1.865940e+05   7.094809e+04   8.719430e+05   7.499052e+00  -1.972256e+01  -6.197291e-22   8.945030e+05   7.311223e-40   0.000000e+00   0.000000e+00
      624000   6.239990e-06   1.264354e+00   1.223520e+01   2.618872e+01   1.865940e+05   7.094809e+04   8.719430e+05   7.942925e+00  -2.088995e+01   3.312089e-21   8.945030e+05   8.202354e-40   0.000000e+00   0.000000e+00
      632000   6.319990e-06   1.279281e+00   1.224088e+01   2.625847e+01   1.865940e+05   7.094809e+04   8.719430e+05  -1.236002e+01   3.250694e+01  -7.388751e-22   8.945030e+05   1.985963e-39   0.000000e+00   0.000000e+00
      640000   6.399990e-06   1.294209e+00   1.224655e+01   2.632823e+01   1.865940e+05   7.094809e+04   8.719430e+05   4.898119e+00  -1.288209e+01   2.321550e-22   8.945030e+05   3.119123e-40   0.000000e+00   0.000000e+00
      648000   6.479990e-06   1.309136e+00   1.225223e+01   2.639798e+01   1.865940e+05   7.094809e+04   8.719430e+05  -5.199341e+00   1.367431e+01  -4.300193e-22   8.945030e+05   3.512552e-40   0.000000e+00   0.000000e+00
      656000   6.559990e-06   1.324064e+00   1.225790e+01   2.646774e+01   1.865940e+05   7.094809e+04   8.719430e+05   2.538238e+01  -6.675585e+01   2.744693e-21   8.945030e+05   8.374497e-39   0.000000e+00   0.000000e+00
      664000   6.639990e-06   1.338991e+00   1.226358e+01   2.653749e+01   1.865940e+05   7.094809e+04   8.719430e+05   1.275613e+01  -3.354871e+01   1.546680e-21   8.945030e+05   2.116052e-39   0.000000e+00   0.000000e+00
      672000   6.719990e-06   1.353919e+00   1.226926e+01   2.660725e+01   1.865940e+05   7.094809e+04   8.719430e+05   2.465448e+01  -6.484147e+01  -6.026137e-21   8.945030e+05   7.901022e-39   0.000000e+00   0.000000e+00
      680000   6.799990e-06   1.368846e+00   1.227493e+01   2.667701e+01   1.865940e+05   7.094809e+04   8.719430e+05   4.560371e+01  -1.199381e+02  -5.317974e-21   8.945030e+05   2.703548e-38   0.000000e+00   0.000000e+00
      688000   6.879990e-06   1.383774e+00   1.228061e+01   2.674676e+01   1.865940e+05   7.094809e+04   8.719430e+05   1.837616e+01  -4.832942e+01   3.118808e-21   8.945030e+05   4.391025e-39   0.000000e+00   0.000000e+00
      696000   6.959990e-06   1.398701e+00   1.228628e+01   2.681652e+01   1.865940e+05   7.094809e+04   8.719430e+05   4.487581e+01  -1.180237e+02  -6.974719e-21   8.945030e+05   2.617927e-38   0.000000e+00   0.000000e+00
      704000   7.039990e-06   1.413629e+00   1.229196e+01   2.688627e+01   1.865940e+05   7.094809e+04   8.719430e+05   4.094847e+01  -1.076948e+02   1.014226e-20   8.945030e+05   2.179929e-38   0.000000e+00   0.000000e+00
      712000   7.119990e-06   1.428556e+00   1.229764e+01   2.695603e+01   1.865940e+05   7.094809e+04   8.719430e+05   4.166563e+01  -1.095809e+02   6.513505e-21   8.945030e+05   2.257045e-38   0.000000e+00   0.000000e+00
      720000   7.199990e-06   1.443484e+00   1.230331e+01   2.702578e+01   1.865940e+05   7.094809e+04   8.719430e+05   2.048035e+01  -5.386348e+01   1.065287e-20   8.945030e+05   5.453587e-39   0.000000e+00   0.000000e+00
      728000   7.279990e-06   1.458411e+00   1.230899e+01   2.709554e+01   1.865940e+05   7.094809e+04   8.719430e+05   1.602503e+01  -4.214595e+01  -8.676082e-21   8.945030e+05   3.338963e-39   0.000000e+00   0.000000e+00
      736000   7.359990e-06   1.473339e+00   1.231466e+01   2.716529e+01   1.865940e+05   7.094809e+04   8.719430e+05  -4.382093e+00   1.152494e+01   3.201954e-21   8.945030e+05   2.494646e-40   0.000000e+00   0.000000e+00
      744000   7.439990e-06   1.488266e+00   1.232034e+01   2.723505e+01   1.865940e+05   7.094809e+04   8.719430e+05  -2.708996e+00   7.124680e+00  -1.013264e-21   8.945030e+05   9.537224e-41   0.000000e+00   0.000000e+00
      752000   7.519990e-06   1.503194e+00   1.232602e+01   2.730480e+01   1.865940e+05   7.094809e+04   8.719430e+05   6.538482e-01  -1.719626e+00  -2.507027e-22   8.945030e+05   5.545016e-42   0.000000e+00   0.000000e+00
      760000   7.599990e-06   1.518121e+00   1.233169e+01   2.737456e+01   1.865940e+05   7.094809e+04   8.719430e+05   6.882074e+00  -1.809990e+01   2.420614e-21   8.945030e+05   6.156361e-40   0.000000e+00   0.000000e+00
      768000   7.679990e-06   1.533049e+00   1.233737e+01   2.744432e+01   1.865940e+05   7.094809e+04   8.719430e+05  -8.044629e-01   2.115743e+00   4.962391e-22   8.945030e+05   8.407367e-42   0.000000e+00   0.000000e+00
      776000   7.759990e-06   1.547976e+00   1.234304e+01   2.751407e+01   1.865940e+05   7.094809e+04   8.719430e+05   8.968679e+00  -2.358769e+01   1.136883e-21   8.945030e+05   1.045599e-39   0.000000e+00   0.000000e+00
      784000   7.839990e-06   1.562904e+00   1.234872e+01   2.758383e+01   1.865940e+05   7.094809e+04   8.719430e+05   1.519690e+01  -3.996797e+01   3.091365e-22   8.945030e+05   3.002268e-39   0.000000e+00   0.000000e+00
      792000   7.919990e-06   1.577832e+00   1.235439e+01   2.765358e+01   1.865940e+05   7.094809e+04   8.719430e+05   2.105067e+00  -5.536343e+00  -4.795990e-22   8.945030e+05   5.762938e-41   0.000000e+00   0.000000e+00
      800000   7.999990e-06   1.592759e+00   1.236007e+01   2.772334e+01   1.865940e+05   7.094809e+04   8.719430e+05   1.728351e+01  -4.545576e+01  -2.138858e-21   8.945030e+05   3.883367e-39   0.000000e+00   0.000000e+00
      808000   8.079990e-06   1.607687e+00   1.236575e+01   2.779309e+01   1.865940e+05   7.094809e+04   8.719430e+05   3.205130e+01  -8.429516e+01   2.022568e-20   8.945030e+05   1.335488e-38   0.000000e+00   0.000000e+00
      816000   8.159990e-06   1.622614e+00   1.237142e+01   2.786285e+01   1.865940e+05   7.094809e+04   8.719430e+05   1.700144e+01  -4.471391e+01   7.643677e-21   8.945030e+05   3.757991e-39   0.000000e+00   0.000000e+00
      824000   8.239990e-06   1.637542e+00   1.237710e+01   2.793260e+01   1.865940e+05   7.094809e+04   8.719430e+05   4.376856e+01  -1.151116e+02  -1.435659e-21   8.945030e+05   2.490477e-38   0.000000e+00   0.000000e+00
      832000   8.319990e-06   1.652469e+00   1.238277e+01   2.800236e+01   1.865940e+05   7.094809e+04   8.719430e+05   2.584719e+01  -6.797831e+01   3.050653e-21   8.945030e+05   8.685821e-39   0.000000e+00   0.000000e+00
      840000   8.399990e-06   1.667397e+00   1.238845e+01   2.807211e+01   1.865940e+05   7.094809e+04   8.719430e+05   2.574864e+01  -6.771910e+01   3.873567e-21   8.945030e+05   8.619709e-39   0.000000e+00   0.000000e+00
      848000   8.479990e-06   1.682324e+00   1.239413e+01   2.814187e+01   1.865940e+05   7.094809e+04   8.719430e+05   6.586588e+01  -1.732277e+02   2.217202e-20   8.945030e+05   5.640110e-38   0.000000e+00   0.000000e+00
      856000   8.559990e-06   1.697252e+00   1.239980e+01   2.821163e+01   1.865940e+05   7.094809e+04   8.719430e+05   3.459439e+01  -9.098350e+01  -1.282968e-20   8.945030e+05   1.555949e-38   0.000000e+00   0.000000e+00
      864000   8.639990e-06   1.712179e+00   1.240548e+01   2.828138e+01   1.865940e+05   7.094809e+04   8.719430e+05   3.197160e+00  -8.408554e+00   6.949845e-23   8.945030e+05   1.330327e-40   0.000000e+00   0.000000e+00
      872000   8.719990e-06   1.727107e+00   1.241115e+01   2.835114e+01   1.865940e+05   7.094809e+04   8.719430e+05   4.990030e+00  -1.312381e+01  -1.195500e-21   8.945030e+05   3.236182e-40   0.000000e+00   0.000000e+00
      880000   8.799990e-06   1.742034e+00   1.241683e+01   2.842089e+01   1.865940e+05   7.094809e+04   8.719430e+05   6.236368e+00  -1.640169e+01  -3.365592e-21   8.945030e+05   5.059129e-40   0.000000e+00   0.000000e+00
      888000   8.879990e-06   1.756962e+00   1.242250e+01   2.849065e+01   1.865940e+05   7.094809e+04   8.719430e+05  -6.895241e+00   1.813454e+01  -9.437185e-22   8.945030e+05   6.178397e-40   0.000000e+00   0.000000e+00
      896000   8.959990e-06   1.771889e+00   1.242818e+01   2.856040e+01   1.865940e+05   7.094809e+04   8.719430e+05  -2.659155e+00   6.993598e+00  -3.087011e-22   8.945030e+05   9.199532e-41   0.000000e+00   0.000000e+00
      904000   9.039990e-06   1.786817e+00   1.243386e+01   2.863016e+01   1.865940e+05   7.094809e+04   8.719430e+05  -3.856033e+00   1.014140e+01  -1.541145e-21   8.945030e+05   1.931503e-40   0.000000e+00   0.000000e+00
      912000   9.119990e-06   1.801744e+00   1.243953e+01   2.869991e+01   1.865940e+05   7.094809e+04   8.719430e+05  -5.441259e+00   1.431055e+01  -2.126868e-21   8.945030e+05   3.847203e-40   0.000000e+00   0.000000e+00
      920000   9.199990e-06   1.816672e+00   1.244521e+01   2.876967e+01   1.865940e+05   7.094809e+04   8.719430e+05   2.255165e+01  -5.931101e+01   4.246854e-21   8.945030e+05   6.610588e-39   0.000000e+00   0.000000e+00
      928000   9.279990e-06   1.831599e+00   1.245088e+01   2.883942e+01   1.865940e+05   7.094809e+04   8.719430e+05   1.094789e+01  -2.879303e+01  -7.420316e-22   8.945030e+05   1.558700e-39   0.000000e+00   0.000000e+00
      936000   9.359990e-06   1.846527e+00   1.245656e+01   2.890918e+01   1.865940e+05   7.094809e+04   8.719430e+05   2.404322e+01  -6.323385e+01  -1.866257e-20   8.945030e+05   7.514066e-39   0.000000e+00   0.000000e+00
      944000   9.439990e-06   1.861454e+00   1.246224e+01   2.897894e+01   1.865940e+05   7.094809e+04   8.719430e+05   4.488046e+01  -1.180359e+02   9.318814e-21   8.945030e+05   2.618472e-38   0.000000e+00   0.000000e+00
      952000   9.519990e-06   1.876382e+00   1.246791e+01   2.904869e+01   1.865940e+05   7.094809e+04   8.719430e+05   1.544016e+01  -4.060774e+01  -6.195674e-21   8.945030e+05   3.100067e-39   0.000000e+00   0.000000e+00
      960000   9.599990e-06   1.891309e+00   1.247359e+01   2.911845e+01   1.865940e+05   7.094809e+04   8.719430e+05   4.637203e+01  -1.219588e+02   4.626499e-21   8.945030e+05   2.795421e-38   0.000000e+00   0.000000e+00
      968000   9.679990e-06   1.906237e+00   1.247926e+01   2.918820e+01   1.865940e+05   7.094809e+04   8.719430e+05   2.565942e+01  -6.748445e+01   9.433716e-21   8.945030e+05   8.560320e-39   0.000000e+00   0.000000e+00
      976000   9.759990e-06   1.921164e+00   1.248494e+01   2.925796e+01   1.865940e+05   7.094809e+04   8.719430e+05   2.512304e+01  -6.607379e+01   7.047180e-21   8.945030e+05   8.205550e-39   0.000000e+00   0.000000e+00
      984000   9.839990e-06   1.936092e+00   1.249061e+01   2.932771e+01   1.865940e+05   7.094809e+04   8.719430e+05   2.947449e+01  -7.751813e+01   4.671214e-21   8.945030e+05   1.129503e-38   0.000000e+00   0.000000e+00
      992000   9.919990e-06   1.951020e+00   1.249629e+01   2.939747e+01   1.865940e+05   7.094809e+04   8.719430e+05   2.645905e+01  -6.958748e+01   1.029984e-20   8.945030e+05   9.102159e-39   0.000000e+00   0.000000e+00
     1000000   9.999990e-06   1.965947e+00   1.250197e+01   2.946722e+01   1.865940e+05   7.094809e+04   8.719430e+05   1.712691e+01  -4.504389e+01  -3.142040e-22   8.945030e+05   3.813450e-39   0.000000e+00   0.000000e+00
     1008000   1.007999e-05   1.980875e+00   1.250764e+01   2.953698e+01   1.865940e+05   7.094809e+04   8.719430e+05   7.059063e+00  -1.856539e+01  -7.447077e-22   8.945030e+05   6.481424e-40   0.000000e+00   0.000000e+00
     1016000   1.015999e-05   1.995802e+00   1.251332e+01   2.960673e+01   1.865940e+05   7.094809e+04   8.719430e+05   1.152948e+00  -3.534063e+00   4.083054e-02   8.945030e+05   2.275672e-41   0.000000e+00   0.000000e+00
     1024000   1.023999e-05   2.010730e+00   1.251899e+01   2.967649e+01   1.865940e+05   7.094809e+04   8.719430e+05   1.008802e+01  -2.653156e+01  -6.140565e-22   8.945030e+05   1.322951e-39   0.000000e+00   0.000000e+00
     1032000   1.031999e-05   2.025657e+00   1.252467e+01   2.974625e+01   1.865940e+05   7.094809e+04   8.719430e+05  -2.645848e+01   7.183559e+01  -1.830446e-01   8.945030e+05   9.619267e-39   0.000000e+00   0.000000e+00
     1040000   1.039999e-05   2.040585e+00   1.253035e+01   2.981600e+01   1.865940e+05   7.094809e+04   8.719430e+05   2.317107e+01  -5.815051e+01  -2.269808e-01   8.945030e+05   6.427938e-39   0.000000e+00   0.000000e+00
     1048000   1.047999e-05   2.055512e+00   1.253602e+01   2.988576e+01   1.865940e+05   7.094809e+04   8.719430e+05   1.185276e+02  -3.099476e+02  -1.449051e-01   8.945030e+05   1.807965e-37   0.000000e+00   0.000000e+00
     1056000   1.055999e-05   2.070440e+00   1.254170e+01   2.995551e+01   1.865940e+05   7.094809e+04   8.719430e+05   4.970928e+01  -1.353317e+02   3.739587e-01   8.945030e+05   3.412698e-38   0.000000e+00   0.000000e+00
     1064000   1.063999e-05   2.085367e+00   1.254737e+01   3.002527e+01   1.865940e+05   7.094809e+04   8.719430e+05  -8.391916e+01   2.043835e+02   1.328287e+00   8.945030e+05   8.014551e-38   0.000000e+00   0.000000e+00
     1072000   1.071999e-05   2.100295e+00   1.255305e+01   3.009502e+01   1.865940e+05   7.094809e+04   8.719430e+05   1.584655e+01   4.777249e+01  -7.278271e+00   8.945030e+05   4.249480e-39   0.000000e+00   0.000000e+00
     1080000   1.079999e-05   2.115222e+00   1.255872e+01   3.016478e+01   1.865940e+05   7.094809e+04   8.719430e+05   2.560284e+01  -5.657908e+01  -8.752386e-01   8.945030e+05   6.332535e-39   0.000000e+00   0.000000e+00
     1088000   1.087999e-05   2.130150e+00   1.256440e+01   3.023453e+01   1.865940e+05   7.094809e+04   8.719430e+05   1.305041e+01  -3.432266e+01   9.849397e-21   8.945030e+05   2.214489e-39   0.000000e+00   0.000000e+00
     1096000   1.095999e-05   2.145077e+00   1.257008e+01   3.030429e+01   1.865940e+05   7.094809e+04   8.719430e+05   8.184260e+00  -2.152466e+01   1.368596e-21   8.945030e+05   8.706883e-40   0.000000e+00   0.000000e+00
     1104000   1.103999e-05   2.160005e+00   1.257575e+01   3.037404e+01   1.865940e+05   7.094809e+04   8.719430e+05   1.420042e+01  -3.734721e+01  -1.991789e-21   8.945030e+05   2.621441e-39   0.000000e+00   0.000000e+00
     1112000   1.111999e-05   2.174932e+00   1.258143e+01   3.044380e+01   1.865940e+05   7.094809e+04   8.719430e+05   1.335835e+01  -3.513256e+01  -1.889370e-21   8.945030e+05   2.320225e-39   0.000000e+00   0.000000e+00
     1120000   1.119999e-05   2.189860e+00   1.258710e+01   3.051355e+01   1.865940e+05   7.094809e+04   8.719430e+05   1.082935e+01  -2.848128e+01  -6.870317e-23   8.945030e+05   1.524503e-39   0.000000e+00   0.000000e+00
     1128000   1.127999e-05   2.204787e+00   1.259278e+01   3.058331e+01   1.865940e+05   7.094809e+04   8.719430e+05   3.129787e+01  -8.231364e+01   1.579113e-21   8.945030e+05   1.273465e-38   0.000000e+00   0.000000e+00
     1136000   1.135999e-05   2.219715e+00   1.259846e+01   3.065307e+01   1.865940e+05   7.094809e+04   8.719430e+05   2.075836e+00  -5.459465e+00  -5.938765e-22   8.945030e+05   5.605693e-41   0.000000e+00   0.000000e+00
     1144000   1.143999e-05   2.234642e+00   1.260413e+01   3.072282e+01   1.865940e+05   7.094809e+04   8.719430e+05   2.074304e+01  -5.455434e+01  -8.604527e-23   8.945030e+05   5.595191e-39   0.000000e+00   0.000000e+00
     1152000   1.151999e-05   2.249570e+00   1.260981e+01   3.079258e+01   1.865940e+05   7.094809e+04   8.719430e+05   4.207332e+00  -1.106531e+01  -7.681234e-22   8.945030e+05   2.303689e-40   0.000000e+00   0.000000e+00
     1160000   1.159999e-05   2.264497e+00   1.261548e+01   3.086233e+01   1.865940e+05   7.094809e+04   8.719430e+05   3.221828e+01  -8.473431e+01   4.425412e-21   8.945030e+05   1.349357e-38   0.000000e+00   0.000000e+00
     1168000   1.167999e-05   2.279425e+00   1.262116e+01   3.093209e+01   1.865940e+05   7.094809e+04   8.719430e+05   1.429256e+01  -3.758955e+01  -9.319327e-21   8.945030e+05   2.656621e-39   0.000000e+00   0.000000e+00
     1176000   1.175999e-05   2.294352e+00   1.262683e+01   3.100184e+01   1.865940e+05   7.094809e+04   8.719430e+05   2.547825e+01  -6.700798e+01   8.105547e-22   8.945030e+05   8.438112e-39   0.000000e+00   0.000000e+00
     1184000   1.183999e-05   2.309280e+00   1.263251e+01   3.107160e+01   1.865940e+05   7.094809e+04   8.719430e+05   1.668863e+01  -4.389122e+01  -1.038974e-21   8.945030e+05   3.621132e-39   0.000000e+00   0.000000e+00
     1192000   1.191999e-05   2.324207e+00   1.263819e+01   3.114135e+01   1.865940e+05   7.094809e+04   8.719430e+05   3.727654e+00  -9.803756e+00  -2.256108e-22   8.945030e+05   1.807343e-40   0.000000e+00   0.000000e+00
     1200000   1.199999e-05   2.339135e+00   1.264386e+01   3.121111e+01   1.865940e+05   7.094809e+04   8.719430e+05   9.621537e+00  -2.530471e+01  -3.732190e-21   8.945030e+05   1.203666e-39   0.000000e+00   0.000000e+00
     1208000   1.207999e-05   2.354063e+00   1.264954e+01   3.128086e+01   1.865940e+05   7.094809e+04   8.719430e+05   6.665401e+00  -1.753005e+01  -6.195877e-23   8.945030e+05   5.776761e-40   0.000000e+00   0.000000e+00
     1216000   1.215999e-05   2.368990e+00   1.265521e+01   3.135062e+01   1.865940e+05   7.094809e+04   8.719430e+05  -1.425065e+01   3.747932e+01   1.572248e-21   8.945030e+05   2.640003e-39   0.000000e+00   0.000000e+00
     1224000   1.223999e-05   2.383918e+00   1.266089e+01   3.142038e+01   1.865940e+05   7.094809e+04   8.719430e+05  -4.016938e-01   1.056458e+00   5.457218e-23   8.945030e+05   2.093990e-42   0.000000e+00   0.000000e+00
     1232000   1.231999e-05   2.398845e+00   1.266657e+01   3.149013e+01   1.865940e+05   7.094809e+04   8.719430e+05  -3.357830e+00   8.831119e+00   1.303285e-21   8.945030e+05   1.465567e-40   0.000000e+00   0.000000e+00
     1240000   1.239999e-05   2.413773e+00   1.267224e+01   3.155989e+01   1.865940e+05   7.094809e+04   8.719430e+05   2.608890e+01  -6.861400e+01  -2.471147e-21   8.945030e+05   8.848009e-39   0.000000e+00   0.000000e+00
     1248000   1.247999e-05   2.428700e+00   1.267792e+01   3.162964e+01   1.865940e+05   7.094809e+04   8.719430e+05   8.244918e+00  -2.168420e+01   9.445006e-22   8.945030e+05   8.839721e-40   0.000000e+00   0.000000e+00
     1256000   1.255999e-05   2.443628e+00   1.268359e+01   3.169940e+01   1.865940e+05   7.094809e+04   8.719430e+05   2.006366e+00  -5.276757e+00   9.349607e-22   8.945030e+05   5.237710e-41   0.000000e+00   0.000000e+00
     1264000   1.263999e-05   2.458555e+00   1.268927e+01   3.176915e+01   1.865940e+05   7.094809e+04   8.719430e+05   4.188835e+01  -1.101667e+02   8.699723e-21   8.945030e+05   2.281073e-38   0.000000e+00   0.000000e+00
     1272000   1.271999e-05   2.473483e+00   1.269495e+01   3.183891e+01   1.865940e+05   7.094809e+04   8.719430e+05   9.555974e+00  -2.513228e+01   2.360511e-21   8.945030e+05   1.187420e-39   0.000000e+00   0.000000e+00
     1280000   1.279999e-05   2.488410e+00   1.270062e+01   3.190866e+01   1.865940e+05   7.094809e+04   8.719430e+05   2.987471e+01  -7.857072e+01   1.240876e-20   8.945030e+05   1.160428e-38   0.000000e+00   0.000000e+00
     1288000   1.287999e-05   2.503338e+00   1.270630e+01   3.197842e+01   1.865940e+05   7.094809e+04   8.719430e+05   2.748241e+01  -7.227893e+01  -9.699748e-21   8.945030e+05   9.820193e-39   0.000000e+00   0.000000e+00
     1296000   1.295999e-05   2.518265e+00   1.271197e+01   3.204817e+01   1.865940e+05   7.094809e+04   8.719430e+05   2.577510e+01  -6.778871e+01   1.505779e-20   8.945030e+05   8.637509e-39   0.000000e+00   0.000000e+00
     1304000   1.303999e-05   2.533193e+00   1.271765e+01   3.211793e+01   1.865940e+05   7.094809e+04   8.719430e+05   2.008123e+01  -5.281377e+01   2.596827e-21   8.945030e+05   5.243254e-39   0.000000e+00   0.000000e+00
     1312000   1.311999e-05   2.548120e+00   1.272332e+01   3.218769e+01   1.865940e+05   7.094809e+04   8.719430e+05   1.328373e+01  -3.493630e+01  -3.147442e-21   8.945030e+05   2.294453e-39   0.000000e+00   0.000000e+00
     1320000   1.319999e-05   2.563048e+00   1.272900e+01   3.225744e+01   1.865940e+05   7.094809e+04   8.719430e+05   1.672915e+01  -4.399780e+01   6.056594e-21   8.945030e+05   3.638629e-39   0.000000e+00   0.000000e+00
     1328000   1.327999e-05   2.577975e+00   1.273468e+01   3.232720e+01   1.865940e+05   7.094809e+04   8.719430e+05   5.882547e+00  -1.547114e+01  -2.442478e-22   8.945030e+05   4.500284e-40   0.000000e+00   0.000000e+00
     1336000   1.335999e-05   2.592903e+00   1.274035e+01   3.239695e+01   1.865940e+05   7.094809e+04   8.719430e+05  -9.149523e-01   2.406331e+00   5.031602e-22   8.945030e+05   1.086359e-41   0.000000e+00   0.000000e+00
     1344000   1.343999e-05   2.607830e+00   1.274603e+01   3.246671e+01   1.865940e+05   7.094809e+04   8.719430e+05   8.688527e+00  -2.285089e+01   9.656357e-22   8.945030e+05   9.815739e-40   0.000000e+00   0.000000e+00
     1352000   1.351999e-05   2.622758e+00   1.275170e+01   3.253646e+01   1.865940e+05   7.094809e+04   8.719430e+05   1.231857e+01  -3.239792e+01   7.174915e-22   8.945030e+05   1.972694e-39   0.000000e+00   0.000000e+00
     1360000   1.359999e-05   2.637685e+00   1.275738e+01   3.260622e+01   1.865940e+05   7.094809e+04   8.719430e+05   1.179968e+01  -3.103324e+01   9.162920e-22   8.945030e+05   1.810334e-39   0.000000e+00   0.000000e+00
     1368000   1.367999e-05   2.652613e+00   1.276306e+01   3.267597e+01   1.865940e+05   7.094809e+04   8.719430e+05   8.039265e+00  -2.114333e+01   7.009464e-22   8.945030e+05   8.403635e-40   0.000000e+00   0.000000e+00
     1376000   1.375999e-05   2.667540e+00   1.276873e+01   3.274573e+01   1.865940e+05   7.094809e+04   8.719430e+05   1.683253e+01  -4.426967e+01  -7.188226e-22   8.945030e+05   3.683408e-39   0.000000e+00   0.000000e+00
     1384000   1.383999e-05   2.682468e+00   1.277441e+01   3.281548e+01   1.865940e+05   7.094809e+04   8.719430e+05   1.115042e+01  -2.932568e+01   3.679109e-21   8.945030e+05   1.616600e-39   0.000000e+00   0.000000e+00
     1392000   1.391999e-05   2.697395e+00   1.278008e+01   3.288524e+01   1.865940e+05   7.094809e+04   8.719430e+05   7.390003e+00  -1.943576e+01   4.288682e-22   8.945030e+05   7.101142e-40   0.000000e+00   0.000000e+00
     1400000   1.399999e-05   2.712323e+00   1.278576e+01   3.295500e+01   1.865940e+05   7.094809e+04   8.719430e+05   1.110219e+01  -2.919883e+01   4.548384e-21   8.945030e+05   1.602576e-39   0.000000e+00   0.000000e+00
     1408000   1.407999e-05   2.727251e+00   1.279143e+01   3.302475e+01   1.865940e+05   7.094809e+04   8.719430e+05   2.984162e+01  -7.848368e+01  -2.905277e-21   8.945030e+05   1.157740e-38   0.000000e+00   0.000000e+00
     1416000   1.415999e-05   2.742178e+00   1.279711e+01   3.309451e+01   1.865940e+05   7.094809e+04   8.719430e+05   3.466033e+01  -9.115692e+01  -1.240821e-20   8.945030e+05   1.561831e-38   0.000000e+00   0.000000e+00
     1424000   1.423999e-05   2.757106e+00   1.280279e+01   3.316426e+01   1.865940e+05   7.094809e+04   8.719430e+05   2.634918e+01  -6.929853e+01   1.754331e-20   8.945030e+05   9.025442e-39   0.000000e+00   0.000000e+00
     1432000   1.431999e-05   2.772033e+00   1.280846e+01   3.323402e+01   1.865940e+05   7.094809e+04   8.719430e+05   1.846133e+01  -4.855344e+01  -4.486380e-21   8.945030e+05   4.431745e-39   0.000000e+00   0.000000e+00
     1440000   1.439999e-05   2.786961e+00   1.281414e+01   3.330377e+01   1.865940e+05   7.094809e+04   8.719430e+05   2.096185e+01  -5.512982e+01  -3.365014e-21   8.945030e+05   5.711903e-39   0.000000e+00   0.000000e+00
     1448000   1.447999e-05   2.801888e+00   1.281981e+01   3.337353e+01   1.865940e+05   7.094809e+04   8.719430e+05   1.973264e+01  -5.189699e+01   9.964022e-22   8.945030e+05   5.062282e-39   0.000000e+00   0.000000e+00
     1456000   1.455999e-05   2.816816e+00   1.282549e+01   3.344328e+01   1.865940e+05   7.094809e+04   8.719430e+05   1.402182e+01  -3.687748e+01   2.841421e-21   8.945030e+05   2.556373e-39   0.000000e+00   0.000000e+00
     1464000   1.463999e-05   2.831743e+00   1.283117e+01   3.351304e+01   1.865940e+05   7.094809e+04   8.719430e+05   1.769013e+01  -4.652517e+01  -6.243786e-21   8.945030e+05   4.068525e-39   0.000000e+00   0.000000e+00
     1472000   1.471999e-05   2.846671e+00   1.283684e+01   3.358279e+01   1.865940e+05   7.094809e+04   8.719430e+05   1.909690e+01  -5.022498e+01  -7.127119e-21   8.945030e+05   4.741342e-39   0.000000e+00   0.000000e+00
     1480000   1.479999e-05   2.861598e+00   1.284252e+01   3.365255e+01   1.865940e+05   7.094809e+04   8.719430e+05   6.483691e+00  -1.705216e+01  -1.157625e-22   8.945030e+05   5.466351e-40   0.000000e+00   0.000000e+00
     1488000   1.487999e-05   2.876526e+00   1.284819e+01   3.372231e+01   1.865940e+05   7.094809e+04   8.719430e+05   1.705438e+01  -4.485316e+01  -3.443709e-21   8.945030e+05   3.781349e-39   0.000000e+00   0.000000e+00
     1496000   1.495999e-05   2.891453e+00   1.285387e+01   3.379206e+01   1.865940e+05   7.094809e+04   8.719430e+05   1.846115e+01  -4.855297e+01  -4.363762e-21   8.945030e+05   4.430911e-39   0.000000e+00   0.000000e+00
     1504000   1.503999e-05   2.906381e+00   1.285954e+01   3.386182e+01   1.865940e+05   7.094809e+04   8.719430e+05   2.684358e+01  -7.059881e+01   1.322315e-20   8.945030e+05   9.367831e-39   0.000000e+00   0.000000e+00
     1512000   1.511999e-05   2.921308e+00   1.286522e+01   3.393157e+01   1.865940e+05   7.094809e+04   8.719430e+05   1.539098e+01  -4.047840e+01   4.445540e-21   8.945030e+05   3.080045e-39   0.000000e+00   0.000000e+00
     1520000   1.519999e-05   2.936236e+00   1.287090e+01   3.400133e+01   1.865940e+05   7.094809e+04   8.719430e+05   2.582649e+01  -6.792387e+01   1.457781e-20   8.945030e+05   8.671378e-39   0.000000e+00   0.000000e+00
     1528000   1.527999e-05   2.951163e+00   1.287657e+01   3.407108e+01   1.865940e+05   7.094809e+04   8.719430e+05   3.213403e+01  -8.451274e+01   1.483284e-20   8.945030e+05   1.342434e-38   0.000000e+00   0.000000e+00
     1536000   1.535999e-05   2.966091e+00   1.288225e+01   3.414084e+01   1.865940e+05   7.094809e+04   8.719430e+05   1.176011e+01  -3.092916e+01  -3.502309e-21   8.945030e+05   1.798288e-39   0.000000e+00   0.000000e+00
     1544000   1.543999e-05   2.981018e+00   1.288792e+01   3.421059e+01   1.865940e+05   7.094809e+04   8.719430e+05   3.111695e+01  -8.183780e+01  -6.500153e-21   8.945030e+05   1.258797e-38   0.000000e+00   0.000000e+00
     1552000   1.551999e-05   2.995946e+00   1.289360e+01   3.428035e+01   1.865940e+05   7.094809e+04   8.719430e+05   3.742449e+01  -9.842668e+01  -5.363588e-21   8.945030e+05   1.820862e-38   0.000000e+00   0.000000e+00
     1560000   1.559999e-05   3.010873e+00   1.289928e+01   3.435010e+01   1.865940e+05   7.094809e+04   8.719430e+05   2.355427e+01  -6.194790e+01   4.549541e-21   8.945030e+05   7.212995e-39   0.000000e+00   0.000000e+00
     1568000   1.567999e-05   3.025801e+00   1.290495e+01   3.441986e+01   1.865940e+05   7.094809e+04   8.719430e+05   1.658535e+01  -4.361958e+01  -5.356551e-21   8.945030e+05   3.576038e-39   0.000000e+00   0.000000e+00
     1576000   1.575999e-05   3.040728e+00   1.291063e+01   3.448962e+01   1.865940e+05   7.094809e+04   8.719430e+05   2.127608e+01  -5.595626e+01  -1.419939e-20   8.945030e+05   5.884955e-39   0.000000e+00   0.000000e+00
     1584000   1.583999e-05   3.055656e+00   1.291630e+01   3.455937e+01   1.865940e+05   7.094809e+04   8.719430e+05   1.357375e+01  -3.569907e+01  -2.942147e-22   8.945030e+05   2.395712e-39   0.000000e+00   0.000000e+00
     1592000   1.591999e-05   3.070583e+00   1.292198e+01   3.462913e+01   1.865940e+05   7.094809e+04   8.719430e+05   1.638460e+01  -4.309162e+01   2.641243e-21   8.945030e+05   3.489991e-39   0.000000e+00   0.000000e+00
     1600000   1.599999e-05   3.085511e+00   1.292765e+01   3.469888e+01   1.865940e+05   7.094809e+04   8.719430e+05   2.107534e+01  -5.542829e+01  -1.732313e-20   8.945030e+05   5.774423e-39   0.000000e+00   0.000000e+00
     1608000   1.607999e-05   3.100439e+00   1.293333e+01   3.476864e+01   1.865940e+05   7.094809e+04   8.719430e+05   1.604012e+01  -4.218563e+01  -5.307515e-21   8.945030e+05   3.345114e-39   0.000000e+00   0.000000e+00
     1616000   1.615999e-05   3.115366e+00   1.293901e+01   3.483839e+01   1.865940e+05   7.094809e+04   8.719430e+05   1.794096e+01  -4.718487e+01  -1.277626e-21   8.945030e+05   4.184737e-39   0.000000e+00   0.000000e+00
     1624000   1.623999e-05   3.130294e+00   1.294468e+01   3.490815e+01   1.865940e+05   7.094809e+04   8.719430e+05   1.562672e+01  -4.109838e+01  -4.049952e-21   8.945030e+05   3.174910e-39   0.000000e+00   0.000000e+00
     1632000   1.631999e-05   3.145221e+00   1.295036e+01   3.497790e+01   1.865940e+05   7.094809e+04   8.719430e+05   1.386073e+01  -3.645383e+01  -1.724003e-21   8.945030e+05   2.497870e-39   0.000000e+00   0.000000e+00
     1640000   1.639999e-05   3.160149e+00   1.295603e+01   3.504766e+01   1.865940e+05   7.094809e+04   8.719430e+05   1.833510e+01  -4.822144e+01  -1.289945e-20   8.945030e+05   4.370622e-39   0.000000e+00   0.000000e+00
     1648000   1.647999e-05   3.175076e+00   1.296171e+01   3.511741e+01   1.865940e+05   7.094809e+04   8.719430e+05   1.344733e+01  -3.536657e+01  -6.127783e-22   8.945030e+05   2.351094e-39   0.000000e+00   0.000000e+00
     1656000   1.655999e-05   3.190004e+00   1.296739e+01   3.518717e+01   1.865940e+05   7.094809e+04   8.719430e+05   1.168134e+01  -3.072202e+01   4.390749e-21   8.945030e+05   1.774131e-39   0.000000e+00   0.000000e+00
     1664000   1.663999e-05   3.204931e+00   1.297306e+01   3.525693e+01   1.865940e+05   7.094809e+04   8.719430e+05   1.390840e+01  -3.657919e+01   2.567727e-21   8.945030e+05   2.515066e-39   0.000000e+00   0.000000e+00
     1672000   1.671999e-05   3.219859e+00   1.297874e+01   3.532668e+01   1.865940e+05   7.094809e+04   8.719430e+05   2.531990e+01  -6.659152e+01   7.475910e-21   8.945030e+05   8.334928e-39   0.000000e+00   0.000000e+00
     1680000   1.679999e-05   3.234786e+00   1.298441e+01   3.539644e+01   1.865940e+05   7.094809e+04   8.719430e+05   2.666769e+01  -7.013623e+01   2.830373e-21   8.945030e+05   9.245897e-39   0.000000e+00   0.000000e+00
     1688000   1.687999e-05   3.249714e+00   1.299009e+01   3.546619e+01   1.865940e+05   7.094809e+04   8.719430e+05   1.277562e+01  -3.359997e+01  -3.050142e-21   8.945030e+05   2.122071e-39   0.000000e+00   0.000000e+00
     1696000   1.695999e-05   3.264641e+00   1.299576e+01   3.553595e+01   1.865940e+05   7.094809e+04   8.719430e+05   2.614506e+01  -6.876170e+01  -3.910362e-21   8.945030e+05   8.887045e-39   0.000000e+00   0.000000e+00
     1704000   1.703999e-05   3.279569e+00   1.300144e+01   3.560570e+01   1.865940e+05   7.094809e+04   8.719430e+05   2.052907e+01  -5.399161e+01  -4.969578e-21   8.945030e+05   5.478573e-39   0.000000e+00   0.000000e+00
     1712000   1.711999e-05   3.294496e+00   1.300712e+01   3.567546e+01   1.865940e+05   7.094809e+04   8.719430e+05   3.090502e+01  -8.128043e+01  -3.246101e-21   8.945030e+05   1.241667e-38   0.000000e+00   0.000000e+00
     1720000   1.719999e-05   3.309424e+00   1.301279e+01   3.574521e+01   1.865940e+05   7.094809e+04   8.719430e+05   1.971374e+01  -5.184728e+01  -3.422265e-21   8.945030e+05   5.052974e-39   0.000000e+00   0.000000e+00
     1728000   1.727999e-05   3.324351e+00   1.301847e+01   3.581497e+01   1.865940e+05   7.094809e+04   8.719430e+05   1.733486e+01  -4.559081e+01  -1.196702e-20   8.945030e+05   3.906828e-39   0.000000e+00   0.000000e+00
     1736000   1.735999e-05   3.339279e+00   1.302414e+01   3.588472e+01   1.865940e+05   7.094809e+04   8.719430e+05   1.736451e+01  -4.566878e+01   7.783919e-22   8.945030e+05   3.920201e-39   0.000000e+00   0.000000e+00
     1744000   1.743999e-05   3.354206e+00   1.302982e+01   3.595448e+01   1.865940e+05   7.094809e+04   8.719430e+05   1.127810e+01  -2.966147e+01  -5.931881e-22   8.945030e+05   1.653863e-39   0.000000e+00   0.000000e+00
     1752000   1.751999e-05   3.369134e+00   1.303550e+01   3.602423e+01   1.865940e+05   7.094809e+04   8.719430e+05   1.204537e+01  -3.167941e+01   5.174662e-23   8.945030e+05   1.886356e-39   0.000000e+00   0.000000e+00
     1760000   1.759999e-05   3.384061e+00   1.304117e+01   3.609399e+01   1.865940e+05   7.094809e+04   8.719430e+05   1.207501e+01  -3.175737e+01  -4.444937e-21   8.945030e+05   1.895652e-39   0.000000e+00   0.000000e+00
     1768000   1.767999e-05   3.398989e+00   1.304685e+01   3.616375e+01   1.865940e+05   7.094809e+04   8.719430e+05   2.842451e+00  -7.475667e+00   4.976401e-22   8.945030e+05   1.050862e-40   0.000000e+00   0.000000e+00
     1776000   1.775999e-05   3.413916e+00   1.305252e+01   3.623350e+01   1.865940e+05   7.094809e+04   8.719430e+05   1.906749e+01  -5.014763e+01  -3.194616e-22   8.945030e+05   4.726890e-39   0.000000e+00   0.000000e+00
     1784000   1.783999e-05   3.428844e+00   1.305820e+01   3.630326e+01   1.865940e+05   7.094809e+04   8.719430e+05   1.985305e+01  -5.221368e+01   7.254395e-22   8.945030e+05   5.124060e-39   0.000000e+00   0.000000e+00
     1792000   1.791999e-05   3.443771e+00   1.306388e+01   3.637301e+01   1.865940e+05   7.094809e+04   8.719430e+05   2.427054e+01  -6.383170e+01  -3.001705e-21   8.945030e+05   7.658132e-39   0.000000e+00   0.000000e+00
     1800000   1.799999e-05   3.458699e+00   1.306955e+01   3.644277e+01   1.865940e+05   7.094809e+04   8.719430e+05   2.310278e+01  -6.076048e+01   8.020567e-22   8.945030e+05   6.939308e-39   0.000000e+00   0.000000e+00
     1808000   1.807999e-05   3.473627e+00   1.307523e+01   3.651252e+01   1.865940e+05   7.094809e+04   8.719430e+05   2.650654e+01  -6.971240e+01   6.622037e-21   8.945030e+05   9.134225e-39   0.000000e+00   0.000000e+00
     1816000   1.815999e-05   3.488554e+00   1.308090e+01   3.658228e+01   1.865940e+05   7.094809e+04   8.719430e+05   3.092403e+01  -8.133042e+01  -2.020396e-21   8.945030e+05   1.243255e-38   0.000000e+00   0.000000e+00
     1824000   1.823999e-05   3.503482e+00   1.308658e+01   3.665203e+01   1.865940e+05   7.094809e+04   8.719430e+05   2.832345e+01  -7.449088e+01  -1.880379e-21   8.945030e+05   1.042952e-38   0.000000e+00   0.000000e+00
     1832000   1.831999e-05   3.518409e+00   1.309225e+01   3.672179e+01   1.865940e+05   7.094809e+04   8.719430e+05   2.262002e+01  -5.949082e+01   5.015469e-22   8.945030e+05   6.652242e-39   0.000000e+00   0.000000e+00
     1840000   1.839999e-05   3.533337e+00   1.309793e+01   3.679154e+01   1.865940e+05   7.094809e+04   8.719430e+05   2.297452e+01  -6.042315e+01   5.078557e-21   8.945030e+05   6.862382e-39   0.000000e+00   0.000000e+00
     1848000   1.847999e-05   3.548264e+00   1.310361e+01   3.686130e+01   1.865940e+05   7.094809e+04   8.719430e+05   1.599703e+01  -4.207230e+01  -7.134446e-21   8.945030e+05   3.327537e-39   0.000000e+00   0.000000e+00
     1856000   1.855999e-05   3.563192e+00   1.310928e+01   3.693106e+01   1.865940e+05   7.094809e+04   8.719430e+05   1.502517e+01  -3.951631e+01   3.684804e-21   8.945030e+05   2.934990e-39   0.000000e+00   0.000000e+00
     1864000   1.863999e-05   3.578119e+00   1.311496e+01   3.700081e+01   1.865940e+05   7.094809e+04   8.719430e+05   1.199527e+01  -3.154765e+01   2.736447e-21   8.945030e+05   1.871046e-39   0.000000e+00   0.000000e+00
     1872000   1.871999e-05   3.593047e+00   1.312063e+01   3.707057e+01   1.865940e+05   7.094809e+04   8.719430e+05   3.065853e+00  -8.063215e+00   1.894550e-22   8.945030e+05   1.222932e-40   0.000000e+00   0.000000e+00
     1880000   1.879999e-05   3.607974e+00   1.312631e+01   3.714032e+01   1.865940e+05   7.094809e+04   8.719430e+05   1.581209e+01  -4.158591e+01  -2.456736e-21   8.945030e+05   3.250306e-39   0.000000e+00   0.000000e+00
     1888000   1.887999e-05   3.622902e+00   1.313199e+01   3.721008e+01   1.865940e+05   7.094809e+04   8.719430e+05   1.536947e+01  -4.042183e+01   3.665219e-21   8.945030e+05   3.071238e-39   0.000000e+00   0.000000e+00
     1896000   1.895999e-05   3.637829e+00   1.313766e+01   3.727983e+01   1.865940e+05   7.094809e+04   8.719430e+05   1.369109e+01  -3.600767e+01  -4.917985e-21   8.945030e+05   2.437099e-39   0.000000e+00   0.000000e+00
     1904000   1.903999e-05   3.652757e+00   1.314334e+01   3.734959e+01   1.865940e+05   7.094809e+04   8.719430e+05   2.514533e+01  -6.613241e+01  -6.164349e-21   8.945030e+05   8.220055e-39   0.000000e+00   0.000000e+00
     1912000   1.911999e-05   3.667684e+00   1.314901e+01   3.741934e+01   1.865940e+05   7.094809e+04   8.719430e+05   1.754568e+01  -4.614526e+01  -8.946955e-21   8.945030e+05   4.002528e-39   0.000000e+00   0.000000e+00
     1920000   1.919999e-05   3.682612e+00   1.315469e+01   3.748910e+01   1.865940e+05   7.094809e+04   8.719430e+05   1.586730e+01  -4.173110e+01  -4.997534e-22   8.945030e+05   3.273414e-39   0.000000e+00   0.000000e+00
     1928000   1.927999e-05   3.697539e+00   1.316036e+01   3.755885e+01   1.865940e+05   7.094809e+04   8.719430e+05   3.447858e+01  -9.067892e+01   3.399323e-21   8.945030e+05   1.545486e-38   0.000000e+00   0.000000e+00
     1936000   1.935999e-05   3.712467e+00   1.316604e+01   3.762861e+01   1.865940e+05   7.094809e+04   8.719430e+05   2.706420e+01  -7.117904e+01   9.739397e-21   8.945030e+05   9.522467e-39   0.000000e+00   0.000000e+00
     1944000   1.943999e-05   3.727394e+00   1.317172e+01   3.769837e+01   1.865940e+05   7.094809e+04   8.719430e+05   3.319588e+01  -8.730540e+01  -1.678943e-21   8.945030e+05   1.432623e-38   0.000000e+00   0.000000e+00
     1952000   1.951999e-05   3.742322e+00   1.317739e+01   3.776812e+01   1.865940e+05   7.094809e+04   8.719430e+05   1.843844e+01  -4.849322e+01   6.514163e-21   8.945030e+05   4.420425e-39   0.000000e+00   0.000000e+00
     1960000   1.959999e-05   3.757249e+00   1.318307e+01   3.783788e+01   1.865940e+05   7.094809e+04   8.719430e+05   2.994195e+01  -7.874754e+01  -5.230618e-21   8.945030e+05   1.165525e-38   0.000000e+00   0.000000e+00
     1968000   1.967999e-05   3.772177e+00   1.318874e+01   3.790763e+01   1.865940e+05   7.094809e+04   8.719430e+05   2.302501e+01  -6.055595e+01   6.899759e-21   8.945030e+05   6.893015e-39   0.000000e+00   0.000000e+00
     1976000   1.975999e-05   3.787104e+00   1.319442e+01   3.797739e+01   1.865940e+05   7.094809e+04   8.719430e+05   1.755966e+01  -4.618203e+01   1.811068e-21   8.945030e+05   4.009125e-39   0.000000e+00   0.000000e+00
     1984000   1.983999e-05   3.802032e+00   1.320010e+01   3.804714e+01   1.865940e+05   7.094809e+04   8.719430e+05   1.080349e+01  -2.841327e+01  -1.066279e-21   8.945030e+05   1.517309e-39   0.000000e+00   0.000000e+00
     1992000   1.991999e-05   3.816959e+00   1.320577e+01   3.811690e+01   1.865940e+05   7.094809e+04   8.719430e+05   1.443670e+01  -3.796864e+01  -1.050244e-20   8.945030e+05   2.709611e-39   0.000000e+00   0.000000e+00
     2000000   1.999999e-05   3.831887e+00   1.321145e+01   3.818665e+01   1.865940e+05   7.094809e+04   8.719430e+05   1.614585e+01  -4.246372e+01   1.151312e-20   8.945030e+05   3.389177e-39   0.000000e+00   0.000000e+00
     2008000   2.007999e-05   3.846815e+00   1.321712e+01   3.825641e+01   1.865940e+05   7.094809e+04   8.719430e+05   1.861065e+01  -4.894615e+01  -4.796618e-21   8.945030e+05   4.502821e-39   0.000000e+00   0.000000e+00
     2016000   2.015999e-05   3.861742e+00   1.322280e+01   3.832616e+01   1.865940e+05   7.094809e+04   8.719430e+05   2.311349e+01  -6.078864e+01   1.512389e-20   8.945030e+05   6.945549e-39   0.000000e+00   0.000000e+00
     2024000   2.023999e-05   3.876670e+00   1.322847e+01   3.839592e+01   1.865940e+05   7.094809e+04   8.719430e+05   2.482264e+01  -6.528372e+01   3.508336e-21   8.945030e+05   8.010729e-39   0.000000e+00   0.000000e+00
     2032000   2.031999e-05   3.891597e+00   1.323415e+01   3.846568e+01   1.865940e+05   7.094809e+04   8.719430e+05   2.641781e+01  -6.947903e+01   7.296754e-21   8.945030e+05   9.073225e-39   0.000000e+00   0.000000e+00
     2040000   2.039999e-05   3.906525e+00   1.323983e+01   3.853543e+01   1.865940e+05   7.094809e+04   8.719430e+05   2.229128e+01  -5.862624e+01  -5.471308e-21   8.945030e+05   6.460507e-39   0.000000e+00   0.000000e+00
     2048000   2.047999e-05   3.921452e+00   1.324550e+01   3.860519e+01   1.865940e+05   7.094809e+04   8.719430e+05   2.525335e+01  -6.641648e+01  -8.855947e-21   8.945030e+05   8.290959e-39   0.000000e+00   0.000000e+00
     2056000   2.055999e-05   3.936380e+00   1.325118e+01   3.867494e+01   1.865940e+05   7.094809e+04   8.719430e+05   2.915232e+01  -7.667082e+01  -1.048792e-20   8.945030e+05   1.104881e-38   0.000000e+00   0.000000e+00
     2064000   2.063999e-05   3.951307e+00   1.325685e+01   3.874470e+01   1.865940e+05   7.094809e+04   8.719430e+05   2.260359e+01  -5.944761e+01  -4.384018e-21   8.945030e+05   6.642799e-39   0.000000e+00   0.000000e+00
     2072000   2.071999e-05   3.966235e+00   1.326253e+01   3.881445e+01   1.865940e+05   7.094809e+04   8.719430e+05   2.879606e+01  -7.573384e+01  -1.573393e-20   8.945030e+05   1.078040e-38   0.000000e+00   0.000000e+00
     2080000   2.079999e-05   3.981162e+00   1.326821e+01   3.888421e+01   1.865940e+05   7.094809e+04   8.719430e+05   3.269503e+01  -8.598818e+01  -1.107012e-20   8.945030e+05   1.389742e-38   0.000000e+00   0.000000e+00
     2088000   2.087999e-05   3.996090e+00   1.327388e+01   3.895396e+01   1.865940e+05   7.094809e+04   8.719430e+05   2.291590e+01  -6.026898e+01  -3.092610e-21   8.945030e+05   6.827627e-39   0.000000e+00   0.000000e+00
     2096000   2.095999e-05   4.011017e+00   1.327956e+01   3.902372e+01   1.865940e+05   7.094809e+04   8.719430e+05   2.085909e+01  -5.485956e+01  -3.725809e-21   8.945030e+05   5.656740e-39   0.000000e+00   0.000000e+00
     2104000   2.103999e-05   4.025945e+00   1.328523e+01   3.909347e+01   1.865940e+05   7.094809e+04   8.719430e+05   2.242887e+01  -5.898809e+01   3.420490e-21   8.945030e+05   6.540198e-39   0.000000e+00   0.000000e+00
     2112000   2.111999e-05   4.040872e+00   1.329091e+01   3.916323e+01   1.865940e+05   7.094809e+04   8.719430e+05   9.992377e+00  -2.628003e+01   1.912014e-21   8.945030e+05   1.298305e-39   0.000000e+00   0.000000e+00
     2120000   2.119999e-05   4.055800e+00   1.329658e+01   3.923299e+01   1.865940e+05   7.094809e+04   8.719430e+05   2.038597e+01  -5.361525e+01  -6.985300e-21   8.945030e+05   5.403039e-39   0.000000e+00   0.000000e+00
     2128000   2.127999e-05   4.070727e+00   1.330226e+01   3.930274e+01   1.865940e+05   7.094809e+04   8.719430e+05   2.790258e+01  -7.338399e+01  -1.170551e-20   8.945030e+05   1.012198e-38   0.000000e+00   0.000000e+00
     2136000   2.135999e-05   4.085655e+00   1.330794e+01   3.937250e+01   1.865940e+05   7.094809e+04   8.719430e+05   2.969758e+01  -7.810486e+01   8.154913e-22   8.945030e+05   1.146620e-38   0.000000e+00   0.000000e+00
     2144000   2.143999e-05   4.100582e+00   1.331361e+01   3.944225e+01   1.865940e+05   7.094809e+04   8.719430e+05   2.766353e+01  -7.275528e+01  -4.770584e-21   8.945030e+05   9.949147e-39   0.000000e+00   0.000000e+00
     2152000   2.151999e-05   4.115510e+00   1.331929e+01   3.951201e+01   1.865940e+05   7.094809e+04   8.719430e+05   2.607712e+01  -6.858302e+01   5.176650e-21   8.945030e+05   8.841598e-39   0.000000e+00   0.000000e+00
     2160000   2.159999e-05   4.130437e+00   1.332496e+01   3.958176e+01   1.865940e+05   7.094809e+04   8.719430e+05   1.939342e+01  -5.100482e+01   2.019880e-21   8.945030e+05   4.890235e-39   0.000000e+00   0.000000e+00
     2168000   2.167999e-05   4.145365e+00   1.333064e+01   3.965152e+01   1.865940e+05   7.094809e+04   8.719430e+05   2.661518e+01  -6.999813e+01   1.039854e-20   8.945030e+05   9.209353e-39   0.000000e+00   0.000000e+00
     2176000   2.175999e-05   4.160292e+00   1.333632e+01   3.972127e+01   1.865940e+05   7.094809e+04   8.719430e+05   1.701112e+01  -4.473938e+01   9.783609e-22   8.945030e+05   3.762638e-39   0.000000e+00   0.000000e+00
     2184000   2.183999e-05   4.175220e+00   1.334199e+01   3.979103e+01   1.865940e+05   7.094809e+04   8.719430e+05   1.032742e+01  -2.716119e+01   2.601077e-21   8.945030e+05   1.386876e-39   0.000000e+00   0.000000e+00
     2192000   2.191999e-05   4.190147e+00   1.334767e+01   3.986078e+01   1.865940e+05   7.094809e+04   8.719430e+05   2.556684e+01  -6.724097e+01  -9.194728e-21   8.945030e+05   8.498136e-39   0.000000e+00   0.000000e+00
     2200000   2.199999e-05   4.205075e+00   1.335334e+01   3.993054e+01   1.865940e+05   7.094809e+04   8.719430e+05   2.041433e+01  -5.368983e+01  -3.563661e-21   8.945030e+05   5.417991e-39   0.000000e+00   0.000000e+00
     2208000   2.207999e-05   4.220002e+00   1.335902e+01   4.000030e+01   1.865940e+05   7.094809e+04   8.719430e+05   2.378776e+01  -6.256199e+01  -7.433365e-21   8.945030e+05   7.357265e-39   0.000000e+00   0.000000e+00
     2216000   2.215999e-05   4.234930e+00   1.336470e+01   4.007005e+01   1.865940e+05   7.094809e+04   8.719430e+05   1.818470e+01  -4.782591e+01  -5.842982e-22   8.945030e+05   4.299616e-39   0.000000e+00   0.000000e+00
     2224000   2.223999e-05   4.249858e+00   1.337037e+01   4.013981e+01   1.865940e+05   7.094809e+04   8.719430e+05   1.542592e+01  -4.057030e+01  -1.927622e-21   8.945030e+05   3.093611e-39   0.000000e+00   0.000000e+00
     2232000   2.231999e-05   4.264785e+00   1.337605e+01   4.020956e+01   1.865940e+05   7.094809e+04   8.719430e+05   2.068594e+01  -5.440419e+01  -1.500862e-20   8.945030e+05   5.563701e-39   0.000000e+00   0.000000e+00
     2240000   2.239999e-05   4.279713e+00   1.338172e+01   4.027932e+01   1.865940e+05   7.094809e+04   8.719430e+05   1.508289e+01  -3.966811e+01   2.737944e-21   8.945030e+05   2.957965e-39   0.000000e+00   0.000000e+00
     2248000   2.247999e-05   4.294640e+00   1.338740e+01   4.034907e+01   1.865940e+05   7.094809e+04   8.719430e+05   1.043752e+01  -2.745076e+01   1.716939e-21   8.945030e+05   1.416278e-39   0.000000e+00   0.000000e+00
     2256000   2.255999e-05   4.309568e+00   1.339307e+01   4.041883e+01   1.865940e+05   7.094809e+04   8.719430e+05   8.713923e+00  -2.291768e+01   5.896526e-21   8.945030e+05   9.875220e-40   0.000000e+00   0.000000e+00
     2264000   2.263999e-05   4.324495e+00   1.339875e+01   4.048858e+01   1.865940e+05   7.094809e+04   8.719430e+05  -2.172802e+00   5.714484e+00   4.806111e-22   8.945030e+05   6.130271e-41   0.000000e+00   0.000000e+00
     2272000   2.271999e-05   4.339423e+00   1.340443e+01   4.055834e+01   1.865940e+05   7.094809e+04   8.719430e+05   2.289518e+01  -6.021449e+01   6.087812e-21   8.945030e+05   6.815496e-39   0.000000e+00   0.000000e+00
     2280000   2.279999e-05   4.354350e+00   1.341010e+01   4.062809e+01   1.865940e+05   7.094809e+04   8.719430e+05   2.941292e+01  -7.735620e+01   2.163707e-24   8.945030e+05   1.124639e-38   0.000000e+00   0.000000e+00
     2288000   2.287999e-05   4.369278e+00   1.341578e+01   4.069785e+01   1.865940e+05   7.094809e+04   8.719430e+05   4.209781e+01  -1.107176e+02  -6.053266e-21   8.945030e+05   2.303934e-38   0.000000e+00   0.000000e+00
     2296000   2.295999e-05   4.384205e+00   1.342145e+01   4.076760e+01   1.865940e+05   7.094809e+04   8.719430e+05   2.994575e+01  -7.875754e+01   6.380233e-21   8.945030e+05   1.165933e-38   0.000000e+00   0.000000e+00
     2304000   2.303999e-05   4.399133e+00   1.342713e+01   4.083736e+01   1.865940e+05   7.094809e+04   8.719430e+05   4.416937e+01  -1.161658e+02   2.484117e-21   8.945030e+05   2.536266e-38   0.000000e+00   0.000000e+00
     2312000   2.311999e-05   4.414060e+00   1.343281e+01   4.090712e+01   1.865940e+05   7.094809e+04   8.719430e+05   3.446483e+01  -9.064276e+01   2.823236e-21   8.945030e+05   1.544388e-38   0.000000e+00   0.000000e+00
     2320000   2.319999e-05   4.428988e+00   1.343848e+01   4.097687e+01   1.865940e+05   7.094809e+04   8.719430e+05   2.802818e+01  -7.371432e+01   5.186621e-21   8.945030e+05   1.021406e-38   0.000000e+00   0.000000e+00
     2328000   2.327999e-05   4.443915e+00   1.344416e+01   4.104663e+01   1.865940e+05   7.094809e+04   8.719430e+05   2.786481e+01  -7.328464e+01  -3.171522e-21   8.945030e+05   1.009484e-38   0.000000e+00   0.000000e+00
     2336000   2.335999e-05   4.458843e+00   1.344983e+01   4.111638e+01   1.865940e+05   7.094809e+04   8.719430e+05   2.333821e+01  -6.137966e+01   3.482345e-21   8.945030e+05   7.081882e-39   0.000000e+00   0.000000e+00
     2344000   2.343999e-05   4.473770e+00   1.345551e+01   4.118614e+01   1.865940e+05   7.094809e+04   8.719430e+05   1.690156e+01  -4.445123e+01   3.282772e-21   8.945030e+05   3.714314e-39   0.000000e+00   0.000000e+00
     2352000   2.351999e-05   4.488698e+00   1.346118e+01   4.125589e+01   1.865940e+05   7.094809e+04   8.719430e+05   1.674881e+01  -4.404949e+01  -7.577375e-21   8.945030e+05   3.647185e-39   0.000000e+00   0.000000e+00
     2360000   2.359999e-05   4.503625e+00   1.346686e+01   4.132565e+01   1.865940e+05   7.094809e+04   8.719430e+05   1.672068e+01  -4.397550e+01  -5.154472e-22   8.945030e+05   3.635284e-39   0.000000e+00   0.000000e+00
     2368000   2.367999e-05   4.518553e+00   1.347254e+01   4.139540e+01   1.865940e+05   7.094809e+04   8.719430e+05   9.484188e+00  -2.494348e+01  -1.487427e-21   8.945030e+05   1.169679e-39   0.000000e+00   0.000000e+00
     2376000   2.375999e-05   4.533480e+00   1.347821e+01   4.146516e+01   1.865940e+05   7.094809e+04   8.719430e+05   3.073017e+01  -8.082057e+01  -2.422183e-20   8.945030e+05   1.227671e-38   0.000000e+00   0.000000e+00
     2384000   2.383999e-05   4.548408e+00   1.348389e+01   4.153491e+01   1.865940e+05   7.094809e+04   8.719430e+05   1.537226e+01  -4.042916e+01  -9.444926e-22   8.945030e+05   3.072631e-39   0.000000e+00   0.000000e+00
     2392000   2.391999e-05   4.563335e+00   1.348956e+01   4.160467e+01   1.865940e+05   7.094809e+04   8.719430e+05   2.817605e+01  -7.410321e+01   2.827832e-21   8.945030e+05   1.032071e-38   0.000000e+00   0.000000e+00
     2400000   2.399999e-05   4.578263e+00   1.349524e+01   4.167443e+01   1.865940e+05   7.094809e+04   8.719430e+05   3.707951e+01  -9.751939e+01  -1.525931e-20   8.945030e+05   1.787416e-38   0.000000e+00   0.000000e+00
     2408000   2.407999e-05   4.593190e+00   1.350092e+01   4.174418e+01   1.865940e+05   7.094809e+04   8.719430e+05   3.044701e+01  -8.007586e+01  -5.334973e-21   8.945030e+05   1.205172e-38   0.000000e+00   0.000000e+00
     2416000   2.415999e-05   4.608118e+00   1.350659e+01   4.181394e+01   1.865940e+05   7.094809e+04   8.719430e+05   2.956468e+01  -7.775532e+01   1.354824e-20   8.945030e+05   1.136455e-38   0.000000e+00   0.000000e+00
     2424000   2.423999e-05   4.623046e+00   1.351227e+01   4.188369e+01   1.865940e+05   7.094809e+04   8.719430e+05   2.354527e+01  -6.192423e+01   6.700794e-22   8.945030e+05   7.208066e-39   0.000000e+00   0.000000e+00
     2432000   2.431999e-05   4.637973e+00   1.351794e+01   4.195345e+01   1.865940e+05   7.094809e+04   8.719430e+05   3.030763e+01  -7.970929e+01   4.366931e-21   8.945030e+05   1.194201e-38   0.000000e+00   0.000000e+00
     2440000   2.439999e-05   4.652901e+00   1.352362e+01   4.202320e+01   1.865940e+05   7.094809e+04   8.719430e+05   1.967803e+01  -5.175337e+01  -1.324241e-21   8.945030e+05   5.034778e-39   0.000000e+00   0.000000e+00
     2448000   2.447999e-05   4.667828e+00   1.352929e+01   4.209296e+01   1.865940e+05   7.094809e+04   8.719430e+05   1.365863e+01  -3.592229e+01  -1.021509e-21   8.945030e+05   2.425748e-39   0.000000e+00   0.000000e+00
     2456000   2.455999e-05   4.682756e+00   1.353497e+01   4.216271e+01   1.865940e+05   7.094809e+04   8.719430e+05   3.058442e+01  -8.043726e+01  -4.534033e-21   8.945030e+05   1.216114e-38   0.000000e+00   0.000000e+00
     2464000   2.463999e-05   4.697683e+00   1.354065e+01   4.223247e+01   1.865940e+05   7.094809e+04   8.719430e+05   9.791391e+00  -2.575143e+01   7.327995e-21   8.945030e+05   1.246635e-39   0.000000e+00   0.000000e+00
     2472000   2.471999e-05   4.712611e+00   1.354632e+01   4.230222e+01   1.865940e+05   7.094809e+04   8.719430e+05   2.668823e+01  -7.019023e+01  -2.733015e-22   8.945030e+05   9.260972e-39   0.000000e+00   0.000000e+00
     2480000   2.479999e-05   4.727538e+00   1.355200e+01   4.237198e+01   1.865940e+05   7.094809e+04   8.719430e+05   1.846991e+01  -4.857600e+01  -3.643627e-21   8.945030e+05   4.435695e-39   0.000000e+00   0.000000e+00
     2488000   2.487999e-05   4.742466e+00   1.355767e+01   4.244174e+01   1.865940e+05   7.094809e+04   8.719430e+05   2.855090e+01  -7.508909e+01   1.174702e-21   8.945030e+05   1.059712e-38   0.000000e+00   0.000000e+00
     2496000   2.495999e-05   4.757393e+00   1.356335e+01   4.251149e+01   1.865940e+05   7.094809e+04   8.719430e+05   2.633522e+01  -6.926181e+01  -3.094771e-21   8.945030e+05   9.017608e-39   0.000000e+00   0.000000e+00
     2504000   2.503999e-05   4.772321e+00   1.356903e+01   4.258125e+01   1.865940e+05   7.094809e+04   8.719430e+05   1.811690e+01  -4.764758e+01   4.162396e-21   8.945030e+05   4.267768e-39   0.000000e+00   0.000000e+00
     2512000   2.511999e-05   4.787248e+00   1.357470e+01   4.265100e+01   1.865940e+05   7.094809e+04   8.719430e+05   3.220071e+01  -8.468811e+01  -3.382959e-21   8.945030e+05   1.347979e-38   0.000000e+00   0.000000e+00
     2520000   2.519999e-05   4.802176e+00   1.358038e+01   4.272076e+01   1.865940e+05   7.094809e+04   8.719430e+05   1.713653e+01  -4.506919e+01  -4.869035e-21   8.945030e+05   3.818507e-39   0.000000e+00   0.000000e+00
     2528000   2.527999e-05   4.817103e+00   1.358605e+01   4.279051e+01   1.865940e+05   7.094809e+04   8.719430e+05   6.979529e+00  -1.835621e+01   1.848383e-22   8.945030e+05   6.335690e-40   0.000000e+00   0.000000e+00
     2536000   2.535999e-05   4.832031e+00   1.359173e+01   4.286027e+01   1.865940e+05   7.094809e+04   8.719430e+05   3.317361e+01  -8.724684e+01   5.341473e-21   8.945030e+05   1.430631e-38   0.000000e+00   0.000000e+00
     2544000   2.543999e-05   4.846958e+00   1.359740e+01   4.293002e+01   1.865940e+05   7.094809e+04   8.719430e+05   1.504817e+01  -3.957680e+01   9.270605e-21   8.945030e+05   2.944588e-39   0.000000e+00   0.000000e+00
     2552000   2.551999e-05   4.861886e+00   1.360308e+01   4.299978e+01   1.865940e+05   7.094809e+04   8.719430e+05   2.752232e+01  -7.238391e+01   2.814535e-21   8.945030e+05   9.847817e-39   0.000000e+00   0.000000e+00
     2560000   2.559999e-05   4.876813e+00   1.360876e+01   4.306953e+01   1.865940e+05   7.094809e+04   8.719430e+05   3.264595e+01  -8.585910e+01  -8.566562e-21   8.945030e+05   1.385593e-38   0.000000e+00   0.000000e+00
     2568000   2.567999e-05   4.891741e+00   1.361443e+01   4.313929e+01   1.865940e+05   7.094809e+04   8.719430e+05   3.105130e+01  -8.166514e+01  -3.800071e-22   8.945030e+05   1.253519e-38   0.000000e+00   0.000000e+00
     2576000   2.575999e-05   4.906668e+00   1.362011e+01   4.320905e+01   1.865940e+05   7.094809e+04   8.719430e+05   3.539086e+01  -9.307821e+01  -1.396150e-20   8.945030e+05   1.628484e-38   0.000000e+00   0.000000e+00
     2584000   2.583999e-05   4.921596e+00   1.362578e+01   4.327880e+01   1.865940e+05   7.094809e+04   8.719430e+05   2.964362e+01  -7.796293e+01  -8.255354e-21   8.945030e+05   1.142529e-38   0.000000e+00   0.000000e+00
     2592000   2.591999e-05   4.936523e+00   1.363146e+01   4.334856e+01   1.865940e+05   7.094809e+04   8.719430e+05   3.254010e+01  -8.558071e+01  -1.465010e-20   8.945030e+05   1.376602e-38   0.000000e+00   0.000000e+00
     2600000   2.599999e-05   4.951451e+00   1.363714e+01   4.341831e+01   1.865940e+05   7.094809e+04   8.719430e+05   3.127925e+01  -8.226467e+01  -9.205445e-21   8.945030e+05   1.272086e-38   0.000000e+00   0.000000e+00
     2608000   2.607999e-05   4.966378e+00   1.364281e+01   4.348807e+01   1.865940e+05   7.094809e+04   8.719430e+05   2.553201e+01  -6.714938e+01   1.105861e-21   8.945030e+05   8.475753e-39   0.000000e+00   0.000000e+00
     2616000   2.615999e-05   4.981306e+00   1.364849e+01   4.355782e+01   1.865940e+05   7.094809e+04   8.719430e+05   3.110591e+01  -8.180878e+01  -1.356189e-21   8.945030e+05   1.257928e-38   0.000000e+00   0.000000e+00
     2624000   2.623999e-05   4.996234e+00   1.365416e+01   4.362758e+01   1.865940e+05   7.094809e+04   8.719430e+05   2.716765e+01  -7.145113e+01   5.614638e-21   8.945030e+05   9.596456e-39   0.000000e+00   0.000000e+00
     2632000   2.631999e-05   5.011161e+00   1.365984e+01   4.369733e+01   1.865940e+05   7.094809e+04   8.719430e+05   7.029198e+00  -1.848684e+01   8.188037e-23   8.945030e+05   6.425874e-40   0.000000e+00   0.000000e+00
     2640000   2.639999e-05   5.026089e+00   1.366551e+01   4.376709e+01   1.865940e+05   7.094809e+04   8.719430e+05   2.394215e+01  -6.296802e+01   1.287128e-20   8.945030e+05   7.452471e-39   0.000000e+00   0.000000e+00
     2648000   2.647999e-05   5.041016e+00   1.367119e+01   4.383684e+01   1.865940e+05   7.094809e+04   8.719430e+05   5.650853e-01  -1.486178e+00   1.456394e-23   8.945030e+05   4.167868e-42   0.000000e+00   0.000000e+00
     2656000   2.655999e-05   5.055944e+00   1.367687e+01   4.390660e+01   1.865940e+05   7.094809e+04   8.719430e+05   1.688020e+01  -4.439506e+01   1.708686e-21   8.945030e+05   3.704466e-39   0.000000e+00   0.000000e+00
     2664000   2.663999e-05   5.070871e+00   1.368254e+01   4.397636e+01   1.865940e+05   7.094809e+04   8.719430e+05   1.898517e+01  -4.993114e+01  -1.207796e-20   8.945030e+05   4.685983e-39   0.000000e+00   0.000000e+00
     2672000   2.671999e-05   5.085799e+00   1.368822e+01   4.404611e+01   1.865940e+05   7.094809e+04   8.719430e+05  -1.476702e+01   3.883737e+01  -1.420407e-21   8.945030e+05   2.834681e-39   0.000000e+00   0.000000e+00
     2680000   2.679999e-05   5.100726e+00   1.369389e+01   4.411587e+01   1.865940e+05   7.094809e+04   8.719430e+05   2.686557e+01  -7.065664e+01   4.634822e-21   8.945030e+05   9.384021e-39   0.000000e+00   0.000000e+00
     2688000   2.687999e-05   5.115654e+00   1.369957e+01   4.418562e+01   1.865940e+05   7.094809e+04   8.719430e+05   2.359649e+01  -6.205895e+01  -8.671330e-23   8.945030e+05   7.239251e-39   0.000000e+00   0.000000e+00
     2696000   2.695999e-05   5.130581e+00   1.370525e+01   4.425538e+01   1.865940e+05   7.094809e+04   8.719430e+05   3.687455e+01  -9.698034e+01   4.567211e-21   8.945030e+05   1.767630e-38   0.000000e+00   0.000000e+00
     2704000   2.703999e-05   5.145509e+00   1.371092e+01   4.432513e+01   1.865940e+05   7.094809e+04   8.719430e+05   2.666755e+01  -7.013586e+01   1.149833e-20   8.945030e+05   9.246585e-39   0.000000e+00   0.000000e+00
     2712000   2.711999e-05   5.160436e+00   1.371660e+01   4.439489e+01   1.865940e+05   7.094809e+04   8.719430e+05   1.896731e+01  -4.988417e+01   4.247555e-21   8.945030e+05   4.677775e-39   0.000000e+00   0.000000e+00
     2720000   2.719999e-05   5.175364e+00   1.372227e+01   4.446464e+01   1.865940e+05   7.094809e+04   8.719430e+05   6.049815e+01  -1.591106e+02   1.574267e-20   8.945030e+05   4.758169e-38   0.000000e+00   0.000000e+00
     2728000   2.727999e-05   5.190291e+00   1.372795e+01   4.453440e+01   1.865940e+05   7.094809e+04   8.719430e+05   2.670541e+01  -7.023542e+01  -7.286357e-21   8.945030e+05   9.272855e-39   0.000000e+00   0.000000e+00
     2736000   2.735999e-05   5.205219e+00   1.373363e+01   4.460415e+01   1.865940e+05   7.094809e+04   8.719430e+05   4.065975e+01  -1.069355e+02  -9.295817e-21   8.945030e+05   2.149693e-38   0.000000e+00   0.000000e+00
     2744000   2.743999e-05   5.220146e+00   1.373930e+01   4.467391e+01   1.865940e+05   7.094809e+04   8.719430e+05   1.696025e+01  -4.460559e+01  -4.204353e-22   8.945030e+05   3.741107e-39   0.000000e+00   0.000000e+00
     2752000   2.751999e-05   5.235074e+00   1.374498e+01   4.474367e+01   1.865940e+05   7.094809e+04   8.719430e+05   4.266571e+01  -1.122111e+02   9.138469e-21   8.945030e+05   2.366446e-38   0.000000e+00   0.000000e+00
     2760000   2.759999e-05   5.250001e+00   1.375065e+01   4.481342e+01   1.865940e+05   7.094809e+04   8.719430e+05   2.064580e+01  -5.429861e+01   2.203105e-21   8.945030e+05   5.543345e-39   0.000000e+00   0.000000e+00
     2768000   2.767999e-05   5.264929e+00   1.375633e+01   4.488318e+01   1.865940e+05   7.094809e+04   8.719430e+05  -3.053698e+00   8.031249e+00  -8.972859e-22   8.945030e+05   1.210021e-40   0.000000e+00   0.000000e+00
     2776000   2.775999e-05   5.279856e+00   1.376200e+01   4.495293e+01   1.865940e+05   7.094809e+04   8.719430e+05   4.458761e+01  -1.172658e+02   4.319144e-21   8.945030e+05   2.584456e-38   0.000000e+00   0.000000e+00
     2784000   2.783999e-05   5.294784e+00   1.376768e+01   4.502269e+01   1.865940e+05   7.094809e+04   8.719430e+05   6.318505e-01  -1.661771e+00   1.844454e-22   8.945030e+05   5.239324e-42   0.000000e+00   0.000000e+00
     2792000   2.791999e-05   5.309711e+00   1.377336e+01   4.509244e+01   1.865940e+05   7.094809e+04   8.719430e+05   1.134092e+01  -2.982669e+01   6.669318e-21   8.945030e+05   1.672320e-39   0.000000e+00   0.000000e+00
     2800000   2.799999e-05   5.324639e+00   1.377903e+01   4.516220e+01   1.865940e+05   7.094809e+04   8.719430e+05   2.560861e+01  -6.735084e+01  -8.433353e-22   8.945030e+05   8.526021e-39   0.000000e+00   0.000000e+00
     2808000   2.807999e-05   5.339566e+00   1.378471e+01   4.523195e+01   1.865940e+05   7.094809e+04   8.719430e+05   1.010730e+01  -2.658228e+01   4.851826e-21   8.945030e+05   1.328307e-39   0.000000e+00   0.000000e+00
     2816000   2.815999e-05   5.354494e+00   1.379038e+01   4.530171e+01   1.865940e+05   7.094809e+04   8.719430e+05   2.300293e+01  -6.049788e+01  -9.060807e-21   8.945030e+05   6.879228e-39   0.000000e+00   0.000000e+00
     2824000   2.823999e-05   5.369422e+00   1.379606e+01   4.537146e+01   1.865940e+05   7.094809e+04   8.719430e+05   2.521019e+01  -6.630298e+01   3.966256e-21   8.945030e+05   8.262783e-39   0.000000e+00   0.000000e+00
     2832000   2.831999e-05   5.384349e+00   1.380174e+01   4.544122e+01   1.865940e+05   7.094809e+04   8.719430e+05   5.226206e+01  -1.374496e+02  -5.387476e-21   8.945030e+05   3.550748e-38   0.000000e+00   0.000000e+00
     2840000   2.839999e-05   5.399277e+00   1.380741e+01   4.551098e+01   1.865940e+05   7.094809e+04   8.719430e+05   3.288344e+01  -8.648368e+01  -9.849438e-22   8.945030e+05   1.405931e-38   0.000000e+00   0.000000e+00
     2848000   2.847999e-05   5.414204e+00   1.381309e+01   4.558073e+01   1.865940e+05   7.094809e+04   8.719430e+05   4.820555e+01  -1.267809e+02  -2.953914e-21   8.945030e+05   3.021004e-38   0.000000e+00   0.000000e+00
     2856000   2.855999e-05   5.429132e+00   1.381876e+01   4.565049e+01   1.865940e+05   7.094809e+04   8.719430e+05   2.956029e+01  -7.774377e+01   1.121373e-20   8.945030e+05   1.136238e-38   0.000000e+00   0.000000e+00
     2864000   2.863999e-05   5.444059e+00   1.382444e+01   4.572024e+01   1.865940e+05   7.094809e+04   8.719430e+05   3.566543e+01  -9.380035e+01  -1.628792e-20   8.945030e+05   1.653647e-38   0.000000e+00   0.000000e+00
     2872000   2.871999e-05   5.458987e+00   1.383011e+01   4.579000e+01   1.865940e+05   7.094809e+04   8.719430e+05   4.742669e+01  -1.247325e+02  -1.405037e-20   8.945030e+05   2.924168e-38   0.000000e+00   0.000000e+00
     2880000   2.879999e-05   5.473914e+00   1.383579e+01   4.585975e+01   1.865940e+05   7.094809e+04   8.719430e+05   9.814511e+00  -2.581224e+01  -4.063079e-21   8.945030e+05   1.252930e-39   0.000000e+00   0.000000e+00
     2888000   2.887999e-05   5.488842e+00   1.384147e+01   4.592951e+01   1.865940e+05   7.094809e+04   8.719430e+05   3.488657e+01  -9.175194e+01  -8.316627e-21   8.945030e+05   1.582208e-38   0.000000e+00   0.000000e+00
     2896000   2.895999e-05   5.503769e+00   1.384714e+01   4.599926e+01   1.865940e+05   7.094809e+04   8.719430e+05   2.390722e+01  -6.287615e+01  -4.688730e-22   8.945030e+05   7.431351e-39   0.000000e+00   0.000000e+00
     2904000   2.903999e-05   5.518697e+00   1.385282e+01   4.606902e+01   1.865940e+05   7.094809e+04   8.719430e+05   2.928319e+01  -7.701501e+01  -1.613063e-20   8.945030e+05   1.114826e-38   0.000000e+00   0.000000e+00
     2912000   2.911999e-05   5.533624e+00   1.385849e+01   4.613877e+01   1.865940e+05   7.094809e+04   8.719430e+05   2.596740e+01  -6.829445e+01   2.164559e-21   8.945030e+05   8.767275e-39   0.000000e+00   0.000000e+00
     2920000   2.919999e-05   5.548552e+00   1.386417e+01   4.620853e+01   1.865940e+05   7.094809e+04   8.719430e+05   2.296837e+01  -6.040698e+01  -8.369352e-21   8.945030e+05   6.858465e-39   0.000000e+00   0.000000e+00
     2928000   2.927999e-05   5.563479e+00   1.386985e+01   4.627828e+01   1.865940e+05   7.094809e+04   8.719430e+05   2.658258e+01  -6.991237e+01   8.161595e-21   8.945030e+05   9.186776e-39   0.000000e+00   0.000000e+00
     2936000   2.935999e-05   5.578407e+00   1.387552e+01   4.634804e+01   1.865940e+05   7.094809e+04   8.719430e+05   2.228606e+01  -5.861249e+01   1.299982e-20   8.945030e+05   6.457703e-39   0.000000e+00   0.000000e+00
     2944000   2.943999e-05   5.593334e+00   1.388120e+01   4.641780e+01   1.865940e+05   7.094809e+04   8.719430e+05   2.026775e+01  -5.330434e+01  -2.053883e-21   8.945030e+05   5.340422e-39   0.000000e+00   0.000000e+00
     2952000   2.951999e-05   5.608262e+00   1.388687e+01   4.648755e+01   1.865940e+05   7.094809e+04   8.719430e+05   4.654879e+01  -1.224237e+02   9.538107e-21   8.945030e+05   2.816912e-38   0.000000e+00   0.000000e+00
     2960000   2.959999e-05   5.623189e+00   1.389255e+01   4.655731e+01   1.865940e+05   7.094809e+04   8.719430e+05   3.550471e+01  -9.337764e+01   4.120564e-22   8.945030e+05   1.638950e-38   0.000000e+00   0.000000e+00
     2968000   2.967999e-05   5.638117e+00   1.389822e+01   4.662706e+01   1.865940e+05   7.094809e+04   8.719430e+05   5.200932e+01  -1.367849e+02   2.140789e-20   8.945030e+05   3.516589e-38   0.000000e+00   0.000000e+00
     2976000   2.975999e-05   5.653044e+00   1.390390e+01   4.669682e+01   1.865940e+05   7.094809e+04   8.719430e+05   2.702553e+01  -7.107733e+01  -6.721189e-21   8.945030e+05   9.496263e-39   0.000000e+00   0.000000e+00
     2984000   2.983999e-05   5.667972e+00   1.390958e+01   4.676657e+01   1.865940e+05   7.094809e+04   8.719430e+05   3.257722e+01  -8.567832e+01   2.101177e-20   8.945030e+05   1.379797e-38   0.000000e+00   0.000000e+00
     2992000   2.991999e-05   5.682899e+00   1.391525e+01   4.683633e+01   1.865940e+05   7.094809e+04   8.719430e+05   1.907990e+01  -5.018028e+01   7.097051e-22   8.945030e+05   4.733313e-39   0.000000e+00   0.000000e+00
     3000000   2.999999e-05   5.697827e+00   1.392093e+01   4.690608e+01   1.865940e+05   7.094809e+04   8.719430e+05   2.817485e+01  -7.410006e+01   3.650150e-21   8.945030e+05   1.032074e-38   0.000000e+00   0.000000e+00
     3008000   3.007999e-05   5.712754e+00   1.392660e+01   4.697584e+01   1.865940e+05   7.094809e+04   8.719430e+05   2.300881e+01  -6.051333e+01  -2.356307e-21   8.945030e+05   6.883401e-39   0.000000e+00   0.000000e+00
     3016000   3.015999e-05   5.727682e+00   1.393228e+01   4.704559e+01   1.865940e+05   7.094809e+04   8.719430e+05   3.031187e+01  -7.972044e+01   8.763257e-21   8.945030e+05   1.194478e-38   0.000000e+00   0.000000e+00
     3024000   3.023999e-05   5.742609e+00   1.393796e+01   4.711535e+01   1.865940e+05   7.094809e+04   8.719430e+05   3.045320e+01  -8.009215e+01   2.359989e-21   8.945030e+05   1.205795e-38   0.000000e+00   0.000000e+00
     3032000   3.031999e-05   5.757537e+00   1.394363e+01   4.718511e+01   1.865940e+05   7.094809e+04   8.719430e+05   2.383214e+01  -6.267869e+01   9.237987e-21   8.945030e+05   7.384818e-39   0.000000e+00   0.000000e+00
     3040000   3.039999e-05   5.772465e+00   1.394931e+01   4.725486e+01   1.865940e+05   7.094809e+04   8.719430e+05   3.569601e+01  -9.388077e+01  -2.695308e-20   8.945030e+05   1.656520e-38   0.000000e+00   0.000000e+00
     3048000   3.047999e-05   5.787392e+00   1.395498e+01   4.732462e+01   1.865940e+05   7.094809e+04   8.719430e+05   3.127653e+01  -8.225752e+01   1.506594e-20   8.945030e+05   1.271874e-38   0.000000e+00   0.000000e+00
     3056000   3.055999e-05   5.802320e+00   1.396066e+01   4.739437e+01   1.865940e+05   7.094809e+04   8.719430e+05   2.339920e+01  -6.154006e+01   8.777188e-21   8.945030e+05   7.118851e-39   0.000000e+00   0.000000e+00
     3064000   3.063999e-05   5.817247e+00   1.396633e+01   4.746413e+01   1.865940e+05   7.094809e+04   8.719430e+05   4.428291e+01  -1.164644e+02  -6.964198e-21   8.945030e+05   2.549343e-38   0.000000e+00   0.000000e+00
     3072000   3.071999e-05   5.832175e+00   1.397201e+01   4.753388e+01   1.865940e+05   7.094809e+04   8.719430e+05   3.178297e+01  -8.358944e+01  -2.005461e-20   8.945030e+05   1.313380e-38   0.000000e+00   0.000000e+00
     3080000   3.079999e-05   5.847102e+00   1.397769e+01   4.760364e+01   1.865940e+05   7.094809e+04   8.719430e+05   4.804823e+01  -1.263672e+02  -4.732252e-21   8.945030e+05   3.001324e-38   0.000000e+00   0.000000e+00
     3088000   3.087999e-05   5.862030e+00   1.398336e+01   4.767339e+01   1.865940e+05   7.094809e+04   8.719430e+05   5.936855e+01  -1.561397e+02   2.595617e-20   8.945030e+05   4.582219e-38   0.000000e+00   0.000000e+00
     3096000   3.095999e-05   5.876957e+00   1.398904e+01   4.774315e+01   1.865940e+05   7.094809e+04   8.719430e+05   3.492097e+01  -9.184241e+01   1.107537e-20   8.945030e+05   1.585523e-38   0.000000e+00   0.000000e+00
     3104000   3.103999e-05   5.891885e+00   1.399471e+01   4.781290e+01   1.865940e+05   7.094809e+04   8.719430e+05   6.313387e+01  -1.660425e+02  -6.827559e-22   8.945030e+05   5.181900e-38   0.000000e+00   0.000000e+00
     3112000   3.111999e-05   5.906812e+00   1.400039e+01   4.788266e+01   1.865940e+05   7.094809e+04   8.719430e+05   3.124497e+01  -8.217449e+01  -2.130158e-21   8.945030e+05   1.269238e-38   0.000000e+00   0.000000e+00
     3120000   3.119999e-05   5.921740e+00   1.400607e+01   4.795242e+01   1.865940e+05   7.094809e+04   8.719430e+05   2.975320e+01  -7.825114e+01   5.159609e-21   8.945030e+05   1.150944e-38   0.000000e+00   0.000000e+00
     3128000   3.127999e-05   5.936667e+00   1.401174e+01   4.802217e+01   1.865940e+05   7.094809e+04   8.719430e+05   3.205185e+01  -8.429661e+01   3.614609e-21   8.945030e+05   1.335639e-38   0.000000e+00   0.000000e+00
     3136000   3.135999e-05   5.951595e+00   1.401742e+01   4.809193e+01   1.865940e+05   7.094809e+04   8.719430e+05   3.230426e+01  -8.496045e+01   3.242486e-21   8.945030e+05   1.356759e-38   0.000000e+00   0.000000e+00
     3144000   3.143999e-05   5.966522e+00   1.402309e+01   4.816168e+01   1.865940e+05   7.094809e+04   8.719430e+05   2.693856e+01  -7.084862e+01  -1.006079e-20   8.945030e+05   9.434871e-39   0.000000e+00   0.000000e+00
     3152000   3.151999e-05   5.981450e+00   1.402877e+01   4.823144e+01   1.865940e+05   7.094809e+04   8.719430e+05   3.311115e+01  -8.708258e+01  -2.331259e-21   8.945030e+05   1.425383e-38   0.000000e+00   0.000000e+00
     3160000   3.159999e-05   5.996377e+00   1.403445e+01   4.830119e+01   1.865940e+05   7.094809e+04   8.719430e+05   2.496145e+01  -6.564879e+01   1.980232e-21   8.945030e+05   8.100781e-39   0.000000e+00   0.000000e+00
     3168000   3.167999e-05   6.011305e+00   1.404012e+01   4.837095e+01   1.865940e+05   7.094809e+04   8.719430e+05   3.364299e+01  -8.848132e+01  -1.174625e-20   8.945030e+05   1.471440e-38   0.000000e+00   0.000000e+00
     3176000   3.175999e-05   6.026232e+00   1.404580e+01   4.844070e+01   1.865940e+05   7.094809e+04   8.719430e+05   3.266473e+01  -8.590847e+01   1.734449e-21   8.945030e+05   1.387241e-38   0.000000e+00   0.000000e+00
     3184000   3.183999e-05   6.041160e+00   1.405147e+01   4.851046e+01   1.865940e+05   7.094809e+04   8.719430e+05   3.448910e+01  -9.070659e+01  -9.184633e-21   8.945030e+05   1.546385e-38   0.000000e+00   0.000000e+00
     3192000   3.191999e-05   6.056087e+00   1.405715e+01   4.858021e+01   1.865940e+05   7.094809e+04   8.719430e+05   4.392217e+01  -1.155156e+02  -6.591110e-21   8.945030e+05   2.508003e-38   0.000000e+00   0.000000e+00
     3200000   3.199999e-05   6.071015e+00   1.406282e+01   4.864997e+01   1.865940e+05   7.094809e+04   8.719430e+05   4.166353e+01  -1.095754e+02  -8.867632e-22   8.945030e+05   2.256855e-38   0.000000e+00   0.000000e+00
     3208000   3.207999e-05   6.085942e+00   1.406850e+01   4.871973e+01   1.865940e+05   7.094809e+04   8.719430e+05   4.476828e+01  -1.177409e+02  -2.209560e-21   8.945030e+05   2.605563e-38   0.000000e+00   0.000000e+00
     3216000   3.215999e-05   6.100870e+00   1.407418e+01   4.878948e+01   1.865940e+05   7.094809e+04   8.719430e+05   5.316724e+01  -1.398302e+02   1.739840e-20   8.945030e+05   3.674907e-38   0.000000e+00   0.000000e+00
     3224000   3.223999e-05   6.115797e+00   1.407985e+01   4.885924e+01   1.865940e+05   7.094809e+04   8.719430e+05   1.781690e+01  -4.685857e+01  -5.821219e-21   8.945030e+05   4.127939e-39   0.000000e+00   0.000000e+00
     3232000   3.231999e-05   6.130725e+00   1.408553e+01   4.892899e+01   1.865940e+05   7.094809e+04   8.719430e+05   5.135948e+01  -1.350758e+02   1.580613e-20   8.945030e+05   3.429245e-38   0.000000e+00   0.000000e+00
     3240000   3.239999e-05   6.145653e+00   1.409120e+01   4.899875e+01   1.865940e+05   7.094809e+04   8.719430e+05   6.384446e+01  -1.679114e+02  -6.376641e-20   8.945030e+05   5.299183e-38   0.000000e+00   0.000000e+00
     3248000   3.247999e-05   6.160580e+00   1.409688e+01   4.906850e+01   1.865940e+05   7.094809e+04   8.719430e+05   2.535359e+00  -6.668012e+00  -4.898319e-22   8.945030e+05   8.368791e-41   0.000000e+00   0.000000e+00
     3256000   3.255999e-05   6.175508e+00   1.410256e+01   4.913826e+01   1.865940e+05   7.094809e+04   8.719430e+05   2.796506e+01  -7.354832e+01   2.338723e-21   8.945030e+05   1.016888e-38   0.000000e+00   0.000000e+00
     3264000   3.263999e-05   6.190435e+00   1.410823e+01   4.920801e+01   1.865940e+05   7.094809e+04   8.719430e+05   4.250347e+01  -1.117844e+02  -7.768493e-21   8.945030e+05   2.348499e-38   0.000000e+00   0.000000e+00
     3272000   3.271999e-05   6.205363e+00   1.411391e+01   4.927777e+01   1.865940e+05   7.094809e+04   8.719430e+05   3.302426e+01  -8.685406e+01   2.116035e-20   8.945030e+05   1.417989e-38   0.000000e+00   0.000000e+00
     3280000   3.279999e-05   6.220290e+00   1.411958e+01   4.934752e+01   1.865940e+05   7.094809e+04   8.719430e+05   3.499824e+01  -9.204562e+01   3.748531e-21   8.945030e+05   1.592435e-38   0.000000e+00   0.000000e+00
     3288000   3.287999e-05   6.235218e+00   1.412526e+01   4.941728e+01   1.865940e+05   7.094809e+04   8.719430e+05   3.656158e+01  -9.615722e+01   2.688153e-21   8.945030e+05   1.738017e-38   0.000000e+00   0.000000e+00
     3296000   3.295999e-05   6.250145e+00   1.413093e+01   4.948704e+01   1.865940e+05   7.094809e+04   8.719430e+05   2.964273e+01  -7.796059e+01   3.629529e-21   8.945030e+05   1.142471e-38   0.000000e+00   0.000000e+00
     3304000   3.303999e-05   6.265073e+00   1.413661e+01   4.955679e+01   1.865963e+05   7.094417e+04   8.719429e+05   6.952324e+07  -1.203782e+08  -5.083639e+06   8.945030e+05   3.176724e-26   0.000000e+00   0.000000e+00
     3312000   3.311999e-05   6.280001e+00   1.414229e+01   4.962655e+01   1.866013e+05   7.093539e+04   8.719425e+05   3.831832e+07  -6.634749e+07  -2.802781e+06   8.945030e+05   9.643817e-27   0.000000e+00   0.000000e+00
     3320000   3.319999e-05   6.294929e+00   1.414796e+01   4.969630e+01   1.866103e+05   7.091988e+04   8.719418e+05   1.855310e+08  -3.212434e+08  -1.357824e+07   8.945030e+05   2.262561e-25   0.000000e+00   0.000000e+00
     3328000   3.327999e-05   6.309861e+00   1.415363e+01   4.976606e+01   1.866744e+05   7.080904e+04   8.719371e+05   7.230761e+08  -1.248156e+09  -5.344312e+07   8.945030e+05   3.421580e-24   0.000000e+00   0.000000e+00
     3336000   3.335999e-05   6.324797e+00   1.415929e+01   4.983581e+01   1.867372e+05   7.070049e+04   8.719325e+05   6.176581e+08  -1.070940e+09  -4.544366e+07   8.945030e+05   2.514173e-24   0.000000e+00   0.000000e+00
     3344000   3.343999e-05   6.339737e+00   1.416494e+01   4.990557e+01   1.867553e+05   7.066887e+04   8.719312e+05   0.000000e+00   0.000000e+00   0.000000e+00   8.945030e+05   0.000000e+00   0.000000e+00   0.000000e+00
     3352000   3.351999e-05   6.354678e+00   1.417060e+01   4.997532e+01   1.867553e+05   7.066887e+04   8.719312e+05   0.000000e+00   0.000000e+00   0.000000e+00   8.945030e+05   0.000000e+00   0.000000e+00   0.000000e+00
