     timestep     time              x             y              z              vx             vy             vz             ax             ay             az         v_magnitude      ELoss        Electronic      Nuclear
           0   0.000000e+00   1.000000e-01   7.961301e+00   2.052691e+01  -1.023603e+04  -4.772358e+05   1.496227e+06   0.000000e+00   0.000000e+00   0.000000e+00   1.570527e+06   0.000000e+00   0.000000e+00   0.000000e+00
        8000   7.999000e-08   9.918253e-02   7.923122e+00   2.064661e+01  -1.020426e+04  -4.772365e+05   1.496227e+06   2.974053e+08  -6.359115e+06  -4.841214e-14   1.570527e+06   4.479622e-25   0.000000e+00   0.000000e+00
       16000   1.599900e-07   9.836732e-02   7.884943e+00   2.076631e+01  -1.017503e+04  -4.772371e+05   1.496227e+06   3.647969e+08  -7.777726e+06  -5.727801e-14   1.570527e+06   6.739842e-25   0.000000e+00   0.000000e+00
       24000   2.399900e-07   9.755470e-02   7.846764e+00   2.088601e+01  -1.013912e+04  -4.772379e+05   1.496227e+06   4.553983e+08  -9.675136e+06  -1.132428e-13   1.570527e+06   1.050421e-24   0.000000e+00   0.000000e+00
       32000   3.199900e-07   9.674464e-02   7.808585e+00   2.100570e+01  -1.011209e+04  -4.772385e+05   1.496227e+06   5.481584e+08  -1.161480e+07  -1.700610e-13   1.570527e+06   1.521911e-24   0.000000e+00   0.000000e+00
       40000   3.999900e-07   9.593710e-02   7.770406e+00   2.112540e+01  -1.007711e+04  -4.772392e+05   1.496227e+06   4.856297e+08  -1.025428e+07  -1.367908e-13   1.570527e+06   1.194504e-24   0.000000e+00   0.000000e+00
       48000   4.799900e-07   9.513235e-02   7.732227e+00   2.124510e+01  -1.004467e+04  -4.772399e+05   1.496227e+06   3.176380e+08  -6.685466e+06  -7.511548e-14   1.570527e+06   5.109808e-25   0.000000e+00   0.000000e+00
       56000   5.599900e-07   9.433002e-02   7.694048e+00   2.136480e+01  -1.001118e+04  -4.772406e+05   1.496227e+06   3.844161e+08  -8.063980e+06  -9.397021e-14   1.570527e+06   7.484199e-25   0.000000e+00   0.000000e+00
       64000   6.399900e-07   9.353053e-02   7.655868e+00   2.148450e+01  -9.975078e+03  -4.772414e+05   1.496227e+06   4.529352e+08  -9.467046e+06  -9.826823e-14   1.570527e+06   1.039074e-24   0.000000e+00   0.000000e+00
       72000   7.199900e-07   9.273365e-02   7.617689e+00   2.160420e+01  -9.946799e+03  -4.772420e+05   1.496227e+06   5.450104e+08  -1.135925e+07  -1.710556e-13   1.570527e+06   1.504459e-24   0.000000e+00   0.000000e+00
       80000   7.999900e-07   9.193950e-02   7.579510e+00   2.172389e+01  -9.908470e+03  -4.772428e+05   1.496227e+06   4.828984e+08  -1.002590e+07  -1.164209e-13   1.570527e+06   1.181088e-24   0.000000e+00   0.000000e+00
       88000   8.799900e-07   9.114826e-02   7.541330e+00   2.184359e+01  -9.875435e+03  -4.772434e+05   1.496227e+06   3.372807e+08  -6.979236e+06  -6.759701e-14   1.570527e+06   5.761261e-25   0.000000e+00   0.000000e+00
       96000   9.599900e-07   9.035951e-02   7.503151e+00   2.196329e+01  -9.839781e+03  -4.772442e+05   1.496227e+06   5.121535e+08  -1.055954e+07  -1.388742e-13   1.570527e+06   1.328519e-24   0.000000e+00   0.000000e+00
      104000   1.039990e-06   8.957380e-02   7.464971e+00   2.208299e+01  -9.802779e+03  -4.772449e+05   1.496227e+06   4.503582e+08  -9.250520e+06  -1.349954e-13   1.570527e+06   1.027268e-24   0.000000e+00   0.000000e+00
      112000   1.119990e-06   8.879076e-02   7.426791e+00   2.220269e+01  -9.773293e+03  -4.772455e+05   1.496227e+06   5.417495e+08  -1.109425e+07  -1.860912e-13   1.570527e+06   1.486487e-24   0.000000e+00   0.000000e+00
      120000   1.199990e-06   8.801055e-02   7.388612e+00   2.232238e+01  -9.733017e+03  -4.772464e+05   1.496227e+06   4.800531e+08  -9.790262e+06  -1.347267e-13   1.570527e+06   1.167193e-24   0.000000e+00   0.000000e+00
      128000   1.279990e-06   8.723335e-02   7.350432e+00   2.244208e+01  -9.699454e+03  -4.772470e+05   1.496227e+06   3.563298e+08  -7.241965e+06  -5.357236e-14   1.570527e+06   6.430337e-25   0.000000e+00   0.000000e+00
      136000   1.359990e-06   8.645871e-02   7.312252e+00   2.256178e+01  -9.663377e+03  -4.772478e+05   1.496227e+06   5.090459e+08  -1.030724e+07  -1.604854e-13   1.570527e+06   1.312426e-24   0.000000e+00   0.000000e+00
      144000   1.439990e-06   8.568720e-02   7.274072e+00   2.268148e+01  -9.625130e+03  -4.772486e+05   1.496227e+06   4.476651e+08  -9.028495e+06  -9.686504e-14   1.570527e+06   1.015004e-24   0.000000e+00   0.000000e+00
      152000   1.519990e-06   8.491842e-02   7.235893e+00   2.280118e+01  -9.594477e+03  -4.772492e+05   1.496227e+06   5.383745e+08  -1.082333e+07  -1.566902e-13   1.570527e+06   1.468002e-24   0.000000e+00   0.000000e+00
      160000   1.599990e-06   8.415251e-02   7.197713e+00   2.292088e+01  -9.555545e+03  -4.772500e+05   1.496227e+06   4.770929e+08  -9.552405e+06  -1.340126e-13   1.570527e+06   1.152826e-24   0.000000e+00   0.000000e+00
      168000   1.679990e-06   8.338950e-02   7.159533e+00   2.304057e+01  -9.521522e+03  -4.772506e+05   1.496227e+06   3.747859e+08  -7.477273e+06  -6.355655e-14   1.570527e+06   7.113615e-25   0.000000e+00   0.000000e+00
      176000   1.759990e-06   8.262913e-02   7.121352e+00   2.316027e+01  -9.485005e+03  -4.772514e+05   1.496227e+06   5.058248e+08  -1.005289e+07  -1.440253e-13   1.570527e+06   1.295849e-24   0.000000e+00   0.000000e+00
      184000   1.839990e-06   8.187175e-02   7.083172e+00   2.327997e+01  -9.449951e+03  -4.772521e+05   1.496227e+06   4.448580e+08  -8.808529e+06  -1.166520e-13   1.570527e+06   1.002300e-24   0.000000e+00   0.000000e+00
      192000   1.919990e-06   8.111703e-02   7.044992e+00   2.339967e+01  -9.418144e+03  -4.772527e+05   1.496227e+06   4.156298e+08  -8.202076e+06  -9.317947e-14   1.570527e+06   8.748536e-25   0.000000e+00   0.000000e+00
      200000   1.999990e-06   8.036521e-02   7.006812e+00   2.351937e+01  -9.379853e+03  -4.772534e+05   1.496227e+06   3.278326e+08  -6.443165e+06  -6.166337e-14   1.570527e+06   5.442777e-25   0.000000e+00   0.000000e+00
      208000   2.079990e-06   7.961612e-02   6.968632e+00   2.363906e+01  -9.347364e+03  -4.772541e+05   1.496227e+06   3.926594e+08  -7.690521e+06  -8.634825e-14   1.570527e+06   7.808196e-25   0.000000e+00   0.000000e+00
      216000   2.159990e-06   7.886972e-02   6.930451e+00   2.375876e+01  -9.310391e+03  -4.772548e+05   1.496227e+06   5.024943e+08  -9.802774e+06  -1.570361e-13   1.570527e+06   1.278823e-24   0.000000e+00   0.000000e+00
      224000   2.239990e-06   7.812627e-02   6.892271e+00   2.387846e+01  -9.277202e+03  -4.772554e+05   1.496227e+06   4.419420e+08  -8.590761e+06  -9.647883e-14   1.570527e+06   9.891890e-25   0.000000e+00   0.000000e+00
      232000   2.319990e-06   7.738541e-02   6.854090e+00   2.399816e+01  -9.244213e+03  -4.772561e+05   1.496227e+06   4.329576e+08  -8.386177e+06  -9.442483e-14   1.570527e+06   9.493085e-25   0.000000e+00   0.000000e+00
      240000   2.399990e-06   7.664749e-02   6.815910e+00   2.411786e+01  -9.205867e+03  -4.772568e+05   1.496227e+06   3.457368e+08  -6.668964e+06  -5.904703e-14   1.570527e+06   6.053445e-25   0.000000e+00   0.000000e+00
      248000   2.479990e-06   7.591224e-02   6.777729e+00   2.423756e+01  -9.174430e+03  -4.772574e+05   1.496227e+06   4.099634e+08  -7.880825e+06  -8.929063e-14   1.570527e+06   8.511451e-25   0.000000e+00   0.000000e+00
      256000   2.559990e-06   7.517971e-02   6.739549e+00   2.435725e+01  -9.136983e+03  -4.772581e+05   1.496227e+06   4.990600e+08  -9.554380e+06  -1.308537e-13   1.570527e+06   1.261385e-24   0.000000e+00   0.000000e+00
      264000   2.639990e-06   7.445014e-02   6.701368e+00   2.447695e+01  -9.104227e+03  -4.772588e+05   1.496227e+06   3.859147e+08  -7.361744e+06  -9.169664e-14   1.570527e+06   7.542105e-25   0.000000e+00   0.000000e+00
      272000   2.719990e-06   7.372314e-02   6.663187e+00   2.459665e+01  -9.070285e+03  -4.772594e+05   1.496227e+06   4.497221e+08  -8.546945e+06  -1.226819e-13   1.570527e+06   1.024236e-24   0.000000e+00   0.000000e+00
      280000   2.799990e-06   7.299913e-02   6.625006e+00   2.471635e+01  -9.031898e+03  -4.772601e+05   1.496227e+06   3.630762e+08  -6.871030e+06  -8.270016e-14   1.570527e+06   6.675780e-25   0.000000e+00   0.000000e+00
      288000   2.879990e-06   7.227780e-02   6.586826e+00   2.483605e+01  -9.000247e+03  -4.772607e+05   1.496227e+06   4.267062e+08  -8.046887e+06  -1.148332e-13   1.570527e+06   9.220747e-25   0.000000e+00   0.000000e+00
      296000   2.959990e-06   7.155925e-02   6.548645e+00   2.495574e+01  -8.962311e+03  -4.772615e+05   1.496227e+06   4.955241e+08  -9.305263e+06  -1.544236e-13   1.570527e+06   1.243556e-24   0.000000e+00   0.000000e+00
      304000   3.039990e-06   7.084368e-02   6.510464e+00   2.507544e+01  -8.928669e+03  -4.772621e+05   1.496227e+06   4.027163e+08  -7.534063e+06  -9.505594e-14   1.570527e+06   8.213027e-25   0.000000e+00   0.000000e+00
      312000   3.119990e-06   7.013079e-02   6.472283e+00   2.519514e+01  -8.893067e+03  -4.772628e+05   1.496227e+06   4.659291e+08  -8.681886e+06  -1.146764e-13   1.570527e+06   1.099374e-24   0.000000e+00   0.000000e+00
      320000   3.199990e-06   6.942094e-02   6.434102e+00   2.531484e+01  -8.854655e+03  -4.772635e+05   1.496227e+06   3.798560e+08  -7.047460e+06  -9.243375e-14   1.570527e+06   7.307004e-25   0.000000e+00   0.000000e+00
      328000   3.279990e-06   6.871388e-02   6.395921e+00   2.543454e+01  -8.819828e+03  -4.772641e+05   1.496227e+06   4.428925e+08  -8.184646e+06  -1.222253e-13   1.570527e+06   9.933434e-25   0.000000e+00   0.000000e+00
      336000   3.359990e-06   6.800979e-02   6.357739e+00   2.555423e+01  -8.781388e+03  -4.772648e+05   1.496227e+06   4.918878e+08  -9.050448e+06  -1.538581e-13   1.570527e+06   1.225355e-24   0.000000e+00   0.000000e+00
      344000   3.439990e-06   6.730871e-02   6.319558e+00   2.567393e+01  -8.746935e+03  -4.772655e+05   1.496227e+06   4.189591e+08  -7.678346e+06  -1.220372e-13   1.570527e+06   8.888790e-25   0.000000e+00   0.000000e+00
      352000   3.519990e-06   6.661051e-02   6.281377e+00   2.579363e+01  -8.708177e+03  -4.772662e+05   1.496227e+06   4.815798e+08  -8.786889e+06  -1.353097e-13   1.570527e+06   1.174456e-24   0.000000e+00   0.000000e+00
      360000   3.599990e-06   6.591544e-02   6.243196e+00   2.591333e+01  -8.669754e+03  -4.772669e+05   1.496227e+06   3.960756e+08  -7.194884e+06  -9.454611e-14   1.570527e+06   7.944237e-25   0.000000e+00   0.000000e+00
      368000   3.679990e-06   6.522322e-02   6.205014e+00   2.603303e+01  -8.633253e+03  -4.772675e+05   1.496227e+06   5.474804e+08  -9.903334e+06  -1.725925e-13   1.570527e+06   1.517961e-24   0.000000e+00   0.000000e+00
      376000   3.759990e-06   6.453416e-02   6.166833e+00   2.615273e+01  -8.593446e+03  -4.772682e+05   1.496227e+06   4.881497e+08  -8.789377e+06  -1.307688e-13   1.570527e+06   1.206785e-24   0.000000e+00   0.000000e+00
      384000   3.839990e-06   6.384813e-02   6.128651e+00   2.627242e+01  -8.558253e+03  -4.772689e+05   1.496227e+06   4.346409e+08  -7.793864e+06  -1.048791e-13   1.570527e+06   9.566544e-25   0.000000e+00   0.000000e+00
      392000   3.919990e-06   6.316507e-02   6.090470e+00   2.639212e+01  -8.517636e+03  -4.772696e+05   1.496227e+06   4.966715e+08  -8.863899e+06  -1.402037e-13   1.570527e+06   1.249203e-24   0.000000e+00   0.000000e+00
      400000   3.999990e-06   6.248524e-02   6.052288e+00   2.651182e+01  -8.479218e+03  -4.772703e+05   1.496227e+06   4.117333e+08  -7.314887e+06  -9.599930e-14   1.570527e+06   8.584650e-25   0.000000e+00   0.000000e+00
      408000   4.079990e-06   6.180831e-02   6.014107e+00   2.663152e+01  -8.442019e+03  -4.772709e+05   1.496227e+06   5.432308e+08  -9.608730e+06  -1.644491e-13   1.570527e+06   1.494466e-24   0.000000e+00   0.000000e+00
      416000   4.159990e-06   6.113461e-02   5.975925e+00   2.675122e+01  -8.401133e+03  -4.772717e+05   1.496227e+06   4.843099e+08  -8.525029e+06  -1.270875e-13   1.570527e+06   1.187857e-24   0.000000e+00   0.000000e+00
      424000   4.239990e-06   6.046398e-02   5.937743e+00   2.687091e+01  -8.365273e+03  -4.772723e+05   1.496227e+06   4.497627e+08  -7.883108e+06  -1.186465e-13   1.570527e+06   1.024366e-24   0.000000e+00   0.000000e+00
      432000   4.319990e-06   5.979638e-02   5.899561e+00   2.699061e+01  -8.324055e+03  -4.772730e+05   1.496227e+06   5.112073e+08  -8.915903e+06  -1.477719e-13   1.570527e+06   1.323375e-24   0.000000e+00   0.000000e+00
      440000   4.399990e-06   5.913203e-02   5.861379e+00   2.711031e+01  -8.285656e+03  -4.772737e+05   1.496227e+06   4.268324e+08  -7.409980e+06  -1.124802e-13   1.570527e+06   9.225713e-25   0.000000e+00   0.000000e+00
      448000   4.479990e-06   5.847062e-02   5.823198e+00   2.723001e+01  -8.247754e+03  -4.772743e+05   1.496227e+06   5.388817e+08  -9.312395e+06  -1.488739e-13   1.570527e+06   1.470612e-24   0.000000e+00   0.000000e+00
      456000   4.559990e-06   5.781246e-02   5.785016e+00   2.734971e+01  -8.207219e+03  -4.772750e+05   1.496227e+06   4.803691e+08  -8.260429e+06  -1.323896e-13   1.570527e+06   1.168588e-24   0.000000e+00   0.000000e+00
      464000   4.639990e-06   5.715735e-02   5.746834e+00   2.746941e+01  -8.170759e+03  -4.772757e+05   1.496227e+06   4.643297e+08  -7.949134e+06  -1.422757e-13   1.570527e+06   1.091781e-24   0.000000e+00   0.000000e+00
      472000   4.719990e-06   5.650531e-02   5.708651e+00   2.758910e+01  -8.129594e+03  -4.772764e+05   1.496227e+06   5.072977e+08  -8.640962e+06  -1.374402e-13   1.570527e+06   1.303269e-24   0.000000e+00   0.000000e+00
      480000   4.799990e-06   5.585643e-02   5.670469e+00   2.770880e+01  -8.092575e+03  -4.772770e+05   1.496227e+06   4.413794e+08  -7.483910e+06  -8.842886e-14   1.570527e+06   9.865154e-25   0.000000e+00   0.000000e+00
      488000   4.879990e-06   5.521051e-02   5.632287e+00   2.782850e+01  -8.053966e+03  -4.772777e+05   1.496227e+06   5.344357e+08  -9.018502e+06  -1.708977e-13   1.570527e+06   1.446426e-24   0.000000e+00   0.000000e+00
      496000   4.959990e-06   5.456780e-02   5.594105e+00   2.794820e+01  -8.015361e+03  -4.772783e+05   1.496227e+06   4.763306e+08  -7.999451e+06  -1.350536e-13   1.570527e+06   1.149006e-24   0.000000e+00   0.000000e+00
      504000   5.039990e-06   5.392805e-02   5.555923e+00   2.806790e+01  -7.978369e+03  -4.772789e+05   1.496227e+06   4.783516e+08  -7.996305e+06  -1.237610e-13   1.570527e+06   1.158702e-24   0.000000e+00   0.000000e+00
      512000   5.119990e-06   5.329141e-02   5.517740e+00   2.818759e+01  -7.937236e+03  -4.772796e+05   1.496227e+06   5.030092e+08  -8.365129e+06  -1.451793e-13   1.570527e+06   1.281310e-24   0.000000e+00   0.000000e+00
      520000   5.199990e-06   5.265785e-02   5.479558e+00   2.830729e+01  -7.901431e+03  -4.772802e+05   1.496227e+06   4.553855e+08  -7.538966e+06  -1.214027e-13   1.570527e+06   1.050105e-24   0.000000e+00   0.000000e+00
      528000   5.279990e-06   5.202726e-02   5.441375e+00   2.842699e+01  -7.862109e+03  -4.772809e+05   1.496227e+06   5.298971e+08  -8.728847e+06  -1.654103e-13   1.570527e+06   1.421944e-24   0.000000e+00   0.000000e+00
      536000   5.359990e-06   5.139989e-02   5.403193e+00   2.854669e+01  -7.824010e+03  -4.772815e+05   1.496227e+06   4.316604e+08  -7.076154e+06  -1.149549e-13   1.570527e+06   9.435302e-25   0.000000e+00   0.000000e+00
      544000   5.439990e-06   5.077544e-02   5.365010e+00   2.866639e+01  -7.786790e+03  -4.772821e+05   1.496227e+06   4.918403e+08  -8.024309e+06  -1.383332e-13   1.570527e+06   1.224955e-24   0.000000e+00   0.000000e+00
      552000   5.519990e-06   5.015414e-02   5.326828e+00   2.878609e+01  -7.745667e+03  -4.772828e+05   1.496227e+06   4.986292e+08  -8.092097e+06  -1.411248e-13   1.570527e+06   1.259076e-24   0.000000e+00   0.000000e+00
      560000   5.599990e-06   4.953591e-02   5.288645e+00   2.890578e+01  -7.709946e+03  -4.772833e+05   1.496227e+06   4.688614e+08  -7.573904e+06  -1.389875e-13   1.570527e+06   1.113161e-24   0.000000e+00   0.000000e+00
      568000   5.679990e-06   4.892068e-02   5.250462e+00   2.902548e+01  -7.669908e+03  -4.772840e+05   1.496227e+06   5.252691e+08  -8.441031e+06  -1.591141e-13   1.570527e+06   1.397196e-24   0.000000e+00   0.000000e+00
      576000   5.759990e-06   4.830869e-02   5.212280e+00   2.914518e+01  -7.631536e+03  -4.772846e+05   1.496227e+06   4.451940e+08  -7.118428e+06  -1.027801e-13   1.570527e+06   1.003610e-24   0.000000e+00   0.000000e+00
      584000   5.839990e-06   4.769964e-02   5.174097e+00   2.926488e+01  -7.593778e+03  -4.772852e+05   1.496227e+06   5.048039e+08  -8.031617e+06  -1.337896e-13   1.570527e+06   1.290364e-24   0.000000e+00   0.000000e+00
      592000   5.919990e-06   4.709379e-02   5.135914e+00   2.938458e+01  -7.552644e+03  -4.772858e+05   1.496227e+06   4.941607e+08  -7.819680e+06  -1.432964e-13   1.570527e+06   1.236595e-24   0.000000e+00   0.000000e+00
      600000   5.999990e-06   4.649104e-02   5.097731e+00   2.950427e+01  -7.515911e+03  -4.772864e+05   1.496227e+06   4.818147e+08  -7.587223e+06  -1.416731e-13   1.570527e+06   1.175504e-24   0.000000e+00   0.000000e+00
      608000   6.079990e-06   4.589137e-02   5.059548e+00   2.962397e+01  -7.475495e+03  -4.772866e+05   1.496227e+06   4.781935e+08   4.506363e+07   1.676417e+07   1.570527e+06   1.169498e-24   0.000000e+00   0.000000e+00
      616000   6.159990e-06   4.529461e-02   5.021366e+00   2.974367e+01  -7.446106e+03  -4.772757e+05   1.496231e+06   2.434065e+08   2.626862e+08   8.500438e+07   1.570527e+06   6.857639e-25   0.000000e+00   0.000000e+00
      624000   6.239990e-06   4.469984e-02   4.983184e+00   2.986337e+01  -7.406785e+03  -4.772760e+05   1.496231e+06   1.206701e+09  -8.672198e+08  -2.706570e+08   1.570527e+06   1.154621e-23   0.000000e+00   0.000000e+00
      632000   6.319990e-06   4.411065e-02   4.945000e+00   2.998307e+01  -7.325479e+03  -4.773390e+05   1.496211e+06   1.334568e+09  -1.294480e+09  -4.064462e+08   1.570527e+06   1.833058e-23   0.000000e+00   0.000000e+00
      640000   6.399990e-06   4.352707e-02   4.906811e+00   3.010276e+01  -7.282918e+03  -4.773481e+05   1.496209e+06   5.847759e+08  -2.387834e+07  -4.771663e+06   1.570527e+06   1.734302e-24   0.000000e+00   0.000000e+00
      648000   6.479990e-06   4.294584e-02   4.868624e+00   3.022246e+01  -7.248756e+03  -4.773385e+05   1.496212e+06   5.158067e+08  -7.832932e+06  -1.713391e-13   1.570527e+06   1.347273e-24   0.000000e+00   0.000000e+00
      656000   6.559990e-06   4.236752e-02   4.830437e+00   3.034216e+01  -7.210006e+03  -4.773391e+05   1.496212e+06   4.707055e+08  -7.109813e+06  -1.201444e-13   1.570527e+06   1.121899e-24   0.000000e+00   0.000000e+00
      664000   6.639990e-06   4.179233e-02   4.792250e+00   3.046185e+01  -7.168658e+03  -4.773397e+05   1.496212e+06   5.291821e+08  -7.947230e+06  -1.622899e-13   1.570527e+06   1.417966e-24   0.000000e+00   0.000000e+00
      672000   6.719990e-06   4.122052e-02   4.754062e+00   3.058155e+01  -7.127443e+03  -4.773403e+05   1.496212e+06   4.850126e+08  -7.242008e+06  -1.343450e-13   1.570527e+06   1.191201e-24   0.000000e+00   0.000000e+00
      680000   6.799990e-06   4.065184e-02   4.715875e+00   3.070125e+01  -7.088903e+03  -4.773409e+05   1.496212e+06   5.674239e+08  -8.426717e+06  -1.863836e-13   1.570527e+06   1.630390e-24   0.000000e+00   0.000000e+00
      688000   6.879990e-06   4.008649e-02   4.677688e+00   3.082095e+01  -7.045460e+03  -4.773415e+05   1.496212e+06   5.109217e+08  -7.541102e+06  -1.491342e-13   1.570527e+06   1.321858e-24   0.000000e+00   0.000000e+00
      696000   6.959990e-06   3.952443e-02   4.639500e+00   3.094064e+01  -7.006607e+03  -4.773421e+05   1.496212e+06   4.826250e+08  -7.084156e+06  -1.270526e-13   1.570527e+06   1.179424e-24   0.000000e+00   0.000000e+00
      704000   7.039990e-06   3.896553e-02   4.601313e+00   3.106034e+01  -6.964685e+03  -4.773427e+05   1.496212e+06   5.364835e+08  -7.827586e+06  -1.640253e-13   1.570527e+06   1.457425e-24   0.000000e+00   0.000000e+00
      712000   7.119990e-06   3.841005e-02   4.563126e+00   3.118004e+01  -6.923422e+03  -4.773433e+05   1.496212e+06   4.802852e+08  -6.966096e+06  -1.215180e-13   1.570527e+06   1.168079e-24   0.000000e+00   0.000000e+00
      720000   7.199990e-06   3.785772e-02   4.524938e+00   3.129973e+01  -6.884203e+03  -4.773439e+05   1.496212e+06   5.170362e+08  -7.456647e+06  -1.463653e-13   1.570527e+06   1.353598e-24   0.000000e+00   0.000000e+00
      728000   7.279990e-06   3.730874e-02   4.486751e+00   3.141943e+01  -6.840907e+03  -4.773445e+05   1.496212e+06   5.059526e+08  -7.250900e+06  -1.519992e-13   1.570527e+06   1.296255e-24   0.000000e+00   0.000000e+00
      736000   7.359990e-06   3.676303e-02   4.448563e+00   3.153913e+01  -6.802003e+03  -4.773451e+05   1.496212e+06   4.940348e+08  -7.039832e+06  -1.398226e-13   1.570527e+06   1.235835e-24   0.000000e+00   0.000000e+00
      744000   7.439990e-06   3.622053e-02   4.410375e+00   3.165882e+01  -6.759884e+03  -4.773457e+05   1.496212e+06   5.312721e+08  -7.523564e+06  -1.758991e-13   1.570527e+06   1.429230e-24   0.000000e+00   0.000000e+00
      752000   7.519990e-06   3.568139e-02   4.372188e+00   3.177852e+01  -6.719296e+03  -4.773462e+05   1.496212e+06   4.754738e+08  -6.692944e+06  -1.190087e-13   1.570527e+06   1.144779e-24   0.000000e+00   0.000000e+00
      760000   7.599990e-06   3.514541e-02   4.334000e+00   3.189822e+01  -6.679415e+03  -4.773468e+05   1.496212e+06   5.279493e+08  -7.387492e+06  -1.457428e-13   1.570527e+06   1.411326e-24   0.000000e+00   0.000000e+00
      768000   7.679990e-06   3.461277e-02   4.295812e+00   3.201791e+01  -6.637372e+03  -4.773474e+05   1.496212e+06   5.009022e+08  -6.964901e+06  -1.387848e-13   1.570527e+06   1.270491e-24   0.000000e+00   0.000000e+00
      776000   7.759990e-06   3.408334e-02   4.257624e+00   3.213761e+01  -6.598470e+03  -4.773479e+05   1.496212e+06   5.049441e+08  -6.979943e+06  -1.366527e-13   1.570527e+06   1.291002e-24   0.000000e+00   0.000000e+00
      784000   7.839990e-06   3.355714e-02   4.219437e+00   3.225731e+01  -6.556144e+03  -4.773485e+05   1.496212e+06   5.259817e+08  -7.224102e+06  -1.646339e-13   1.570527e+06   1.400891e-24   0.000000e+00   0.000000e+00
      792000   7.919990e-06   3.303424e-02   4.181249e+00   3.237701e+01  -6.516922e+03  -4.773490e+05   1.496212e+06   4.705824e+08  -6.424547e+06  -1.486139e-13   1.570527e+06   1.121333e-24   0.000000e+00   0.000000e+00
      800000   7.999990e-06   3.251447e-02   4.143061e+00   3.249670e+01  -6.476446e+03  -4.773496e+05   1.496212e+06   5.383693e+08  -7.304338e+06  -1.647880e-13   1.570527e+06   1.467570e-24   0.000000e+00   0.000000e+00
      808000   8.079990e-06   3.199805e-02   4.104873e+00   3.261640e+01  -6.435095e+03  -4.773501e+05   1.496212e+06   4.586415e+08  -6.182890e+06  -1.062117e-13   1.570527e+06   1.065079e-24   0.000000e+00   0.000000e+00
      816000   8.159990e-06   3.148476e-02   4.066685e+00   3.273610e+01  -6.396551e+03  -4.773507e+05   1.496212e+06   5.153641e+08  -6.905940e+06  -1.525268e-13   1.570527e+06   1.344820e-24   0.000000e+00   0.000000e+00
      824000   8.239990e-06   3.097474e-02   4.028497e+00   3.285579e+01  -6.354005e+03  -4.773512e+05   1.496212e+06   5.206162e+08  -6.929910e+06  -1.631812e-13   1.570527e+06   1.372440e-24   0.000000e+00   0.000000e+00
      832000   8.319990e-06   3.046800e-02   3.990309e+00   3.297549e+01  -6.315244e+03  -4.773517e+05   1.496212e+06   4.656146e+08  -6.159968e+06  -1.296772e-13   1.570527e+06   1.097771e-24   0.000000e+00   0.000000e+00
      840000   8.399990e-06   2.996437e-02   3.952120e+00   3.309519e+01  -6.274239e+03  -4.773523e+05   1.496212e+06   5.483073e+08  -7.206865e+06  -1.733932e-13   1.570527e+06   1.522235e-24   0.000000e+00   0.000000e+00
      848000   8.479990e-06   2.946411e-02   3.913932e+00   3.321488e+01  -6.233069e+03  -4.773528e+05   1.496212e+06   4.691224e+08  -6.125605e+06  -1.285339e-13   1.570527e+06   1.114303e-24   0.000000e+00   0.000000e+00
      856000   8.559990e-06   2.896699e-02   3.875744e+00   3.333458e+01  -6.194354e+03  -4.773533e+05   1.496212e+06   5.253050e+08  -6.816603e+06  -1.385244e-13   1.570527e+06   1.397186e-24   0.000000e+00   0.000000e+00
      864000   8.639990e-06   2.847316e-02   3.837556e+00   3.345428e+01  -6.151581e+03  -4.773539e+05   1.496212e+06   5.151787e+08  -6.639029e+06  -1.456142e-13   1.570527e+06   1.343907e-24   0.000000e+00   0.000000e+00
      872000   8.719990e-06   2.798262e-02   3.799367e+00   3.357398e+01  -6.112243e+03  -4.773544e+05   1.496212e+06   4.605732e+08  -5.897374e+06  -1.248888e-13   1.570527e+06   1.074116e-24   0.000000e+00   0.000000e+00
      880000   8.799990e-06   2.749524e-02   3.761179e+00   3.369367e+01  -6.070771e+03  -4.773549e+05   1.496212e+06   5.577717e+08  -7.093480e+06  -1.712879e-13   1.570527e+06   1.575223e-24   0.000000e+00   0.000000e+00
      888000   8.879990e-06   2.701126e-02   3.722991e+00   3.381337e+01  -6.029796e+03  -4.773554e+05   1.496212e+06   4.791273e+08  -6.052182e+06  -1.355849e-13   1.570527e+06   1.162327e-24   0.000000e+00   0.000000e+00
      896000   8.959990e-06   2.653045e-02   3.684802e+00   3.393307e+01  -5.989894e+03  -4.773559e+05   1.496212e+06   5.347743e+08  -6.710390e+06  -1.511951e-13   1.570527e+06   1.447998e-24   0.000000e+00   0.000000e+00
      904000   9.039990e-06   2.605300e-02   3.646614e+00   3.405276e+01  -5.946884e+03  -4.773565e+05   1.496212e+06   5.096714e+08  -6.349468e+06  -1.510143e-13   1.570527e+06   1.315313e-24   0.000000e+00   0.000000e+00
      912000   9.119990e-06   2.557883e-02   3.608425e+00   3.417246e+01  -5.907169e+03  -4.773570e+05   1.496212e+06   5.114986e+08  -6.329669e+06  -1.459664e-13   1.570527e+06   1.324687e-24   0.000000e+00   0.000000e+00
      920000   9.199990e-06   2.510795e-02   3.570236e+00   3.429216e+01  -5.864091e+03  -4.773575e+05   1.496212e+06   5.667689e+08  -6.962470e+06  -1.825612e-13   1.570527e+06   1.626435e-24   0.000000e+00   0.000000e+00
      928000   9.279990e-06   2.464049e-02   3.532048e+00   3.441185e+01  -5.823321e+03  -4.773580e+05   1.496212e+06   4.886615e+08  -5.961218e+06  -1.278446e-13   1.570527e+06   1.209033e-24   0.000000e+00   0.000000e+00
      936000   9.359990e-06   2.417625e-02   3.493859e+00   3.453155e+01  -5.781718e+03  -4.773585e+05   1.496212e+06   5.437774e+08  -6.586183e+06  -1.775389e-13   1.570527e+06   1.497148e-24   0.000000e+00   0.000000e+00
      944000   9.439990e-06   2.371548e-02   3.455670e+00   3.465125e+01  -5.738463e+03  -4.773590e+05   1.496212e+06   5.040953e+08  -6.059872e+06  -1.432352e-13   1.570527e+06   1.286676e-24   0.000000e+00   0.000000e+00
      952000   9.519990e-06   2.325799e-02   3.417482e+00   3.477094e+01  -5.698481e+03  -4.773595e+05   1.496212e+06   5.205611e+08  -6.214206e+06  -1.684894e-13   1.570527e+06   1.372030e-24   0.000000e+00   0.000000e+00
      960000   9.599990e-06   2.280385e-02   3.379293e+00   3.489064e+01  -5.654235e+03  -4.773600e+05   1.496212e+06   5.753030e+08  -6.814357e+06  -1.859767e-13   1.570527e+06   1.675766e-24   0.000000e+00   0.000000e+00
      968000   9.679990e-06   2.235317e-02   3.341104e+00   3.501034e+01  -5.613683e+03  -4.773605e+05   1.496212e+06   4.977294e+08  -5.853223e+06  -1.420866e-13   1.570527e+06   1.254309e-24   0.000000e+00   0.000000e+00
      976000   9.759990e-06   2.190573e-02   3.302915e+00   3.513004e+01  -5.571413e+03  -4.773610e+05   1.496212e+06   5.522767e+08  -6.445782e+06  -1.696260e-13   1.570527e+06   1.544375e-24   0.000000e+00   0.000000e+00
      984000   9.839990e-06   2.146180e-02   3.264726e+00   3.524973e+01  -5.527931e+03  -4.773615e+05   1.496212e+06   4.984516e+08  -5.772164e+06  -1.460921e-13   1.570527e+06   1.258014e-24   0.000000e+00   0.000000e+00
      992000   9.919990e-06   2.102115e-02   3.226537e+00   3.536943e+01  -5.487738e+03  -4.773620e+05   1.496212e+06   5.291616e+08  -6.083231e+06  -1.605189e-13   1.570527e+06   1.417727e-24   0.000000e+00   0.000000e+00
     1000000   9.999990e-06   2.058388e-02   3.188348e+00   3.548913e+01  -5.443389e+03  -4.773625e+05   1.496212e+06   5.833800e+08  -6.652320e+06  -2.035677e-13   1.570527e+06   1.723134e-24   0.000000e+00   0.000000e+00
     1008000   1.007999e-05   2.015006e-02   3.150159e+00   3.560882e+01  -5.403064e+03  -4.773629e+05   1.496212e+06   5.063374e+08  -5.731019e+06  -1.515668e-13   1.570527e+06   1.298057e-24   0.000000e+00   0.000000e+00
     1016000   1.015999e-05   1.971949e-02   3.111970e+00   3.572852e+01  -5.360425e+03  -4.773634e+05   1.496212e+06   5.461764e+08  -6.133148e+06  -1.479195e-13   1.570527e+06   1.510431e-24   0.000000e+00   0.000000e+00
     1024000   1.023999e-05   1.929241e-02   3.073781e+00   3.584822e+01  -5.317439e+03  -4.773639e+05   1.496212e+06   4.927425e+08  -5.488748e+06  -1.381716e-13   1.570527e+06   1.229349e-24   0.000000e+00   0.000000e+00
     1032000   1.031999e-05   1.886859e-02   3.035592e+00   3.596791e+01  -5.277087e+03  -4.773643e+05   1.496212e+06   5.373081e+08  -5.939749e+06  -1.543097e-13   1.570527e+06   1.461701e-24   0.000000e+00   0.000000e+00
     1040000   1.039999e-05   1.844817e-02   2.997403e+00   3.608761e+01  -5.233642e+03  -4.773648e+05   1.496212e+06   5.910082e+08  -6.479591e+06  -1.873843e-13   1.570527e+06   1.768475e-24   0.000000e+00   0.000000e+00
     1048000   1.047999e-05   1.803112e-02   2.959214e+00   3.620731e+01  -5.193555e+03  -4.773653e+05   1.496212e+06   5.144945e+08  -5.597514e+06  -1.408917e-13   1.570527e+06   1.340205e-24   0.000000e+00   0.000000e+00
     1056000   1.055999e-05   1.761734e-02   2.921025e+00   3.632700e+01  -5.150545e+03  -4.773657e+05   1.496212e+06   5.400154e+08  -5.826511e+06  -1.708614e-13   1.570527e+06   1.476533e-24   0.000000e+00   0.000000e+00
     1064000   1.063999e-05   1.720698e-02   2.882835e+00   3.644670e+01  -5.109043e+03  -4.773662e+05   1.496212e+06   4.869712e+08  -5.211846e+06  -1.430066e-13   1.570527e+06   1.200709e-24   0.000000e+00   0.000000e+00
     1072000   1.071999e-05   1.679983e-02   2.844646e+00   3.656640e+01  -5.068585e+03  -4.773666e+05   1.496212e+06   5.450113e+08  -5.786829e+06  -1.773415e-13   1.570527e+06   1.503900e-24   0.000000e+00   0.000000e+00
     1080000   1.079999e-05   1.639608e-02   2.806457e+00   3.668610e+01  -5.025711e+03  -4.773671e+05   1.496212e+06   5.104031e+08  -5.373519e+06  -1.601097e-13   1.570527e+06   1.319033e-24   0.000000e+00   0.000000e+00
     1088000   1.087999e-05   1.599560e-02   2.768267e+00   3.680579e+01  -4.986859e+03  -4.773675e+05   1.496212e+06   5.222122e+08  -5.455339e+06  -1.633898e-13   1.570527e+06   1.380702e-24   0.000000e+00   0.000000e+00
     1096000   1.095999e-05   1.559837e-02   2.730078e+00   3.692549e+01  -4.943476e+03  -4.773679e+05   1.496212e+06   5.337975e+08  -5.527849e+06  -1.661693e-13   1.570527e+06   1.442713e-24   0.000000e+00   0.000000e+00
     1104000   1.103999e-05   1.520454e-02   2.691888e+00   3.704519e+01  -4.903055e+03  -4.773683e+05   1.496212e+06   4.811414e+08  -4.941813e+06  -1.181083e-13   1.570527e+06   1.172122e-24   0.000000e+00   0.000000e+00
     1112000   1.111999e-05   1.481386e-02   2.653699e+00   3.716488e+01  -4.862540e+03  -4.773688e+05   1.496212e+06   5.522832e+08  -5.625635e+06  -1.606462e-13   1.570527e+06   1.544287e-24   0.000000e+00   0.000000e+00
     1120000   1.119999e-05   1.442660e-02   2.615509e+00   3.728458e+01  -4.819834e+03  -4.773692e+05   1.496212e+06   5.043488e+08  -5.092244e+06  -1.419785e-13   1.570527e+06   1.287915e-24   0.000000e+00   0.000000e+00
     1128000   1.127999e-05   1.404257e-02   2.577320e+00   3.740428e+01  -4.781358e+03  -4.773696e+05   1.496212e+06   5.295021e+08  -5.303525e+06  -1.633098e-13   1.570527e+06   1.419508e-24   0.000000e+00   0.000000e+00
     1136000   1.135999e-05   1.366181e-02   2.539130e+00   3.752397e+01  -4.737601e+03  -4.773700e+05   1.496212e+06   5.275264e+08  -5.235378e+06  -1.518824e-13   1.570527e+06   1.409002e-24   0.000000e+00   0.000000e+00
     1144000   1.143999e-05   1.328443e-02   2.500941e+00   3.764367e+01  -4.697138e+03  -4.773704e+05   1.496212e+06   5.065322e+08  -4.984083e+06  -1.406947e-13   1.570527e+06   1.299016e-24   0.000000e+00   0.000000e+00
     1152000   1.151999e-05   1.291022e-02   2.462751e+00   3.776337e+01  -4.656549e+03  -4.773708e+05   1.496212e+06   5.591340e+08  -5.454121e+06  -1.774342e-13   1.570527e+06   1.582824e-24   0.000000e+00   0.000000e+00
     1160000   1.159999e-05   1.253944e-02   2.424561e+00   3.788307e+01  -4.613997e+03  -4.773712e+05   1.496212e+06   4.982420e+08  -4.815727e+06  -1.538706e-13   1.570527e+06   1.256904e-24   0.000000e+00   0.000000e+00
     1168000   1.167999e-05   1.217191e-02   2.386372e+00   3.800276e+01  -4.574986e+03  -4.773716e+05   1.496212e+06   5.363733e+08  -5.140446e+06  -1.662349e-13   1.570527e+06   1.456576e-24   0.000000e+00   0.000000e+00
     1176000   1.175999e-05   1.180767e-02   2.348182e+00   3.812246e+01  -4.530856e+03  -4.773720e+05   1.496212e+06   5.212048e+08  -4.946889e+06  -1.467979e-13   1.570527e+06   1.375423e-24   0.000000e+00   0.000000e+00
     1184000   1.183999e-05   1.144683e-02   2.309992e+00   3.824216e+01  -4.490510e+03  -4.773724e+05   1.496212e+06   5.134691e+08  -4.830067e+06  -1.502340e-13   1.570527e+06   1.334829e-24   0.000000e+00   0.000000e+00
     1192000   1.191999e-05   1.108921e-02   2.271802e+00   3.836185e+01  -4.448815e+03  -4.773728e+05   1.496212e+06   5.655712e+08  -5.270775e+06  -1.828055e-13   1.570527e+06   1.619466e-24   0.000000e+00   0.000000e+00
     1200000   1.199999e-05   1.073505e-02   2.233612e+00   3.848155e+01  -4.406400e+03  -4.773732e+05   1.496212e+06   4.920840e+08  -4.542194e+06  -1.334049e-13   1.570527e+06   1.226017e-24   0.000000e+00   0.000000e+00
     1208000   1.207999e-05   1.038416e-02   2.195423e+00   3.860125e+01  -4.365977e+03  -4.773735e+05   1.496212e+06   5.428326e+08  -4.964660e+06  -1.655350e-13   1.570527e+06   1.491858e-24   0.000000e+00   0.000000e+00
     1216000   1.215999e-05   1.003667e-02   2.157233e+00   3.872094e+01  -4.321473e+03  -4.773740e+05   1.496212e+06   5.148342e+08  -4.660591e+06  -1.539953e-13   1.570527e+06   1.341995e-24   0.000000e+00   0.000000e+00
     1224000   1.223999e-05   9.692552e-03   2.119043e+00   3.884064e+01  -4.281286e+03  -4.773743e+05   1.496212e+06   5.199936e+08  -4.663519e+06  -1.493596e-13   1.570527e+06   1.368957e-24   0.000000e+00   0.000000e+00
     1232000   1.231999e-05   9.351768e-03   2.080853e+00   3.896034e+01  -4.237616e+03  -4.773747e+05   1.496212e+06   5.716002e+08  -5.074055e+06  -1.839911e-13   1.570527e+06   1.654165e-24   0.000000e+00   0.000000e+00
     1240000   1.239999e-05   9.014512e-03   2.042663e+00   3.908003e+01  -4.195327e+03  -4.773751e+05   1.496212e+06   4.858765e+08  -4.270045e+06  -1.328328e-13   1.570527e+06   1.195271e-24   0.000000e+00   0.000000e+00
     1248000   1.247999e-05   8.680513e-03   2.004473e+00   3.919973e+01  -4.153747e+03  -4.773754e+05   1.496212e+06   5.487826e+08  -4.775082e+06  -1.657788e-13   1.570527e+06   1.524730e-24   0.000000e+00   0.000000e+00
     1256000   1.255999e-05   8.350021e-03   1.966283e+00   3.931943e+01  -4.108826e+03  -4.773758e+05   1.496212e+06   5.084155e+08  -4.375994e+06  -1.394866e-13   1.570527e+06   1.308731e-24   0.000000e+00   0.000000e+00
     1264000   1.263999e-05   8.022903e-03   1.928093e+00   3.943913e+01  -4.068840e+03  -4.773762e+05   1.496212e+06   5.261097e+08  -4.484218e+06  -1.569839e-13   1.570527e+06   1.401339e-24   0.000000e+00   0.000000e+00
     1272000   1.271999e-05   7.699131e-03   1.889902e+00   3.955882e+01  -4.024845e+03  -4.773765e+05   1.496212e+06   5.772257e+08  -4.866697e+06  -1.892411e-13   1.570527e+06   1.686872e-24   0.000000e+00   0.000000e+00
     1280000   1.279999e-05   7.378901e-03   1.851712e+00   3.967852e+01  -3.982667e+03  -4.773769e+05   1.496212e+06   4.796202e+08  -4.001387e+06  -1.241495e-13   1.570527e+06   1.164679e-24   0.000000e+00   0.000000e+00
     1288000   1.287999e-05   7.061920e-03   1.813522e+00   3.979822e+01  -3.940821e+03  -4.773772e+05   1.496212e+06   5.544726e+08  -4.577261e+06  -1.683761e-13   1.570527e+06   1.556501e-24   0.000000e+00   0.000000e+00
     1296000   1.295999e-05   6.748442e-03   1.775332e+00   3.991791e+01  -3.896125e+03  -4.773776e+05   1.496212e+06   5.019501e+08  -4.096679e+06  -1.423558e-13   1.570527e+06   1.275647e-24   0.000000e+00   0.000000e+00
     1304000   1.303999e-05   6.438323e-03   1.737142e+00   4.003761e+01  -3.856377e+03  -4.773779e+05   1.496212e+06   5.318245e+08  -4.296215e+06  -1.551067e-13   1.570527e+06   1.431938e-24   0.000000e+00   0.000000e+00
     1312000   1.311999e-05   6.131550e-03   1.698952e+00   4.015731e+01  -3.812982e+03  -4.773783e+05   1.496212e+06   5.824551e+08  -4.652273e+06  -1.892683e-13   1.570527e+06   1.717563e-24   0.000000e+00   0.000000e+00
     1320000   1.319999e-05   5.828275e-03   1.660761e+00   4.027700e+01  -3.770904e+03  -4.773786e+05   1.496212e+06   4.733174e+08  -3.738829e+06  -1.343779e-13   1.570527e+06   1.134262e-24   0.000000e+00   0.000000e+00
     1328000   1.327999e-05   5.528236e-03   1.622571e+00   4.039670e+01  -3.728844e+03  -4.773790e+05   1.496212e+06   5.597679e+08  -4.372397e+06  -1.718953e-13   1.570527e+06   1.586362e-24   0.000000e+00   0.000000e+00
     1336000   1.335999e-05   5.231665e-03   1.584381e+00   4.051640e+01  -3.685252e+03  -4.773793e+05   1.496212e+06   4.954408e+08  -3.824688e+06  -1.415811e-13   1.570527e+06   1.242768e-24   0.000000e+00   0.000000e+00
     1344000   1.343999e-05   4.938397e-03   1.546190e+00   4.063609e+01  -3.645781e+03  -4.773796e+05   1.496212e+06   5.371475e+08  -4.102239e+06  -1.583192e-13   1.570527e+06   1.460737e-24   0.000000e+00   0.000000e+00
     1352000   1.351999e-05   4.648480e-03   1.508000e+00   4.075579e+01  -3.602532e+03  -4.773799e+05   1.496212e+06   5.174315e+08  -3.904785e+06  -1.526942e-13   1.570527e+06   1.355535e-24   0.000000e+00   0.000000e+00
     1360000   1.359999e-05   4.361951e-03   1.469809e+00   4.087549e+01  -3.561891e+03  -4.773802e+05   1.496212e+06   4.669715e+08  -3.484233e+06  -1.249533e-13   1.570527e+06   1.104044e-24   0.000000e+00   0.000000e+00
     1368000   1.367999e-05   4.078632e-03   1.431619e+00   4.099519e+01  -3.519668e+03  -4.773805e+05   1.496212e+06   5.646791e+08  -4.163316e+06  -1.818692e-13   1.570527e+06   1.614310e-24   0.000000e+00   0.000000e+00
     1376000   1.375999e-05   3.798743e-03   1.393429e+00   4.111488e+01  -3.478032e+03  -4.773808e+05   1.496212e+06   4.888913e+08  -3.561898e+06  -1.339800e-13   1.570527e+06   1.210120e-24   0.000000e+00   0.000000e+00
     1384000   1.383999e-05   3.522034e-03   1.355238e+00   4.123458e+01  -3.438873e+03  -4.773811e+05   1.496212e+06   5.420905e+08  -3.905021e+06  -1.599877e-13   1.570527e+06   1.487735e-24   0.000000e+00   0.000000e+00
     1392000   1.391999e-05   3.248678e-03   1.317048e+00   4.135428e+01  -3.395638e+03  -4.773814e+05   1.496212e+06   5.106701e+08  -3.632427e+06  -1.437078e-13   1.570527e+06   1.320332e-24   0.000000e+00   0.000000e+00
     1400000   1.399999e-05   2.978608e-03   1.278857e+00   4.147397e+01  -3.356787e+03  -4.773817e+05   1.496212e+06   4.605864e+08  -3.238692e+06  -1.217661e-13   1.570527e+06   1.074051e-24   0.000000e+00   0.000000e+00
     1408000   1.407999e-05   2.711694e-03   1.240667e+00   4.159367e+01  -3.314449e+03  -4.773820e+05   1.496212e+06   5.692188e+08  -3.952076e+06  -1.877372e-13   1.570527e+06   1.640361e-24   0.000000e+00   0.000000e+00
     1416000   1.415999e-05   2.448202e-03   1.202476e+00   4.171337e+01  -3.273617e+03  -4.773823e+05   1.496212e+06   4.970561e+08  -3.408534e+06  -1.328873e-13   1.570527e+06   1.250806e-24   0.000000e+00   0.000000e+00
     1424000   1.423999e-05   2.187833e-03   1.164285e+00   4.183306e+01  -3.234713e+03  -4.773826e+05   1.496212e+06   5.466658e+08  -3.704177e+06  -1.560487e-13   1.570527e+06   1.512946e-24   0.000000e+00   0.000000e+00
     1432000   1.431999e-05   1.930819e-03   1.126095e+00   4.195276e+01  -3.191483e+03  -4.773828e+05   1.496212e+06   5.038751e+08  -3.368599e+06  -1.452612e-13   1.570527e+06   1.285421e-24   0.000000e+00   0.000000e+00
     1440000   1.439999e-05   1.677079e-03   1.087904e+00   4.207246e+01  -3.152602e+03  -4.773831e+05   1.496212e+06   4.541657e+08  -2.999280e+06  -1.206512e-13   1.570527e+06   1.044309e-24   0.000000e+00   0.000000e+00
     1448000   1.447999e-05   1.426495e-03   1.049713e+00   4.219215e+01  -3.110195e+03  -4.773834e+05   1.496212e+06   5.733978e+08  -3.735745e+06  -1.881340e-13   1.570527e+06   1.664527e-24   0.000000e+00   0.000000e+00
     1456000   1.455999e-05   1.179329e-03   1.011523e+00   4.231185e+01  -3.069721e+03  -4.773836e+05   1.496212e+06   5.017391e+08  -3.226339e+06  -1.436933e-13   1.570527e+06   1.274479e-24   0.000000e+00   0.000000e+00
     1464000   1.463999e-05   9.353105e-04   9.733321e-01   4.243155e+01  -3.030302e+03  -4.773839e+05   1.496212e+06   5.508826e+08  -3.496858e+06  -1.728783e-13   1.570527e+06   1.536369e-24   0.000000e+00   0.000000e+00
     1472000   1.471999e-05   6.946576e-04   9.351413e-01   4.255125e+01  -2.987072e+03  -4.773842e+05   1.496212e+06   4.970489e+08  -3.110123e+06  -1.428988e-13   1.570527e+06   1.250823e-24   0.000000e+00   0.000000e+00
     1480000   1.479999e-05   4.572752e-04   8.969506e-01   4.267094e+01  -2.947327e+03  -4.773844e+05   1.496212e+06   4.477120e+08  -2.764136e+06  -1.141093e-13   1.570527e+06   1.014835e-24   0.000000e+00   0.000000e+00
     1488000   1.487999e-05   2.231064e-04   8.587598e-01   4.279064e+01  -2.904899e+03  -4.773847e+05   1.496212e+06   5.772237e+08  -3.512429e+06  -1.892108e-13   1.570527e+06   1.686805e-24   0.000000e+00   0.000000e+00
