     timestep     time              x             y              z              vx             vy             vz             ax             ay             az         v_magnitude      ELoss        Electronic      Nuclear
           0   0.000000e+00   1.000000e-01   1.648945e+01   1.383547e+01   1.234898e+06   8.621331e+05   4.453179e+05   0.000000e+00   0.000000e+00   0.000000e+00   1.570527e+06   0.000000e+00   0.000000e+00   0.000000e+00
        8000   7.999000e-08   1.987918e-01   1.655842e+01   1.387109e+01   1.234898e+06   8.621331e+05   4.453179e+05   0.000000e+00   0.000000e+00   0.000000e+00   1.570527e+06   0.000000e+00   0.000000e+00   0.000000e+00
       16000   1.599900e-07   2.975837e-01   1.662739e+01   1.390672e+01   1.234898e+06   8.621331e+05   4.453179e+05   0.000000e+00   0.000000e+00   0.000000e+00   1.570527e+06   0.000000e+00   0.000000e+00   0.000000e+00
       24000   2.399900e-07   3.963755e-01   1.669636e+01   1.394234e+01   1.234898e+06   8.621331e+05   4.453179e+05   0.000000e+00   0.000000e+00   0.000000e+00   1.570527e+06   0.000000e+00   0.000000e+00   0.000000e+00
       32000   3.199900e-07   4.951673e-01   1.676533e+01   1.397797e+01   1.234898e+06   8.621331e+05   4.453179e+05   0.000000e+00   0.000000e+00   0.000000e+00   1.570527e+06   0.000000e+00   0.000000e+00   0.000000e+00
       40000   3.999900e-07   5.939592e-01   1.683431e+01   1.401360e+01   1.234898e+06   8.621331e+05   4.453179e+05   0.000000e+00   0.000000e+00   0.000000e+00   1.570527e+06   0.000000e+00   0.000000e+00   0.000000e+00
       48000   4.799900e-07   6.927510e-01   1.690328e+01   1.404922e+01   1.234898e+06   8.621331e+05   4.453179e+05   0.000000e+00   0.000000e+00   0.000000e+00   1.570527e+06   0.000000e+00   0.000000e+00   0.000000e+00
       56000   5.599900e-07   7.915428e-01   1.697225e+01   1.408485e+01   1.234898e+06   8.621331e+05   4.453179e+05   0.000000e+00   0.000000e+00   0.000000e+00   1.570527e+06   0.000000e+00   0.000000e+00   0.000000e+00
       64000   6.399900e-07   8.903347e-01   1.704122e+01   1.412047e+01   1.234898e+06   8.621331e+05   4.453179e+05   0.000000e+00   0.000000e+00   0.000000e+00   1.570527e+06   0.000000e+00   0.000000e+00   0.000000e+00
       72000   7.199900e-07   9.891265e-01   1.711019e+01   1.415610e+01   1.234898e+06   8.621331e+05   4.453179e+05   0.000000e+00   0.000000e+00   0.000000e+00   1.570527e+06   0.000000e+00   0.000000e+00   0.000000e+00
       80000   7.999900e-07   1.087918e+00   1.717916e+01   1.419172e+01   1.234898e+06   8.621331e+05   4.453179e+05   0.000000e+00   0.000000e+00   0.000000e+00   1.570527e+06   0.000000e+00   0.000000e+00   0.000000e+00
       88000   8.799900e-07   1.186710e+00   1.724813e+01   1.422735e+01   1.234898e+06   8.621331e+05   4.453179e+05   0.000000e+00   0.000000e+00   0.000000e+00   1.570527e+06   0.000000e+00   0.000000e+00   0.000000e+00
       96000   9.599900e-07   1.285502e+00   1.731710e+01   1.426297e+01   1.234898e+06   8.621331e+05   4.453179e+05   0.000000e+00   0.000000e+00   0.000000e+00   1.570527e+06   0.000000e+00   0.000000e+00   0.000000e+00
      104000   1.039990e-06   1.384294e+00   1.738607e+01   1.429860e+01   1.234898e+06   8.621331e+05   4.453179e+05   0.000000e+00   0.000000e+00   0.000000e+00   1.570527e+06   0.000000e+00   0.000000e+00   0.000000e+00
      112000   1.119990e-06   1.483086e+00   1.745504e+01   1.433422e+01   1.234898e+06   8.621331e+05   4.453179e+05   0.000000e+00   0.000000e+00   0.000000e+00   1.570527e+06   0.000000e+00   0.000000e+00   0.000000e+00
      120000   1.199990e-06   1.581877e+00   1.752401e+01   1.436985e+01   1.234898e+06   8.621331e+05   4.453179e+05   0.000000e+00   0.000000e+00   0.000000e+00   1.570527e+06   0.000000e+00   0.000000e+00   0.000000e+00
      128000   1.279990e-06   1.680669e+00   1.759298e+01   1.440547e+01   1.234898e+06   8.621331e+05   4.453179e+05   0.000000e+00   0.000000e+00   0.000000e+00   1.570527e+06   0.000000e+00   0.000000e+00   0.000000e+00
      136000   1.359990e-06   1.779461e+00   1.766195e+01   1.444110e+01   1.234898e+06   8.621331e+05   4.453179e+05   0.000000e+00   0.000000e+00   0.000000e+00   1.570527e+06   0.000000e+00   0.000000e+00   0.000000e+00
      144000   1.439990e-06   1.878253e+00   1.773092e+01   1.447673e+01   1.234898e+06   8.621331e+05   4.453179e+05   0.000000e+00   0.000000e+00   0.000000e+00   1.570527e+06   0.000000e+00   0.000000e+00   0.000000e+00
      152000   1.519990e-06   1.977045e+00   1.779989e+01   1.451235e+01   1.234898e+06   8.621331e+05   4.453179e+05   0.000000e+00   0.000000e+00   0.000000e+00   1.570527e+06   0.000000e+00   0.000000e+00   0.000000e+00
      160000   1.599990e-06   2.075837e+00   1.786886e+01   1.454798e+01   1.234898e+06   8.621331e+05   4.453179e+05   0.000000e+00   0.000000e+00   0.000000e+00   1.570527e+06   0.000000e+00   0.000000e+00   0.000000e+00
      168000   1.679990e-06   2.174628e+00   1.793784e+01   1.458360e+01   1.234898e+06   8.621331e+05   4.453179e+05   0.000000e+00   0.000000e+00   0.000000e+00   1.570527e+06   0.000000e+00   0.000000e+00   0.000000e+00
      176000   1.759990e-06   2.273420e+00   1.800681e+01   1.461923e+01   1.234898e+06   8.621331e+05   4.453179e+05   0.000000e+00   0.000000e+00   0.000000e+00   1.570527e+06   0.000000e+00   0.000000e+00   0.000000e+00
      184000   1.839990e-06   2.372212e+00   1.807578e+01   1.465485e+01   1.234898e+06   8.621331e+05   4.453179e+05   0.000000e+00   0.000000e+00   0.000000e+00   1.570527e+06   0.000000e+00   0.000000e+00   0.000000e+00
      192000   1.919990e-06   2.471004e+00   1.814475e+01   1.469048e+01   1.234898e+06   8.621331e+05   4.453179e+05   0.000000e+00   0.000000e+00   0.000000e+00   1.570527e+06   0.000000e+00   0.000000e+00   0.000000e+00
      200000   1.999990e-06   2.569796e+00   1.821372e+01   1.472610e+01   1.234898e+06   8.621331e+05   4.453179e+05   0.000000e+00   0.000000e+00   0.000000e+00   1.570527e+06   0.000000e+00   0.000000e+00   0.000000e+00
      208000   2.079990e-06   2.668588e+00   1.828269e+01   1.476173e+01   1.234898e+06   8.621331e+05   4.453179e+05   0.000000e+00   0.000000e+00   0.000000e+00   1.570527e+06   0.000000e+00   0.000000e+00   0.000000e+00
      216000   2.159990e-06   2.767379e+00   1.835166e+01   1.479735e+01   1.234898e+06   8.621331e+05   4.453179e+05   0.000000e+00   0.000000e+00   0.000000e+00   1.570527e+06   0.000000e+00   0.000000e+00   0.000000e+00
      224000   2.239990e-06   2.866171e+00   1.842063e+01   1.483298e+01   1.234898e+06   8.621331e+05   4.453179e+05   0.000000e+00   0.000000e+00   0.000000e+00   1.570527e+06   0.000000e+00   0.000000e+00   0.000000e+00
      232000   2.319990e-06   2.964963e+00   1.848960e+01   1.486861e+01   1.234898e+06   8.621331e+05   4.453179e+05   0.000000e+00   0.000000e+00   0.000000e+00   1.570527e+06   0.000000e+00   0.000000e+00   0.000000e+00
      240000   2.399990e-06   3.063755e+00   1.855857e+01   1.490423e+01   1.234898e+06   8.621331e+05   4.453179e+05   0.000000e+00   0.000000e+00   0.000000e+00   1.570527e+06   0.000000e+00   0.000000e+00   0.000000e+00
      248000   2.479990e-06   3.162547e+00   1.862754e+01   1.493986e+01   1.234898e+06   8.621331e+05   4.453179e+05   0.000000e+00   0.000000e+00   0.000000e+00   1.570527e+06   0.000000e+00   0.000000e+00   0.000000e+00
      256000   2.559990e-06   3.261339e+00   1.869651e+01   1.497548e+01   1.234898e+06   8.621331e+05   4.453179e+05   0.000000e+00   0.000000e+00   0.000000e+00   1.570527e+06   0.000000e+00   0.000000e+00   0.000000e+00
      264000   2.639990e-06   3.360130e+00   1.876548e+01   1.501111e+01   1.234898e+06   8.621331e+05   4.453179e+05   0.000000e+00   0.000000e+00   0.000000e+00   1.570527e+06   0.000000e+00   0.000000e+00   0.000000e+00
      272000   2.719990e-06   3.458922e+00   1.883445e+01   1.504673e+01   1.234898e+06   8.621331e+05   4.453179e+05   0.000000e+00   0.000000e+00   0.000000e+00   1.570527e+06   0.000000e+00   0.000000e+00   0.000000e+00
      280000   2.799990e-06   3.557714e+00   1.890342e+01   1.508236e+01   1.234898e+06   8.621331e+05   4.453179e+05   0.000000e+00   0.000000e+00   0.000000e+00   1.570527e+06   0.000000e+00   0.000000e+00   0.000000e+00
      288000   2.879990e-06   3.656506e+00   1.897240e+01   1.511798e+01   1.234898e+06   8.621331e+05   4.453179e+05   0.000000e+00   0.000000e+00   0.000000e+00   1.570527e+06   0.000000e+00   0.000000e+00   0.000000e+00
      296000   2.959990e-06   3.755298e+00   1.904137e+01   1.515361e+01   1.234898e+06   8.621331e+05   4.453179e+05   0.000000e+00   0.000000e+00   0.000000e+00   1.570527e+06   0.000000e+00   0.000000e+00   0.000000e+00
      304000   3.039990e-06   3.854090e+00   1.911034e+01   1.518923e+01   1.234898e+06   8.621331e+05   4.453179e+05   0.000000e+00   0.000000e+00   0.000000e+00   1.570527e+06   0.000000e+00   0.000000e+00   0.000000e+00
      312000   3.119990e-06   3.952881e+00   1.917931e+01   1.522486e+01   1.234898e+06   8.621331e+05   4.453179e+05   0.000000e+00   0.000000e+00   0.000000e+00   1.570527e+06   0.000000e+00   0.000000e+00   0.000000e+00
      320000   3.199990e-06   4.051673e+00   1.924828e+01   1.526049e+01   1.234898e+06   8.621331e+05   4.453179e+05   0.000000e+00   0.000000e+00   0.000000e+00   1.570527e+06   0.000000e+00   0.000000e+00   0.000000e+00
      328000   3.279990e-06   4.150465e+00   1.931725e+01   1.529611e+01   1.234898e+06   8.621331e+05   4.453179e+05   0.000000e+00   0.000000e+00   0.000000e+00   1.570527e+06   0.000000e+00   0.000000e+00   0.000000e+00
      336000   3.359990e-06   4.249257e+00   1.938622e+01   1.533174e+01   1.234898e+06   8.621331e+05   4.453179e+05   0.000000e+00   0.000000e+00   0.000000e+00   1.570527e+06   0.000000e+00   0.000000e+00   0.000000e+00
      344000   3.439990e-06   4.348049e+00   1.945519e+01   1.536736e+01   1.234898e+06   8.621331e+05   4.453179e+05   0.000000e+00   0.000000e+00   0.000000e+00   1.570527e+06   0.000000e+00   0.000000e+00   0.000000e+00
      352000   3.519990e-06   4.446841e+00   1.952416e+01   1.540299e+01   1.234898e+06   8.621331e+05   4.453179e+05   0.000000e+00   0.000000e+00   0.000000e+00   1.570527e+06   0.000000e+00   0.000000e+00   0.000000e+00
      360000   3.599990e-06   4.545632e+00   1.959313e+01   1.543861e+01   1.234898e+06   8.621331e+05   4.453179e+05   0.000000e+00   0.000000e+00   0.000000e+00   1.570527e+06   0.000000e+00   0.000000e+00   0.000000e+00
      368000   3.679990e-06   4.644424e+00   1.966210e+01   1.547424e+01   1.234898e+06   8.621331e+05   4.453179e+05   0.000000e+00   0.000000e+00   0.000000e+00   1.570527e+06   0.000000e+00   0.000000e+00   0.000000e+00
      376000   3.759990e-06   4.743216e+00   1.973107e+01   1.550986e+01   1.234898e+06   8.621331e+05   4.453179e+05   0.000000e+00   0.000000e+00   0.000000e+00   1.570527e+06   0.000000e+00   0.000000e+00   0.000000e+00
      384000   3.839990e-06   4.842008e+00   1.980004e+01   1.554549e+01   1.234898e+06   8.621331e+05   4.453179e+05   0.000000e+00   0.000000e+00   0.000000e+00   1.570527e+06   0.000000e+00   0.000000e+00   0.000000e+00
      392000   3.919990e-06   4.940800e+00   1.986901e+01   1.558111e+01   1.234898e+06   8.621331e+05   4.453179e+05   0.000000e+00   0.000000e+00   0.000000e+00   1.570527e+06   0.000000e+00   0.000000e+00   0.000000e+00
      400000   3.999990e-06   5.039592e+00   1.993798e+01   1.561674e+01   1.234898e+06   8.621331e+05   4.453179e+05   0.000000e+00   0.000000e+00   0.000000e+00   1.570527e+06   0.000000e+00   0.000000e+00   0.000000e+00
      408000   4.079990e-06   5.138383e+00   2.000696e+01   1.565236e+01   1.234898e+06   8.621331e+05   4.453179e+05   0.000000e+00   0.000000e+00   0.000000e+00   1.570527e+06   0.000000e+00   0.000000e+00   0.000000e+00
      416000   4.159990e-06   5.237175e+00   2.007593e+01   1.568799e+01   1.234898e+06   8.621331e+05   4.453179e+05   0.000000e+00   0.000000e+00   0.000000e+00   1.570527e+06   0.000000e+00   0.000000e+00   0.000000e+00
      424000   4.239990e-06   5.335967e+00   2.014490e+01   1.572362e+01   1.234898e+06   8.621331e+05   4.453179e+05   0.000000e+00   0.000000e+00   0.000000e+00   1.570527e+06   0.000000e+00   0.000000e+00   0.000000e+00
      432000   4.319990e-06   5.434759e+00   2.021387e+01   1.575924e+01   1.234898e+06   8.621331e+05   4.453179e+05   0.000000e+00   0.000000e+00   0.000000e+00   1.570527e+06   0.000000e+00   0.000000e+00   0.000000e+00
      440000   4.399990e-06   5.533551e+00   2.028284e+01   1.579487e+01   1.234898e+06   8.621331e+05   4.453179e+05   0.000000e+00   0.000000e+00   0.000000e+00   1.570527e+06   0.000000e+00   0.000000e+00   0.000000e+00
      448000   4.479990e-06   5.632343e+00   2.035181e+01   1.583049e+01   1.234898e+06   8.621331e+05   4.453179e+05   0.000000e+00   0.000000e+00   0.000000e+00   1.570527e+06   0.000000e+00   0.000000e+00   0.000000e+00
      456000   4.559990e-06   5.731134e+00   2.042078e+01   1.586612e+01   1.234898e+06   8.621331e+05   4.453179e+05   0.000000e+00   0.000000e+00   0.000000e+00   1.570527e+06   0.000000e+00   0.000000e+00   0.000000e+00
      464000   4.639990e-06   5.829926e+00   2.048975e+01   1.590174e+01   1.234898e+06   8.621331e+05   4.453179e+05   0.000000e+00   0.000000e+00   0.000000e+00   1.570527e+06   0.000000e+00   0.000000e+00   0.000000e+00
      472000   4.719990e-06   5.928718e+00   2.055872e+01   1.593737e+01   1.234898e+06   8.621331e+05   4.453179e+05   0.000000e+00   0.000000e+00   0.000000e+00   1.570527e+06   0.000000e+00   0.000000e+00   0.000000e+00
      480000   4.799990e-06   6.027510e+00   2.062769e+01   1.597299e+01   1.234898e+06   8.621331e+05   4.453179e+05   0.000000e+00   0.000000e+00   0.000000e+00   1.570527e+06   0.000000e+00   0.000000e+00   0.000000e+00
      488000   4.879990e-06   6.126302e+00   2.069666e+01   1.600862e+01   1.234898e+06   8.621331e+05   4.453179e+05   0.000000e+00   0.000000e+00   0.000000e+00   1.570527e+06   0.000000e+00   0.000000e+00   0.000000e+00
      496000   4.959990e-06   6.225094e+00   2.076563e+01   1.604424e+01   1.234898e+06   8.621331e+05   4.453179e+05   0.000000e+00   0.000000e+00   0.000000e+00   1.570527e+06   0.000000e+00   0.000000e+00   0.000000e+00
      504000   5.039990e-06   6.323885e+00   2.083460e+01   1.607987e+01   1.234898e+06   8.621331e+05   4.453179e+05   0.000000e+00   0.000000e+00   0.000000e+00   1.570527e+06   0.000000e+00   0.000000e+00   0.000000e+00
      512000   5.119990e-06   6.422677e+00   2.090357e+01   1.611550e+01   1.234898e+06   8.621331e+05   4.453179e+05   0.000000e+00   0.000000e+00   0.000000e+00   1.570527e+06   0.000000e+00   0.000000e+00   0.000000e+00
      520000   5.199990e-06   6.521469e+00   2.097254e+01   1.615112e+01   1.234898e+06   8.621331e+05   4.453179e+05   0.000000e+00   0.000000e+00   0.000000e+00   1.570527e+06   0.000000e+00   0.000000e+00   0.000000e+00
      528000   5.279990e-06   6.620261e+00   2.104151e+01   1.618675e+01   1.234898e+06   8.621331e+05   4.453179e+05   0.000000e+00   0.000000e+00   0.000000e+00   1.570527e+06   0.000000e+00   0.000000e+00   0.000000e+00
      536000   5.359990e-06   6.719053e+00   2.111049e+01   1.622237e+01   1.234898e+06   8.621331e+05   4.453179e+05   0.000000e+00   0.000000e+00   0.000000e+00   1.570527e+06   0.000000e+00   0.000000e+00   0.000000e+00
      544000   5.439990e-06   6.817845e+00   2.117946e+01   1.625800e+01   1.234898e+06   8.621331e+05   4.453179e+05   0.000000e+00   0.000000e+00   0.000000e+00   1.570527e+06   0.000000e+00   0.000000e+00   0.000000e+00
      552000   5.519990e-06   6.916636e+00   2.124843e+01   1.629362e+01   1.234898e+06   8.621331e+05   4.453179e+05   0.000000e+00   0.000000e+00   0.000000e+00   1.570527e+06   0.000000e+00   0.000000e+00   0.000000e+00
      560000   5.599990e-06   7.015428e+00   2.131740e+01   1.632925e+01   1.234898e+06   8.621331e+05   4.453179e+05   0.000000e+00   0.000000e+00   0.000000e+00   1.570527e+06   0.000000e+00   0.000000e+00   0.000000e+00
      568000   5.679990e-06   7.114220e+00   2.138637e+01   1.636487e+01   1.234898e+06   8.621331e+05   4.453179e+05   0.000000e+00   0.000000e+00   0.000000e+00   1.570527e+06   0.000000e+00   0.000000e+00   0.000000e+00
      576000   5.759990e-06   7.213012e+00   2.145534e+01   1.640050e+01   1.234898e+06   8.621331e+05   4.453179e+05   0.000000e+00   0.000000e+00   0.000000e+00   1.570527e+06   0.000000e+00   0.000000e+00   0.000000e+00
      584000   5.839990e-06   7.311804e+00   2.152431e+01   1.643612e+01   1.234898e+06   8.621331e+05   4.453179e+05   0.000000e+00   0.000000e+00   0.000000e+00   1.570527e+06   0.000000e+00   0.000000e+00   0.000000e+00
      592000   5.919990e-06   7.410596e+00   2.159328e+01   1.647175e+01   1.234898e+06   8.621331e+05   4.453179e+05   0.000000e+00   0.000000e+00   0.000000e+00   1.570527e+06   0.000000e+00   0.000000e+00   0.000000e+00
      600000   5.999990e-06   7.509387e+00   2.166225e+01   1.650738e+01   1.234898e+06   8.621331e+05   4.453179e+05   0.000000e+00   0.000000e+00   0.000000e+00   1.570527e+06   0.000000e+00   0.000000e+00   0.000000e+00
      608000   6.079990e-06   7.608179e+00   2.173122e+01   1.654300e+01   1.234898e+06   8.621331e+05   4.453179e+05   0.000000e+00   0.000000e+00   0.000000e+00   1.570527e+06   0.000000e+00   0.000000e+00   0.000000e+00
      616000   6.159990e-06   7.706971e+00   2.180019e+01   1.657863e+01   1.234898e+06   8.621331e+05   4.453179e+05   0.000000e+00   0.000000e+00   0.000000e+00   1.570527e+06   0.000000e+00   0.000000e+00   0.000000e+00
      624000   6.239990e-06   7.805763e+00   2.186916e+01   1.661425e+01   1.234898e+06   8.621331e+05   4.453179e+05   0.000000e+00   0.000000e+00   0.000000e+00   1.570527e+06   0.000000e+00   0.000000e+00   0.000000e+00
      632000   6.319990e-06   7.904555e+00   2.193813e+01   1.664988e+01   1.234898e+06   8.621331e+05   4.453179e+05   0.000000e+00   0.000000e+00   0.000000e+00   1.570527e+06   0.000000e+00   0.000000e+00   0.000000e+00
      640000   6.399990e-06   8.003347e+00   2.200710e+01   1.668550e+01   1.234898e+06   8.621331e+05   4.453179e+05   0.000000e+00   0.000000e+00   0.000000e+00   1.570527e+06   0.000000e+00   0.000000e+00   0.000000e+00
      648000   6.479990e-06   8.102138e+00   2.207607e+01   1.672113e+01   1.234898e+06   8.621331e+05   4.453179e+05   0.000000e+00   0.000000e+00   0.000000e+00   1.570527e+06   0.000000e+00   0.000000e+00   0.000000e+00
      656000   6.559990e-06   8.200930e+00   2.214505e+01   1.675675e+01   1.234898e+06   8.621331e+05   4.453179e+05   0.000000e+00   0.000000e+00   0.000000e+00   1.570527e+06   0.000000e+00   0.000000e+00   0.000000e+00
      664000   6.639990e-06   8.299722e+00   2.221402e+01   1.679238e+01   1.234898e+06   8.621331e+05   4.453179e+05   0.000000e+00   0.000000e+00   0.000000e+00   1.570527e+06   0.000000e+00   0.000000e+00   0.000000e+00
      672000   6.719990e-06   8.398514e+00   2.228299e+01   1.682800e+01   1.234898e+06   8.621331e+05   4.453179e+05   0.000000e+00   0.000000e+00   0.000000e+00   1.570527e+06   0.000000e+00   0.000000e+00   0.000000e+00
      680000   6.799990e-06   8.497306e+00   2.235196e+01   1.686363e+01   1.234898e+06   8.621331e+05   4.453179e+05   0.000000e+00   0.000000e+00   0.000000e+00   1.570527e+06   0.000000e+00   0.000000e+00   0.000000e+00
      688000   6.879990e-06   8.596098e+00   2.242093e+01   1.689925e+01   1.234898e+06   8.621331e+05   4.453179e+05   0.000000e+00   0.000000e+00   0.000000e+00   1.570527e+06   0.000000e+00   0.000000e+00   0.000000e+00
      696000   6.959990e-06   8.694889e+00   2.248990e+01   1.693488e+01   1.234898e+06   8.621331e+05   4.453179e+05   0.000000e+00   0.000000e+00   0.000000e+00   1.570527e+06   0.000000e+00   0.000000e+00   0.000000e+00
      704000   7.039990e-06   8.793681e+00   2.255887e+01   1.697051e+01   1.234898e+06   8.621331e+05   4.453179e+05   0.000000e+00   0.000000e+00   0.000000e+00   1.570527e+06   0.000000e+00   0.000000e+00   0.000000e+00
      712000   7.119990e-06   8.892473e+00   2.262784e+01   1.700613e+01   1.234898e+06   8.621331e+05   4.453179e+05   0.000000e+00   0.000000e+00   0.000000e+00   1.570527e+06   0.000000e+00   0.000000e+00   0.000000e+00
      720000   7.199990e-06   8.991265e+00   2.269681e+01   1.704176e+01   1.234898e+06   8.621331e+05   4.453179e+05   0.000000e+00   0.000000e+00   0.000000e+00   1.570527e+06   0.000000e+00   0.000000e+00   0.000000e+00
      728000   7.279990e-06   9.090057e+00   2.276578e+01   1.707738e+01   1.234898e+06   8.621331e+05   4.453179e+05   0.000000e+00   0.000000e+00   0.000000e+00   1.570527e+06   0.000000e+00   0.000000e+00   0.000000e+00
      736000   7.359990e-06   9.188849e+00   2.283475e+01   1.711301e+01   1.234898e+06   8.621331e+05   4.453179e+05   0.000000e+00   0.000000e+00   0.000000e+00   1.570527e+06   0.000000e+00   0.000000e+00   0.000000e+00
      744000   7.439990e-06   9.287640e+00   2.290372e+01   1.714863e+01   1.234898e+06   8.621331e+05   4.453179e+05   0.000000e+00   0.000000e+00   0.000000e+00   1.570527e+06   0.000000e+00   0.000000e+00   0.000000e+00
      752000   7.519990e-06   9.386432e+00   2.297269e+01   1.718426e+01   1.234898e+06   8.621331e+05   4.453179e+05   0.000000e+00   0.000000e+00   0.000000e+00   1.570527e+06   0.000000e+00   0.000000e+00   0.000000e+00
      760000   7.599990e-06   9.485224e+00   2.304166e+01   1.721988e+01   1.234898e+06   8.621331e+05   4.453179e+05   0.000000e+00   0.000000e+00   0.000000e+00   1.570527e+06   0.000000e+00   0.000000e+00   0.000000e+00
      768000   7.679990e-06   9.584016e+00   2.311063e+01   1.725551e+01   1.234898e+06   8.621331e+05   4.453179e+05   0.000000e+00   0.000000e+00   0.000000e+00   1.570527e+06   0.000000e+00   0.000000e+00   0.000000e+00
      776000   7.759990e-06   9.682808e+00   2.317960e+01   1.729113e+01   1.234898e+06   8.621331e+05   4.453179e+05   0.000000e+00   0.000000e+00   0.000000e+00   1.570527e+06   0.000000e+00   0.000000e+00   0.000000e+00
      784000   7.839990e-06   9.781600e+00   2.324858e+01   1.732676e+01   1.234898e+06   8.621331e+05   4.453179e+05   0.000000e+00   0.000000e+00   0.000000e+00   1.570527e+06   0.000000e+00   0.000000e+00   0.000000e+00
      792000   7.919990e-06   9.880391e+00   2.331755e+01   1.736239e+01   1.234898e+06   8.621331e+05   4.453179e+05   0.000000e+00   0.000000e+00   0.000000e+00   1.570527e+06   0.000000e+00   0.000000e+00   0.000000e+00
      800000   7.999990e-06   9.979183e+00   2.338652e+01   1.739801e+01   1.234898e+06   8.621331e+05   4.453179e+05   0.000000e+00   0.000000e+00   0.000000e+00   1.570527e+06   0.000000e+00   0.000000e+00   0.000000e+00
      808000   8.079990e-06   1.007798e+01   2.345549e+01   1.743364e+01   1.234898e+06   8.621331e+05   4.453179e+05   0.000000e+00   0.000000e+00   0.000000e+00   1.570527e+06   0.000000e+00   0.000000e+00   0.000000e+00
      816000   8.159990e-06   1.017677e+01   2.352446e+01   1.746926e+01   1.234898e+06   8.621331e+05   4.453179e+05   0.000000e+00   0.000000e+00   0.000000e+00   1.570527e+06   0.000000e+00   0.000000e+00   0.000000e+00
      824000   8.239990e-06   1.027556e+01   2.359343e+01   1.750489e+01   1.234898e+06   8.621331e+05   4.453179e+05   0.000000e+00   0.000000e+00   0.000000e+00   1.570527e+06   0.000000e+00   0.000000e+00   0.000000e+00
      832000   8.319990e-06   1.037435e+01   2.366240e+01   1.754051e+01   1.234898e+06   8.621331e+05   4.453179e+05   0.000000e+00   0.000000e+00   0.000000e+00   1.570527e+06   0.000000e+00   0.000000e+00   0.000000e+00
      840000   8.399990e-06   1.047314e+01   2.373137e+01   1.757614e+01   1.234898e+06   8.621331e+05   4.453179e+05   0.000000e+00   0.000000e+00   0.000000e+00   1.570527e+06   0.000000e+00   0.000000e+00   0.000000e+00
      848000   8.479990e-06   1.057193e+01   2.380034e+01   1.761176e+01   1.234898e+06   8.621331e+05   4.453179e+05   0.000000e+00   0.000000e+00   0.000000e+00   1.570527e+06   0.000000e+00   0.000000e+00   0.000000e+00
      856000   8.559990e-06   1.067073e+01   2.386931e+01   1.764739e+01   1.234898e+06   8.621331e+05   4.453179e+05   0.000000e+00   0.000000e+00   0.000000e+00   1.570527e+06   0.000000e+00   0.000000e+00   0.000000e+00
      864000   8.639990e-06   1.076952e+01   2.393828e+01   1.768301e+01   1.234898e+06   8.621331e+05   4.453179e+05   0.000000e+00   0.000000e+00   0.000000e+00   1.570527e+06   0.000000e+00   0.000000e+00   0.000000e+00
      872000   8.719990e-06   1.086831e+01   2.400725e+01   1.771864e+01   1.234898e+06   8.621331e+05   4.453179e+05   0.000000e+00   0.000000e+00   0.000000e+00   1.570527e+06   0.000000e+00   0.000000e+00   0.000000e+00
      880000   8.799990e-06   1.096710e+01   2.407622e+01   1.775427e+01   1.234898e+06   8.621331e+05   4.453179e+05   0.000000e+00   0.000000e+00   0.000000e+00   1.570527e+06   0.000000e+00   0.000000e+00   0.000000e+00
      888000   8.879990e-06   1.106589e+01   2.414519e+01   1.778989e+01   1.234898e+06   8.621331e+05   4.453179e+05   0.000000e+00   0.000000e+00   0.000000e+00   1.570527e+06   0.000000e+00   0.000000e+00   0.000000e+00
      896000   8.959990e-06   1.116469e+01   2.421416e+01   1.782552e+01   1.234898e+06   8.621331e+05   4.453179e+05   0.000000e+00   0.000000e+00   0.000000e+00   1.570527e+06   0.000000e+00   0.000000e+00   0.000000e+00
      904000   9.039990e-06   1.126348e+01   2.428314e+01   1.786114e+01   1.234898e+06   8.621331e+05   4.453179e+05   0.000000e+00   0.000000e+00   0.000000e+00   1.570527e+06   0.000000e+00   0.000000e+00   0.000000e+00
      912000   9.119990e-06   1.136227e+01   2.435211e+01   1.789677e+01   1.234898e+06   8.621331e+05   4.453179e+05   0.000000e+00   0.000000e+00   0.000000e+00   1.570527e+06   0.000000e+00   0.000000e+00   0.000000e+00
      920000   9.199990e-06   1.146106e+01   2.442108e+01   1.793239e+01   1.234898e+06   8.621331e+05   4.453179e+05   0.000000e+00   0.000000e+00   0.000000e+00   1.570527e+06   0.000000e+00   0.000000e+00   0.000000e+00
      928000   9.279990e-06   1.155985e+01   2.449005e+01   1.796802e+01   1.234898e+06   8.621331e+05   4.453179e+05   0.000000e+00   0.000000e+00   0.000000e+00   1.570527e+06   0.000000e+00   0.000000e+00   0.000000e+00
      936000   9.359990e-06   1.165864e+01   2.455902e+01   1.800364e+01   1.234898e+06   8.621331e+05   4.453179e+05   0.000000e+00   0.000000e+00   0.000000e+00   1.570527e+06   0.000000e+00   0.000000e+00   0.000000e+00
      944000   9.439990e-06   1.175744e+01   2.462799e+01   1.803927e+01   1.234898e+06   8.621331e+05   4.453179e+05   0.000000e+00   0.000000e+00   0.000000e+00   1.570527e+06   0.000000e+00   0.000000e+00   0.000000e+00
      952000   9.519990e-06   1.185623e+01   2.469696e+01   1.807489e+01   1.234898e+06   8.621331e+05   4.453179e+05   0.000000e+00   0.000000e+00   0.000000e+00   1.570527e+06   0.000000e+00   0.000000e+00   0.000000e+00
      960000   9.599990e-06   1.195502e+01   2.476593e+01   1.811052e+01   1.234898e+06   8.621331e+05   4.453179e+05   0.000000e+00   0.000000e+00   0.000000e+00   1.570527e+06   0.000000e+00   0.000000e+00   0.000000e+00
      968000   9.679990e-06   1.205381e+01   2.483490e+01   1.814614e+01   1.234898e+06   8.621331e+05   4.453179e+05   0.000000e+00   0.000000e+00   0.000000e+00   1.570527e+06   0.000000e+00   0.000000e+00   0.000000e+00
      976000   9.759990e-06   1.215260e+01   2.490387e+01   1.818177e+01   1.234898e+06   8.621331e+05   4.453179e+05   0.000000e+00   0.000000e+00   0.000000e+00   1.570527e+06   0.000000e+00   0.000000e+00   0.000000e+00
      984000   9.839990e-06   1.225140e+01   2.497284e+01   1.821740e+01   1.234898e+06   8.621331e+05   4.453179e+05   0.000000e+00   0.000000e+00   0.000000e+00   1.570527e+06   0.000000e+00   0.000000e+00   0.000000e+00
      992000   9.919990e-06   1.235019e+01   2.504181e+01   1.825302e+01   1.234898e+06   8.621331e+05   4.453179e+05   0.000000e+00   0.000000e+00   0.000000e+00   1.570527e+06   0.000000e+00   0.000000e+00   0.000000e+00
     1000000   9.999990e-06   1.244898e+01   2.511078e+01   1.828865e+01   1.234898e+06   8.621331e+05   4.453179e+05   0.000000e+00   0.000000e+00   0.000000e+00   1.570527e+06   0.000000e+00   0.000000e+00   0.000000e+00
     1008000   1.007999e-05   1.254777e+01   2.517975e+01   1.832427e+01   1.234898e+06   8.621331e+05   4.453179e+05   0.000000e+00   0.000000e+00   0.000000e+00   1.570527e+06   0.000000e+00   0.000000e+00   0.000000e+00
     1016000   1.015999e-05   1.264656e+01   2.524872e+01   1.835990e+01   1.234898e+06   8.621331e+05   4.453179e+05   0.000000e+00   0.000000e+00   0.000000e+00   1.570527e+06   0.000000e+00   0.000000e+00   0.000000e+00
     1024000   1.023999e-05   1.274535e+01   2.531769e+01   1.839552e+01   1.234898e+06   8.621331e+05   4.453179e+05   0.000000e+00   0.000000e+00   0.000000e+00   1.570527e+06   0.000000e+00   0.000000e+00   0.000000e+00
     1032000   1.031999e-05   1.284415e+01   2.538667e+01   1.843115e+01   1.234898e+06   8.621331e+05   4.453179e+05   0.000000e+00   0.000000e+00   0.000000e+00   1.570527e+06   0.000000e+00   0.000000e+00   0.000000e+00
     1040000   1.039999e-05   1.294294e+01   2.545564e+01   1.846677e+01   1.234898e+06   8.621331e+05   4.453179e+05   0.000000e+00   0.000000e+00   0.000000e+00   1.570527e+06   0.000000e+00   0.000000e+00   0.000000e+00
     1048000   1.047999e-05   1.304173e+01   2.552461e+01   1.850240e+01   1.234898e+06   8.621331e+05   4.453179e+05   0.000000e+00   0.000000e+00   0.000000e+00   1.570527e+06   0.000000e+00   0.000000e+00   0.000000e+00
     1056000   1.055999e-05   1.314052e+01   2.559358e+01   1.853802e+01   1.234898e+06   8.621331e+05   4.453179e+05   0.000000e+00   0.000000e+00   0.000000e+00   1.570527e+06   0.000000e+00   0.000000e+00   0.000000e+00
     1064000   1.063999e-05   1.323931e+01   2.566255e+01   1.857365e+01   1.234898e+06   8.621331e+05   4.453179e+05   0.000000e+00   0.000000e+00   0.000000e+00   1.570527e+06   0.000000e+00   0.000000e+00   0.000000e+00
     1072000   1.071999e-05   1.333811e+01   2.573152e+01   1.860928e+01   1.234898e+06   8.621331e+05   4.453179e+05   0.000000e+00   0.000000e+00   0.000000e+00   1.570527e+06   0.000000e+00   0.000000e+00   0.000000e+00
     1080000   1.079999e-05   1.343690e+01   2.580049e+01   1.864490e+01   1.234898e+06   8.621331e+05   4.453179e+05   0.000000e+00   0.000000e+00   0.000000e+00   1.570527e+06   0.000000e+00   0.000000e+00   0.000000e+00
     1088000   1.087999e-05   1.353569e+01   2.586946e+01   1.868053e+01   1.234898e+06   8.621331e+05   4.453179e+05   0.000000e+00   0.000000e+00   0.000000e+00   1.570527e+06   0.000000e+00   0.000000e+00   0.000000e+00
     1096000   1.095999e-05   1.363448e+01   2.593843e+01   1.871615e+01   1.234898e+06   8.621331e+05   4.453179e+05   0.000000e+00   0.000000e+00   0.000000e+00   1.570527e+06   0.000000e+00   0.000000e+00   0.000000e+00
     1104000   1.103999e-05   1.373327e+01   2.600740e+01   1.875178e+01   1.234898e+06   8.621331e+05   4.453179e+05   0.000000e+00   0.000000e+00   0.000000e+00   1.570527e+06   0.000000e+00   0.000000e+00   0.000000e+00
     1112000   1.111999e-05   1.383206e+01   2.607637e+01   1.878740e+01   1.234898e+06   8.621331e+05   4.453179e+05   0.000000e+00   0.000000e+00   0.000000e+00   1.570527e+06   0.000000e+00   0.000000e+00   0.000000e+00
     1120000   1.119999e-05   1.393086e+01   2.614534e+01   1.882303e+01   1.234898e+06   8.621331e+05   4.453179e+05   0.000000e+00   0.000000e+00   0.000000e+00   1.570527e+06   0.000000e+00   0.000000e+00   0.000000e+00
     1128000   1.127999e-05   1.402965e+01   2.621431e+01   1.885865e+01   1.234898e+06   8.621331e+05   4.453179e+05   0.000000e+00   0.000000e+00   0.000000e+00   1.570527e+06   0.000000e+00   0.000000e+00   0.000000e+00
     1136000   1.135999e-05   1.412844e+01   2.628328e+01   1.889428e+01   1.234898e+06   8.621331e+05   4.453179e+05   0.000000e+00   0.000000e+00   0.000000e+00   1.570527e+06   0.000000e+00   0.000000e+00   0.000000e+00
     1144000   1.143999e-05   1.422723e+01   2.635225e+01   1.892990e+01   1.234898e+06   8.621331e+05   4.453179e+05   0.000000e+00   0.000000e+00   0.000000e+00   1.570527e+06   0.000000e+00   0.000000e+00   0.000000e+00
     1152000   1.151999e-05   1.432602e+01   2.642123e+01   1.896553e+01   1.234898e+06   8.621331e+05   4.453179e+05   0.000000e+00   0.000000e+00   0.000000e+00   1.570527e+06   0.000000e+00   0.000000e+00   0.000000e+00
     1160000   1.159999e-05   1.442482e+01   2.649020e+01   1.900116e+01   1.234898e+06   8.621331e+05   4.453179e+05   0.000000e+00   0.000000e+00   0.000000e+00   1.570527e+06   0.000000e+00   0.000000e+00   0.000000e+00
     1168000   1.167999e-05   1.452361e+01   2.655917e+01   1.903678e+01   1.234898e+06   8.621331e+05   4.453179e+05   0.000000e+00   0.000000e+00   0.000000e+00   1.570527e+06   0.000000e+00   0.000000e+00   0.000000e+00
     1176000   1.175999e-05   1.462240e+01   2.662814e+01   1.907241e+01   1.234898e+06   8.621331e+05   4.453179e+05   0.000000e+00   0.000000e+00   0.000000e+00   1.570527e+06   0.000000e+00   0.000000e+00   0.000000e+00
     1184000   1.183999e-05   1.472119e+01   2.669711e+01   1.910803e+01   1.234898e+06   8.621331e+05   4.453179e+05   0.000000e+00   0.000000e+00   0.000000e+00   1.570527e+06   0.000000e+00   0.000000e+00   0.000000e+00
     1192000   1.191999e-05   1.481998e+01   2.676608e+01   1.914366e+01   1.234898e+06   8.621331e+05   4.453179e+05   0.000000e+00   0.000000e+00   0.000000e+00   1.570527e+06   0.000000e+00   0.000000e+00   0.000000e+00
     1200000   1.199999e-05   1.491877e+01   2.683505e+01   1.917928e+01   1.234898e+06   8.621331e+05   4.453179e+05   0.000000e+00   0.000000e+00   0.000000e+00   1.570527e+06   0.000000e+00   0.000000e+00   0.000000e+00
     1208000   1.207999e-05   1.501757e+01   2.690402e+01   1.921491e+01   1.234898e+06   8.621331e+05   4.453179e+05   0.000000e+00   0.000000e+00   0.000000e+00   1.570527e+06   0.000000e+00   0.000000e+00   0.000000e+00
     1216000   1.215999e-05   1.511636e+01   2.697299e+01   1.925053e+01   1.234898e+06   8.621331e+05   4.453179e+05   0.000000e+00   0.000000e+00   0.000000e+00   1.570527e+06   0.000000e+00   0.000000e+00   0.000000e+00
     1224000   1.223999e-05   1.521515e+01   2.704196e+01   1.928616e+01   1.234898e+06   8.621331e+05   4.453179e+05   0.000000e+00   0.000000e+00   0.000000e+00   1.570527e+06   0.000000e+00   0.000000e+00   0.000000e+00
     1232000   1.231999e-05   1.531394e+01   2.711093e+01   1.932178e+01   1.234898e+06   8.621331e+05   4.453179e+05   0.000000e+00   0.000000e+00   0.000000e+00   1.570527e+06   0.000000e+00   0.000000e+00   0.000000e+00
     1240000   1.239999e-05   1.541273e+01   2.717990e+01   1.935741e+01   1.234898e+06   8.621331e+05   4.453179e+05   0.000000e+00   0.000000e+00   0.000000e+00   1.570527e+06   0.000000e+00   0.000000e+00   0.000000e+00
     1248000   1.247999e-05   1.551153e+01   2.724887e+01   1.939303e+01   1.234898e+06   8.621331e+05   4.453179e+05   0.000000e+00   0.000000e+00   0.000000e+00   1.570527e+06   0.000000e+00   0.000000e+00   0.000000e+00
     1256000   1.255999e-05   1.561032e+01   2.731784e+01   1.942866e+01   1.234898e+06   8.621331e+05   4.453179e+05   0.000000e+00   0.000000e+00   0.000000e+00   1.570527e+06   0.000000e+00   0.000000e+00   0.000000e+00
     1264000   1.263999e-05   1.570911e+01   2.738681e+01   1.946429e+01   1.234898e+06   8.621331e+05   4.453179e+05   0.000000e+00   0.000000e+00   0.000000e+00   1.570527e+06   0.000000e+00   0.000000e+00   0.000000e+00
     1272000   1.271999e-05   1.580790e+01   2.745579e+01   1.949991e+01   1.234898e+06   8.621331e+05   4.453179e+05   0.000000e+00   0.000000e+00   0.000000e+00   1.570527e+06   0.000000e+00   0.000000e+00   0.000000e+00
     1280000   1.279999e-05   1.590669e+01   2.752476e+01   1.953554e+01   1.234898e+06   8.621349e+05   4.453130e+05   0.000000e+00   0.000000e+00   0.000000e+00   1.570527e+06   0.000000e+00   0.000000e+00   0.000000e+00
     1288000   1.287999e-05   1.600548e+01   2.759373e+01   1.957116e+01   1.234899e+06   8.621358e+05   4.453106e+05   5.810369e+07   1.988934e+08  -5.461924e+08   1.570527e+06   1.727435e-24   0.000000e+00   0.000000e+00
     1296000   1.295999e-05   1.610428e+01   2.766270e+01   1.960679e+01   1.234901e+06   8.621431e+05   4.452900e+05   4.021043e+07   1.310562e+08  -3.652566e+08   1.570527e+06   7.709409e-25   0.000000e+00   0.000000e+00
     1304000   1.303999e-05   1.620307e+01   2.773167e+01   1.964241e+01   1.234912e+06   8.621783e+05   4.451909e+05   1.365298e+08   4.242177e+08  -1.200280e+09   1.570527e+06   8.300222e-24   0.000000e+00   0.000000e+00
     1312000   1.311999e-05   1.630186e+01   2.780065e+01   1.967802e+01   1.234920e+06   8.622031e+05   4.451206e+05   2.423188e+08   7.186007e+08  -2.064214e+09   1.570527e+06   2.448523e-23   0.000000e+00   0.000000e+00
     1320000   1.319999e-05   1.640066e+01   2.786962e+01   1.971362e+01   1.234957e+06   8.623105e+05   4.448105e+05   4.412841e+08   1.272907e+09  -3.692826e+09   1.570527e+06   7.825224e-23   0.000000e+00   0.000000e+00
     1328000   1.327999e-05   1.649946e+01   2.793861e+01   1.974919e+01   1.235007e+06   8.624520e+05   4.443960e+05   1.120711e+09   3.126453e+09  -9.182129e+09   1.570527e+06   4.825816e-22   0.000000e+00   0.000000e+00
     1336000   1.335999e-05   1.659826e+01   2.800761e+01   1.978473e+01   1.235046e+06   8.625587e+05   4.440801e+05   1.221233e+09   3.280689e+09  -9.768653e+09   1.570527e+06   5.450396e-22   0.000000e+00   0.000000e+00
     1344000   1.343999e-05   1.669706e+01   2.807663e+01   1.982024e+01   1.235109e+06   8.627241e+05   4.435836e+05   6.665758e+08   1.700585e+09  -5.163467e+09   1.570527e+06   1.518903e-22   0.000000e+00   0.000000e+00
     1352000   1.351999e-05   1.679587e+01   2.814565e+01   1.985570e+01   1.235166e+06   8.628670e+05   4.431479e+05   4.484143e+08   1.088882e+09  -3.370041e+09   1.570527e+06   6.453351e-23   0.000000e+00   0.000000e+00
     1360000   1.359999e-05   1.689469e+01   2.821469e+01   1.989114e+01   1.235226e+06   8.630139e+05   4.426942e+05   2.101372e+08   4.780899e+08  -1.518351e+09   1.570527e+06   1.305950e-23   0.000000e+00   0.000000e+00
     1368000   1.367999e-05   1.699351e+01   2.828373e+01   1.992654e+01   1.235244e+06   8.630574e+05   4.425576e+05  -2.992962e+08  -7.478485e+08   2.293804e+09   1.570527e+06   2.989605e-23   0.000000e+00   0.000000e+00
     1376000   1.375999e-05   1.709233e+01   2.835278e+01   1.996194e+01   1.235252e+06   8.630730e+05   4.425073e+05  -4.216819e+08  -9.962070e+08   3.120135e+09   1.570527e+06   5.517431e-23   0.000000e+00   0.000000e+00
     1384000   1.383999e-05   1.719115e+01   2.842182e+01   1.999733e+01   1.235270e+06   8.631129e+05   4.423786e+05  -5.529971e+08  -1.243281e+09   3.969886e+09   1.570527e+06   8.911386e-23   0.000000e+00   0.000000e+00
     1392000   1.391999e-05   1.728997e+01   2.849087e+01   2.003273e+01   1.235266e+06   8.631048e+05   4.424043e+05   7.858531e+03  -1.015310e+04  -2.134215e+03   1.570527e+06   8.575160e-34   0.000000e+00   0.000000e+00
     1400000   1.399999e-05   1.738879e+01   2.855992e+01   2.006812e+01   1.235266e+06   8.631048e+05   4.424043e+05   9.779972e+03  -1.335846e+04  -1.245742e+03   1.570527e+06   1.395381e-33   0.000000e+00   0.000000e+00
     1408000   1.407999e-05   1.748762e+01   2.862897e+01   2.010351e+01   1.235266e+06   8.631048e+05   4.424043e+05   1.162247e+04  -1.660323e+04  -5.992756e+01   1.570527e+06   2.079365e-33   0.000000e+00   0.000000e+00
     1416000   1.415999e-05   1.758644e+01   2.869802e+01   2.013890e+01   1.235266e+06   8.631048e+05   4.424043e+05   1.404234e+04  -2.007134e+04  -5.054651e+01   1.570527e+06   3.037648e-33   0.000000e+00   0.000000e+00
     1424000   1.423999e-05   1.768526e+01   2.876707e+01   2.017430e+01   1.235266e+06   8.631048e+05   4.424043e+05   1.672186e+04  -2.399641e+04   1.253710e+02   1.570527e+06   4.330645e-33   0.000000e+00   0.000000e+00
     1432000   1.431999e-05   1.778408e+01   2.883611e+01   2.020969e+01   1.235266e+06   8.631048e+05   4.424043e+05   1.898275e+04  -2.716791e+04  -2.208160e-17   1.570527e+06   5.560685e-33   0.000000e+00   0.000000e+00
     1440000   1.439999e-05   1.788290e+01   2.890516e+01   2.024508e+01   1.235266e+06   8.631048e+05   4.424043e+05   2.168206e+04  -3.103114e+04  -3.340180e-17   1.570527e+06   7.254739e-33   0.000000e+00   0.000000e+00
     1448000   1.447999e-05   1.798172e+01   2.897421e+01   2.028047e+01   1.235266e+06   8.631048e+05   4.424043e+05   2.368368e+04  -3.389583e+04   7.619405e-18   1.570527e+06   8.656030e-33   0.000000e+00   0.000000e+00
     1456000   1.455999e-05   1.808054e+01   2.904326e+01   2.031587e+01   1.235266e+06   8.631048e+05   4.424043e+05   2.705709e+04  -3.872382e+04  -1.985554e-17   1.570527e+06   1.129748e-32   0.000000e+00   0.000000e+00
     1464000   1.463999e-05   1.817936e+01   2.911231e+01   2.035126e+01   1.235266e+06   8.631048e+05   4.424043e+05   3.014174e+04  -4.313854e+04  -1.507940e-17   1.570527e+06   1.402024e-32   0.000000e+00   0.000000e+00
     1472000   1.471999e-05   1.827819e+01   2.918136e+01   2.038665e+01   1.235266e+06   8.631048e+05   4.424043e+05   3.248409e+04  -4.649089e+04  -2.821819e-17   1.570527e+06   1.628396e-32   0.000000e+00   0.000000e+00
     1480000   1.479999e-05   1.837701e+01   2.925041e+01   2.042204e+01   1.235266e+06   8.631048e+05   4.424043e+05   3.533078e+04  -5.056504e+04   2.004912e-17   1.570527e+06   1.926316e-32   0.000000e+00   0.000000e+00
     1488000   1.487999e-05   1.847583e+01   2.931945e+01   2.045743e+01   1.235266e+06   8.631048e+05   4.424043e+05   3.868290e+04  -5.536255e+04  -1.149325e-16   1.570527e+06   2.309166e-32   0.000000e+00   0.000000e+00
     1496000   1.495999e-05   1.857465e+01   2.938850e+01   2.049283e+01   1.235266e+06   8.631048e+05   4.424043e+05   4.004432e+04  -5.731100e+04  -2.688111e-18   1.570527e+06   2.474600e-32   0.000000e+00   0.000000e+00
     1504000   1.503999e-05   1.867347e+01   2.945755e+01   2.052822e+01   1.235266e+06   8.631048e+05   4.424043e+05   4.417056e+04  -6.321643e+04   9.964730e-17   1.570527e+06   3.010830e-32   0.000000e+00   0.000000e+00
     1512000   1.511999e-05   1.877229e+01   2.952660e+01   2.056361e+01   1.235266e+06   8.631048e+05   4.424043e+05   4.698934e+04  -6.725064e+04  -1.916010e-17   1.570527e+06   3.407369e-32   0.000000e+00   0.000000e+00
     1520000   1.519999e-05   1.887111e+01   2.959565e+01   2.059900e+01   1.235266e+06   8.631048e+05   4.424043e+05   4.889825e+04  -6.998266e+04  -9.705216e-18   1.570527e+06   3.689857e-32   0.000000e+00   0.000000e+00
     1528000   1.527999e-05   1.896994e+01   2.966470e+01   2.063440e+01   1.235266e+06   8.631048e+05   4.424043e+05   5.184837e+04  -7.420483e+04  -2.519804e-17   1.570527e+06   4.148515e-32   0.000000e+00   0.000000e+00
     1536000   1.535999e-05   1.906876e+01   2.973374e+01   2.066979e+01   1.235266e+06   8.631047e+05   4.424043e+05   5.385132e+04  -7.707144e+04  -7.480742e-17   1.570527e+06   4.475274e-32   0.000000e+00   0.000000e+00
     1544000   1.543999e-05   1.916758e+01   2.980279e+01   2.070518e+01   1.235266e+06   8.631047e+05   4.424043e+05   5.634931e+04  -8.064653e+04   7.027855e-17   1.570527e+06   4.900072e-32   0.000000e+00   0.000000e+00
     1552000   1.551999e-05   1.926640e+01   2.987184e+01   2.074057e+01   1.235266e+06   8.631047e+05   4.424043e+05   5.805730e+04  -8.309099e+04   9.437586e-17   1.570527e+06   5.201611e-32   0.000000e+00   0.000000e+00
     1560000   1.559999e-05   1.936522e+01   2.994089e+01   2.077597e+01   1.235266e+06   8.631047e+05   4.424043e+05   5.927991e+04  -8.484078e+04  -6.803365e-17   1.570527e+06   5.423014e-32   0.000000e+00   0.000000e+00
     1568000   1.567999e-05   1.946404e+01   3.000994e+01   2.081136e+01   1.235266e+06   8.631047e+05   4.424043e+05   6.156147e+04  -8.810612e+04  -8.201028e-17   1.570527e+06   5.848462e-32   0.000000e+00   0.000000e+00
     1576000   1.575999e-05   1.956286e+01   3.007899e+01   2.084675e+01   1.235266e+06   8.631047e+05   4.424043e+05   6.208172e+04  -8.885070e+04  -1.561268e-16   1.570527e+06   5.947785e-32   0.000000e+00   0.000000e+00
     1584000   1.583999e-05   1.966168e+01   3.014803e+01   2.088214e+01   1.235266e+06   8.631047e+05   4.424043e+05   6.474535e+04  -9.266287e+04  -2.796178e-19   1.570527e+06   6.469045e-32   0.000000e+00   0.000000e+00
     1592000   1.591999e-05   1.976051e+01   3.021708e+01   2.091754e+01   1.235266e+06   8.631047e+05   4.424043e+05   6.373681e+04  -9.121945e+04  -4.041607e-17   1.570527e+06   6.269176e-32   0.000000e+00   0.000000e+00
     1600000   1.599999e-05   1.985933e+01   3.028613e+01   2.095293e+01   1.235266e+06   8.631047e+05   4.424043e+05   6.379595e+04  -9.130409e+04  -8.348676e-17   1.570527e+06   6.280798e-32   0.000000e+00   0.000000e+00
     1608000   1.607999e-05   1.995815e+01   3.035518e+01   2.098832e+01   1.235266e+06   8.631047e+05   4.424043e+05   6.294261e+04  -9.008280e+04   2.258633e-17   1.570527e+06   6.113914e-32   0.000000e+00   0.000000e+00
     1616000   1.615999e-05   2.005697e+01   3.042423e+01   2.102371e+01   1.235266e+06   8.631047e+05   4.424043e+05   6.318884e+04  -9.043521e+04   6.950474e-17   1.570527e+06   6.161809e-32   0.000000e+00   0.000000e+00
     1624000   1.623999e-05   2.015579e+01   3.049328e+01   2.105910e+01   1.235266e+06   8.631047e+05   4.424043e+05   6.276550e+04  -8.982932e+04   1.364008e-17   1.570527e+06   6.079534e-32   0.000000e+00   0.000000e+00
     1632000   1.631999e-05   2.025461e+01   3.056232e+01   2.109450e+01   1.235266e+06   8.631047e+05   4.424043e+05   6.065772e+04  -8.681269e+04  -5.199108e-17   1.570527e+06   5.678126e-32   0.000000e+00   0.000000e+00
     1640000   1.639999e-05   2.035343e+01   3.063137e+01   2.112989e+01   1.235266e+06   8.631047e+05   4.424043e+05   5.961031e+04  -8.531366e+04  -6.637661e-17   1.570527e+06   5.483739e-32   0.000000e+00   0.000000e+00
     1648000   1.647999e-05   2.045225e+01   3.070042e+01   2.116528e+01   1.235266e+06   8.631046e+05   4.424043e+05   5.743748e+04  -8.220392e+04  -7.294210e-17   1.570527e+06   5.091221e-32   0.000000e+00   0.000000e+00
     1656000   1.655999e-05   2.055108e+01   3.076947e+01   2.120067e+01   1.235266e+06   8.631046e+05   4.424043e+05   5.550206e+04  -7.943397e+04  -1.032087e-16   1.570527e+06   4.753914e-32   0.000000e+00   0.000000e+00
     1664000   1.663999e-05   2.064990e+01   3.083852e+01   2.123607e+01   1.235266e+06   8.631046e+05   4.424043e+05   5.312738e+04  -7.603535e+04  -1.831303e-17   1.570527e+06   4.355828e-32   0.000000e+00   0.000000e+00
     1672000   1.671999e-05   2.074872e+01   3.090757e+01   2.127146e+01   1.235266e+06   8.631046e+05   4.424043e+05   5.031376e+04  -7.200853e+04  -5.757497e-17   1.570527e+06   3.906686e-32   0.000000e+00   0.000000e+00
     1680000   1.679999e-05   2.084754e+01   3.097661e+01   2.130685e+01   1.235266e+06   8.631046e+05   4.424043e+05   4.731698e+04  -6.771958e+04   1.320256e-16   1.570527e+06   3.455179e-32   0.000000e+00   0.000000e+00
     1688000   1.687999e-05   2.094636e+01   3.104566e+01   2.134224e+01   1.235266e+06   8.631046e+05   4.424043e+05   4.428657e+04  -6.338248e+04   4.672771e-18   1.570527e+06   3.026780e-32   0.000000e+00   0.000000e+00
     1696000   1.695999e-05   2.104518e+01   3.111471e+01   2.137764e+01   1.235266e+06   8.631046e+05   4.424043e+05   4.049223e+04  -5.795207e+04   2.862663e-17   1.570527e+06   2.530371e-32   0.000000e+00   0.000000e+00
     1704000   1.703999e-05   2.114400e+01   3.118376e+01   2.141303e+01   1.235266e+06   8.631046e+05   4.424043e+05   3.673493e+04  -5.257465e+04  -7.338366e-17   1.570527e+06   2.082569e-32   0.000000e+00   0.000000e+00
     1712000   1.711999e-05   2.124283e+01   3.125281e+01   2.144842e+01   1.235266e+06   8.631046e+05   4.424043e+05   3.227692e+04  -4.619440e+04   1.533846e-17   1.570527e+06   1.607790e-32   0.000000e+00   0.000000e+00
     1720000   1.719999e-05   2.134165e+01   3.132186e+01   2.148381e+01   1.235266e+06   8.631046e+05   4.424043e+05   2.859992e+04  -4.093192e+04  -4.029203e-17   1.570527e+06   1.262332e-32   0.000000e+00   0.000000e+00
     1728000   1.727999e-05   2.144047e+01   3.139090e+01   2.151921e+01   1.235266e+06   8.631046e+05   4.424043e+05   2.505470e+04  -3.585803e+04   4.513721e-18   1.570527e+06   9.687652e-33   0.000000e+00   0.000000e+00
     1736000   1.735999e-05   2.153929e+01   3.145995e+01   2.155460e+01   1.235266e+06   8.631046e+05   4.424043e+05   2.099018e+04  -3.004093e+04  -9.159933e-18   1.570527e+06   6.799446e-33   0.000000e+00   0.000000e+00
     1744000   1.743999e-05   2.163811e+01   3.152900e+01   2.158999e+01   1.235266e+06   8.631046e+05   4.424043e+05   1.700019e+04  -2.433049e+04  -1.102244e-18   1.570527e+06   4.460260e-33   0.000000e+00   0.000000e+00
     1752000   1.751999e-05   2.173693e+01   3.159805e+01   2.162538e+01   1.235266e+06   8.631046e+05   4.424043e+05   1.245547e+04  -1.782614e+04  -1.260571e-17   1.570527e+06   2.394337e-33   0.000000e+00   0.000000e+00
     1760000   1.759999e-05   2.183575e+01   3.166710e+01   2.166077e+01   1.235266e+06   8.631046e+05   4.424043e+05   8.144195e+03  -1.165589e+04   5.059364e-18   1.570527e+06   1.023717e-33   0.000000e+00   0.000000e+00
     1768000   1.767999e-05   2.193457e+01   3.173615e+01   2.169617e+01   1.235266e+06   8.631046e+05   4.424043e+05   4.216962e+03  -6.035272e+03  -1.427789e-18   1.570527e+06   2.745019e-34   0.000000e+00   0.000000e+00
     1776000   1.775999e-05   2.203340e+01   3.180519e+01   2.173156e+01   1.235266e+06   8.631046e+05   4.424043e+05   2.968063e+02  -4.247861e+02  -5.495145e-20   1.570527e+06   1.363914e-36   0.000000e+00   0.000000e+00
     1784000   1.783999e-05   2.213222e+01   3.187424e+01   2.176695e+01   1.235266e+06   8.631046e+05   4.424043e+05  -3.783974e+03   5.415585e+03  -3.303361e-18   1.570527e+06   2.209086e-34   0.000000e+00   0.000000e+00
     1792000   1.791999e-05   2.223104e+01   3.194329e+01   2.180234e+01   1.235266e+06   8.631046e+05   4.424043e+05  -7.040834e+03   1.007677e+04  -9.116333e-18   1.570527e+06   7.648872e-34   0.000000e+00   0.000000e+00
     1800000   1.799999e-05   2.232986e+01   3.201234e+01   2.183774e+01   1.235266e+06   8.631046e+05   4.424043e+05  -1.045879e+04   1.496851e+04  -1.098224e-17   1.570527e+06   1.687847e-33   0.000000e+00   0.000000e+00
     1808000   1.807999e-05   2.242868e+01   3.208139e+01   2.187313e+01   1.235266e+06   8.631046e+05   4.424043e+05  -1.318333e+04   1.886784e+04   6.719569e-18   1.570527e+06   2.681970e-33   0.000000e+00   0.000000e+00
     1816000   1.815999e-05   2.252750e+01   3.215044e+01   2.190852e+01   1.235266e+06   8.631046e+05   4.424043e+05  -1.705777e+04   2.441291e+04   1.130470e-17   1.570527e+06   4.490207e-33   0.000000e+00   0.000000e+00
     1824000   1.823999e-05   2.262632e+01   3.221949e+01   2.194391e+01   1.235266e+06   8.631046e+05   4.424043e+05  -1.994382e+04   2.854339e+04  -3.872126e-18   1.570527e+06   6.138071e-33   0.000000e+00   0.000000e+00
     1832000   1.831999e-05   2.272515e+01   3.228853e+01   2.197931e+01   1.235266e+06   8.631046e+05   4.424043e+05  -2.228001e+04   3.188692e+04   3.036325e-17   1.570527e+06   7.660264e-33   0.000000e+00   0.000000e+00
     1840000   1.839999e-05   2.282397e+01   3.235758e+01   2.201470e+01   1.235266e+06   8.631046e+05   4.424043e+05  -2.470021e+04   3.535068e+04  -5.748292e-17   1.570527e+06   9.415111e-33   0.000000e+00   0.000000e+00
     1848000   1.847999e-05   2.292279e+01   3.242663e+01   2.205009e+01   1.235266e+06   8.631046e+05   4.424043e+05  -2.698881e+04   3.862611e+04  -2.127211e-17   1.570527e+06   1.124065e-32   0.000000e+00   0.000000e+00
     1856000   1.855999e-05   2.302161e+01   3.249568e+01   2.208548e+01   1.235266e+06   8.631046e+05   4.424043e+05  -2.992578e+04   4.282947e+04  -1.985633e-17   1.570527e+06   1.382001e-32   0.000000e+00   0.000000e+00
     1864000   1.863999e-05   2.312043e+01   3.256473e+01   2.212088e+01   1.235266e+06   8.631046e+05   4.424043e+05  -3.009273e+04   4.306841e+04  -5.570353e-18   1.570527e+06   1.397485e-32   0.000000e+00   0.000000e+00
     1872000   1.871999e-05   2.321925e+01   3.263378e+01   2.215627e+01   1.235266e+06   8.631046e+05   4.424043e+05  -3.205446e+04   4.587601e+04   8.868897e-18   1.570527e+06   1.585641e-32   0.000000e+00   0.000000e+00
     1880000   1.879999e-05   2.331807e+01   3.270282e+01   2.219166e+01   1.235266e+06   8.631046e+05   4.424043e+05  -3.310266e+04   4.737619e+04   2.736539e-18   1.570527e+06   1.691011e-32   0.000000e+00   0.000000e+00
     1888000   1.887999e-05   2.341689e+01   3.277187e+01   2.222705e+01   1.235266e+06   8.631046e+05   4.424043e+05  -3.409549e+04   4.879712e+04   7.815113e-18   1.570527e+06   1.793973e-32   0.000000e+00   0.000000e+00
     1896000   1.895999e-05   2.351572e+01   3.284092e+01   2.226244e+01   1.235266e+06   8.631046e+05   4.424043e+05  -3.472963e+04   4.970469e+04  -2.091697e-17   1.570527e+06   1.861355e-32   0.000000e+00   0.000000e+00
     1904000   1.903999e-05   2.361454e+01   3.290997e+01   2.229784e+01   1.235266e+06   8.631046e+05   4.424043e+05  -3.539202e+04   5.065269e+04  -1.372389e-18   1.570527e+06   1.933041e-32   0.000000e+00   0.000000e+00
     1912000   1.911999e-05   2.371336e+01   3.297902e+01   2.233323e+01   1.235266e+06   8.631046e+05   4.424043e+05  -3.569280e+04   5.108317e+04   4.937668e-17   1.570527e+06   1.966031e-32   0.000000e+00   0.000000e+00
     1920000   1.919999e-05   2.381218e+01   3.304807e+01   2.236862e+01   1.235266e+06   8.631046e+05   4.424043e+05  -3.616613e+04   5.176059e+04   1.009750e-17   1.570527e+06   2.018528e-32   0.000000e+00   0.000000e+00
     1928000   1.927999e-05   2.391100e+01   3.311711e+01   2.240401e+01   1.235266e+06   8.631046e+05   4.424043e+05  -3.652052e+04   5.226779e+04  -9.378816e-18   1.570527e+06   2.058285e-32   0.000000e+00   0.000000e+00
     1936000   1.935999e-05   2.400982e+01   3.318616e+01   2.243941e+01   1.235266e+06   8.631046e+05   4.424043e+05  -3.605787e+04   5.160565e+04  -1.976084e-17   1.570527e+06   2.006453e-32   0.000000e+00   0.000000e+00
     1944000   1.943999e-05   2.410864e+01   3.325521e+01   2.247480e+01   1.235266e+06   8.631046e+05   4.424043e+05  -3.563037e+04   5.099381e+04  -6.831568e-17   1.570527e+06   1.959172e-32   0.000000e+00   0.000000e+00
     1952000   1.951999e-05   2.420746e+01   3.332426e+01   2.251019e+01   1.235266e+06   8.631047e+05   4.424043e+05  -3.518160e+04   5.035155e+04  -3.200696e-17   1.570527e+06   1.910122e-32   0.000000e+00   0.000000e+00
     1960000   1.959999e-05   2.430629e+01   3.339331e+01   2.254558e+01   1.235266e+06   8.631047e+05   4.424043e+05  -3.513198e+04   5.028053e+04  -7.082079e-18   1.570527e+06   1.904728e-32   0.000000e+00   0.000000e+00
     1968000   1.967999e-05   2.440511e+01   3.346236e+01   2.258098e+01   1.235266e+06   8.631047e+05   4.424043e+05  -3.374178e+04   4.829089e+04   1.975106e-17   1.570527e+06   1.757004e-32   0.000000e+00   0.000000e+00
     1976000   1.975999e-05   2.450393e+01   3.353140e+01   2.261637e+01   1.235266e+06   8.631047e+05   4.424043e+05  -3.356443e+04   4.803706e+04  -9.673978e-18   1.570527e+06   1.738556e-32   0.000000e+00   0.000000e+00
     1984000   1.983999e-05   2.460275e+01   3.360045e+01   2.265176e+01   1.235266e+06   8.631047e+05   4.424043e+05  -3.252571e+04   4.655045e+04  -7.615191e-17   1.570527e+06   1.632610e-32   0.000000e+00   0.000000e+00
     1992000   1.991999e-05   2.470157e+01   3.366950e+01   2.268715e+01   1.235266e+06   8.631047e+05   4.424043e+05  -3.230268e+04   4.623125e+04   3.188484e-17   1.570527e+06   1.610297e-32   0.000000e+00   0.000000e+00
     2000000   1.999999e-05   2.480039e+01   3.373855e+01   2.272254e+01   1.235266e+06   8.631047e+05   4.424043e+05  -3.114726e+04   4.457764e+04   5.589763e-17   1.570527e+06   1.497172e-32   0.000000e+00   0.000000e+00
     2008000   2.007999e-05   2.489921e+01   3.380760e+01   2.275794e+01   1.235266e+06   8.631047e+05   4.424043e+05  -2.991610e+04   4.281561e+04  -3.822200e-17   1.570527e+06   1.381156e-32   0.000000e+00   0.000000e+00
     2016000   2.015999e-05   2.499804e+01   3.387665e+01   2.279333e+01   1.235266e+06   8.631047e+05   4.424043e+05  -2.946142e+04   4.216488e+04   3.359393e-17   1.570527e+06   1.339482e-32   0.000000e+00   0.000000e+00
     2024000   2.023999e-05   2.509686e+01   3.394569e+01   2.282872e+01   1.235266e+06   8.631047e+05   4.424043e+05  -2.836314e+04   4.059302e+04   2.382366e-18   1.570527e+06   1.241482e-32   0.000000e+00   0.000000e+00
     2032000   2.031999e-05   2.519568e+01   3.401474e+01   2.286411e+01   1.235266e+06   8.631047e+05   4.424043e+05  -2.774197e+04   3.970401e+04  -4.329947e-17   1.570527e+06   1.187686e-32   0.000000e+00   0.000000e+00
     2040000   2.039999e-05   2.529450e+01   3.408379e+01   2.289951e+01   1.235266e+06   8.631047e+05   4.424043e+05  -2.592627e+04   3.710540e+04   2.381319e-17   1.570527e+06   1.037326e-32   0.000000e+00   0.000000e+00
     2048000   2.047999e-05   2.539332e+01   3.415284e+01   2.293490e+01   1.235266e+06   8.631047e+05   4.424043e+05  -2.598451e+04   3.718876e+04   1.308998e-17   1.570527e+06   1.041972e-32   0.000000e+00   0.000000e+00
     2056000   2.055999e-05   2.549214e+01   3.422189e+01   2.297029e+01   1.235266e+06   8.631047e+05   4.424043e+05  -2.347099e+04   3.359143e+04   2.130668e-17   1.570527e+06   8.501675e-33   0.000000e+00   0.000000e+00
     2064000   2.063999e-05   2.559096e+01   3.429094e+01   2.300568e+01   1.235266e+06   8.631047e+05   4.424043e+05  -2.348914e+04   3.361742e+04  -2.020835e-17   1.570527e+06   8.514620e-33   0.000000e+00   0.000000e+00
     2072000   2.071999e-05   2.568978e+01   3.435998e+01   2.304108e+01   1.235266e+06   8.631047e+05   4.424043e+05  -2.208192e+04   3.160341e+04  -3.773976e-17   1.570527e+06   7.525006e-33   0.000000e+00   0.000000e+00
     2080000   2.079999e-05   2.578861e+01   3.442903e+01   2.307647e+01   1.235266e+06   8.631047e+05   4.424043e+05  -2.048913e+04   2.932383e+04  -2.854657e-17   1.570527e+06   6.478678e-33   0.000000e+00   0.000000e+00
     2088000   2.087999e-05   2.588743e+01   3.449808e+01   2.311186e+01   1.235266e+06   8.631047e+05   4.424043e+05  -1.927672e+04   2.758864e+04  -1.768674e-17   1.570527e+06   5.734654e-33   0.000000e+00   0.000000e+00
     2096000   2.095999e-05   2.598625e+01   3.456713e+01   2.314725e+01   1.235266e+06   8.631047e+05   4.424043e+05  -1.936647e+04   2.771709e+04   1.309654e-17   1.570527e+06   5.788069e-33   0.000000e+00   0.000000e+00
     2104000   2.103999e-05   2.608507e+01   3.463618e+01   2.318265e+01   1.235266e+06   8.631047e+05   4.424043e+05  -1.882996e+04   2.694923e+04   6.528086e-18   1.570527e+06   5.471759e-33   0.000000e+00   0.000000e+00
     2112000   2.111999e-05   2.618389e+01   3.470523e+01   2.321804e+01   1.235266e+06   8.631047e+05   4.424043e+05  -1.751194e+04   2.506291e+04  -1.310898e-17   1.570527e+06   4.732617e-33   0.000000e+00   0.000000e+00
     2120000   2.119999e-05   2.628271e+01   3.477427e+01   2.325343e+01   1.235266e+06   8.631047e+05   4.424043e+05  -1.592988e+04   2.279867e+04   7.672114e-19   1.570527e+06   3.916197e-33   0.000000e+00   0.000000e+00
     2128000   2.127999e-05   2.638153e+01   3.484332e+01   2.328882e+01   1.235266e+06   8.631047e+05   4.424043e+05  -1.553675e+04   2.223604e+04  -7.700923e-18   1.570527e+06   3.725254e-33   0.000000e+00   0.000000e+00
     2136000   2.135999e-05   2.648035e+01   3.491237e+01   2.332421e+01   1.235266e+06   8.631047e+05   4.424043e+05  -1.456628e+04   2.084711e+04   1.676044e-17   1.570527e+06   3.274380e-33   0.000000e+00   0.000000e+00
     2144000   2.143999e-05   2.657918e+01   3.498142e+01   2.335961e+01   1.235266e+06   8.631047e+05   4.424043e+05  -1.378577e+04   1.973005e+04   1.513879e-17   1.570527e+06   2.932890e-33   0.000000e+00   0.000000e+00
     2152000   2.151999e-05   2.667800e+01   3.505047e+01   2.339500e+01   1.235266e+06   8.631047e+05   4.424043e+05  -1.289946e+04   1.846157e+04  -1.313862e-17   1.570527e+06   2.567907e-33   0.000000e+00   0.000000e+00
     2160000   2.159999e-05   2.677682e+01   3.511952e+01   2.343039e+01   1.235266e+06   8.631047e+05   4.424043e+05  -1.198584e+04   1.715400e+04   7.654888e-19   1.570527e+06   2.217049e-33   0.000000e+00   0.000000e+00
     2168000   2.167999e-05   2.687564e+01   3.518857e+01   2.346578e+01   1.235266e+06   8.631047e+05   4.424043e+05  -1.192966e+04   1.707360e+04   2.665408e-17   1.570527e+06   2.196267e-33   0.000000e+00   0.000000e+00
     2176000   2.175999e-05   2.697446e+01   3.525761e+01   2.350118e+01   1.235266e+06   8.631047e+05   4.424043e+05  -1.060698e+04   1.518059e+04   1.440599e-17   1.570527e+06   1.736285e-33   0.000000e+00   0.000000e+00
     2184000   2.183999e-05   2.707328e+01   3.532666e+01   2.353657e+01   1.235266e+06   8.631047e+05   4.424043e+05  -9.979097e+03   1.428198e+04   1.978752e-17   1.570527e+06   1.536804e-33   0.000000e+00   0.000000e+00
     2192000   2.191999e-05   2.717210e+01   3.539571e+01   2.357196e+01   1.235266e+06   8.631047e+05   4.424043e+05  -9.539041e+03   1.365217e+04  -1.271506e-17   1.570527e+06   1.404242e-33   0.000000e+00   0.000000e+00
     2200000   2.199999e-05   2.727093e+01   3.546476e+01   2.360735e+01   1.235266e+06   8.631047e+05   4.424043e+05  -9.488001e+03   1.357913e+04  -7.309527e-18   1.570527e+06   1.389212e-33   0.000000e+00   0.000000e+00
     2208000   2.207999e-05   2.736975e+01   3.553381e+01   2.364275e+01   1.235266e+06   8.631047e+05   4.424043e+05  -8.081627e+03   1.156634e+04  -2.170786e-18   1.570527e+06   1.007941e-33   0.000000e+00   0.000000e+00
     2216000   2.215999e-05   2.746857e+01   3.560286e+01   2.367814e+01   1.235266e+06   8.631047e+05   4.424043e+05  -7.907276e+03   1.131681e+04   1.406582e-18   1.570527e+06   9.649377e-34   0.000000e+00   0.000000e+00
     2224000   2.223999e-05   2.756739e+01   3.567190e+01   2.371353e+01   1.235266e+06   8.631047e+05   4.424043e+05  -7.256671e+03   1.038567e+04   6.458781e-18   1.570527e+06   8.126598e-34   0.000000e+00   0.000000e+00
     2232000   2.231999e-05   2.766621e+01   3.574095e+01   2.374892e+01   1.235266e+06   8.631047e+05   4.424043e+05  -6.490497e+03   9.289131e+03   2.482986e-18   1.570527e+06   6.501179e-34   0.000000e+00   0.000000e+00
     2240000   2.239999e-05   2.776503e+01   3.581000e+01   2.378432e+01   1.235266e+06   8.631047e+05   4.424043e+05  -6.016359e+03   8.610548e+03  -1.421699e-17   1.570527e+06   5.586038e-34   0.000000e+00   0.000000e+00
     2248000   2.247999e-05   2.786385e+01   3.587905e+01   2.381971e+01   1.235266e+06   8.631047e+05   4.424043e+05  -5.892075e+03   8.432675e+03   3.592824e-18   1.570527e+06   5.357577e-34   0.000000e+00   0.000000e+00
     2256000   2.255999e-05   2.796267e+01   3.594810e+01   2.385510e+01   1.235266e+06   8.631047e+05   4.424043e+05  -5.248293e+03   7.511302e+03   8.873676e-18   1.570527e+06   4.250831e-34   0.000000e+00   0.000000e+00
     2264000   2.263999e-05   2.806150e+01   3.601715e+01   2.389049e+01   1.235266e+06   8.631047e+05   4.424043e+05  -4.652587e+03   6.658733e+03   2.544985e-18   1.570527e+06   3.340565e-34   0.000000e+00   0.000000e+00
     2272000   2.271999e-05   2.816032e+01   3.608619e+01   2.392588e+01   1.235266e+06   8.631047e+05   4.424043e+05  -4.335325e+03   6.204671e+03   2.867202e-18   1.570527e+06   2.900608e-34   0.000000e+00   0.000000e+00
     2280000   2.279999e-05   2.825914e+01   3.615524e+01   2.396128e+01   1.235266e+06   8.631047e+05   4.424043e+05  -4.149367e+03   5.938529e+03  -6.148241e-19   1.570527e+06   2.656995e-34   0.000000e+00   0.000000e+00
     2288000   2.287999e-05   2.835796e+01   3.622429e+01   2.399667e+01   1.235266e+06   8.631047e+05   4.424043e+05  -3.669990e+03   5.252450e+03  -8.893618e-18   1.570527e+06   2.078540e-34   0.000000e+00   0.000000e+00
     2296000   2.295999e-05   2.845678e+01   3.629334e+01   2.403206e+01   1.235266e+06   8.631047e+05   4.424043e+05  -3.093938e+03   4.428011e+03   1.308868e-18   1.570527e+06   1.477343e-34   0.000000e+00   0.000000e+00
     2304000   2.303999e-05   2.855560e+01   3.636239e+01   2.406745e+01   1.235266e+06   8.631047e+05   4.424043e+05  -3.322633e+03   4.755317e+03  -5.493501e-18   1.570527e+06   1.703638e-34   0.000000e+00   0.000000e+00
     2312000   2.311999e-05   2.865442e+01   3.643144e+01   2.410285e+01   1.235266e+06   8.631047e+05   4.424043e+05  -2.577822e+03   3.689351e+03   2.136687e-18   1.570527e+06   1.025604e-34   0.000000e+00   0.000000e+00
     2320000   2.319999e-05   2.875324e+01   3.650048e+01   2.413824e+01   1.235266e+06   8.631047e+05   4.424043e+05  -2.475723e+03   3.543228e+03   1.384259e-19   1.570527e+06   9.458693e-35   0.000000e+00   0.000000e+00
     2328000   2.327999e-05   2.885207e+01   3.656953e+01   2.417363e+01   1.235266e+06   8.631047e+05   4.424043e+05  -2.093286e+03   2.995889e+03  -5.553638e-19   1.570527e+06   6.762427e-35   0.000000e+00   0.000000e+00
     2336000   2.335999e-05   2.895089e+01   3.663858e+01   2.420902e+01   1.235266e+06   8.631047e+05   4.424043e+05  -1.878917e+03   2.689085e+03   1.060545e-19   1.570527e+06   5.448396e-35   0.000000e+00   0.000000e+00
     2344000   2.343999e-05   2.904971e+01   3.670763e+01   2.424442e+01   1.235266e+06   8.631047e+05   4.424043e+05  -1.765050e+03   2.526121e+03   2.708978e-19   1.570527e+06   4.808180e-35   0.000000e+00   0.000000e+00
     2352000   2.351999e-05   2.914853e+01   3.677668e+01   2.427981e+01   1.235266e+06   8.631047e+05   4.424043e+05  -1.190758e+03   1.704201e+03   6.893876e-19   1.570527e+06   2.188387e-35   0.000000e+00   0.000000e+00
     2360000   2.359999e-05   2.924735e+01   3.684573e+01   2.431520e+01   1.235266e+06   8.631047e+05   4.424043e+05  -9.213852e+02   1.318677e+03  -1.448269e-18   1.570527e+06   1.310277e-35   0.000000e+00   0.000000e+00
     2368000   2.367999e-05   2.934617e+01   3.691477e+01   2.435059e+01   1.235266e+06   8.631047e+05   4.424043e+05  -1.019499e+03   1.459096e+03   6.020922e-20   1.570527e+06   1.604358e-35   0.000000e+00   0.000000e+00
     2376000   2.375999e-05   2.944499e+01   3.698382e+01   2.438599e+01   1.235266e+06   8.631047e+05   4.424043e+05  -5.774775e+02   8.264796e+02   1.817615e-20   1.570527e+06   5.148432e-36   0.000000e+00   0.000000e+00
     2384000   2.383999e-05   2.954382e+01   3.705287e+01   2.442138e+01   1.235266e+06   8.631047e+05   4.424043e+05  -1.001082e+03   1.432739e+03  -2.680691e-18   1.570527e+06   1.546264e-35   0.000000e+00   0.000000e+00
     2392000   2.391999e-05   2.964264e+01   3.712192e+01   2.445677e+01   1.235266e+06   8.631047e+05   4.424043e+05  -4.009900e+02   5.738927e+02  -1.587788e-19   1.570527e+06   2.482516e-36   0.000000e+00   0.000000e+00
     2400000   2.399999e-05   2.974146e+01   3.719097e+01   2.449216e+01   1.235266e+06   8.631047e+05   4.424043e+05  -5.087307e+02   7.280900e+02   1.042997e-19   1.570527e+06   3.993972e-36   0.000000e+00   0.000000e+00
     2408000   2.407999e-05   2.984028e+01   3.726002e+01   2.452755e+01   1.235266e+06   8.631047e+05   4.424043e+05  -4.143530e+02   5.930176e+02   2.120848e-19   1.570527e+06   2.649244e-36   0.000000e+00   0.000000e+00
     2416000   2.415999e-05   2.993910e+01   3.732906e+01   2.456295e+01   1.235266e+06   8.631047e+05   4.424043e+05  -1.851607e+02   2.650000e+02   1.096304e-19   1.570527e+06   5.289959e-37   0.000000e+00   0.000000e+00
     2424000   2.423999e-05   3.003792e+01   3.739811e+01   2.459834e+01   1.235266e+06   8.631047e+05   4.424043e+05   1.228730e+02  -1.758546e+02   2.318175e-20   1.570527e+06   2.326075e-37   0.000000e+00   0.000000e+00
     2432000   2.431999e-05   3.013674e+01   3.746716e+01   2.463373e+01   1.235266e+06   8.631047e+05   4.424043e+05  -1.418254e+01   2.029790e+01  -2.742081e-21   1.570527e+06   3.103081e-39   0.000000e+00   0.000000e+00
     2440000   2.439999e-05   3.023556e+01   3.753621e+01   2.466912e+01   1.235266e+06   8.631047e+05   4.424043e+05   3.228513e+02  -4.620614e+02   7.555118e-20   1.570527e+06   1.608860e-36   0.000000e+00   0.000000e+00
     2448000   2.447999e-05   3.033439e+01   3.760526e+01   2.470452e+01   1.235266e+06   8.631047e+05   4.424043e+05   1.877868e+02  -2.687584e+02  -2.281295e-19   1.570527e+06   5.436189e-37   0.000000e+00   0.000000e+00
     2456000   2.455999e-05   3.043321e+01   3.767431e+01   2.473991e+01   1.235266e+06   8.631047e+05   4.424043e+05   1.717566e+01  -2.458163e+01   5.179486e-21   1.570527e+06   4.595546e-39   0.000000e+00   0.000000e+00
     2464000   2.463999e-05   3.053203e+01   3.774336e+01   2.477530e+01   1.235266e+06   8.631047e+05   4.424043e+05   5.253279e+02  -7.518437e+02  -9.762976e-20   1.570527e+06   4.257600e-36   0.000000e+00   0.000000e+00
     2472000   2.471999e-05   3.063085e+01   3.781240e+01   2.481069e+01   1.235266e+06   8.631047e+05   4.424043e+05   4.769576e+02  -6.826166e+02  -1.395242e-19   1.570527e+06   3.507633e-36   0.000000e+00   0.000000e+00
     2480000   2.479999e-05   3.072967e+01   3.788145e+01   2.484609e+01   1.235266e+06   8.631047e+05   4.424043e+05   5.828395e+02  -8.341537e+02  -7.634611e-19   1.570527e+06   5.244587e-36   0.000000e+00   0.000000e+00
     2488000   2.487999e-05   3.082849e+01   3.795050e+01   2.488148e+01   1.235266e+06   8.631047e+05   4.424043e+05   8.936892e+02  -1.279039e+03   9.799608e-20   1.570527e+06   1.232059e-35   0.000000e+00   0.000000e+00
     2496000   2.495999e-05   3.092731e+01   3.801955e+01   2.491687e+01   1.235266e+06   8.631047e+05   4.424043e+05   8.069067e+02  -1.154836e+03   2.953758e-20   1.570527e+06   1.004815e-35   0.000000e+00   0.000000e+00
     2504000   2.503999e-05   3.102614e+01   3.808860e+01   2.495226e+01   1.235266e+06   8.631047e+05   4.424043e+05   5.610706e+02  -8.029983e+02   3.853934e-19   1.570527e+06   4.858099e-36   0.000000e+00   0.000000e+00
     2512000   2.511999e-05   3.112496e+01   3.815765e+01   2.498766e+01   1.235266e+06   8.631047e+05   4.424043e+05   7.577813e+02  -1.084529e+03   2.655852e-19   1.570527e+06   8.863483e-36   0.000000e+00   0.000000e+00
     2520000   2.519999e-05   3.122378e+01   3.822669e+01   2.502305e+01   1.235266e+06   8.631047e+05   4.424043e+05   9.532643e+02  -1.364302e+03  -1.192656e-18   1.570527e+06   1.402103e-35   0.000000e+00   0.000000e+00
     2528000   2.527999e-05   3.132260e+01   3.829574e+01   2.505844e+01   1.235266e+06   8.631047e+05   4.424043e+05   3.994083e+02  -5.716289e+02  -3.675397e-19   1.570527e+06   2.463629e-36   0.000000e+00   0.000000e+00
     2536000   2.535999e-05   3.142142e+01   3.836479e+01   2.509383e+01   1.235266e+06   8.631047e+05   4.424043e+05   9.465976e+02  -1.354760e+03  -7.072093e-19   1.570527e+06   1.382523e-35   0.000000e+00   0.000000e+00
     2544000   2.543999e-05   3.152024e+01   3.843384e+01   2.512922e+01   1.235266e+06   8.631047e+05   4.424043e+05   8.448884e+02  -1.209195e+03   3.715414e-19   1.570527e+06   1.101724e-35   0.000000e+00   0.000000e+00
     2552000   2.551999e-05   3.161906e+01   3.850289e+01   2.516462e+01   1.235266e+06   8.631047e+05   4.424043e+05   1.401891e+03  -2.006372e+03  -2.587162e-19   1.570527e+06   3.032786e-35   0.000000e+00   0.000000e+00
     2560000   2.559999e-05   3.171788e+01   3.857194e+01   2.520001e+01   1.235266e+06   8.631047e+05   4.424043e+05   6.233233e+02  -8.920937e+02   7.147349e-19   1.570527e+06   5.997259e-36   0.000000e+00   0.000000e+00
     2568000   2.567999e-05   3.181671e+01   3.864098e+01   2.523540e+01   1.235266e+06   8.631047e+05   4.424043e+05   1.263334e+03  -1.808070e+03   3.778583e-18   1.570527e+06   2.462689e-35   0.000000e+00   0.000000e+00
     2576000   2.575999e-05   3.191553e+01   3.871003e+01   2.527079e+01   1.235266e+06   8.631047e+05   4.424043e+05   7.346710e+02  -1.051453e+03   1.081574e-18   1.570527e+06   8.327529e-36   0.000000e+00   0.000000e+00
     2584000   2.583999e-05   3.201435e+01   3.877908e+01   2.530619e+01   1.235266e+06   8.631047e+05   4.424043e+05   1.197041e+03  -1.713192e+03   9.325389e-19   1.570527e+06   2.211198e-35   0.000000e+00   0.000000e+00
     2592000   2.591999e-05   3.211317e+01   3.884813e+01   2.534158e+01   1.235266e+06   8.631047e+05   4.424043e+05   1.042137e+03  -1.491495e+03  -6.120367e-19   1.570527e+06   1.676007e-35   0.000000e+00   0.000000e+00
     2600000   2.599999e-05   3.221199e+01   3.891718e+01   2.537697e+01   1.235266e+06   8.631047e+05   4.424043e+05   6.800391e+02  -9.732647e+02   1.328036e-19   1.570527e+06   7.136364e-36   0.000000e+00   0.000000e+00
     2608000   2.607999e-05   3.231081e+01   3.898623e+01   2.541236e+01   1.235266e+06   8.631047e+05   4.424043e+05   1.409356e+03  -2.017055e+03  -6.988165e-19   1.570527e+06   3.065336e-35   0.000000e+00   0.000000e+00
     2616000   2.615999e-05   3.240963e+01   3.905527e+01   2.544776e+01   1.235266e+06   8.631047e+05   4.424043e+05   9.861403e+02  -1.411353e+03   5.973612e-19   1.570527e+06   1.500736e-35   0.000000e+00   0.000000e+00
     2624000   2.623999e-05   3.250845e+01   3.912432e+01   2.548315e+01   1.235266e+06   8.631047e+05   4.424043e+05   1.199591e+03  -1.716842e+03   1.687555e-19   1.570527e+06   2.220529e-35   0.000000e+00   0.000000e+00
     2632000   2.631999e-05   3.260728e+01   3.919337e+01   2.551854e+01   1.235266e+06   8.631047e+05   4.424043e+05   1.034474e+03  -1.480528e+03   6.105237e-19   1.570527e+06   1.651517e-35   0.000000e+00   0.000000e+00
     2640000   2.639999e-05   3.270610e+01   3.926242e+01   2.555393e+01   1.235266e+06   8.631047e+05   4.424043e+05   1.305951e+03  -1.869064e+03  -1.356321e-18   1.570527e+06   2.631654e-35   0.000000e+00   0.000000e+00
     2648000   2.647999e-05   3.280492e+01   3.933147e+01   2.558933e+01   1.235266e+06   8.631047e+05   4.424043e+05   1.148759e+03  -1.644091e+03   1.390182e-18   1.570527e+06   2.036636e-35   0.000000e+00   0.000000e+00
     2656000   2.655999e-05   3.290374e+01   3.940052e+01   2.562472e+01   1.235266e+06   8.631047e+05   4.424043e+05   9.350340e+02  -1.338211e+03   3.966546e-19   1.570527e+06   1.349001e-35   0.000000e+00   0.000000e+00
     2664000   2.663999e-05   3.300256e+01   3.946956e+01   2.566011e+01   1.235266e+06   8.631047e+05   4.424043e+05   1.081103e+03  -1.547263e+03  -4.631354e-19   1.570527e+06   1.803631e-35   0.000000e+00   0.000000e+00
     2672000   2.671999e-05   3.310138e+01   3.953861e+01   2.569550e+01   1.235266e+06   8.631047e+05   4.424043e+05   1.054576e+03  -1.509298e+03  -2.369041e-19   1.570527e+06   1.716325e-35   0.000000e+00   0.000000e+00
     2680000   2.679999e-05   3.320020e+01   3.960766e+01   2.573089e+01   1.235266e+06   8.631047e+05   4.424043e+05   1.113620e+03  -1.593801e+03  -2.269211e-19   1.570527e+06   1.913902e-35   0.000000e+00   0.000000e+00
     2688000   2.687999e-05   3.329903e+01   3.967671e+01   2.576629e+01   1.235266e+06   8.631047e+05   4.424043e+05   9.301004e+02  -1.331150e+03   1.423689e-18   1.570527e+06   1.335085e-35   0.000000e+00   0.000000e+00
     2696000   2.695999e-05   3.339785e+01   3.974576e+01   2.580168e+01   1.235266e+06   8.631047e+05   4.424043e+05   9.994921e+02  -1.430463e+03  -1.208264e-18   1.570527e+06   1.541665e-35   0.000000e+00   0.000000e+00
     2704000   2.703999e-05   3.349667e+01   3.981481e+01   2.583707e+01   1.235266e+06   8.631047e+05   4.424043e+05   1.270128e+03  -1.817794e+03   1.719045e-18   1.570527e+06   2.489395e-35   0.000000e+00   0.000000e+00
     2712000   2.711999e-05   3.359549e+01   3.988385e+01   2.587246e+01   1.235266e+06   8.631047e+05   4.424043e+05   8.568778e+02  -1.226354e+03   7.571239e-19   1.570527e+06   1.133212e-35   0.000000e+00   0.000000e+00
     2720000   2.719999e-05   3.369431e+01   3.995290e+01   2.590786e+01   1.235266e+06   8.631047e+05   4.424043e+05   1.169338e+03  -1.673543e+03  -9.727172e-19   1.570527e+06   2.109941e-35   0.000000e+00   0.000000e+00
     2728000   2.727999e-05   3.379313e+01   4.002195e+01   2.594325e+01   1.235266e+06   8.631047e+05   4.424043e+05   7.777638e+02  -1.113127e+03   4.047257e-19   1.570527e+06   9.336975e-36   0.000000e+00   0.000000e+00
     2736000   2.735999e-05   3.389195e+01   4.009100e+01   2.597864e+01   1.235266e+06   8.631047e+05   4.424043e+05   1.180188e+03  -1.689072e+03   1.080773e-18   1.570527e+06   2.149365e-35   0.000000e+00   0.000000e+00
     2744000   2.743999e-05   3.399077e+01   4.016005e+01   2.601403e+01   1.235266e+06   8.631047e+05   4.424043e+05   8.142048e+02  -1.165281e+03   7.400815e-19   1.570527e+06   1.023132e-35   0.000000e+00   0.000000e+00
     2752000   2.751999e-05   3.408960e+01   4.022910e+01   2.604943e+01   1.235266e+06   8.631047e+05   4.424043e+05   1.283806e+03  -1.837370e+03  -6.698232e-19   1.570527e+06   2.543290e-35   0.000000e+00   0.000000e+00
     2760000   2.759999e-05   3.418842e+01   4.029815e+01   2.608482e+01   1.235266e+06   8.631047e+05   4.424043e+05   7.914360e+02  -1.132695e+03  -2.754911e-19   1.570527e+06   9.667465e-36   0.000000e+00   0.000000e+00
     2768000   2.767999e-05   3.428724e+01   4.036719e+01   2.612021e+01   1.235266e+06   8.631047e+05   4.424043e+05   1.214352e+03  -1.737968e+03  -5.612543e-19   1.570527e+06   2.275489e-35   0.000000e+00   0.000000e+00
     2776000   2.775999e-05   3.438606e+01   4.043624e+01   2.615560e+01   1.235266e+06   8.631047e+05   4.424043e+05   8.226518e+02  -1.177370e+03   1.646315e-19   1.570527e+06   1.044501e-35   0.000000e+00   0.000000e+00
     2784000   2.783999e-05   3.448488e+01   4.050529e+01   2.619099e+01   1.235266e+06   8.631047e+05   4.424043e+05   9.089372e+02  -1.300861e+03  -1.073715e-18   1.570527e+06   1.274928e-35   0.000000e+00   0.000000e+00
     2792000   2.791999e-05   3.458370e+01   4.057434e+01   2.622639e+01   1.235266e+06   8.631047e+05   4.424043e+05   1.331904e+03  -1.906206e+03   3.924964e-19   1.570527e+06   2.737437e-35   0.000000e+00   0.000000e+00
     2800000   2.799999e-05   3.468252e+01   4.064339e+01   2.626178e+01   1.235266e+06   8.631047e+05   4.424043e+05   9.167147e+02  -1.311992e+03  -4.769759e-19   1.570527e+06   1.296806e-35   0.000000e+00   0.000000e+00
     2808000   2.807999e-05   3.478134e+01   4.071244e+01   2.629717e+01   1.235266e+06   8.631047e+05   4.424043e+05   1.142242e+03  -1.634765e+03  -1.750930e-18   1.570527e+06   2.013480e-35   0.000000e+00   0.000000e+00
     2816000   2.815999e-05   3.488017e+01   4.078148e+01   2.633256e+01   1.235266e+06   8.631047e+05   4.424043e+05   5.367184e+02  -7.681457e+02   4.106179e-19   1.570527e+06   4.446442e-36   0.000000e+00   0.000000e+00
     2824000   2.823999e-05   3.497899e+01   4.085053e+01   2.636796e+01   1.235266e+06   8.631047e+05   4.424043e+05   9.740019e+02  -1.393981e+03  -1.287240e-18   1.570527e+06   1.464084e-35   0.000000e+00   0.000000e+00
     2832000   2.831999e-05   3.507781e+01   4.091958e+01   2.640335e+01   1.235266e+06   8.631047e+05   4.424043e+05   8.980830e+02  -1.285327e+03   1.924788e-18   1.570527e+06   1.244713e-35   0.000000e+00   0.000000e+00
     2840000   2.839999e-05   3.517663e+01   4.098863e+01   2.643874e+01   1.235266e+06   8.631047e+05   4.424043e+05   7.641135e+02  -1.093591e+03   4.853241e-19   1.570527e+06   9.010552e-36   0.000000e+00   0.000000e+00
     2848000   2.847999e-05   3.527545e+01   4.105768e+01   2.647413e+01   1.235266e+06   8.631047e+05   4.424043e+05   7.768533e+02  -1.111824e+03   5.655222e-19   1.570527e+06   9.315015e-36   0.000000e+00   0.000000e+00
     2856000   2.855999e-05   3.537427e+01   4.112673e+01   2.650953e+01   1.235266e+06   8.631047e+05   4.424043e+05   9.932940e+02  -1.421592e+03  -5.764399e-19   1.570527e+06   1.522392e-35   0.000000e+00   0.000000e+00
     2864000   2.863999e-05   3.547309e+01   4.119577e+01   2.654492e+01   1.235266e+06   8.631047e+05   4.424043e+05   1.129093e+03  -1.615947e+03  -1.508602e-18   1.570527e+06   1.967319e-35   0.000000e+00   0.000000e+00
     2872000   2.871999e-05   3.557192e+01   4.126482e+01   2.658031e+01   1.235266e+06   8.631047e+05   4.424043e+05   9.622677e+02  -1.377187e+03  -8.528089e-19   1.570527e+06   1.428969e-35   0.000000e+00   0.000000e+00
     2880000   2.879999e-05   3.567074e+01   4.133387e+01   2.661570e+01   1.235266e+06   8.631047e+05   4.424043e+05   1.068991e+03  -1.529929e+03   5.639656e-19   1.570527e+06   1.763171e-35   0.000000e+00   0.000000e+00
     2888000   2.887999e-05   3.576956e+01   4.140292e+01   2.665110e+01   1.235266e+06   8.631047e+05   4.424043e+05   9.588464e+02  -1.372291e+03   4.264371e-19   1.570527e+06   1.418889e-35   0.000000e+00   0.000000e+00
     2896000   2.895999e-05   3.586838e+01   4.147197e+01   2.668649e+01   1.235266e+06   8.631047e+05   4.424043e+05   4.593702e+02  -6.574457e+02  -7.187716e-20   1.570527e+06   3.257446e-36   0.000000e+00   0.000000e+00
     2904000   2.903999e-05   3.596720e+01   4.154102e+01   2.672188e+01   1.235266e+06   8.631047e+05   4.424043e+05   7.220652e+02  -1.033412e+03  -3.372683e-19   1.570527e+06   8.046841e-36   0.000000e+00   0.000000e+00
     2912000   2.911999e-05   3.606602e+01   4.161006e+01   2.675727e+01   1.235266e+06   8.631047e+05   4.424043e+05   6.238599e+02  -8.928616e+02  -5.903333e-21   1.570527e+06   6.006966e-36   0.000000e+00   0.000000e+00
     2920000   2.919999e-05   3.616484e+01   4.167911e+01   2.679266e+01   1.235266e+06   8.631047e+05   4.424043e+05   1.097964e+03  -1.571394e+03  -1.101741e-18   1.570527e+06   1.860226e-35   0.000000e+00   0.000000e+00
     2928000   2.927999e-05   3.626366e+01   4.174816e+01   2.682806e+01   1.235266e+06   8.631047e+05   4.424043e+05   8.620808e+02  -1.233801e+03  -9.727614e-19   1.570527e+06   1.146794e-35   0.000000e+00   0.000000e+00
     2936000   2.935999e-05   3.636249e+01   4.181721e+01   2.686345e+01   1.235266e+06   8.631047e+05   4.424043e+05   6.950647e+02  -9.947693e+02  -2.202505e-19   1.570527e+06   7.456732e-36   0.000000e+00   0.000000e+00
     2944000   2.943999e-05   3.646131e+01   4.188626e+01   2.689884e+01   1.235266e+06   8.631047e+05   4.424043e+05   7.621349e+02  -1.090759e+03   1.857094e-19   1.570527e+06   8.963094e-36   0.000000e+00   0.000000e+00
     2952000   2.951999e-05   3.656013e+01   4.195531e+01   2.693423e+01   1.235266e+06   8.631047e+05   4.424043e+05   6.972039e+02  -9.978308e+02   1.207972e-19   1.570527e+06   7.502342e-36   0.000000e+00   0.000000e+00
     2960000   2.959999e-05   3.665895e+01   4.202435e+01   2.696963e+01   1.235266e+06   8.631047e+05   4.424043e+05   8.511805e+02  -1.218200e+03  -8.947088e-19   1.570527e+06   1.118044e-35   0.000000e+00   0.000000e+00
     2968000   2.967999e-05   3.675777e+01   4.209340e+01   2.700502e+01   1.235266e+06   8.631047e+05   4.424043e+05   5.858374e+02  -8.384442e+02   5.842434e-19   1.570527e+06   5.296238e-36   0.000000e+00   0.000000e+00
     2976000   2.975999e-05   3.685659e+01   4.216245e+01   2.704041e+01   1.235266e+06   8.631047e+05   4.424043e+05   4.631527e+02  -6.628592e+02   6.070389e-19   1.570527e+06   3.311821e-36   0.000000e+00   0.000000e+00
     2984000   2.983999e-05   3.695541e+01   4.223150e+01   2.707580e+01   1.235266e+06   8.631047e+05   4.424043e+05   9.519468e+02  -1.362416e+03  -8.467876e-20   1.570527e+06   1.398257e-35   0.000000e+00   0.000000e+00
     2992000   2.991999e-05   3.705423e+01   4.230055e+01   2.711120e+01   1.235266e+06   8.631047e+05   4.424043e+05   6.617005e+02  -9.470187e+02  -1.152523e-18   1.570527e+06   6.757006e-36   0.000000e+00   0.000000e+00
     3000000   2.999999e-05   3.715306e+01   4.236960e+01   2.714659e+01   1.235266e+06   8.631047e+05   4.424043e+05   7.962792e+02  -1.139626e+03  -1.633090e-18   1.570527e+06   9.784607e-36   0.000000e+00   0.000000e+00
     3008000   3.007999e-05   3.725188e+01   4.243864e+01   2.718198e+01   1.235266e+06   8.631047e+05   4.424043e+05   7.088286e+02  -1.014468e+03   1.214745e-18   1.570527e+06   7.753374e-36   0.000000e+00   0.000000e+00
     3016000   3.015999e-05   3.735070e+01   4.250769e+01   2.721737e+01   1.235266e+06   8.631047e+05   4.424043e+05   6.208028e+02  -8.884864e+02   4.503483e-20   1.570527e+06   5.947503e-36   0.000000e+00   0.000000e+00
     3024000   3.023999e-05   3.744952e+01   4.257674e+01   2.725277e+01   1.235266e+06   8.631047e+05   4.424043e+05   8.944400e+02  -1.280113e+03  -5.269873e-21   1.570527e+06   1.234475e-35   0.000000e+00   0.000000e+00
     3032000   3.031999e-05   3.754834e+01   4.264579e+01   2.728816e+01   1.235266e+06   8.631047e+05   4.424043e+05   5.876439e+02  -8.410298e+02  -8.813348e-19   1.570527e+06   5.329378e-36   0.000000e+00   0.000000e+00
     3040000   3.039999e-05   3.764716e+01   4.271484e+01   2.732355e+01   1.235266e+06   8.631047e+05   4.424043e+05   6.685143e+02  -9.567706e+02   1.889779e-19   1.570527e+06   6.897000e-36   0.000000e+00   0.000000e+00
     3048000   3.047999e-05   3.774598e+01   4.278389e+01   2.735894e+01   1.235266e+06   8.631047e+05   4.424043e+05   5.102703e+02  -7.302934e+02  -5.561288e-19   1.570527e+06   4.018453e-36   0.000000e+00   0.000000e+00
     3056000   3.055999e-05   3.784481e+01   4.285294e+01   2.739433e+01   1.235266e+06   8.631047e+05   4.424043e+05   7.301288e+02  -1.044953e+03   3.687177e-19   1.570527e+06   8.226915e-36   0.000000e+00   0.000000e+00
     3064000   3.063999e-05   3.794363e+01   4.292198e+01   2.742973e+01   1.235266e+06   8.631047e+05   4.424043e+05   7.424575e+02  -1.062597e+03  -1.266128e-18   1.570527e+06   8.506992e-36   0.000000e+00   0.000000e+00
     3072000   3.071999e-05   3.804245e+01   4.299103e+01   2.746512e+01   1.235266e+06   8.631047e+05   4.424043e+05   3.756579e+02  -5.376376e+02   1.018424e-18   1.570527e+06   2.178503e-36   0.000000e+00   0.000000e+00
     3080000   3.079999e-05   3.814127e+01   4.306008e+01   2.750051e+01   1.235266e+06   8.631047e+05   4.424043e+05   6.077298e+02  -8.697765e+02  -7.941219e-19   1.570527e+06   5.700477e-36   0.000000e+00   0.000000e+00
     3088000   3.087999e-05   3.824009e+01   4.312913e+01   2.753590e+01   1.235266e+06   8.631047e+05   4.424043e+05   6.403160e+02  -9.164134e+02   4.172213e-19   1.570527e+06   6.327376e-36   0.000000e+00   0.000000e+00
     3096000   3.095999e-05   3.833891e+01   4.319818e+01   2.757130e+01   1.235266e+06   8.631047e+05   4.424043e+05   3.401432e+02  -4.868093e+02   1.401243e-19   1.570527e+06   1.786153e-36   0.000000e+00   0.000000e+00
     3104000   3.103999e-05   3.843773e+01   4.326723e+01   2.760669e+01   1.235266e+06   8.631047e+05   4.424043e+05   5.527500e+02  -7.910900e+02   8.969095e-19   1.570527e+06   4.715232e-36   0.000000e+00   0.000000e+00
     3112000   3.111999e-05   3.853655e+01   4.333627e+01   2.764208e+01   1.235266e+06   8.631047e+05   4.424043e+05   5.581668e+02  -7.988424e+02   9.311595e-20   1.570527e+06   4.807833e-36   0.000000e+00   0.000000e+00
     3120000   3.119999e-05   3.863538e+01   4.340532e+01   2.767747e+01   1.235266e+06   8.631047e+05   4.424043e+05   5.120016e+02  -7.327713e+02  -8.488287e-19   1.570527e+06   4.046049e-36   0.000000e+00   0.000000e+00
     3128000   3.127999e-05   3.873420e+01   4.347437e+01   2.771287e+01   1.235266e+06   8.631047e+05   4.424043e+05   4.876841e+02  -6.979683e+02  -3.441607e-19   1.570527e+06   3.670804e-36   0.000000e+00   0.000000e+00
     3136000   3.135999e-05   3.883302e+01   4.354342e+01   2.774826e+01   1.235266e+06   8.631047e+05   4.424043e+05   5.366640e+02  -7.680679e+02   2.197721e-19   1.570527e+06   4.444849e-36   0.000000e+00   0.000000e+00
     3144000   3.143999e-05   3.893184e+01   4.361247e+01   2.778365e+01   1.235266e+06   8.631047e+05   4.424043e+05   5.267221e+02  -7.538390e+02   2.913435e-19   1.570527e+06   4.281796e-36   0.000000e+00   0.000000e+00
     3152000   3.151999e-05   3.903066e+01   4.368152e+01   2.781904e+01   1.235266e+06   8.631047e+05   4.424043e+05   6.634861e+02  -9.495743e+02  -6.192957e-19   1.570527e+06   6.792442e-36   0.000000e+00   0.000000e+00
     3160000   3.159999e-05   3.912948e+01   4.375056e+01   2.785444e+01   1.235266e+06   8.631047e+05   4.424043e+05   4.694471e+02  -6.718677e+02  -2.842066e-19   1.570527e+06   3.401236e-36   0.000000e+00   0.000000e+00
     3168000   3.167999e-05   3.922830e+01   4.381961e+01   2.788983e+01   1.235266e+06   8.631047e+05   4.424043e+05   4.321756e+02  -6.185252e+02  -4.757083e-19   1.570527e+06   2.882901e-36   0.000000e+00   0.000000e+00
     3176000   3.175999e-05   3.932712e+01   4.388866e+01   2.792522e+01   1.235266e+06   8.631047e+05   4.424043e+05   5.245756e+02  -7.507670e+02  -6.959030e-19   1.570527e+06   4.246902e-36   0.000000e+00   0.000000e+00
     3184000   3.183999e-05   3.942595e+01   4.395771e+01   2.796061e+01   1.235266e+06   8.631047e+05   4.424043e+05   5.054231e+02  -7.233562e+02   1.783156e-20   1.570527e+06   3.942466e-36   0.000000e+00   0.000000e+00
     3192000   3.191999e-05   3.952477e+01   4.402676e+01   2.799600e+01   1.235266e+06   8.631047e+05   4.424043e+05   3.916384e+02  -5.605087e+02   1.766215e-19   1.570527e+06   2.367276e-36   0.000000e+00   0.000000e+00
     3200000   3.199999e-05   3.962359e+01   4.409581e+01   2.803140e+01   1.235266e+06   8.631047e+05   4.424043e+05   5.283230e+02  -7.561303e+02   1.621526e-19   1.570527e+06   4.307384e-36   0.000000e+00   0.000000e+00
     3208000   3.207999e-05   3.972241e+01   4.416485e+01   2.806679e+01   1.235266e+06   8.631047e+05   4.424043e+05   3.804773e+02  -5.445351e+02  -1.801291e-19   1.570527e+06   2.234283e-36   0.000000e+00   0.000000e+00
     3216000   3.215999e-05   3.982123e+01   4.423390e+01   2.810218e+01   1.235266e+06   8.631047e+05   4.424043e+05   4.583197e+02  -6.559423e+02  -3.359017e-20   1.570527e+06   3.242116e-36   0.000000e+00   0.000000e+00
     3224000   3.223999e-05   3.992005e+01   4.430295e+01   2.813757e+01   1.235266e+06   8.631047e+05   4.424043e+05   4.719773e+02  -6.754889e+02   5.112148e-20   1.570527e+06   3.437708e-36   0.000000e+00   0.000000e+00
     3232000   3.231999e-05   4.001887e+01   4.437200e+01   2.817297e+01   1.235266e+06   8.631047e+05   4.424043e+05   5.010687e+02  -7.171242e+02   4.722173e-19   1.570527e+06   3.874497e-36   0.000000e+00   0.000000e+00
     3240000   3.239999e-05   4.011770e+01   4.444105e+01   2.820836e+01   1.235266e+06   8.631047e+05   4.424043e+05   4.526657e+02  -6.478503e+02   4.459580e-20   1.570527e+06   3.162274e-36   0.000000e+00   0.000000e+00
     3248000   3.247999e-05   4.021652e+01   4.451010e+01   2.824375e+01   1.235266e+06   8.631047e+05   4.424043e+05   4.668816e+02  -6.681960e+02  -6.315688e-19   1.570527e+06   3.363992e-36   0.000000e+00   0.000000e+00
     3256000   3.255999e-05   4.031534e+01   4.457914e+01   2.827914e+01   1.235266e+06   8.631047e+05   4.424043e+05   6.393611e+02  -9.150468e+02  -1.434084e-18   1.570527e+06   6.307789e-36   0.000000e+00   0.000000e+00
     3264000   3.263999e-05   4.041416e+01   4.464819e+01   2.831454e+01   1.235266e+06   8.631047e+05   4.424043e+05   3.153097e+02  -4.512679e+02   6.544252e-19   1.570527e+06   1.534247e-36   0.000000e+00   0.000000e+00
     3272000   3.271999e-05   4.051298e+01   4.471724e+01   2.834993e+01   1.235266e+06   8.631047e+05   4.424043e+05   5.027254e+02  -7.194952e+02   7.173797e-20   1.570527e+06   3.901057e-36   0.000000e+00   0.000000e+00
     3280000   3.279999e-05   4.061180e+01   4.478629e+01   2.838532e+01   1.235266e+06   8.631047e+05   4.424043e+05   3.704523e+02  -5.301874e+02   2.101782e-19   1.570527e+06   2.118117e-36   0.000000e+00   0.000000e+00
     3288000   3.287999e-05   4.071062e+01   4.485534e+01   2.842071e+01   1.235266e+06   8.631047e+05   4.424043e+05   4.014119e+02  -5.744964e+02  -1.623418e-19   1.570527e+06   2.486355e-36   0.000000e+00   0.000000e+00
     3296000   3.295999e-05   4.080944e+01   4.492439e+01   2.845611e+01   1.235266e+06   8.631047e+05   4.424043e+05   4.992843e+02  -7.145704e+02  -4.802329e-19   1.570527e+06   3.847017e-36   0.000000e+00   0.000000e+00
     3304000   3.303999e-05   4.090827e+01   4.499343e+01   2.849150e+01   1.235266e+06   8.631047e+05   4.424043e+05   9.679413e+01  -1.385307e+02  -3.627760e-20   1.570527e+06   1.447453e-37   0.000000e+00   0.000000e+00
     3312000   3.311999e-05   4.100709e+01   4.506248e+01   2.852689e+01   1.235266e+06   8.631047e+05   4.424043e+05   3.775223e+02  -5.403058e+02  -2.145035e-20   1.570527e+06   2.199431e-36   0.000000e+00   0.000000e+00
     3320000   3.319999e-05   4.110591e+01   4.513153e+01   2.856228e+01   1.235266e+06   8.631047e+05   4.424043e+05   2.625157e+02  -3.757097e+02  -2.235243e-19   1.570527e+06   1.063952e-36   0.000000e+00   0.000000e+00
     3328000   3.327999e-05   4.120473e+01   4.520058e+01   2.859767e+01   1.235266e+06   8.631047e+05   4.424043e+05   3.542275e+02  -5.069666e+02  -5.367573e-19   1.570527e+06   1.937247e-36   0.000000e+00   0.000000e+00
     3336000   3.335999e-05   4.130355e+01   4.526963e+01   2.863307e+01   1.235266e+06   8.631047e+05   4.424043e+05   2.015061e+02  -2.883933e+02   1.685534e-19   1.570527e+06   6.268314e-37   0.000000e+00   0.000000e+00
     3344000   3.343999e-05   4.140237e+01   4.533868e+01   2.866846e+01   1.235266e+06   8.631047e+05   4.424043e+05   6.019436e+02  -8.614953e+02  -1.624642e-19   1.570527e+06   5.591894e-36   0.000000e+00   0.000000e+00
     3352000   3.351999e-05   4.150119e+01   4.540773e+01   2.870385e+01   1.235266e+06   8.631047e+05   4.424043e+05   2.626486e+02  -3.758999e+02  -3.636153e-19   1.570527e+06   1.064524e-36   0.000000e+00   0.000000e+00
     3360000   3.359999e-05   4.160001e+01   4.547677e+01   2.873924e+01   1.235266e+06   8.631047e+05   4.424043e+05   3.504517e+02  -5.015627e+02   2.466754e-19   1.570527e+06   1.550605e-36   0.000000e+00   0.000000e+00
     3368000   3.367999e-05   4.169884e+01   4.554582e+01   2.877464e+01   1.235266e+06   8.631047e+05   4.424043e+05   3.527198e+02  -5.048088e+02   4.237639e-19   1.570527e+06   1.919812e-36   0.000000e+00   0.000000e+00
     3376000   3.375999e-05   4.179766e+01   4.561487e+01   2.881003e+01   1.235266e+06   8.631047e+05   4.424043e+05   2.811160e+02  -4.023302e+02   6.098790e-20   1.570527e+06   1.220085e-36   0.000000e+00   0.000000e+00
     3384000   3.383999e-05   4.189648e+01   4.568392e+01   2.884542e+01   1.235266e+06   8.631047e+05   4.424043e+05   2.941985e+02  -4.210538e+02   1.702848e-19   1.570527e+06   1.335745e-36   0.000000e+00   0.000000e+00
     3392000   3.391999e-05   4.199530e+01   4.575297e+01   2.888081e+01   1.235266e+06   8.631047e+05   4.424043e+05   3.780409e+02  -5.410481e+02   3.390578e-19   1.570527e+06   2.205373e-36   0.000000e+00   0.000000e+00
     3400000   3.399999e-05   4.209412e+01   4.582202e+01   2.891621e+01   1.235266e+06   8.631047e+05   4.424043e+05   2.769870e+02  -3.964209e+02  -2.826557e-19   1.570527e+06   1.184171e-36   0.000000e+00   0.000000e+00
     3408000   3.407999e-05   4.219294e+01   4.589106e+01   2.895160e+01   1.235266e+06   8.631047e+05   4.424043e+05   9.201182e+01  -1.316863e+02   2.179212e-20   1.570527e+06   1.307125e-37   0.000000e+00   0.000000e+00
     3416000   3.415999e-05   4.229176e+01   4.596011e+01   2.898699e+01   1.235266e+06   8.631047e+05   4.424043e+05   2.519432e+02  -3.605785e+02  -4.404951e-19   1.570527e+06   9.799411e-37   0.000000e+00   0.000000e+00
     3424000   3.423999e-05   4.239059e+01   4.602916e+01   2.902238e+01   1.235266e+06   8.631047e+05   4.424043e+05   6.357929e+02  -9.099401e+02   7.726657e-19   1.570527e+06   6.236322e-36   0.000000e+00   0.000000e+00
     3432000   3.431999e-05   4.248941e+01   4.609821e+01   2.905778e+01   1.235266e+06   8.631047e+05   4.424043e+05  -1.840864e+01   2.634625e+01   6.135897e-21   1.570527e+06   5.189246e-39   0.000000e+00   0.000000e+00
     3440000   3.439999e-05   4.258823e+01   4.616726e+01   2.909317e+01   1.235266e+06   8.631047e+05   4.424043e+05   3.162886e+02  -4.526689e+02  -5.258909e-20   1.570527e+06   1.543757e-36   0.000000e+00   0.000000e+00
     3448000   3.447999e-05   4.268705e+01   4.623631e+01   2.912856e+01   1.235266e+06   8.631047e+05   4.424043e+05   2.726445e+02  -3.902060e+02  -2.472984e-20   1.570527e+06   1.147135e-36   0.000000e+00   0.000000e+00
     3456000   3.455999e-05   4.278587e+01   4.630535e+01   2.916395e+01   1.235266e+06   8.631047e+05   4.424043e+05   3.356933e+02  -4.804407e+02   1.043331e-19   1.570527e+06   1.738883e-36   0.000000e+00   0.000000e+00
     3464000   3.463999e-05   4.288469e+01   4.637440e+01   2.919934e+01   1.235266e+06   8.631047e+05   4.424043e+05  -1.098340e+01   1.571933e+01  -8.471165e-21   1.570527e+06   1.849098e-39   0.000000e+00   0.000000e+00
     3472000   3.471999e-05   4.298351e+01   4.644345e+01   2.923474e+01   1.235266e+06   8.631047e+05   4.424043e+05   4.166171e+02  -5.962579e+02  -2.885756e-19   1.570527e+06   2.678629e-36   0.000000e+00   0.000000e+00
     3480000   3.479999e-05   4.308233e+01   4.651250e+01   2.927013e+01   1.235266e+06   8.631047e+05   4.424043e+05   3.987392e+02  -5.706714e+02   1.289962e-19   1.570527e+06   2.453056e-36   0.000000e+00   0.000000e+00
     3488000   3.487999e-05   4.318116e+01   4.658155e+01   2.930552e+01   1.235266e+06   8.631047e+05   4.424043e+05   1.500623e+02  -2.147675e+02   8.207691e-20   1.570527e+06   3.474656e-37   0.000000e+00   0.000000e+00
     3496000   3.495999e-05   4.327998e+01   4.665060e+01   2.934091e+01   1.235266e+06   8.631047e+05   4.424043e+05  -1.015772e+02   1.453761e+02   1.454244e-20   1.570527e+06   1.588931e-37   0.000000e+00   0.000000e+00
     3504000   3.503999e-05   4.337880e+01   4.671964e+01   2.937631e+01   1.235266e+06   8.631047e+05   4.424043e+05   5.264795e+02  -7.534919e+02   5.876564e-19   1.570527e+06   4.276012e-36   0.000000e+00   0.000000e+00
     3512000   3.511999e-05   4.347762e+01   4.678869e+01   2.941170e+01   1.235266e+06   8.631047e+05   4.424043e+05   1.459251e+01  -2.088464e+01   7.681509e-21   1.570527e+06   3.307505e-39   0.000000e+00   0.000000e+00
     3520000   3.519999e-05   4.357644e+01   4.685774e+01   2.944709e+01   1.235266e+06   8.631047e+05   4.424043e+05   3.507997e+02  -5.020607e+02   1.243499e-18   1.570527e+06   1.898865e-36   0.000000e+00   0.000000e+00
     3528000   3.527999e-05   4.367526e+01   4.692679e+01   2.948248e+01   1.235266e+06   8.631047e+05   4.424043e+05   2.449822e+02  -3.506160e+02  -9.226013e-20   1.570527e+06   9.260605e-37   0.000000e+00   0.000000e+00
     3536000   3.535999e-05   4.377408e+01   4.699584e+01   2.951788e+01   1.235266e+06   8.631047e+05   4.424043e+05   5.875519e+02  -8.408980e+02  -1.941700e-19   1.570527e+06   5.326216e-36   0.000000e+00   0.000000e+00
     3544000   3.543999e-05   4.387290e+01   4.706489e+01   2.955327e+01   1.235266e+06   8.631047e+05   4.424043e+05   4.333752e+01  -6.202419e+01  -5.450047e-20   1.570527e+06   2.902615e-38   0.000000e+00   0.000000e+00
     3552000   3.551999e-05   4.397173e+01   4.713393e+01   2.958866e+01   1.235266e+06   8.631047e+05   4.424043e+05   1.994769e+02  -2.854893e+02   2.470478e-19   1.570527e+06   6.144247e-37   0.000000e+00   0.000000e+00
     3560000   3.559999e-05   4.407055e+01   4.720298e+01   2.962405e+01   1.235266e+06   8.631047e+05   4.424043e+05   2.417528e+02  -3.452289e+02  -1.492774e+00   1.570527e+06   8.990838e-37   0.000000e+00   0.000000e+00
     3568000   3.567999e-05   4.416937e+01   4.727203e+01   2.965945e+01   1.235266e+06   8.631047e+05   4.424043e+05   1.393821e+02  -1.994822e+02   1.689286e-19   1.570527e+06   2.998879e-37   0.000000e+00   0.000000e+00
     3576000   3.575999e-05   4.426819e+01   4.734108e+01   2.969484e+01   1.235266e+06   8.631047e+05   4.424043e+05   1.331119e+02  -1.905083e+02   7.476102e-22   1.570527e+06   2.735188e-37   0.000000e+00   0.000000e+00
     3584000   3.583999e-05   4.436701e+01   4.741013e+01   2.973023e+01   1.235266e+06   8.631047e+05   4.424043e+05   2.647435e+02  -3.603646e+02  -3.615771e+01   1.570527e+06   1.018981e-36   0.000000e+00   0.000000e+00
     3592000   3.591999e-05   4.446583e+01   4.747918e+01   2.976562e+01   1.235266e+06   8.631047e+05   4.424043e+05   4.120535e+02  -5.763613e+02  -2.607483e+01   1.570527e+06   2.544484e-36   0.000000e+00   0.000000e+00
     3600000   3.599999e-05   4.456465e+01   4.754822e+01   2.980101e+01   1.235266e+06   8.631047e+05   4.424043e+05   2.579601e+02  -3.460717e+02  -4.510203e+01   1.570527e+06   9.533237e-37   0.000000e+00   0.000000e+00
     3608000   3.607999e-05   4.466348e+01   4.761727e+01   2.983641e+01   1.235266e+06   8.631047e+05   4.424043e+05   3.257167e+02  -3.940086e+02  -1.407676e+02   1.570527e+06   1.422826e-36   0.000000e+00   0.000000e+00
     3616000   3.615999e-05   4.476230e+01   4.768632e+01   2.987180e+01   1.235266e+06   8.631047e+05   4.424043e+05  -2.331619e+02   1.315062e+02   3.944658e+02   1.570527e+06   1.150010e-36   0.000000e+00   0.000000e+00
     3624000   3.623999e-05   4.486112e+01   4.775537e+01   2.990719e+01   1.235266e+06   8.631047e+05   4.424043e+05   1.786095e+02  -2.544815e+02  -2.228918e+00   1.570527e+06   4.895958e-37   0.000000e+00   0.000000e+00
     3632000   3.631999e-05   4.495994e+01   4.782442e+01   2.994258e+01   1.235266e+06   8.631047e+05   4.424043e+05   2.731644e+02  -3.973375e+02   1.246180e+01   1.570527e+06   1.177698e-36   0.000000e+00   0.000000e+00
     3640000   3.639999e-05   4.505876e+01   4.789347e+01   2.997798e+01   1.235266e+06   8.631047e+05   4.424043e+05   4.735090e+02  -6.510691e+02  -5.191850e+01   1.570527e+06   3.294412e-36   0.000000e+00   0.000000e+00
     3648000   3.647999e-05   4.515758e+01   4.796252e+01   3.001337e+01   1.235266e+06   8.631047e+05   4.424043e+05   3.037706e+02  -4.194467e+02  -2.986221e+01   1.570527e+06   1.362246e-36   0.000000e+00   0.000000e+00
     3656000   3.655999e-05   4.525640e+01   4.803156e+01   3.004876e+01   1.235266e+06   8.631047e+05   4.424043e+05   9.712864e+01  -1.938796e+02   1.070483e+02   1.570527e+06   2.960605e-37   0.000000e+00   0.000000e+00
     3664000   3.663999e-05   4.535522e+01   4.810061e+01   3.008415e+01   1.235266e+06   8.631047e+05   4.424043e+05   3.212392e+02  -4.566539e+02  -6.048597e+00   1.570527e+06   1.578438e-36   0.000000e+00   0.000000e+00
     3672000   3.671999e-05   4.545405e+01   4.816966e+01   3.011955e+01   1.235266e+06   8.631047e+05   4.424043e+05   1.112797e+02  -1.578221e+02  -2.809603e+00   1.570527e+06   1.888097e-37   0.000000e+00   0.000000e+00
     3680000   3.679999e-05   4.555287e+01   4.823871e+01   3.015494e+01   1.235266e+06   8.631047e+05   4.424043e+05   2.727657e+02  -3.792360e+02  -2.174008e+01   1.570527e+06   1.107071e-36   0.000000e+00   0.000000e+00
     3688000   3.687999e-05   4.565169e+01   4.830776e+01   3.019033e+01   1.235266e+06   8.631047e+05   4.424043e+05   8.470014e+01  -1.244201e+02   6.239362e+00   1.570527e+06   1.149395e-37   0.000000e+00   0.000000e+00
     3696000   3.695999e-05   4.575051e+01   4.837681e+01   3.022572e+01   1.235266e+06   8.631047e+05   4.424043e+05   2.303639e+02  -3.296944e+02   8.672936e-20   1.570527e+06   8.188897e-37   0.000000e+00   0.000000e+00
     3704000   3.703999e-05   4.584933e+01   4.844585e+01   3.026111e+01   1.235266e+06   8.631047e+05   4.424043e+05   3.355654e+02  -4.802576e+02   1.319756e-19   1.570527e+06   1.737541e-36   0.000000e+00   0.000000e+00
     3712000   3.711999e-05   4.594815e+01   4.851490e+01   3.029651e+01   1.235266e+06   8.631047e+05   4.424043e+05  -7.801430e+01   1.116532e+02   6.625323e-20   1.570527e+06   9.377006e-38   0.000000e+00   0.000000e+00
     3720000   3.719999e-05   4.604697e+01   4.858395e+01   3.033190e+01   1.235266e+06   8.631047e+05   4.424043e+05   1.772273e+02  -2.536458e+02   1.831804e-20   1.570527e+06   4.846952e-37   0.000000e+00   0.000000e+00
     3728000   3.727999e-05   4.614579e+01   4.865300e+01   3.036729e+01   1.235266e+06   8.631047e+05   4.424043e+05   3.831529e+02  -5.483644e+02   3.058623e-19   1.570527e+06   2.265200e-36   0.000000e+00   0.000000e+00
     3736000   3.735999e-05   4.624462e+01   4.872205e+01   3.040268e+01   1.235266e+06   8.631047e+05   4.424043e+05   1.188632e+02  -1.701157e+02  -3.649167e-21   1.570527e+06   2.181284e-37   0.000000e+00   0.000000e+00
     3744000   3.743999e-05   4.634344e+01   4.879110e+01   3.043808e+01   1.235266e+06   8.631047e+05   4.424043e+05   1.973107e+02  -2.823890e+02  -1.024461e-19   1.570527e+06   6.007176e-37   0.000000e+00   0.000000e+00
     3752000   3.751999e-05   4.644226e+01   4.886014e+01   3.047347e+01   1.235266e+06   8.631047e+05   4.424043e+05  -3.475689e+01   4.974369e+01   3.677647e-21   1.570527e+06   1.856559e-38   0.000000e+00   0.000000e+00
     3760000   3.759999e-05   4.654108e+01   4.892919e+01   3.050886e+01   1.235266e+06   8.631047e+05   4.424043e+05   2.113039e+02  -3.024158e+02   1.982469e-19   1.570527e+06   6.886771e-37   0.000000e+00   0.000000e+00
     3768000   3.767999e-05   4.663990e+01   4.899824e+01   3.054425e+01   1.235266e+06   8.631047e+05   4.424043e+05   2.600193e+02  -3.721368e+02   1.948479e-19   1.570527e+06   1.043359e-36   0.000000e+00   0.000000e+00
     3776000   3.775999e-05   4.673872e+01   4.906729e+01   3.057965e+01   1.235266e+06   8.631047e+05   4.424043e+05   1.724288e+02  -2.467783e+02   9.429992e-21   1.570527e+06   4.586901e-37   0.000000e+00   0.000000e+00
     3784000   3.783999e-05   4.683754e+01   4.913634e+01   3.061504e+01   1.235266e+06   8.631047e+05   4.424043e+05   1.467720e+02  -2.100586e+02  -7.547342e-20   1.570527e+06   3.326213e-37   0.000000e+00   0.000000e+00
     3792000   3.791999e-05   4.693637e+01   4.920539e+01   3.065043e+01   1.235266e+06   8.631047e+05   4.424043e+05   1.529492e+02  -2.188993e+02  -2.873693e-19   1.570527e+06   3.608221e-37   0.000000e+00   0.000000e+00
     3800000   3.799999e-05   4.703519e+01   4.927443e+01   3.068582e+01   1.235266e+06   8.631047e+05   4.424043e+05   2.021212e+02  -2.892737e+02   7.475078e-20   1.570527e+06   6.306065e-37   0.000000e+00   0.000000e+00
     3808000   3.807999e-05   4.713401e+01   4.934348e+01   3.072122e+01   1.235266e+06   8.631047e+05   4.424043e+05   1.990747e+02  -2.849137e+02   3.451555e-19   1.570527e+06   6.111829e-37   0.000000e+00   0.000000e+00
     3816000   3.815999e-05   4.723283e+01   4.941253e+01   3.075661e+01   1.235266e+06   8.631047e+05   4.424043e+05   1.157130e+02  -1.656072e+02   4.680123e-20   1.570527e+06   2.065768e-37   0.000000e+00   0.000000e+00
     3824000   3.823999e-05   4.733165e+01   4.948158e+01   3.079200e+01   1.235266e+06   8.631047e+05   4.424043e+05   1.291506e+02  -1.848389e+02   1.523642e-19   1.570527e+06   2.574027e-37   0.000000e+00   0.000000e+00
     3832000   3.831999e-05   4.743047e+01   4.955063e+01   3.082739e+01   1.235266e+06   8.631056e+05   4.424043e+05   2.548562e+02  -3.647470e+02   3.194974e-19   1.570527e+06   1.002385e-36   0.000000e+00   0.000000e+00
     3840000   3.839999e-05   4.752929e+01   4.961968e+01   3.086278e+01   1.235264e+06   8.631075e+05   4.424043e+05  -5.488575e+07   7.855153e+07   4.386108e-14   1.570527e+06   4.648709e-26   0.000000e+00   0.000000e+00
     3848000   3.847999e-05   4.762811e+01   4.968873e+01   3.089818e+01   1.235244e+06   8.631368e+05   4.424043e+05  -8.593015e+08   1.229755e+09   9.315909e-13   1.570527e+06   1.139192e-23   0.000000e+00   0.000000e+00
     3856000   3.855999e-05   4.772693e+01   4.975778e+01   3.093357e+01   1.235183e+06   8.632235e+05   4.424043e+05  -6.638173e+08   9.498538e+08  -8.519808e-13   1.570527e+06   6.799530e-24   0.000000e+00   0.000000e+00
     3864000   3.863999e-05   4.782574e+01   4.982684e+01   3.096896e+01   1.235132e+06   8.632976e+05   4.424043e+05  -7.827730e+08   1.119924e+09  -5.357641e-13   1.570527e+06   9.453082e-24   0.000000e+00   0.000000e+00
     3872000   3.871999e-05   4.792455e+01   4.989591e+01   3.100435e+01   1.235094e+06   8.633513e+05   4.424043e+05  -6.942794e+07   9.932229e+07  -4.844278e-15   1.570527e+06   7.447514e-26   0.000000e+00   0.000000e+00
     3880000   3.879999e-05   4.802336e+01   4.996497e+01   3.103975e+01   1.235094e+06   8.633517e+05   4.424043e+05   0.000000e+00   0.000000e+00   0.000000e+00   1.570527e+06   0.000000e+00   0.000000e+00   0.000000e+00
