     timestep     time              x             y              z              vx             vy             vz             ax             ay             az         v_magnitude      ELoss        Electronic      Nuclear
           0   0.000000e+00   1.000000e-01   1.788990e+01   4.105964e+00   3.297146e+04   1.015781e+05  -1.016390e+05   0.000000e+00   0.000000e+00   0.000000e+00   1.474304e+05   0.000000e+00   0.000000e+00   0.000000e+00
        8000   7.999000e-10   1.000264e-01   1.788998e+01   4.105883e+00   3.292589e+04   1.015909e+05  -1.016410e+05  -5.696217e+10   1.604070e+10  -2.419700e+09   1.474304e+05   2.716736e-29   0.000000e+00   0.000000e+00
       16000   1.599900e-09   1.000527e-01   1.789006e+01   4.105801e+00   3.288032e+04   1.016037e+05  -1.016429e+05  -5.696847e+10   1.601400e+10  -2.420820e+09   1.474304e+05   2.716634e-29   0.000000e+00   0.000000e+00
       24000   2.399900e-09   1.000790e-01   1.789014e+01   4.105720e+00   3.283474e+04   1.016165e+05  -1.016448e+05  -5.697476e+10   1.598730e+10  -2.421940e+09   1.474304e+05   2.716531e-29   0.000000e+00   0.000000e+00
       32000   3.199900e-09   1.001052e-01   1.789023e+01   4.105639e+00   3.278916e+04   1.016293e+05  -1.016468e+05  -5.698104e+10   1.596060e+10  -2.423059e+09   1.474304e+05   2.716428e-29   0.000000e+00   0.000000e+00
       40000   3.999900e-09   1.001314e-01   1.789031e+01   4.105557e+00   3.274357e+04   1.016421e+05  -1.016487e+05  -5.698730e+10   1.593389e+10  -2.424177e+09   1.474304e+05   2.716326e-29   0.000000e+00   0.000000e+00
       48000   4.799900e-09   1.001576e-01   1.789039e+01   4.105476e+00   3.269798e+04   1.016548e+05  -1.016507e+05  -5.699355e+10   1.590718e+10  -2.425295e+09   1.474304e+05   2.716223e-29   0.000000e+00   0.000000e+00
       56000   5.599900e-09   1.001837e-01   1.789047e+01   4.105395e+00   3.265238e+04   1.016675e+05  -1.016526e+05  -5.699979e+10   1.588047e+10  -2.426411e+09   1.474304e+05   2.716121e-29   0.000000e+00   0.000000e+00
       64000   6.399900e-09   1.002099e-01   1.789055e+01   4.105313e+00   3.260678e+04   1.016802e+05  -1.016545e+05  -5.700602e+10   1.585376e+10  -2.427527e+09   1.474304e+05   2.716019e-29   0.000000e+00   0.000000e+00
       72000   7.199900e-09   1.002359e-01   1.789063e+01   4.105232e+00   3.256117e+04   1.016929e+05  -1.016565e+05  -5.701224e+10   1.582705e+10  -2.428642e+09   1.474304e+05   2.715916e-29   0.000000e+00   0.000000e+00
       80000   7.999900e-09   1.002619e-01   1.789071e+01   4.105151e+00   3.251556e+04   1.017055e+05  -1.016584e+05  -5.701844e+10   1.580033e+10  -2.429756e+09   1.474304e+05   2.715814e-29   0.000000e+00   0.000000e+00
       88000   8.799900e-09   1.002879e-01   1.789080e+01   4.105069e+00   3.246994e+04   1.017182e+05  -1.016604e+05  -5.702463e+10   1.577362e+10  -2.430870e+09   1.474304e+05   2.715712e-29   0.000000e+00   0.000000e+00
       96000   9.599900e-09   1.003139e-01   1.789088e+01   4.104988e+00   3.242432e+04   1.017308e+05  -1.016623e+05  -5.703081e+10   1.574690e+10  -2.431983e+09   1.474304e+05   2.715610e-29   0.000000e+00   0.000000e+00
      104000   1.039990e-08   1.003398e-01   1.789096e+01   4.104907e+00   3.237869e+04   1.017434e+05  -1.016643e+05  -5.703698e+10   1.572018e+10  -2.433095e+09   1.474304e+05   2.715507e-29   0.000000e+00   0.000000e+00
      112000   1.119990e-08   1.003657e-01   1.789104e+01   4.104825e+00   3.233306e+04   1.017559e+05  -1.016662e+05  -5.704313e+10   1.569346e+10  -2.434206e+09   1.474304e+05   2.715405e-29   0.000000e+00   0.000000e+00
      120000   1.199990e-08   1.003916e-01   1.789112e+01   4.104744e+00   3.228742e+04   1.017685e+05  -1.016682e+05  -5.704928e+10   1.566674e+10  -2.435316e+09   1.474304e+05   2.715303e-29   0.000000e+00   0.000000e+00
      128000   1.279990e-08   1.004174e-01   1.789120e+01   4.104663e+00   3.224178e+04   1.017810e+05  -1.016701e+05  -5.705541e+10   1.564002e+10  -2.436426e+09   1.474304e+05   2.715201e-29   0.000000e+00   0.000000e+00
      136000   1.359990e-08   1.004431e-01   1.789128e+01   4.104581e+00   3.219613e+04   1.017935e+05  -1.016721e+05  -5.706153e+10   1.561329e+10  -2.437535e+09   1.474304e+05   2.715099e-29   0.000000e+00   0.000000e+00
      144000   1.439990e-08   1.004689e-01   1.789137e+01   4.104500e+00   3.215048e+04   1.018060e+05  -1.016740e+05  -5.706763e+10   1.558657e+10  -2.438643e+09   1.474304e+05   2.714998e-29   0.000000e+00   0.000000e+00
      152000   1.519990e-08   1.004946e-01   1.789145e+01   4.104419e+00   3.210483e+04   1.018184e+05  -1.016760e+05  -5.707373e+10   1.555984e+10  -2.439750e+09   1.474304e+05   2.714896e-29   0.000000e+00   0.000000e+00
      160000   1.599990e-08   1.005202e-01   1.789153e+01   4.104337e+00   3.205916e+04   1.018309e+05  -1.016779e+05  -5.707981e+10   1.553311e+10  -2.440857e+09   1.474304e+05   2.714794e-29   0.000000e+00   0.000000e+00
      168000   1.679990e-08   1.005459e-01   1.789161e+01   4.104256e+00   3.201350e+04   1.018433e+05  -1.016799e+05  -5.708588e+10   1.550638e+10  -2.441963e+09   1.474304e+05   2.714692e-29   0.000000e+00   0.000000e+00
      176000   1.759990e-08   1.005715e-01   1.789169e+01   4.104175e+00   3.196783e+04   1.018557e+05  -1.016818e+05  -5.709194e+10   1.547965e+10  -2.443068e+09   1.474304e+05   2.714591e-29   0.000000e+00   0.000000e+00
      184000   1.839990e-08   1.005970e-01   1.789177e+01   4.104093e+00   3.192215e+04   1.018681e+05  -1.016838e+05  -5.709798e+10   1.545291e+10  -2.444172e+09   1.474304e+05   2.714489e-29   0.000000e+00   0.000000e+00
      192000   1.919990e-08   1.006225e-01   1.789185e+01   4.104012e+00   3.187647e+04   1.018804e+05  -1.016857e+05  -5.710402e+10   1.542618e+10  -2.445275e+09   1.474304e+05   2.714387e-29   0.000000e+00   0.000000e+00
      200000   1.999990e-08   1.006480e-01   1.789194e+01   4.103931e+00   3.183078e+04   1.018927e+05  -1.016877e+05  -5.711004e+10   1.539944e+10  -2.446378e+09   1.474304e+05   2.714286e-29   0.000000e+00   0.000000e+00
      208000   2.079990e-08   1.006735e-01   1.789202e+01   4.103849e+00   3.178509e+04   1.019051e+05  -1.016896e+05  -5.711605e+10   1.537270e+10  -2.447480e+09   1.474304e+05   2.714184e-29   0.000000e+00   0.000000e+00
      216000   2.159990e-08   1.006989e-01   1.789210e+01   4.103768e+00   3.173940e+04   1.019173e+05  -1.016916e+05  -5.712204e+10   1.534596e+10  -2.448581e+09   1.474304e+05   2.714083e-29   0.000000e+00   0.000000e+00
      224000   2.239990e-08   1.007243e-01   1.789218e+01   4.103687e+00   3.169370e+04   1.019296e+05  -1.016936e+05  -5.712803e+10   1.531922e+10  -2.449681e+09   1.474304e+05   2.713982e-29   0.000000e+00   0.000000e+00
      232000   2.319990e-08   1.007496e-01   1.789226e+01   4.103605e+00   3.164799e+04   1.019418e+05  -1.016955e+05  -5.713400e+10   1.529248e+10  -2.450781e+09   1.474304e+05   2.713880e-29   0.000000e+00   0.000000e+00
      240000   2.399990e-08   1.007749e-01   1.789234e+01   4.103524e+00   3.160228e+04   1.019541e+05  -1.016975e+05  -5.713996e+10   1.526573e+10  -2.451880e+09   1.474304e+05   2.713779e-29   0.000000e+00   0.000000e+00
      248000   2.479990e-08   1.008002e-01   1.789242e+01   4.103443e+00   3.155657e+04   1.019663e+05  -1.016994e+05  -5.714591e+10   1.523899e+10  -2.452978e+09   1.474304e+05   2.713678e-29   0.000000e+00   0.000000e+00
      256000   2.559990e-08   1.008254e-01   1.789251e+01   4.103361e+00   3.151085e+04   1.019785e+05  -1.017014e+05  -5.715185e+10   1.521224e+10  -2.454075e+09   1.474304e+05   2.713577e-29   0.000000e+00   0.000000e+00
      264000   2.639990e-08   1.008506e-01   1.789259e+01   4.103280e+00   3.146513e+04   1.019906e+05  -1.017034e+05  -5.715777e+10   1.518549e+10  -2.455171e+09   1.474304e+05   2.713476e-29   0.000000e+00   0.000000e+00
      272000   2.719990e-08   1.008757e-01   1.789267e+01   4.103199e+00   3.141940e+04   1.020028e+05  -1.017053e+05  -5.716368e+10   1.515874e+10  -2.456267e+09   1.474304e+05   2.713375e-29   0.000000e+00   0.000000e+00
      280000   2.799990e-08   1.009008e-01   1.789275e+01   4.103117e+00   3.137366e+04   1.020149e+05  -1.017073e+05  -5.716958e+10   1.513199e+10  -2.457361e+09   1.474304e+05   2.713274e-29   0.000000e+00   0.000000e+00
      288000   2.879990e-08   1.009259e-01   1.789283e+01   4.103036e+00   3.132793e+04   1.020270e+05  -1.017093e+05  -5.717547e+10   1.510524e+10  -2.458455e+09   1.474304e+05   2.713173e-29   0.000000e+00   0.000000e+00
      296000   2.959990e-08   1.009510e-01   1.789291e+01   4.102954e+00   3.128218e+04   1.020390e+05  -1.017112e+05  -5.718135e+10   1.507848e+10  -2.459549e+09   1.474304e+05   2.713072e-29   0.000000e+00   0.000000e+00
      304000   3.039990e-08   1.009760e-01   1.789300e+01   4.102873e+00   3.123644e+04   1.020511e+05  -1.017132e+05  -5.718721e+10   1.505173e+10  -2.460641e+09   1.474304e+05   2.712971e-29   0.000000e+00   0.000000e+00
      312000   3.119990e-08   1.010009e-01   1.789308e+01   4.102792e+00   3.119068e+04   1.020631e+05  -1.017152e+05  -5.719306e+10   1.502497e+10  -2.461733e+09   1.474304e+05   2.712870e-29   0.000000e+00   0.000000e+00
      320000   3.199990e-08   1.010259e-01   1.789316e+01   4.102710e+00   3.114493e+04   1.020751e+05  -1.017171e+05  -5.719890e+10   1.499821e+10  -2.462824e+09   1.474304e+05   2.712769e-29   0.000000e+00   0.000000e+00
      328000   3.279990e-08   1.010508e-01   1.789324e+01   4.102629e+00   3.109917e+04   1.020871e+05  -1.017191e+05  -5.720473e+10   1.497145e+10  -2.463914e+09   1.474304e+05   2.712669e-29   0.000000e+00   0.000000e+00
      336000   3.359990e-08   1.010756e-01   1.789332e+01   4.102548e+00   3.105340e+04   1.020991e+05  -1.017211e+05  -5.721054e+10   1.494469e+10  -2.465003e+09   1.474304e+05   2.712568e-29   0.000000e+00   0.000000e+00
      344000   3.439990e-08   1.011005e-01   1.789340e+01   4.102466e+00   3.100763e+04   1.021110e+05  -1.017231e+05  -5.721634e+10   1.491793e+10  -2.466091e+09   1.474304e+05   2.712468e-29   0.000000e+00   0.000000e+00
      352000   3.519990e-08   1.011253e-01   1.789349e+01   4.102385e+00   3.096185e+04   1.021230e+05  -1.017250e+05  -5.722213e+10   1.489117e+10  -2.467179e+09   1.474304e+05   2.712367e-29   0.000000e+00   0.000000e+00
      360000   3.599990e-08   1.011500e-01   1.789357e+01   4.102303e+00   3.091607e+04   1.021349e+05  -1.017270e+05  -5.722791e+10   1.486440e+10  -2.468266e+09   1.474304e+05   2.712267e-29   0.000000e+00   0.000000e+00
      368000   3.679990e-08   1.011747e-01   1.789365e+01   4.102222e+00   3.087029e+04   1.021467e+05  -1.017290e+05  -5.723368e+10   1.483763e+10  -2.469352e+09   1.474304e+05   2.712166e-29   0.000000e+00   0.000000e+00
      376000   3.759990e-08   1.011994e-01   1.789373e+01   4.102141e+00   3.082450e+04   1.021586e+05  -1.017309e+05  -5.723943e+10   1.481087e+10  -2.470437e+09   1.474304e+05   2.712066e-29   0.000000e+00   0.000000e+00
      384000   3.839990e-08   1.012240e-01   1.789381e+01   4.102059e+00   3.077871e+04   1.021704e+05  -1.017329e+05  -5.724517e+10   1.478410e+10  -2.471521e+09   1.474304e+05   2.711965e-29   0.000000e+00   0.000000e+00
      392000   3.919990e-08   1.012486e-01   1.789389e+01   4.101978e+00   3.073291e+04   1.021822e+05  -1.017349e+05  -5.725090e+10   1.475733e+10  -2.472605e+09   1.474304e+05   2.711865e-29   0.000000e+00   0.000000e+00
      400000   3.999990e-08   1.012732e-01   1.789398e+01   4.101896e+00   3.068710e+04   1.021940e+05  -1.017369e+05  -5.725662e+10   1.473055e+10  -2.473688e+09   1.474304e+05   2.711765e-29   0.000000e+00   0.000000e+00
      408000   4.079990e-08   1.012977e-01   1.789406e+01   4.101815e+00   3.064130e+04   1.022058e+05  -1.017389e+05  -5.726232e+10   1.470378e+10  -2.474770e+09   1.474304e+05   2.711665e-29   0.000000e+00   0.000000e+00
      416000   4.159990e-08   1.013222e-01   1.789414e+01   4.101734e+00   3.059549e+04   1.022176e+05  -1.017408e+05  -5.726802e+10   1.467701e+10  -2.475851e+09   1.474304e+05   2.711564e-29   0.000000e+00   0.000000e+00
      424000   4.239990e-08   1.013467e-01   1.789422e+01   4.101652e+00   3.054967e+04   1.022293e+05  -1.017428e+05  -5.727370e+10   1.465023e+10  -2.476932e+09   1.474304e+05   2.711464e-29   0.000000e+00   0.000000e+00
      432000   4.319990e-08   1.013711e-01   1.789430e+01   4.101571e+00   3.050385e+04   1.022410e+05  -1.017448e+05  -5.727937e+10   1.462345e+10  -2.478011e+09   1.474304e+05   2.711364e-29   0.000000e+00   0.000000e+00
      440000   4.399990e-08   1.013955e-01   1.789439e+01   4.101490e+00   3.045802e+04   1.022527e+05  -1.017468e+05  -5.728502e+10   1.459667e+10  -2.479090e+09   1.474304e+05   2.711264e-29   0.000000e+00   0.000000e+00
      448000   4.479990e-08   1.014198e-01   1.789447e+01   4.101408e+00   3.041219e+04   1.022644e+05  -1.017488e+05  -5.729067e+10   1.456989e+10  -2.480168e+09   1.474304e+05   2.711164e-29   0.000000e+00   0.000000e+00
      456000   4.559990e-08   1.014442e-01   1.789455e+01   4.101327e+00   3.036636e+04   1.022760e+05  -1.017508e+05  -5.729630e+10   1.454311e+10  -2.481245e+09   1.474304e+05   2.711065e-29   0.000000e+00   0.000000e+00
      464000   4.639990e-08   1.014684e-01   1.789463e+01   4.101245e+00   3.032052e+04   1.022876e+05  -1.017527e+05  -5.730192e+10   1.451633e+10  -2.482322e+09   1.474304e+05   2.710965e-29   0.000000e+00   0.000000e+00
      472000   4.719990e-08   1.014927e-01   1.789471e+01   4.101164e+00   3.027467e+04   1.022992e+05  -1.017547e+05  -5.730753e+10   1.448955e+10  -2.483397e+09   1.474304e+05   2.710865e-29   0.000000e+00   0.000000e+00
      480000   4.799990e-08   1.015169e-01   1.789479e+01   4.101083e+00   3.022883e+04   1.023108e+05  -1.017567e+05  -5.731312e+10   1.446276e+10  -2.484472e+09   1.474304e+05   2.710765e-29   0.000000e+00   0.000000e+00
      488000   4.879990e-08   1.015410e-01   1.789488e+01   4.101001e+00   3.018297e+04   1.023224e+05  -1.017587e+05  -5.731871e+10   1.443598e+10  -2.485546e+09   1.474304e+05   2.710666e-29   0.000000e+00   0.000000e+00
      496000   4.959990e-08   1.015652e-01   1.789496e+01   4.100920e+00   3.013712e+04   1.023339e+05  -1.017607e+05  -5.732428e+10   1.440919e+10  -2.486619e+09   1.474304e+05   2.710566e-29   0.000000e+00   0.000000e+00
      504000   5.039990e-08   1.015893e-01   1.789504e+01   4.100838e+00   3.009125e+04   1.023454e+05  -1.017627e+05  -5.732984e+10   1.438240e+10  -2.487691e+09   1.474304e+05   2.710466e-29   0.000000e+00   0.000000e+00
      512000   5.119990e-08   1.016133e-01   1.789512e+01   4.100757e+00   3.004539e+04   1.023569e+05  -1.017647e+05  -5.733538e+10   1.435561e+10  -2.488763e+09   1.474304e+05   2.710367e-29   0.000000e+00   0.000000e+00
      520000   5.199990e-08   1.016373e-01   1.789520e+01   4.100675e+00   2.999952e+04   1.023684e+05  -1.017667e+05  -5.734092e+10   1.432882e+10  -2.489834e+09   1.474304e+05   2.710267e-29   0.000000e+00   0.000000e+00
      528000   5.279990e-08   1.016613e-01   1.789529e+01   4.100594e+00   2.995364e+04   1.023799e+05  -1.017687e+05  -5.734644e+10   1.430203e+10  -2.490903e+09   1.474304e+05   2.710168e-29   0.000000e+00   0.000000e+00
      536000   5.359990e-08   1.016853e-01   1.789537e+01   4.100513e+00   2.990776e+04   1.023913e+05  -1.017706e+05  -5.735195e+10   1.427523e+10  -2.491972e+09   1.474304e+05   2.710068e-29   0.000000e+00   0.000000e+00
      544000   5.439990e-08   1.017092e-01   1.789545e+01   4.100431e+00   2.986188e+04   1.024027e+05  -1.017726e+05  -5.735745e+10   1.424844e+10  -2.493041e+09   1.474304e+05   2.709969e-29   0.000000e+00   0.000000e+00
      552000   5.519990e-08   1.017330e-01   1.789553e+01   4.100350e+00   2.981599e+04   1.024141e+05  -1.017746e+05  -5.736294e+10   1.422164e+10  -2.494108e+09   1.474304e+05   2.709870e-29   0.000000e+00   0.000000e+00
      560000   5.599990e-08   1.017569e-01   1.789561e+01   4.100268e+00   2.977010e+04   1.024254e+05  -1.017766e+05  -5.736841e+10   1.419484e+10  -2.495175e+09   1.474304e+05   2.709771e-29   0.000000e+00   0.000000e+00
      568000   5.679990e-08   1.017807e-01   1.789570e+01   4.100187e+00   2.972420e+04   1.024368e+05  -1.017786e+05  -5.737387e+10   1.416804e+10  -2.496241e+09   1.474304e+05   2.709671e-29   0.000000e+00   0.000000e+00
      576000   5.759990e-08   1.018044e-01   1.789578e+01   4.100106e+00   2.967830e+04   1.024481e+05  -1.017806e+05  -5.737932e+10   1.414124e+10  -2.497305e+09   1.474304e+05   2.709572e-29   0.000000e+00   0.000000e+00
      584000   5.839990e-08   1.018282e-01   1.789586e+01   4.100024e+00   2.963239e+04   1.024594e+05  -1.017826e+05  -5.738476e+10   1.411444e+10  -2.498370e+09   1.474304e+05   2.709473e-29   0.000000e+00   0.000000e+00
      592000   5.919990e-08   1.018518e-01   1.789594e+01   4.099943e+00   2.958648e+04   1.024707e+05  -1.017846e+05  -5.740096e+10   1.409835e+10  -2.491784e+09   1.474304e+05   2.710537e-29   0.000000e+00   0.000000e+00
      600000   5.999990e-08   1.018755e-01   1.789602e+01   4.099861e+00   2.954056e+04   1.024820e+05  -1.017866e+05  -5.740638e+10   1.407150e+10  -2.492875e+09   1.474304e+05   2.710437e-29   0.000000e+00   0.000000e+00
      608000   6.079990e-08   1.018991e-01   1.789611e+01   4.099780e+00   2.949463e+04   1.024932e+05  -1.017886e+05  -5.741179e+10   1.404466e+10  -2.493965e+09   1.474304e+05   2.710337e-29   0.000000e+00   0.000000e+00
      616000   6.159990e-08   1.019227e-01   1.789619e+01   4.099698e+00   2.944870e+04   1.025044e+05  -1.017906e+05  -5.741718e+10   1.401781e+10  -2.495055e+09   1.474304e+05   2.710238e-29   0.000000e+00   0.000000e+00
      624000   6.239990e-08   1.019462e-01   1.789627e+01   4.099617e+00   2.940276e+04   1.025156e+05  -1.017926e+05  -5.742256e+10   1.399097e+10  -2.496143e+09   1.474304e+05   2.710138e-29   0.000000e+00   0.000000e+00
      632000   6.319990e-08   1.019697e-01   1.789635e+01   4.099536e+00   2.935682e+04   1.025268e+05  -1.017946e+05  -5.742793e+10   1.396412e+10  -2.497231e+09   1.474304e+05   2.710039e-29   0.000000e+00   0.000000e+00
      640000   6.399990e-08   1.019932e-01   1.789643e+01   4.099454e+00   2.931088e+04   1.025380e+05  -1.017966e+05  -5.743329e+10   1.393727e+10  -2.498318e+09   1.474304e+05   2.709939e-29   0.000000e+00   0.000000e+00
      648000   6.479990e-08   1.020166e-01   1.789652e+01   4.099373e+00   2.926493e+04   1.025491e+05  -1.017986e+05  -5.743863e+10   1.391042e+10  -2.499404e+09   1.474304e+05   2.709840e-29   0.000000e+00   0.000000e+00
      656000   6.559990e-08   1.020400e-01   1.789660e+01   4.099291e+00   2.921897e+04   1.025602e+05  -1.018006e+05  -5.744396e+10   1.388357e+10  -2.500490e+09   1.474304e+05   2.709740e-29   0.000000e+00   0.000000e+00
      664000   6.639990e-08   1.020634e-01   1.789668e+01   4.099210e+00   2.917302e+04   1.025713e+05  -1.018026e+05  -5.744928e+10   1.385672e+10  -2.501574e+09   1.474304e+05   2.709641e-29   0.000000e+00   0.000000e+00
      672000   6.719990e-08   1.020867e-01   1.789676e+01   4.099128e+00   2.912706e+04   1.025824e+05  -1.018046e+05  -5.745459e+10   1.382987e+10  -2.502658e+09   1.474304e+05   2.709542e-29   0.000000e+00   0.000000e+00
      680000   6.799990e-08   1.021100e-01   1.789684e+01   4.099047e+00   2.908109e+04   1.025935e+05  -1.018066e+05  -5.745989e+10   1.380301e+10  -2.503741e+09   1.474304e+05   2.709443e-29   0.000000e+00   0.000000e+00
      688000   6.879990e-08   1.021332e-01   1.789693e+01   4.098965e+00   2.903512e+04   1.026045e+05  -1.018086e+05  -5.746517e+10   1.377616e+10  -2.504823e+09   1.474304e+05   2.709344e-29   0.000000e+00   0.000000e+00
      696000   6.959990e-08   1.021564e-01   1.789701e+01   4.098884e+00   2.898915e+04   1.026155e+05  -1.018106e+05  -5.747044e+10   1.374930e+10  -2.505904e+09   1.474304e+05   2.709244e-29   0.000000e+00   0.000000e+00
      704000   7.039990e-08   1.021796e-01   1.789709e+01   4.098803e+00   2.894317e+04   1.026265e+05  -1.018126e+05  -5.747570e+10   1.372244e+10  -2.506985e+09   1.474304e+05   2.709145e-29   0.000000e+00   0.000000e+00
      712000   7.119990e-08   1.022027e-01   1.789717e+01   4.098721e+00   2.889718e+04   1.026375e+05  -1.018146e+05  -5.748095e+10   1.369559e+10  -2.508065e+09   1.474304e+05   2.709046e-29   0.000000e+00   0.000000e+00
      720000   7.199990e-08   1.022258e-01   1.789725e+01   4.098640e+00   2.885120e+04   1.026484e+05  -1.018166e+05  -5.748618e+10   1.366873e+10  -2.509144e+09   1.474304e+05   2.708947e-29   0.000000e+00   0.000000e+00
      728000   7.279990e-08   1.022489e-01   1.789734e+01   4.098558e+00   2.880521e+04   1.026593e+05  -1.018186e+05  -5.749140e+10   1.364186e+10  -2.510222e+09   1.474304e+05   2.708849e-29   0.000000e+00   0.000000e+00
      736000   7.359990e-08   1.022719e-01   1.789742e+01   4.098477e+00   2.875921e+04   1.026702e+05  -1.018206e+05  -5.749661e+10   1.361500e+10  -2.511299e+09   1.474304e+05   2.708750e-29   0.000000e+00   0.000000e+00
      744000   7.439990e-08   1.022949e-01   1.789750e+01   4.098395e+00   2.871321e+04   1.026811e+05  -1.018227e+05  -5.750181e+10   1.358814e+10  -2.512375e+09   1.474304e+05   2.708651e-29   0.000000e+00   0.000000e+00
      752000   7.519990e-08   1.023179e-01   1.789758e+01   4.098314e+00   2.866721e+04   1.026920e+05  -1.018247e+05  -5.750700e+10   1.356127e+10  -2.513451e+09   1.474304e+05   2.708552e-29   0.000000e+00   0.000000e+00
      760000   7.599990e-08   1.023408e-01   1.789766e+01   4.098232e+00   2.862120e+04   1.027028e+05  -1.018267e+05  -5.751217e+10   1.353441e+10  -2.514525e+09   1.474304e+05   2.708453e-29   0.000000e+00   0.000000e+00
      768000   7.679990e-08   1.023637e-01   1.789775e+01   4.098151e+00   2.857519e+04   1.027136e+05  -1.018287e+05  -5.751733e+10   1.350754e+10  -2.515599e+09   1.474304e+05   2.708355e-29   0.000000e+00   0.000000e+00
      776000   7.759990e-08   1.023865e-01   1.789783e+01   4.098069e+00   2.852917e+04   1.027244e+05  -1.018307e+05  -5.752248e+10   1.348068e+10  -2.516673e+09   1.474304e+05   2.708256e-29   0.000000e+00   0.000000e+00
      784000   7.839990e-08   1.024093e-01   1.789791e+01   4.097988e+00   2.848315e+04   1.027352e+05  -1.018327e+05  -5.752762e+10   1.345381e+10  -2.517745e+09   1.474304e+05   2.708158e-29   0.000000e+00   0.000000e+00
      792000   7.919990e-08   1.024321e-01   1.789799e+01   4.097906e+00   2.843713e+04   1.027460e+05  -1.018347e+05  -5.753275e+10   1.342694e+10  -2.518816e+09   1.474304e+05   2.708059e-29   0.000000e+00   0.000000e+00
      800000   7.999990e-08   1.024548e-01   1.789808e+01   4.097825e+00   2.839110e+04   1.027567e+05  -1.018367e+05  -5.753786e+10   1.340007e+10  -2.519887e+09   1.474304e+05   2.707961e-29   0.000000e+00   0.000000e+00
      808000   8.079990e-08   1.024775e-01   1.789816e+01   4.097744e+00   2.834507e+04   1.027674e+05  -1.018388e+05  -5.754296e+10   1.337319e+10  -2.520957e+09   1.474304e+05   2.707862e-29   0.000000e+00   0.000000e+00
      816000   8.159990e-08   1.025002e-01   1.789824e+01   4.097662e+00   2.829903e+04   1.027781e+05  -1.018408e+05  -5.754805e+10   1.334632e+10  -2.522026e+09   1.474304e+05   2.707764e-29   0.000000e+00   0.000000e+00
      824000   8.239990e-08   1.025228e-01   1.789832e+01   4.097581e+00   2.825299e+04   1.027888e+05  -1.018428e+05  -5.755312e+10   1.331945e+10  -2.523094e+09   1.474304e+05   2.707666e-29   0.000000e+00   0.000000e+00
      832000   8.319990e-08   1.025454e-01   1.789840e+01   4.097499e+00   2.820695e+04   1.027994e+05  -1.018448e+05  -5.755819e+10   1.329257e+10  -2.524161e+09   1.474304e+05   2.707567e-29   0.000000e+00   0.000000e+00
      840000   8.399990e-08   1.025679e-01   1.789849e+01   4.097418e+00   2.816090e+04   1.028100e+05  -1.018468e+05  -5.756324e+10   1.326570e+10  -2.525228e+09   1.474304e+05   2.707469e-29   0.000000e+00   0.000000e+00
      848000   8.479990e-08   1.025904e-01   1.789857e+01   4.097336e+00   2.811485e+04   1.028206e+05  -1.018489e+05  -5.756828e+10   1.323882e+10  -2.526293e+09   1.474304e+05   2.707371e-29   0.000000e+00   0.000000e+00
      856000   8.559990e-08   1.026129e-01   1.789865e+01   4.097255e+00   2.806879e+04   1.028312e+05  -1.018509e+05  -5.757331e+10   1.321194e+10  -2.527358e+09   1.474304e+05   2.707273e-29   0.000000e+00   0.000000e+00
      864000   8.639990e-08   1.026353e-01   1.789873e+01   4.097173e+00   2.802273e+04   1.028418e+05  -1.018529e+05  -5.757832e+10   1.318506e+10  -2.528422e+09   1.474304e+05   2.707175e-29   0.000000e+00   0.000000e+00
      872000   8.719990e-08   1.026577e-01   1.789882e+01   4.097092e+00   2.797666e+04   1.028523e+05  -1.018549e+05  -5.758332e+10   1.315818e+10  -2.529485e+09   1.474304e+05   2.707077e-29   0.000000e+00   0.000000e+00
      880000   8.799990e-08   1.026801e-01   1.789890e+01   4.097010e+00   2.793059e+04   1.028628e+05  -1.018569e+05  -5.758832e+10   1.313130e+10  -2.530548e+09   1.474304e+05   2.706979e-29   0.000000e+00   0.000000e+00
      888000   8.879990e-08   1.027024e-01   1.789898e+01   4.096929e+00   2.788452e+04   1.028733e+05  -1.018590e+05  -5.759329e+10   1.310442e+10  -2.531609e+09   1.474304e+05   2.706881e-29   0.000000e+00   0.000000e+00
      896000   8.959990e-08   1.027247e-01   1.789906e+01   4.096847e+00   2.783845e+04   1.028838e+05  -1.018610e+05  -5.759826e+10   1.307753e+10  -2.532670e+09   1.474304e+05   2.706783e-29   0.000000e+00   0.000000e+00
      904000   9.039990e-08   1.027470e-01   1.789915e+01   4.096766e+00   2.779236e+04   1.028942e+05  -1.018630e+05  -5.760321e+10   1.305065e+10  -2.533729e+09   1.474304e+05   2.706685e-29   0.000000e+00   0.000000e+00
      912000   9.119990e-08   1.027692e-01   1.789923e+01   4.096684e+00   2.774628e+04   1.029047e+05  -1.018650e+05  -5.760816e+10   1.302376e+10  -2.534788e+09   1.474304e+05   2.706587e-29   0.000000e+00   0.000000e+00
      920000   9.199990e-08   1.027914e-01   1.789931e+01   4.096603e+00   2.770019e+04   1.029151e+05  -1.018671e+05  -5.761309e+10   1.299688e+10  -2.535847e+09   1.474304e+05   2.706489e-29   0.000000e+00   0.000000e+00
      928000   9.279990e-08   1.028135e-01   1.789939e+01   4.096521e+00   2.765410e+04   1.029255e+05  -1.018691e+05  -5.761800e+10   1.296999e+10  -2.536904e+09   1.474304e+05   2.706392e-29   0.000000e+00   0.000000e+00
      936000   9.359990e-08   1.028356e-01   1.789947e+01   4.096440e+00   2.760800e+04   1.029358e+05  -1.018711e+05  -5.762291e+10   1.294310e+10  -2.537960e+09   1.474304e+05   2.706294e-29   0.000000e+00   0.000000e+00
      944000   9.439990e-08   1.028577e-01   1.789956e+01   4.096358e+00   2.756190e+04   1.029462e+05  -1.018732e+05  -5.762780e+10   1.291621e+10  -2.539016e+09   1.474304e+05   2.706196e-29   0.000000e+00   0.000000e+00
      952000   9.519990e-08   1.028797e-01   1.789964e+01   4.096277e+00   2.751580e+04   1.029565e+05  -1.018752e+05  -5.763268e+10   1.288932e+10  -2.540071e+09   1.474304e+05   2.706099e-29   0.000000e+00   0.000000e+00
      960000   9.599990e-08   1.029017e-01   1.789972e+01   4.096195e+00   2.746969e+04   1.029668e+05  -1.018772e+05  -5.763755e+10   1.286243e+10  -2.541125e+09   1.474304e+05   2.706001e-29   0.000000e+00   0.000000e+00
      968000   9.679990e-08   1.029237e-01   1.789980e+01   4.096114e+00   2.742358e+04   1.029771e+05  -1.018793e+05  -5.764241e+10   1.283554e+10  -2.542178e+09   1.474304e+05   2.705904e-29   0.000000e+00   0.000000e+00
      976000   9.759990e-08   1.029456e-01   1.789989e+01   4.096032e+00   2.737746e+04   1.029873e+05  -1.018813e+05  -5.764725e+10   1.280865e+10  -2.543230e+09   1.474304e+05   2.705807e-29   0.000000e+00   0.000000e+00
      984000   9.839990e-08   1.029675e-01   1.789997e+01   4.095951e+00   2.733134e+04   1.029976e+05  -1.018833e+05  -5.765209e+10   1.278175e+10  -2.544281e+09   1.474304e+05   2.705709e-29   0.000000e+00   0.000000e+00
      992000   9.919990e-08   1.029893e-01   1.790005e+01   4.095869e+00   2.728522e+04   1.030078e+05  -1.018854e+05  -5.764625e+10   1.274534e+10  -2.552107e+09   1.474304e+05   2.704499e-29   0.000000e+00   0.000000e+00
     1000000   9.999990e-08   1.030111e-01   1.790013e+01   4.095788e+00   2.723911e+04   1.030180e+05  -1.018874e+05  -5.765105e+10   1.271849e+10  -2.553118e+09   1.474304e+05   2.704402e-29   0.000000e+00   0.000000e+00
     1008000   1.007999e-07   1.030329e-01   1.790022e+01   4.095706e+00   2.719298e+04   1.030281e+05  -1.018895e+05  -5.765583e+10   1.269164e+10  -2.554127e+09   1.474304e+05   2.704305e-29   0.000000e+00   0.000000e+00
     1016000   1.015999e-07   1.030546e-01   1.790030e+01   4.095625e+00   2.714686e+04   1.030383e+05  -1.018915e+05  -5.766060e+10   1.266479e+10  -2.555136e+09   1.474304e+05   2.704207e-29   0.000000e+00   0.000000e+00
     1024000   1.023999e-07   1.030763e-01   1.790038e+01   4.095543e+00   2.710073e+04   1.030484e+05  -1.018935e+05  -5.766536e+10   1.263794e+10  -2.556144e+09   1.474304e+05   2.704110e-29   0.000000e+00   0.000000e+00
     1032000   1.031999e-07   1.030980e-01   1.790046e+01   4.095462e+00   2.705459e+04   1.030585e+05  -1.018956e+05  -5.767011e+10   1.261108e+10  -2.557151e+09   1.474304e+05   2.704013e-29   0.000000e+00   0.000000e+00
     1040000   1.039999e-07   1.031196e-01   1.790055e+01   4.095380e+00   2.700845e+04   1.030686e+05  -1.018976e+05  -5.767484e+10   1.258423e+10  -2.558157e+09   1.474304e+05   2.703916e-29   0.000000e+00   0.000000e+00
     1048000   1.047999e-07   1.031412e-01   1.790063e+01   4.095299e+00   2.696231e+04   1.030786e+05  -1.018997e+05  -5.767957e+10   1.255738e+10  -2.559162e+09   1.474304e+05   2.703819e-29   0.000000e+00   0.000000e+00
     1056000   1.055999e-07   1.031628e-01   1.790071e+01   4.095217e+00   2.691617e+04   1.030887e+05  -1.019017e+05  -5.768428e+10   1.253052e+10  -2.560167e+09   1.474304e+05   2.703722e-29   0.000000e+00   0.000000e+00
     1064000   1.063999e-07   1.031843e-01   1.790079e+01   4.095136e+00   2.687002e+04   1.030987e+05  -1.019038e+05  -5.768897e+10   1.250366e+10  -2.561170e+09   1.474304e+05   2.703625e-29   0.000000e+00   0.000000e+00
     1072000   1.071999e-07   1.032057e-01   1.790088e+01   4.095054e+00   2.682386e+04   1.031087e+05  -1.019058e+05  -5.769366e+10   1.247681e+10  -2.562173e+09   1.474304e+05   2.703528e-29   0.000000e+00   0.000000e+00
     1080000   1.079999e-07   1.032272e-01   1.790096e+01   4.094973e+00   2.677771e+04   1.031186e+05  -1.019079e+05  -5.769833e+10   1.244995e+10  -2.563175e+09   1.474304e+05   2.703432e-29   0.000000e+00   0.000000e+00
     1088000   1.087999e-07   1.032486e-01   1.790104e+01   4.094891e+00   2.673155e+04   1.031286e+05  -1.019099e+05  -5.770300e+10   1.242309e+10  -2.564176e+09   1.474304e+05   2.703335e-29   0.000000e+00   0.000000e+00
     1096000   1.095999e-07   1.032700e-01   1.790112e+01   4.094810e+00   2.668538e+04   1.031385e+05  -1.019120e+05  -5.770765e+10   1.239623e+10  -2.565176e+09   1.474304e+05   2.703238e-29   0.000000e+00   0.000000e+00
     1104000   1.103999e-07   1.032913e-01   1.790121e+01   4.094728e+00   2.663921e+04   1.031484e+05  -1.019140e+05  -5.771228e+10   1.236937e+10  -2.566175e+09   1.474304e+05   2.703141e-29   0.000000e+00   0.000000e+00
     1112000   1.111999e-07   1.033126e-01   1.790129e+01   4.094646e+00   2.659304e+04   1.031583e+05  -1.019161e+05  -5.771691e+10   1.234251e+10  -2.567173e+09   1.474304e+05   2.703045e-29   0.000000e+00   0.000000e+00
     1120000   1.119999e-07   1.033338e-01   1.790137e+01   4.094565e+00   2.654687e+04   1.031682e+05  -1.019181e+05  -5.772152e+10   1.231565e+10  -2.568171e+09   1.474304e+05   2.702948e-29   0.000000e+00   0.000000e+00
     1128000   1.127999e-07   1.033551e-01   1.790145e+01   4.094483e+00   2.650069e+04   1.031780e+05  -1.019202e+05  -5.772612e+10   1.228878e+10  -2.569167e+09   1.474304e+05   2.702852e-29   0.000000e+00   0.000000e+00
     1136000   1.135999e-07   1.033762e-01   1.790154e+01   4.094402e+00   2.645451e+04   1.031878e+05  -1.019223e+05  -5.773071e+10   1.226192e+10  -2.570163e+09   1.474304e+05   2.702755e-29   0.000000e+00   0.000000e+00
     1144000   1.143999e-07   1.033974e-01   1.790162e+01   4.094320e+00   2.640832e+04   1.031976e+05  -1.019243e+05  -5.773529e+10   1.223506e+10  -2.571158e+09   1.474304e+05   2.702659e-29   0.000000e+00   0.000000e+00
     1152000   1.151999e-07   1.034185e-01   1.790170e+01   4.094239e+00   2.636213e+04   1.032074e+05  -1.019264e+05  -5.773985e+10   1.220819e+10  -2.572152e+09   1.474304e+05   2.702562e-29   0.000000e+00   0.000000e+00
     1160000   1.159999e-07   1.034396e-01   1.790178e+01   4.094157e+00   2.631594e+04   1.032172e+05  -1.019284e+05  -5.774440e+10   1.218133e+10  -2.573145e+09   1.474304e+05   2.702466e-29   0.000000e+00   0.000000e+00
     1168000   1.167999e-07   1.034606e-01   1.790187e+01   4.094076e+00   2.626974e+04   1.032269e+05  -1.019305e+05  -5.774894e+10   1.215446e+10  -2.574137e+09   1.474304e+05   2.702370e-29   0.000000e+00   0.000000e+00
     1176000   1.175999e-07   1.034816e-01   1.790195e+01   4.093994e+00   2.622354e+04   1.032366e+05  -1.019325e+05  -5.775347e+10   1.212759e+10  -2.575129e+09   1.474304e+05   2.702273e-29   0.000000e+00   0.000000e+00
     1184000   1.183999e-07   1.035026e-01   1.790203e+01   4.093913e+00   2.617733e+04   1.032463e+05  -1.019346e+05  -5.775799e+10   1.210072e+10  -2.576119e+09   1.474304e+05   2.702177e-29   0.000000e+00   0.000000e+00
     1192000   1.191999e-07   1.035235e-01   1.790211e+01   4.093831e+00   2.613112e+04   1.032560e+05  -1.019367e+05  -5.776249e+10   1.207385e+10  -2.577109e+09   1.474304e+05   2.702081e-29   0.000000e+00   0.000000e+00
     1200000   1.199999e-07   1.035444e-01   1.790220e+01   4.093750e+00   2.608491e+04   1.032656e+05  -1.019387e+05  -5.776698e+10   1.204698e+10  -2.578097e+09   1.474304e+05   2.701985e-29   0.000000e+00   0.000000e+00
     1208000   1.207999e-07   1.035652e-01   1.790228e+01   4.093668e+00   2.603870e+04   1.032752e+05  -1.019408e+05  -5.777146e+10   1.202011e+10  -2.579085e+09   1.474304e+05   2.701889e-29   0.000000e+00   0.000000e+00
     1216000   1.215999e-07   1.035860e-01   1.790236e+01   4.093586e+00   2.599248e+04   1.032848e+05  -1.019429e+05  -5.777593e+10   1.199324e+10  -2.580072e+09   1.474304e+05   2.701793e-29   0.000000e+00   0.000000e+00
     1224000   1.223999e-07   1.036068e-01   1.790244e+01   4.093505e+00   2.594626e+04   1.032944e+05  -1.019449e+05  -5.778038e+10   1.196637e+10  -2.581058e+09   1.474304e+05   2.701697e-29   0.000000e+00   0.000000e+00
     1232000   1.231999e-07   1.036275e-01   1.790253e+01   4.093423e+00   2.590003e+04   1.033040e+05  -1.019470e+05  -5.778483e+10   1.193950e+10  -2.582044e+09   1.474304e+05   2.701601e-29   0.000000e+00   0.000000e+00
     1240000   1.239999e-07   1.036482e-01   1.790261e+01   4.093342e+00   2.585380e+04   1.033135e+05  -1.019491e+05  -5.778926e+10   1.191262e+10  -2.583028e+09   1.474304e+05   2.701505e-29   0.000000e+00   0.000000e+00
     1248000   1.247999e-07   1.036689e-01   1.790269e+01   4.093260e+00   2.580757e+04   1.033231e+05  -1.019511e+05  -5.779368e+10   1.188575e+10  -2.584011e+09   1.474304e+05   2.701409e-29   0.000000e+00   0.000000e+00
     1256000   1.255999e-07   1.036895e-01   1.790277e+01   4.093179e+00   2.576133e+04   1.033326e+05  -1.019532e+05  -5.779808e+10   1.185887e+10  -2.584994e+09   1.474304e+05   2.701313e-29   0.000000e+00   0.000000e+00
     1264000   1.263999e-07   1.037101e-01   1.790286e+01   4.093097e+00   2.571509e+04   1.033420e+05  -1.019553e+05  -5.780248e+10   1.183200e+10  -2.585976e+09   1.474304e+05   2.701217e-29   0.000000e+00   0.000000e+00
     1272000   1.271999e-07   1.037307e-01   1.790294e+01   4.093015e+00   2.566885e+04   1.033515e+05  -1.019573e+05  -5.780686e+10   1.180512e+10  -2.586957e+09   1.474304e+05   2.701121e-29   0.000000e+00   0.000000e+00
     1280000   1.279999e-07   1.037512e-01   1.790302e+01   4.092934e+00   2.562260e+04   1.033609e+05  -1.019594e+05  -5.781123e+10   1.177824e+10  -2.587936e+09   1.474304e+05   2.701026e-29   0.000000e+00   0.000000e+00
     1288000   1.287999e-07   1.037717e-01   1.790311e+01   4.092852e+00   2.557635e+04   1.033703e+05  -1.019615e+05  -5.781559e+10   1.175136e+10  -2.588916e+09   1.474304e+05   2.700930e-29   0.000000e+00   0.000000e+00
     1296000   1.295999e-07   1.037921e-01   1.790319e+01   4.092771e+00   2.553009e+04   1.033797e+05  -1.019635e+05  -5.781993e+10   1.172448e+10  -2.589894e+09   1.474304e+05   2.700835e-29   0.000000e+00   0.000000e+00
     1304000   1.303999e-07   1.038125e-01   1.790327e+01   4.092689e+00   2.548384e+04   1.033891e+05  -1.019656e+05  -5.782426e+10   1.169761e+10  -2.590871e+09   1.474304e+05   2.700739e-29   0.000000e+00   0.000000e+00
     1312000   1.311999e-07   1.038329e-01   1.790335e+01   4.092608e+00   2.543758e+04   1.033984e+05  -1.019677e+05  -5.782859e+10   1.167073e+10  -2.591847e+09   1.474304e+05   2.700643e-29   0.000000e+00   0.000000e+00
     1320000   1.319999e-07   1.038532e-01   1.790344e+01   4.092526e+00   2.539131e+04   1.034078e+05  -1.019698e+05  -5.783289e+10   1.164384e+10  -2.592823e+09   1.474304e+05   2.700548e-29   0.000000e+00   0.000000e+00
     1328000   1.327999e-07   1.038735e-01   1.790352e+01   4.092444e+00   2.534504e+04   1.034171e+05  -1.019718e+05  -5.783719e+10   1.161696e+10  -2.593798e+09   1.474304e+05   2.700453e-29   0.000000e+00   0.000000e+00
     1336000   1.335999e-07   1.038938e-01   1.790360e+01   4.092363e+00   2.529877e+04   1.034263e+05  -1.019739e+05  -5.784148e+10   1.159008e+10  -2.594771e+09   1.474304e+05   2.700357e-29   0.000000e+00   0.000000e+00
     1344000   1.343999e-07   1.039140e-01   1.790368e+01   4.092281e+00   2.525250e+04   1.034356e+05  -1.019760e+05  -5.784575e+10   1.156320e+10  -2.595744e+09   1.474304e+05   2.700262e-29   0.000000e+00   0.000000e+00
     1352000   1.351999e-07   1.039342e-01   1.790377e+01   4.092200e+00   2.520622e+04   1.034448e+05  -1.019781e+05  -5.785001e+10   1.153631e+10  -2.596716e+09   1.474304e+05   2.700167e-29   0.000000e+00   0.000000e+00
     1360000   1.359999e-07   1.039543e-01   1.790385e+01   4.092118e+00   2.515994e+04   1.034541e+05  -1.019801e+05  -5.785426e+10   1.150943e+10  -2.597687e+09   1.474304e+05   2.700071e-29   0.000000e+00   0.000000e+00
     1368000   1.367999e-07   1.039744e-01   1.790393e+01   4.092037e+00   2.511365e+04   1.034633e+05  -1.019822e+05  -5.785849e+10   1.148254e+10  -2.598657e+09   1.474304e+05   2.699976e-29   0.000000e+00   0.000000e+00
     1376000   1.375999e-07   1.039945e-01   1.790402e+01   4.091955e+00   2.506736e+04   1.034724e+05  -1.019843e+05  -5.786272e+10   1.145566e+10  -2.599627e+09   1.474304e+05   2.699881e-29   0.000000e+00   0.000000e+00
     1384000   1.383999e-07   1.040145e-01   1.790410e+01   4.091873e+00   2.502107e+04   1.034816e+05  -1.019864e+05  -5.786693e+10   1.142877e+10  -2.600595e+09   1.474304e+05   2.699786e-29   0.000000e+00   0.000000e+00
     1392000   1.391999e-07   1.040345e-01   1.790418e+01   4.091792e+00   2.497478e+04   1.034907e+05  -1.019885e+05  -5.787113e+10   1.140189e+10  -2.601562e+09   1.474304e+05   2.699691e-29   0.000000e+00   0.000000e+00
     1400000   1.399999e-07   1.040545e-01   1.790426e+01   4.091710e+00   2.492848e+04   1.034998e+05  -1.019905e+05  -5.787532e+10   1.137500e+10  -2.602529e+09   1.474304e+05   2.699596e-29   0.000000e+00   0.000000e+00
     1408000   1.407999e-07   1.040744e-01   1.790435e+01   4.091629e+00   2.488218e+04   1.035089e+05  -1.019926e+05  -5.787949e+10   1.134811e+10  -2.603495e+09   1.474304e+05   2.699501e-29   0.000000e+00   0.000000e+00
     1416000   1.415999e-07   1.040943e-01   1.790443e+01   4.091547e+00   2.483587e+04   1.035180e+05  -1.019947e+05  -5.788365e+10   1.132122e+10  -2.604460e+09   1.474304e+05   2.699406e-29   0.000000e+00   0.000000e+00
     1424000   1.423999e-07   1.041142e-01   1.790451e+01   4.091465e+00   2.478956e+04   1.035270e+05  -1.019968e+05  -5.788781e+10   1.129433e+10  -2.605424e+09   1.474304e+05   2.699311e-29   0.000000e+00   0.000000e+00
     1432000   1.431999e-07   1.041340e-01   1.790460e+01   4.091384e+00   2.474325e+04   1.035361e+05  -1.019989e+05  -5.789194e+10   1.126744e+10  -2.606387e+09   1.474304e+05   2.699216e-29   0.000000e+00   0.000000e+00
     1440000   1.439999e-07   1.041538e-01   1.790468e+01   4.091302e+00   2.469693e+04   1.035451e+05  -1.020010e+05  -5.789607e+10   1.124055e+10  -2.607349e+09   1.474304e+05   2.699121e-29   0.000000e+00   0.000000e+00
     1448000   1.447999e-07   1.041735e-01   1.790476e+01   4.091221e+00   2.465062e+04   1.035540e+05  -1.020030e+05  -5.790019e+10   1.121366e+10  -2.608310e+09   1.474304e+05   2.699026e-29   0.000000e+00   0.000000e+00
     1456000   1.455999e-07   1.041932e-01   1.790484e+01   4.091139e+00   2.460429e+04   1.035630e+05  -1.020051e+05  -5.790429e+10   1.118677e+10  -2.609270e+09   1.474304e+05   2.698932e-29   0.000000e+00   0.000000e+00
     1464000   1.463999e-07   1.042129e-01   1.790493e+01   4.091057e+00   2.455797e+04   1.035719e+05  -1.020072e+05  -5.790838e+10   1.115988e+10  -2.610230e+09   1.474304e+05   2.698837e-29   0.000000e+00   0.000000e+00
     1472000   1.471999e-07   1.042325e-01   1.790501e+01   4.090976e+00   2.451164e+04   1.035809e+05  -1.020093e+05  -5.791246e+10   1.113298e+10  -2.611188e+09   1.474304e+05   2.698742e-29   0.000000e+00   0.000000e+00
     1480000   1.479999e-07   1.042521e-01   1.790509e+01   4.090894e+00   2.446531e+04   1.035898e+05  -1.020114e+05  -5.791652e+10   1.110609e+10  -2.612146e+09   1.474304e+05   2.698648e-29   0.000000e+00   0.000000e+00
     1488000   1.487999e-07   1.042716e-01   1.790518e+01   4.090813e+00   2.441897e+04   1.035986e+05  -1.020135e+05  -5.792058e+10   1.107920e+10  -2.613103e+09   1.474304e+05   2.698553e-29   0.000000e+00   0.000000e+00
     1496000   1.495999e-07   1.042911e-01   1.790526e+01   4.090731e+00   2.437264e+04   1.036075e+05  -1.020156e+05  -5.792462e+10   1.105230e+10  -2.614058e+09   1.474304e+05   2.698459e-29   0.000000e+00   0.000000e+00
     1504000   1.503999e-07   1.043106e-01   1.790534e+01   4.090649e+00   2.432629e+04   1.036163e+05  -1.020177e+05  -5.792865e+10   1.102541e+10  -2.615013e+09   1.474304e+05   2.698364e-29   0.000000e+00   0.000000e+00
     1512000   1.511999e-07   1.043301e-01   1.790542e+01   4.090568e+00   2.427995e+04   1.036251e+05  -1.020198e+05  -5.793266e+10   1.099851e+10  -2.615967e+09   1.474304e+05   2.698270e-29   0.000000e+00   0.000000e+00
     1520000   1.519999e-07   1.043495e-01   1.790551e+01   4.090486e+00   2.423360e+04   1.036339e+05  -1.020219e+05  -5.793667e+10   1.097162e+10  -2.616920e+09   1.474304e+05   2.698175e-29   0.000000e+00   0.000000e+00
     1528000   1.527999e-07   1.043688e-01   1.790559e+01   4.090405e+00   2.418725e+04   1.036427e+05  -1.020239e+05  -5.794066e+10   1.094472e+10  -2.617873e+09   1.474304e+05   2.698081e-29   0.000000e+00   0.000000e+00
     1536000   1.535999e-07   1.043882e-01   1.790567e+01   4.090323e+00   2.414090e+04   1.036514e+05  -1.020260e+05  -5.794464e+10   1.091782e+10  -2.618824e+09   1.474304e+05   2.697987e-29   0.000000e+00   0.000000e+00
     1544000   1.543999e-07   1.044075e-01   1.790576e+01   4.090241e+00   2.409454e+04   1.036601e+05  -1.020281e+05  -5.794861e+10   1.089092e+10  -2.619774e+09   1.474304e+05   2.697893e-29   0.000000e+00   0.000000e+00
     1552000   1.551999e-07   1.044267e-01   1.790584e+01   4.090160e+00   2.404818e+04   1.036689e+05  -1.020302e+05  -5.795257e+10   1.086403e+10  -2.620724e+09   1.474304e+05   2.697798e-29   0.000000e+00   0.000000e+00
     1560000   1.559999e-07   1.044459e-01   1.790592e+01   4.090078e+00   2.400182e+04   1.036775e+05  -1.020323e+05  -5.795651e+10   1.083713e+10  -2.621672e+09   1.474304e+05   2.697704e-29   0.000000e+00   0.000000e+00
     1568000   1.567999e-07   1.044651e-01   1.790600e+01   4.089996e+00   2.395545e+04   1.036862e+05  -1.020344e+05  -5.796044e+10   1.081023e+10  -2.622620e+09   1.474304e+05   2.697610e-29   0.000000e+00   0.000000e+00
     1576000   1.575999e-07   1.044843e-01   1.790609e+01   4.089915e+00   2.390908e+04   1.036948e+05  -1.020365e+05  -5.796436e+10   1.078333e+10  -2.623567e+09   1.474304e+05   2.697516e-29   0.000000e+00   0.000000e+00
     1584000   1.583999e-07   1.045034e-01   1.790617e+01   4.089833e+00   2.386271e+04   1.037034e+05  -1.020386e+05  -5.796827e+10   1.075643e+10  -2.624513e+09   1.474304e+05   2.697422e-29   0.000000e+00   0.000000e+00
     1592000   1.591999e-07   1.045225e-01   1.790625e+01   4.089752e+00   2.381633e+04   1.037120e+05  -1.020407e+05  -5.797217e+10   1.072953e+10  -2.625458e+09   1.474304e+05   2.697328e-29   0.000000e+00   0.000000e+00
     1600000   1.599999e-07   1.045415e-01   1.790634e+01   4.089670e+00   2.376995e+04   1.037206e+05  -1.020428e+05  -5.797605e+10   1.070262e+10  -2.626402e+09   1.474304e+05   2.697234e-29   0.000000e+00   0.000000e+00
     1608000   1.607999e-07   1.045605e-01   1.790642e+01   4.089588e+00   2.372357e+04   1.037292e+05  -1.020449e+05  -5.797992e+10   1.067572e+10  -2.627345e+09   1.474304e+05   2.697140e-29   0.000000e+00   0.000000e+00
     1616000   1.615999e-07   1.045794e-01   1.790650e+01   4.089507e+00   2.367718e+04   1.037377e+05  -1.020470e+05  -5.798378e+10   1.064882e+10  -2.628287e+09   1.474304e+05   2.697046e-29   0.000000e+00   0.000000e+00
     1624000   1.623999e-07   1.045984e-01   1.790659e+01   4.089425e+00   2.363079e+04   1.037462e+05  -1.020491e+05  -5.798763e+10   1.062192e+10  -2.629228e+09   1.474304e+05   2.696952e-29   0.000000e+00   0.000000e+00
     1632000   1.631999e-07   1.046173e-01   1.790667e+01   4.089343e+00   2.358440e+04   1.037547e+05  -1.020512e+05  -5.799146e+10   1.059501e+10  -2.630169e+09   1.474304e+05   2.696859e-29   0.000000e+00   0.000000e+00
     1640000   1.639999e-07   1.046361e-01   1.790675e+01   4.089262e+00   2.353801e+04   1.037632e+05  -1.020533e+05  -5.799529e+10   1.056811e+10  -2.631108e+09   1.474304e+05   2.696765e-29   0.000000e+00   0.000000e+00
     1648000   1.647999e-07   1.046549e-01   1.790683e+01   4.089180e+00   2.349161e+04   1.037716e+05  -1.020554e+05  -5.799910e+10   1.054121e+10  -2.632047e+09   1.474304e+05   2.696671e-29   0.000000e+00   0.000000e+00
     1656000   1.655999e-07   1.046737e-01   1.790692e+01   4.089098e+00   2.344521e+04   1.037800e+05  -1.020576e+05  -5.800289e+10   1.051430e+10  -2.632984e+09   1.474304e+05   2.696578e-29   0.000000e+00   0.000000e+00
     1664000   1.663999e-07   1.046924e-01   1.790700e+01   4.089017e+00   2.339881e+04   1.037884e+05  -1.020597e+05  -5.800668e+10   1.048740e+10  -2.633921e+09   1.474304e+05   2.696484e-29   0.000000e+00   0.000000e+00
     1672000   1.671999e-07   1.047111e-01   1.790708e+01   4.088935e+00   2.335240e+04   1.037968e+05  -1.020618e+05  -5.801046e+10   1.046049e+10  -2.634857e+09   1.474304e+05   2.696390e-29   0.000000e+00   0.000000e+00
     1680000   1.679999e-07   1.047298e-01   1.790717e+01   4.088853e+00   2.330599e+04   1.038052e+05  -1.020639e+05  -5.801422e+10   1.043359e+10  -2.635792e+09   1.474304e+05   2.696297e-29   0.000000e+00   0.000000e+00
     1688000   1.687999e-07   1.047484e-01   1.790725e+01   4.088772e+00   2.325958e+04   1.038135e+05  -1.020660e+05  -5.801797e+10   1.040668e+10  -2.636726e+09   1.474304e+05   2.696203e-29   0.000000e+00   0.000000e+00
     1696000   1.695999e-07   1.047670e-01   1.790733e+01   4.088690e+00   2.321316e+04   1.038218e+05  -1.020681e+05  -5.802170e+10   1.037977e+10  -2.637659e+09   1.474304e+05   2.696110e-29   0.000000e+00   0.000000e+00
     1704000   1.703999e-07   1.047856e-01   1.790742e+01   4.088609e+00   2.316674e+04   1.038301e+05  -1.020702e+05  -5.802543e+10   1.035286e+10  -2.638591e+09   1.474304e+05   2.696017e-29   0.000000e+00   0.000000e+00
     1712000   1.711999e-07   1.048041e-01   1.790750e+01   4.088527e+00   2.312032e+04   1.038384e+05  -1.020723e+05  -5.802914e+10   1.032596e+10  -2.639522e+09   1.474304e+05   2.695923e-29   0.000000e+00   0.000000e+00
     1720000   1.719999e-07   1.048226e-01   1.790758e+01   4.088445e+00   2.307389e+04   1.038466e+05  -1.020744e+05  -5.803285e+10   1.029905e+10  -2.640452e+09   1.474304e+05   2.695830e-29   0.000000e+00   0.000000e+00
     1728000   1.727999e-07   1.048410e-01   1.790766e+01   4.088364e+00   2.302747e+04   1.038549e+05  -1.020765e+05  -5.803653e+10   1.027214e+10  -2.641382e+09   1.474304e+05   2.695737e-29   0.000000e+00   0.000000e+00
     1736000   1.735999e-07   1.048594e-01   1.790775e+01   4.088282e+00   2.298104e+04   1.038631e+05  -1.020787e+05  -5.804021e+10   1.024523e+10  -2.642310e+09   1.474304e+05   2.695643e-29   0.000000e+00   0.000000e+00
     1744000   1.743999e-07   1.048778e-01   1.790783e+01   4.088200e+00   2.293460e+04   1.038712e+05  -1.020808e+05  -5.804388e+10   1.021832e+10  -2.643238e+09   1.474304e+05   2.695550e-29   0.000000e+00   0.000000e+00
     1752000   1.751999e-07   1.048961e-01   1.790791e+01   4.088119e+00   2.288817e+04   1.038794e+05  -1.020829e+05  -5.804753e+10   1.019141e+10  -2.644164e+09   1.474304e+05   2.695457e-29   0.000000e+00   0.000000e+00
     1760000   1.759999e-07   1.049144e-01   1.790800e+01   4.088037e+00   2.284173e+04   1.038875e+05  -1.020850e+05  -5.805117e+10   1.016450e+10  -2.645090e+09   1.474304e+05   2.695364e-29   0.000000e+00   0.000000e+00
     1768000   1.767999e-07   1.049326e-01   1.790808e+01   4.087955e+00   2.279528e+04   1.038957e+05  -1.020871e+05  -5.805480e+10   1.013759e+10  -2.646015e+09   1.474304e+05   2.695271e-29   0.000000e+00   0.000000e+00
     1776000   1.775999e-07   1.049509e-01   1.790816e+01   4.087874e+00   2.274884e+04   1.039038e+05  -1.020892e+05  -5.805841e+10   1.011068e+10  -2.646939e+09   1.474304e+05   2.695178e-29   0.000000e+00   0.000000e+00
     1784000   1.783999e-07   1.049690e-01   1.790825e+01   4.087792e+00   2.270239e+04   1.039118e+05  -1.020914e+05  -5.806202e+10   1.008377e+10  -2.647861e+09   1.474304e+05   2.695085e-29   0.000000e+00   0.000000e+00
     1792000   1.791999e-07   1.049872e-01   1.790833e+01   4.087710e+00   2.265594e+04   1.039199e+05  -1.020935e+05  -5.806561e+10   1.005686e+10  -2.648783e+09   1.474304e+05   2.694992e-29   0.000000e+00   0.000000e+00
     1800000   1.799999e-07   1.050053e-01   1.790841e+01   4.087629e+00   2.260949e+04   1.039279e+05  -1.020956e+05  -5.806919e+10   1.002995e+10  -2.649704e+09   1.474304e+05   2.694899e-29   0.000000e+00   0.000000e+00
     1808000   1.807999e-07   1.050234e-01   1.790850e+01   4.087547e+00   2.256303e+04   1.039360e+05  -1.020977e+05  -5.807276e+10   1.000304e+10  -2.650625e+09   1.474304e+05   2.694806e-29   0.000000e+00   0.000000e+00
     1816000   1.815999e-07   1.050414e-01   1.790858e+01   4.087465e+00   2.251657e+04   1.039439e+05  -1.020998e+05  -5.807631e+10   9.976123e+09  -2.651544e+09   1.474304e+05   2.694713e-29   0.000000e+00   0.000000e+00
     1824000   1.823999e-07   1.050594e-01   1.790866e+01   4.087383e+00   2.247011e+04   1.039519e+05  -1.021020e+05  -5.807986e+10   9.949210e+09  -2.652462e+09   1.474304e+05   2.694621e-29   0.000000e+00   0.000000e+00
     1832000   1.831999e-07   1.050773e-01   1.790875e+01   4.087302e+00   2.242364e+04   1.039599e+05  -1.021041e+05  -5.808339e+10   9.922297e+09  -2.653379e+09   1.474304e+05   2.694528e-29   0.000000e+00   0.000000e+00
     1840000   1.839999e-07   1.050953e-01   1.790883e+01   4.087220e+00   2.237717e+04   1.039678e+05  -1.021062e+05  -5.808691e+10   9.895383e+09  -2.654296e+09   1.474304e+05   2.694435e-29   0.000000e+00   0.000000e+00
     1848000   1.847999e-07   1.051131e-01   1.790891e+01   4.087138e+00   2.233070e+04   1.039757e+05  -1.021083e+05  -5.809041e+10   9.868469e+09  -2.655211e+09   1.474304e+05   2.694343e-29   0.000000e+00   0.000000e+00
     1856000   1.855999e-07   1.051310e-01   1.790900e+01   4.087057e+00   2.228423e+04   1.039836e+05  -1.021104e+05  -5.809391e+10   9.841555e+09  -2.656126e+09   1.474304e+05   2.694250e-29   0.000000e+00   0.000000e+00
     1864000   1.863999e-07   1.051488e-01   1.790908e+01   4.086975e+00   2.223775e+04   1.039914e+05  -1.021126e+05  -5.809739e+10   9.814641e+09  -2.657039e+09   1.474304e+05   2.694157e-29   0.000000e+00   0.000000e+00
     1872000   1.871999e-07   1.051666e-01   1.790916e+01   4.086893e+00   2.219127e+04   1.039993e+05  -1.021147e+05  -5.810086e+10   9.787726e+09  -2.657952e+09   1.474304e+05   2.694065e-29   0.000000e+00   0.000000e+00
     1880000   1.879999e-07   1.051843e-01   1.790924e+01   4.086812e+00   2.214479e+04   1.040071e+05  -1.021168e+05  -5.810432e+10   9.760811e+09  -2.658864e+09   1.474304e+05   2.693972e-29   0.000000e+00   0.000000e+00
     1888000   1.887999e-07   1.052020e-01   1.790933e+01   4.086730e+00   2.209831e+04   1.040149e+05  -1.021190e+05  -5.810777e+10   9.733896e+09  -2.659775e+09   1.474304e+05   2.693880e-29   0.000000e+00   0.000000e+00
     1896000   1.895999e-07   1.052197e-01   1.790941e+01   4.086648e+00   2.205182e+04   1.040227e+05  -1.021211e+05  -5.811120e+10   9.706980e+09  -2.660684e+09   1.474304e+05   2.693787e-29   0.000000e+00   0.000000e+00
     1904000   1.903999e-07   1.052373e-01   1.790949e+01   4.086567e+00   2.200533e+04   1.040304e+05  -1.021232e+05  -5.811462e+10   9.680064e+09  -2.661593e+09   1.474304e+05   2.693695e-29   0.000000e+00   0.000000e+00
     1912000   1.911999e-07   1.052549e-01   1.790958e+01   4.086485e+00   2.195884e+04   1.040382e+05  -1.021253e+05  -5.811803e+10   9.653148e+09  -2.662501e+09   1.474304e+05   2.693603e-29   0.000000e+00   0.000000e+00
     1920000   1.919999e-07   1.052724e-01   1.790966e+01   4.086403e+00   2.191234e+04   1.040459e+05  -1.021275e+05  -5.812143e+10   9.626232e+09  -2.663408e+09   1.474304e+05   2.693511e-29   0.000000e+00   0.000000e+00
     1928000   1.927999e-07   1.052899e-01   1.790974e+01   4.086321e+00   2.186584e+04   1.040536e+05  -1.021296e+05  -5.812482e+10   9.599315e+09  -2.664314e+09   1.474304e+05   2.693418e-29   0.000000e+00   0.000000e+00
     1936000   1.935999e-07   1.053074e-01   1.790983e+01   4.086240e+00   2.181934e+04   1.040612e+05  -1.021317e+05  -5.812819e+10   9.572398e+09  -2.665220e+09   1.474304e+05   2.693326e-29   0.000000e+00   0.000000e+00
     1944000   1.943999e-07   1.053248e-01   1.790991e+01   4.086158e+00   2.177284e+04   1.040689e+05  -1.021339e+05  -5.813155e+10   9.545481e+09  -2.666124e+09   1.474304e+05   2.693234e-29   0.000000e+00   0.000000e+00
     1952000   1.951999e-07   1.053422e-01   1.790999e+01   4.086076e+00   2.172633e+04   1.040765e+05  -1.021360e+05  -5.813490e+10   9.518564e+09  -2.667027e+09   1.474304e+05   2.693142e-29   0.000000e+00   0.000000e+00
     1960000   1.959999e-07   1.053596e-01   1.791008e+01   4.085995e+00   2.167982e+04   1.040841e+05  -1.021381e+05  -5.813824e+10   9.491646e+09  -2.667930e+09   1.474304e+05   2.693050e-29   0.000000e+00   0.000000e+00
     1968000   1.967999e-07   1.053769e-01   1.791016e+01   4.085913e+00   2.163331e+04   1.040917e+05  -1.021403e+05  -5.814156e+10   9.464728e+09  -2.668831e+09   1.474304e+05   2.692958e-29   0.000000e+00   0.000000e+00
     1976000   1.975999e-07   1.053942e-01   1.791024e+01   4.085831e+00   2.158679e+04   1.040993e+05  -1.021424e+05  -5.814488e+10   9.437810e+09  -2.669731e+09   1.474304e+05   2.692866e-29   0.000000e+00   0.000000e+00
     1984000   1.983999e-07   1.054115e-01   1.791033e+01   4.085750e+00   2.154028e+04   1.041068e+05  -1.021445e+05  -5.814818e+10   9.410892e+09  -2.670631e+09   1.474304e+05   2.692774e-29   0.000000e+00   0.000000e+00
     1992000   1.991999e-07   1.054287e-01   1.791041e+01   4.085668e+00   2.149376e+04   1.041143e+05  -1.021467e+05  -5.815146e+10   9.383973e+09  -2.671530e+09   1.474304e+05   2.692682e-29   0.000000e+00   0.000000e+00
     2000000   1.999999e-07   1.054459e-01   1.791049e+01   4.085586e+00   2.144723e+04   1.041218e+05  -1.021488e+05  -5.815474e+10   9.357054e+09  -2.672427e+09   1.474304e+05   2.692590e-29   0.000000e+00   0.000000e+00
     2008000   2.007999e-07   1.054630e-01   1.791058e+01   4.085504e+00   2.140071e+04   1.041293e+05  -1.021509e+05  -5.815801e+10   9.330135e+09  -2.673324e+09   1.474304e+05   2.692498e-29   0.000000e+00   0.000000e+00
     2016000   2.015999e-07   1.054801e-01   1.791066e+01   4.085423e+00   2.135418e+04   1.041367e+05  -1.021531e+05  -5.816126e+10   9.303216e+09  -2.674220e+09   1.474304e+05   2.692406e-29   0.000000e+00   0.000000e+00
     2024000   2.023999e-07   1.054972e-01   1.791074e+01   4.085341e+00   2.130765e+04   1.041442e+05  -1.021552e+05  -5.816450e+10   9.276297e+09  -2.675115e+09   1.474304e+05   2.692315e-29   0.000000e+00   0.000000e+00
     2032000   2.031999e-07   1.055142e-01   1.791083e+01   4.085259e+00   2.126112e+04   1.041516e+05  -1.021574e+05  -5.816773e+10   9.249377e+09  -2.676008e+09   1.474304e+05   2.692223e-29   0.000000e+00   0.000000e+00
     2040000   2.039999e-07   1.055312e-01   1.791091e+01   4.085177e+00   2.121458e+04   1.041590e+05  -1.021595e+05  -5.817094e+10   9.222457e+09  -2.676901e+09   1.474304e+05   2.692131e-29   0.000000e+00   0.000000e+00
     2048000   2.047999e-07   1.055481e-01   1.791099e+01   4.085096e+00   2.116804e+04   1.041663e+05  -1.021617e+05  -5.817414e+10   9.195538e+09  -2.677793e+09   1.474304e+05   2.692040e-29   0.000000e+00   0.000000e+00
     2056000   2.055999e-07   1.055650e-01   1.791108e+01   4.085014e+00   2.112150e+04   1.041737e+05  -1.021638e+05  -5.817734e+10   9.168617e+09  -2.678684e+09   1.474304e+05   2.691948e-29   0.000000e+00   0.000000e+00
     2064000   2.063999e-07   1.055819e-01   1.791116e+01   4.084932e+00   2.107496e+04   1.041810e+05  -1.021659e+05  -5.818052e+10   9.141697e+09  -2.679574e+09   1.474304e+05   2.691857e-29   0.000000e+00   0.000000e+00
     2072000   2.071999e-07   1.055988e-01   1.791124e+01   4.084851e+00   2.102841e+04   1.041883e+05  -1.021681e+05  -5.818368e+10   9.114777e+09  -2.680463e+09   1.474304e+05   2.691765e-29   0.000000e+00   0.000000e+00
     2080000   2.079999e-07   1.056156e-01   1.791133e+01   4.084769e+00   2.098187e+04   1.041956e+05  -1.021702e+05  -5.818684e+10   9.087856e+09  -2.681352e+09   1.474304e+05   2.691674e-29   0.000000e+00   0.000000e+00
     2088000   2.087999e-07   1.056323e-01   1.791141e+01   4.084687e+00   2.093532e+04   1.042028e+05  -1.021724e+05  -5.818998e+10   9.060935e+09  -2.682239e+09   1.474304e+05   2.691582e-29   0.000000e+00   0.000000e+00
     2096000   2.095999e-07   1.056491e-01   1.791149e+01   4.084605e+00   2.088876e+04   1.042101e+05  -1.021745e+05  -5.819311e+10   9.034015e+09  -2.683125e+09   1.474304e+05   2.691491e-29   0.000000e+00   0.000000e+00
     2104000   2.103999e-07   1.056658e-01   1.791158e+01   4.084524e+00   2.084221e+04   1.042173e+05  -1.021767e+05  -5.819623e+10   9.007094e+09  -2.684010e+09   1.474304e+05   2.691399e-29   0.000000e+00   0.000000e+00
     2112000   2.111999e-07   1.056824e-01   1.791166e+01   4.084442e+00   2.079565e+04   1.042245e+05  -1.021788e+05  -5.819934e+10   8.980172e+09  -2.684895e+09   1.474304e+05   2.691308e-29   0.000000e+00   0.000000e+00
     2120000   2.119999e-07   1.056990e-01   1.791174e+01   4.084360e+00   2.074909e+04   1.042317e+05  -1.021810e+05  -5.820243e+10   8.953251e+09  -2.685778e+09   1.474304e+05   2.691217e-29   0.000000e+00   0.000000e+00
     2128000   2.127999e-07   1.057156e-01   1.791183e+01   4.084278e+00   2.070252e+04   1.042388e+05  -1.021831e+05  -5.820551e+10   8.926330e+09  -2.686661e+09   1.474304e+05   2.691126e-29   0.000000e+00   0.000000e+00
     2136000   2.135999e-07   1.057322e-01   1.791191e+01   4.084197e+00   2.065596e+04   1.042460e+05  -1.021853e+05  -5.820858e+10   8.899408e+09  -2.687542e+09   1.474304e+05   2.691034e-29   0.000000e+00   0.000000e+00
     2144000   2.143999e-07   1.057487e-01   1.791199e+01   4.084115e+00   2.060939e+04   1.042531e+05  -1.021874e+05  -5.821164e+10   8.872487e+09  -2.688423e+09   1.474304e+05   2.690943e-29   0.000000e+00   0.000000e+00
     2152000   2.151999e-07   1.057651e-01   1.791208e+01   4.084033e+00   2.056282e+04   1.042601e+05  -1.021896e+05  -5.821469e+10   8.845565e+09  -2.689302e+09   1.474304e+05   2.690852e-29   0.000000e+00   0.000000e+00
     2160000   2.159999e-07   1.057816e-01   1.791216e+01   4.083951e+00   2.051625e+04   1.042672e+05  -1.021917e+05  -5.821772e+10   8.818643e+09  -2.690181e+09   1.474304e+05   2.690761e-29   0.000000e+00   0.000000e+00
     2168000   2.167999e-07   1.057980e-01   1.791224e+01   4.083870e+00   2.046967e+04   1.042743e+05  -1.021939e+05  -5.822074e+10   8.791721e+09  -2.691059e+09   1.474304e+05   2.690670e-29   0.000000e+00   0.000000e+00
     2176000   2.175999e-07   1.058143e-01   1.791233e+01   4.083788e+00   2.042309e+04   1.042813e+05  -1.021960e+05  -5.822375e+10   8.764799e+09  -2.691935e+09   1.474304e+05   2.690579e-29   0.000000e+00   0.000000e+00
     2184000   2.183999e-07   1.058306e-01   1.791241e+01   4.083706e+00   2.037651e+04   1.042883e+05  -1.021982e+05  -5.822675e+10   8.737877e+09  -2.692811e+09   1.474304e+05   2.690488e-29   0.000000e+00   0.000000e+00
     2192000   2.191999e-07   1.058469e-01   1.791249e+01   4.083624e+00   2.032993e+04   1.042953e+05  -1.022003e+05  -5.822974e+10   8.710955e+09  -2.693686e+09   1.474304e+05   2.690397e-29   0.000000e+00   0.000000e+00
     2200000   2.199999e-07   1.058632e-01   1.791258e+01   4.083543e+00   2.028335e+04   1.043022e+05  -1.022025e+05  -5.823271e+10   8.684032e+09  -2.694560e+09   1.474304e+05   2.690306e-29   0.000000e+00   0.000000e+00
     2208000   2.207999e-07   1.058794e-01   1.791266e+01   4.083461e+00   2.023676e+04   1.043092e+05  -1.022046e+05  -5.823567e+10   8.657110e+09  -2.695433e+09   1.474304e+05   2.690215e-29   0.000000e+00   0.000000e+00
     2216000   2.215999e-07   1.058955e-01   1.791274e+01   4.083379e+00   2.019017e+04   1.043161e+05  -1.022068e+05  -5.823862e+10   8.630188e+09  -2.696305e+09   1.474304e+05   2.690125e-29   0.000000e+00   0.000000e+00
     2224000   2.223999e-07   1.059117e-01   1.791283e+01   4.083297e+00   2.014358e+04   1.043230e+05  -1.022090e+05  -5.824156e+10   8.603265e+09  -2.697176e+09   1.474304e+05   2.690034e-29   0.000000e+00   0.000000e+00
     2232000   2.231999e-07   1.059278e-01   1.791291e+01   4.083215e+00   2.009698e+04   1.043298e+05  -1.022111e+05  -5.824448e+10   8.576343e+09  -2.698046e+09   1.474304e+05   2.689943e-29   0.000000e+00   0.000000e+00
     2240000   2.239999e-07   1.059438e-01   1.791299e+01   4.083134e+00   2.005039e+04   1.043367e+05  -1.022133e+05  -5.824739e+10   8.549420e+09  -2.698915e+09   1.474304e+05   2.689853e-29   0.000000e+00   0.000000e+00
     2248000   2.247999e-07   1.059599e-01   1.791308e+01   4.083052e+00   2.000379e+04   1.043435e+05  -1.022154e+05  -5.825029e+10   8.522498e+09  -2.699783e+09   1.474304e+05   2.689762e-29   0.000000e+00   0.000000e+00
     2256000   2.255999e-07   1.059758e-01   1.791316e+01   4.082970e+00   1.995719e+04   1.043503e+05  -1.022176e+05  -5.825318e+10   8.495575e+09  -2.700650e+09   1.474304e+05   2.689671e-29   0.000000e+00   0.000000e+00
     2264000   2.263999e-07   1.059918e-01   1.791325e+01   4.082888e+00   1.991058e+04   1.043571e+05  -1.022197e+05  -5.825606e+10   8.468653e+09  -2.701516e+09   1.474304e+05   2.689581e-29   0.000000e+00   0.000000e+00
     2272000   2.271999e-07   1.060077e-01   1.791333e+01   4.082807e+00   1.986398e+04   1.043639e+05  -1.022219e+05  -5.825892e+10   8.441730e+09  -2.702381e+09   1.474304e+05   2.689490e-29   0.000000e+00   0.000000e+00
     2280000   2.279999e-07   1.060236e-01   1.791341e+01   4.082725e+00   1.981737e+04   1.043706e+05  -1.022241e+05  -5.826177e+10   8.414807e+09  -2.703246e+09   1.474304e+05   2.689400e-29   0.000000e+00   0.000000e+00
     2288000   2.287999e-07   1.060394e-01   1.791350e+01   4.082643e+00   1.977076e+04   1.043773e+05  -1.022262e+05  -5.826461e+10   8.387885e+09  -2.704109e+09   1.474304e+05   2.689309e-29   0.000000e+00   0.000000e+00
     2296000   2.295999e-07   1.060552e-01   1.791358e+01   4.082561e+00   1.972414e+04   1.043840e+05  -1.022284e+05  -5.826744e+10   8.360962e+09  -2.704971e+09   1.474304e+05   2.689219e-29   0.000000e+00   0.000000e+00
     2304000   2.303999e-07   1.060710e-01   1.791366e+01   4.082480e+00   1.967753e+04   1.043907e+05  -1.022306e+05  -5.827026e+10   8.334039e+09  -2.705832e+09   1.474304e+05   2.689129e-29   0.000000e+00   0.000000e+00
     2312000   2.311999e-07   1.060867e-01   1.791375e+01   4.082398e+00   1.963091e+04   1.043974e+05  -1.022327e+05  -5.827306e+10   8.307116e+09  -2.706693e+09   1.474304e+05   2.689038e-29   0.000000e+00   0.000000e+00
     2320000   2.319999e-07   1.061024e-01   1.791383e+01   4.082316e+00   1.958429e+04   1.044040e+05  -1.022349e+05  -5.827585e+10   8.280194e+09  -2.707552e+09   1.474304e+05   2.688948e-29   0.000000e+00   0.000000e+00
     2328000   2.327999e-07   1.061180e-01   1.791391e+01   4.082234e+00   1.953767e+04   1.044106e+05  -1.022371e+05  -5.827863e+10   8.253271e+09  -2.708411e+09   1.474304e+05   2.688858e-29   0.000000e+00   0.000000e+00
     2336000   2.335999e-07   1.061336e-01   1.791400e+01   4.082152e+00   1.949105e+04   1.044172e+05  -1.022392e+05  -5.828140e+10   8.226348e+09  -2.709268e+09   1.474304e+05   2.688767e-29   0.000000e+00   0.000000e+00
     2344000   2.343999e-07   1.061492e-01   1.791408e+01   4.082071e+00   1.944442e+04   1.044238e+05  -1.022414e+05  -5.828415e+10   8.199426e+09  -2.710125e+09   1.474304e+05   2.688677e-29   0.000000e+00   0.000000e+00
     2352000   2.351999e-07   1.061647e-01   1.791416e+01   4.081989e+00   1.939779e+04   1.044303e+05  -1.022436e+05  -5.828690e+10   8.172503e+09  -2.710980e+09   1.474304e+05   2.688587e-29   0.000000e+00   0.000000e+00
     2360000   2.359999e-07   1.061802e-01   1.791425e+01   4.081907e+00   1.935116e+04   1.044369e+05  -1.022457e+05  -5.828963e+10   8.145581e+09  -2.711835e+09   1.474304e+05   2.688497e-29   0.000000e+00   0.000000e+00
     2368000   2.367999e-07   1.061957e-01   1.791433e+01   4.081825e+00   1.930453e+04   1.044434e+05  -1.022479e+05  -5.829235e+10   8.118658e+09  -2.712688e+09   1.474304e+05   2.688407e-29   0.000000e+00   0.000000e+00
     2376000   2.375999e-07   1.062111e-01   1.791441e+01   4.081743e+00   1.925789e+04   1.044498e+05  -1.022501e+05  -5.829505e+10   8.091736e+09  -2.713541e+09   1.474304e+05   2.688317e-29   0.000000e+00   0.000000e+00
     2384000   2.383999e-07   1.062265e-01   1.791450e+01   4.081662e+00   1.921126e+04   1.044563e+05  -1.022522e+05  -5.829775e+10   8.064813e+09  -2.714392e+09   1.474304e+05   2.688227e-29   0.000000e+00   0.000000e+00
     2392000   2.391999e-07   1.062419e-01   1.791458e+01   4.081580e+00   1.916462e+04   1.044627e+05  -1.022544e+05  -5.830043e+10   8.037891e+09  -2.715243e+09   1.474304e+05   2.688137e-29   0.000000e+00   0.000000e+00
     2400000   2.399999e-07   1.062572e-01   1.791467e+01   4.081498e+00   1.911798e+04   1.044692e+05  -1.022566e+05  -5.830310e+10   8.010969e+09  -2.716093e+09   1.474304e+05   2.688047e-29   0.000000e+00   0.000000e+00
     2408000   2.407999e-07   1.062725e-01   1.791475e+01   4.081416e+00   1.907133e+04   1.044756e+05  -1.022588e+05  -5.830576e+10   7.984047e+09  -2.716942e+09   1.474304e+05   2.687957e-29   0.000000e+00   0.000000e+00
     2416000   2.415999e-07   1.062877e-01   1.791483e+01   4.081334e+00   1.902469e+04   1.044819e+05  -1.022609e+05  -5.830841e+10   7.957125e+09  -2.717789e+09   1.474304e+05   2.687867e-29   0.000000e+00   0.000000e+00
     2424000   2.423999e-07   1.063029e-01   1.791492e+01   4.081253e+00   1.897804e+04   1.044883e+05  -1.022631e+05  -5.831104e+10   7.930202e+09  -2.718636e+09   1.474304e+05   2.687778e-29   0.000000e+00   0.000000e+00
     2432000   2.431999e-07   1.063181e-01   1.791500e+01   4.081171e+00   1.893139e+04   1.044946e+05  -1.022653e+05  -5.831366e+10   7.903281e+09  -2.719482e+09   1.474304e+05   2.687688e-29   0.000000e+00   0.000000e+00
     2440000   2.439999e-07   1.063332e-01   1.791508e+01   4.081089e+00   1.888474e+04   1.045009e+05  -1.022675e+05  -5.831627e+10   7.876359e+09  -2.720327e+09   1.474304e+05   2.687598e-29   0.000000e+00   0.000000e+00
     2448000   2.447999e-07   1.063483e-01   1.791517e+01   4.081007e+00   1.883808e+04   1.045072e+05  -1.022696e+05  -5.831887e+10   7.849437e+09  -2.721170e+09   1.474304e+05   2.687509e-29   0.000000e+00   0.000000e+00
     2456000   2.455999e-07   1.063633e-01   1.791525e+01   4.080925e+00   1.879143e+04   1.045135e+05  -1.022718e+05  -5.832146e+10   7.822515e+09  -2.722013e+09   1.474304e+05   2.687419e-29   0.000000e+00   0.000000e+00
     2464000   2.463999e-07   1.063783e-01   1.791533e+01   4.080843e+00   1.874477e+04   1.045197e+05  -1.022740e+05  -5.832403e+10   7.795594e+09  -2.722855e+09   1.474304e+05   2.687329e-29   0.000000e+00   0.000000e+00
     2472000   2.471999e-07   1.063933e-01   1.791542e+01   4.080762e+00   1.869811e+04   1.045260e+05  -1.022762e+05  -5.832659e+10   7.768672e+09  -2.723696e+09   1.474304e+05   2.687240e-29   0.000000e+00   0.000000e+00
     2480000   2.479999e-07   1.064083e-01   1.791550e+01   4.080680e+00   1.865145e+04   1.045322e+05  -1.022784e+05  -5.832914e+10   7.741751e+09  -2.724536e+09   1.474304e+05   2.687150e-29   0.000000e+00   0.000000e+00
     2488000   2.487999e-07   1.064232e-01   1.791559e+01   4.080598e+00   1.860478e+04   1.045384e+05  -1.022805e+05  -5.833168e+10   7.714830e+09  -2.725375e+09   1.474304e+05   2.687061e-29   0.000000e+00   0.000000e+00
     2496000   2.495999e-07   1.064380e-01   1.791567e+01   4.080516e+00   1.855812e+04   1.045445e+05  -1.022827e+05  -5.833420e+10   7.687909e+09  -2.726213e+09   1.474304e+05   2.686971e-29   0.000000e+00   0.000000e+00
     2504000   2.503999e-07   1.064529e-01   1.791575e+01   4.080434e+00   1.851145e+04   1.045507e+05  -1.022849e+05  -5.833671e+10   7.660988e+09  -2.727050e+09   1.474304e+05   2.686882e-29   0.000000e+00   0.000000e+00
     2512000   2.511999e-07   1.064676e-01   1.791584e+01   4.080353e+00   1.846478e+04   1.045568e+05  -1.022871e+05  -5.833922e+10   7.634067e+09  -2.727886e+09   1.474304e+05   2.686792e-29   0.000000e+00   0.000000e+00
     2520000   2.519999e-07   1.064824e-01   1.791592e+01   4.080271e+00   1.841810e+04   1.045629e+05  -1.022893e+05  -5.834170e+10   7.607147e+09  -2.728721e+09   1.474304e+05   2.686703e-29   0.000000e+00   0.000000e+00
     2528000   2.527999e-07   1.064971e-01   1.791600e+01   4.080189e+00   1.837143e+04   1.045690e+05  -1.022914e+05  -5.834418e+10   7.580226e+09  -2.729555e+09   1.474304e+05   2.686614e-29   0.000000e+00   0.000000e+00
     2536000   2.535999e-07   1.065118e-01   1.791609e+01   4.080107e+00   1.832475e+04   1.045750e+05  -1.022936e+05  -5.834665e+10   7.553306e+09  -2.730388e+09   1.474304e+05   2.686525e-29   0.000000e+00   0.000000e+00
     2544000   2.543999e-07   1.065264e-01   1.791617e+01   4.080025e+00   1.827808e+04   1.045810e+05  -1.022958e+05  -5.834910e+10   7.526386e+09  -2.731220e+09   1.474304e+05   2.686435e-29   0.000000e+00   0.000000e+00
     2552000   2.551999e-07   1.065410e-01   1.791625e+01   4.079943e+00   1.823140e+04   1.045870e+05  -1.022980e+05  -5.835154e+10   7.499466e+09  -2.732051e+09   1.474304e+05   2.686346e-29   0.000000e+00   0.000000e+00
     2560000   2.559999e-07   1.065556e-01   1.791634e+01   4.079862e+00   1.818471e+04   1.045930e+05  -1.023002e+05  -5.835397e+10   7.472546e+09  -2.732881e+09   1.474304e+05   2.686257e-29   0.000000e+00   0.000000e+00
     2568000   2.567999e-07   1.065701e-01   1.791642e+01   4.079780e+00   1.813803e+04   1.045990e+05  -1.023024e+05  -5.835638e+10   7.445626e+09  -2.733710e+09   1.474304e+05   2.686168e-29   0.000000e+00   0.000000e+00
     2576000   2.575999e-07   1.065846e-01   1.791651e+01   4.079698e+00   1.809134e+04   1.046049e+05  -1.023046e+05  -5.835879e+10   7.418707e+09  -2.734538e+09   1.474304e+05   2.686079e-29   0.000000e+00   0.000000e+00
     2584000   2.583999e-07   1.065991e-01   1.791659e+01   4.079616e+00   1.804465e+04   1.046109e+05  -1.023067e+05  -5.836118e+10   7.391788e+09  -2.735365e+09   1.474304e+05   2.685990e-29   0.000000e+00   0.000000e+00
     2592000   2.591999e-07   1.066135e-01   1.791667e+01   4.079534e+00   1.799796e+04   1.046168e+05  -1.023089e+05  -5.836356e+10   7.364869e+09  -2.736191e+09   1.474304e+05   2.685901e-29   0.000000e+00   0.000000e+00
     2600000   2.599999e-07   1.066279e-01   1.791676e+01   4.079452e+00   1.795127e+04   1.046227e+05  -1.023111e+05  -5.836593e+10   7.337950e+09  -2.737016e+09   1.474304e+05   2.685812e-29   0.000000e+00   0.000000e+00
     2608000   2.607999e-07   1.066422e-01   1.791684e+01   4.079370e+00   1.790458e+04   1.046285e+05  -1.023133e+05  -5.836828e+10   7.311031e+09  -2.737841e+09   1.474304e+05   2.685723e-29   0.000000e+00   0.000000e+00
     2616000   2.615999e-07   1.066565e-01   1.791692e+01   4.079289e+00   1.785788e+04   1.046344e+05  -1.023155e+05  -5.837063e+10   7.284113e+09  -2.738664e+09   1.474304e+05   2.685634e-29   0.000000e+00   0.000000e+00
     2624000   2.623999e-07   1.066708e-01   1.791701e+01   4.079207e+00   1.781119e+04   1.046402e+05  -1.023177e+05  -5.837296e+10   7.257195e+09  -2.739486e+09   1.474304e+05   2.685545e-29   0.000000e+00   0.000000e+00
     2632000   2.631999e-07   1.066850e-01   1.791709e+01   4.079125e+00   1.776449e+04   1.046460e+05  -1.023199e+05  -5.837528e+10   7.230277e+09  -2.740307e+09   1.474304e+05   2.685456e-29   0.000000e+00   0.000000e+00
     2640000   2.639999e-07   1.066992e-01   1.791717e+01   4.079043e+00   1.771779e+04   1.046517e+05  -1.023221e+05  -5.837759e+10   7.203359e+09  -2.741127e+09   1.474304e+05   2.685368e-29   0.000000e+00   0.000000e+00
     2648000   2.647999e-07   1.067134e-01   1.791726e+01   4.078961e+00   1.767108e+04   1.046575e+05  -1.023243e+05  -5.837988e+10   7.176442e+09  -2.741946e+09   1.474304e+05   2.685279e-29   0.000000e+00   0.000000e+00
     2656000   2.655999e-07   1.067275e-01   1.791734e+01   4.078879e+00   1.762438e+04   1.046632e+05  -1.023265e+05  -5.838216e+10   7.149524e+09  -2.742765e+09   1.474304e+05   2.685190e-29   0.000000e+00   0.000000e+00
     2664000   2.663999e-07   1.067416e-01   1.791743e+01   4.078797e+00   1.757767e+04   1.046689e+05  -1.023287e+05  -5.838443e+10   7.122607e+09  -2.743582e+09   1.474304e+05   2.685101e-29   0.000000e+00   0.000000e+00
     2672000   2.671999e-07   1.067556e-01   1.791751e+01   4.078716e+00   1.753096e+04   1.046746e+05  -1.023309e+05  -5.838669e+10   7.095691e+09  -2.744398e+09   1.474304e+05   2.685013e-29   0.000000e+00   0.000000e+00
     2680000   2.679999e-07   1.067696e-01   1.791759e+01   4.078634e+00   1.748425e+04   1.046803e+05  -1.023331e+05  -5.838894e+10   7.068774e+09  -2.745213e+09   1.474304e+05   2.684924e-29   0.000000e+00   0.000000e+00
     2688000   2.687999e-07   1.067836e-01   1.791768e+01   4.078552e+00   1.743754e+04   1.046859e+05  -1.023352e+05  -5.839118e+10   7.041858e+09  -2.746028e+09   1.474304e+05   2.684836e-29   0.000000e+00   0.000000e+00
     2696000   2.695999e-07   1.067975e-01   1.791776e+01   4.078470e+00   1.739083e+04   1.046916e+05  -1.023374e+05  -5.839340e+10   7.014942e+09  -2.746841e+09   1.474304e+05   2.684747e-29   0.000000e+00   0.000000e+00
     2704000   2.703999e-07   1.068114e-01   1.791784e+01   4.078388e+00   1.734411e+04   1.046972e+05  -1.023396e+05  -5.839561e+10   6.988026e+09  -2.747653e+09   1.474304e+05   2.684659e-29   0.000000e+00   0.000000e+00
     2712000   2.711999e-07   1.068253e-01   1.791793e+01   4.078306e+00   1.729739e+04   1.047027e+05  -1.023418e+05  -5.839781e+10   6.961111e+09  -2.748464e+09   1.474304e+05   2.684570e-29   0.000000e+00   0.000000e+00
     2720000   2.719999e-07   1.068391e-01   1.791801e+01   4.078224e+00   1.725067e+04   1.047083e+05  -1.023440e+05  -5.839999e+10   6.934196e+09  -2.749274e+09   1.474304e+05   2.684482e-29   0.000000e+00   0.000000e+00
     2728000   2.727999e-07   1.068529e-01   1.791810e+01   4.078142e+00   1.720395e+04   1.047138e+05  -1.023462e+05  -5.840217e+10   6.907281e+09  -2.750084e+09   1.474304e+05   2.684393e-29   0.000000e+00   0.000000e+00
     2736000   2.735999e-07   1.068666e-01   1.791818e+01   4.078061e+00   1.715723e+04   1.047193e+05  -1.023484e+05  -5.840433e+10   6.880367e+09  -2.750892e+09   1.474304e+05   2.684305e-29   0.000000e+00   0.000000e+00
     2744000   2.743999e-07   1.068803e-01   1.791826e+01   4.077979e+00   1.711051e+04   1.047248e+05  -1.023506e+05  -5.840648e+10   6.853452e+09  -2.751699e+09   1.474304e+05   2.684217e-29   0.000000e+00   0.000000e+00
     2752000   2.751999e-07   1.068940e-01   1.791835e+01   4.077897e+00   1.706378e+04   1.047303e+05  -1.023528e+05  -5.840862e+10   6.826539e+09  -2.752505e+09   1.474304e+05   2.684129e-29   0.000000e+00   0.000000e+00
     2760000   2.759999e-07   1.069076e-01   1.791843e+01   4.077815e+00   1.701705e+04   1.047358e+05  -1.023550e+05  -5.841075e+10   6.799625e+09  -2.753311e+09   1.474304e+05   2.684040e-29   0.000000e+00   0.000000e+00
     2768000   2.767999e-07   1.069212e-01   1.791851e+01   4.077733e+00   1.697032e+04   1.047412e+05  -1.023572e+05  -5.841286e+10   6.772712e+09  -2.754115e+09   1.474304e+05   2.683952e-29   0.000000e+00   0.000000e+00
     2776000   2.775999e-07   1.069348e-01   1.791860e+01   4.077651e+00   1.692359e+04   1.047466e+05  -1.023595e+05  -5.841496e+10   6.745799e+09  -2.754918e+09   1.474304e+05   2.683864e-29   0.000000e+00   0.000000e+00
     2784000   2.783999e-07   1.069483e-01   1.791868e+01   4.077569e+00   1.687686e+04   1.047520e+05  -1.023617e+05  -5.841705e+10   6.718886e+09  -2.755720e+09   1.474304e+05   2.683776e-29   0.000000e+00   0.000000e+00
     2792000   2.791999e-07   1.069618e-01   1.791877e+01   4.077487e+00   1.683013e+04   1.047573e+05  -1.023639e+05  -5.841913e+10   6.691974e+09  -2.756522e+09   1.474304e+05   2.683688e-29   0.000000e+00   0.000000e+00
     2800000   2.799999e-07   1.069752e-01   1.791885e+01   4.077406e+00   1.678339e+04   1.047627e+05  -1.023661e+05  -5.842119e+10   6.665062e+09  -2.757322e+09   1.474304e+05   2.683600e-29   0.000000e+00   0.000000e+00
     2808000   2.807999e-07   1.069886e-01   1.791893e+01   4.077324e+00   1.673665e+04   1.047680e+05  -1.023683e+05  -5.842325e+10   6.638150e+09  -2.758121e+09   1.474304e+05   2.683512e-29   0.000000e+00   0.000000e+00
     2816000   2.815999e-07   1.070020e-01   1.791902e+01   4.077242e+00   1.668991e+04   1.047733e+05  -1.023705e+05  -5.842529e+10   6.611239e+09  -2.758919e+09   1.474304e+05   2.683424e-29   0.000000e+00   0.000000e+00
     2824000   2.823999e-07   1.070153e-01   1.791910e+01   4.077160e+00   1.664317e+04   1.047786e+05  -1.023727e+05  -5.842732e+10   6.584328e+09  -2.759716e+09   1.474304e+05   2.683336e-29   0.000000e+00   0.000000e+00
     2832000   2.831999e-07   1.070286e-01   1.791919e+01   4.077078e+00   1.659643e+04   1.047838e+05  -1.023749e+05  -5.842934e+10   6.557418e+09  -2.760513e+09   1.474304e+05   2.683248e-29   0.000000e+00   0.000000e+00
     2840000   2.839999e-07   1.070419e-01   1.791927e+01   4.076996e+00   1.654968e+04   1.047891e+05  -1.023771e+05  -5.843134e+10   6.530508e+09  -2.761308e+09   1.474304e+05   2.683160e-29   0.000000e+00   0.000000e+00
     2848000   2.847999e-07   1.070551e-01   1.791935e+01   4.076914e+00   1.650294e+04   1.047943e+05  -1.023793e+05  -5.843334e+10   6.503598e+09  -2.762102e+09   1.474304e+05   2.683072e-29   0.000000e+00   0.000000e+00
     2856000   2.855999e-07   1.070683e-01   1.791944e+01   4.076832e+00   1.645619e+04   1.047995e+05  -1.023815e+05  -5.843532e+10   6.476689e+09  -2.762895e+09   1.474304e+05   2.682984e-29   0.000000e+00   0.000000e+00
     2864000   2.863999e-07   1.070814e-01   1.791952e+01   4.076750e+00   1.640944e+04   1.048047e+05  -1.023837e+05  -5.843729e+10   6.449780e+09  -2.763687e+09   1.474304e+05   2.682897e-29   0.000000e+00   0.000000e+00
     2872000   2.871999e-07   1.070945e-01   1.791960e+01   4.076668e+00   1.636269e+04   1.048098e+05  -1.023859e+05  -5.843924e+10   6.422871e+09  -2.764479e+09   1.474304e+05   2.682809e-29   0.000000e+00   0.000000e+00
     2880000   2.879999e-07   1.071076e-01   1.791969e+01   4.076587e+00   1.631594e+04   1.048149e+05  -1.023882e+05  -5.844119e+10   6.395963e+09  -2.765269e+09   1.474304e+05   2.682721e-29   0.000000e+00   0.000000e+00
     2888000   2.887999e-07   1.071207e-01   1.791977e+01   4.076505e+00   1.626919e+04   1.048200e+05  -1.023904e+05  -5.844312e+10   6.369055e+09  -2.766058e+09   1.474304e+05   2.682633e-29   0.000000e+00   0.000000e+00
     2896000   2.895999e-07   1.071337e-01   1.791986e+01   4.076423e+00   1.622243e+04   1.048251e+05  -1.023926e+05  -5.844504e+10   6.342148e+09  -2.766846e+09   1.474304e+05   2.682546e-29   0.000000e+00   0.000000e+00
     2904000   2.903999e-07   1.071466e-01   1.791994e+01   4.076341e+00   1.617567e+04   1.048302e+05  -1.023948e+05  -5.844695e+10   6.315241e+09  -2.767633e+09   1.474304e+05   2.682458e-29   0.000000e+00   0.000000e+00
     2912000   2.911999e-07   1.071595e-01   1.792002e+01   4.076259e+00   1.612891e+04   1.048352e+05  -1.023970e+05  -5.844885e+10   6.288334e+09  -2.768419e+09   1.474304e+05   2.682371e-29   0.000000e+00   0.000000e+00
     2920000   2.919999e-07   1.071724e-01   1.792011e+01   4.076177e+00   1.608215e+04   1.048402e+05  -1.023992e+05  -5.845073e+10   6.261428e+09  -2.769205e+09   1.474304e+05   2.682283e-29   0.000000e+00   0.000000e+00
     2928000   2.927999e-07   1.071853e-01   1.792019e+01   4.076095e+00   1.603539e+04   1.048452e+05  -1.024014e+05  -5.845260e+10   6.234522e+09  -2.769989e+09   1.474304e+05   2.682196e-29   0.000000e+00   0.000000e+00
     2936000   2.935999e-07   1.071981e-01   1.792028e+01   4.076013e+00   1.598863e+04   1.048502e+05  -1.024037e+05  -5.845446e+10   6.207617e+09  -2.770772e+09   1.474304e+05   2.682108e-29   0.000000e+00   0.000000e+00
     2944000   2.943999e-07   1.072108e-01   1.792036e+01   4.075931e+00   1.594187e+04   1.048552e+05  -1.024059e+05  -5.845631e+10   6.180712e+09  -2.771554e+09   1.474304e+05   2.682021e-29   0.000000e+00   0.000000e+00
     2952000   2.951999e-07   1.072236e-01   1.792044e+01   4.075849e+00   1.589510e+04   1.048601e+05  -1.024081e+05  -5.845815e+10   6.153808e+09  -2.772335e+09   1.474304e+05   2.681933e-29   0.000000e+00   0.000000e+00
     2960000   2.959999e-07   1.072363e-01   1.792053e+01   4.075767e+00   1.584833e+04   1.048650e+05  -1.024103e+05  -5.845997e+10   6.126904e+09  -2.773115e+09   1.474304e+05   2.681846e-29   0.000000e+00   0.000000e+00
     2968000   2.967999e-07   1.072489e-01   1.792061e+01   4.075685e+00   1.580156e+04   1.048699e+05  -1.024125e+05  -5.846179e+10   6.100001e+09  -2.773894e+09   1.474304e+05   2.681759e-29   0.000000e+00   0.000000e+00
     2976000   2.975999e-07   1.072616e-01   1.792070e+01   4.075603e+00   1.575479e+04   1.048748e+05  -1.024147e+05  -5.846359e+10   6.073098e+09  -2.774672e+09   1.474304e+05   2.681672e-29   0.000000e+00   0.000000e+00
     2984000   2.983999e-07   1.072741e-01   1.792078e+01   4.075522e+00   1.570802e+04   1.048796e+05  -1.024170e+05  -5.846537e+10   6.046195e+09  -2.775449e+09   1.474304e+05   2.681584e-29   0.000000e+00   0.000000e+00
     2992000   2.991999e-07   1.072867e-01   1.792086e+01   4.075440e+00   1.566125e+04   1.048845e+05  -1.024192e+05  -5.846715e+10   6.019293e+09  -2.776225e+09   1.474304e+05   2.681497e-29   0.000000e+00   0.000000e+00
     3000000   2.999999e-07   1.072992e-01   1.792095e+01   4.075358e+00   1.561448e+04   1.048893e+05  -1.024214e+05  -5.846891e+10   5.992392e+09  -2.777000e+09   1.474304e+05   2.681410e-29   0.000000e+00   0.000000e+00
     3008000   3.007999e-07   1.073117e-01   1.792103e+01   4.075276e+00   1.556770e+04   1.048940e+05  -1.024236e+05  -5.847067e+10   5.965490e+09  -2.777774e+09   1.474304e+05   2.681323e-29   0.000000e+00   0.000000e+00
     3016000   3.015999e-07   1.073241e-01   1.792111e+01   4.075194e+00   1.552092e+04   1.048988e+05  -1.024259e+05  -5.847241e+10   5.938590e+09  -2.778547e+09   1.474304e+05   2.681236e-29   0.000000e+00   0.000000e+00
     3024000   3.023999e-07   1.073365e-01   1.792120e+01   4.075112e+00   1.547414e+04   1.049035e+05  -1.024281e+05  -5.847413e+10   5.911690e+09  -2.779319e+09   1.474304e+05   2.681149e-29   0.000000e+00   0.000000e+00
     3032000   3.031999e-07   1.073489e-01   1.792128e+01   4.075030e+00   1.542736e+04   1.049083e+05  -1.024303e+05  -5.847585e+10   5.884790e+09  -2.780090e+09   1.474304e+05   2.681062e-29   0.000000e+00   0.000000e+00
     3040000   3.039999e-07   1.073612e-01   1.792137e+01   4.074948e+00   1.538058e+04   1.049130e+05  -1.024325e+05  -5.847755e+10   5.857891e+09  -2.780860e+09   1.474304e+05   2.680975e-29   0.000000e+00   0.000000e+00
     3048000   3.047999e-07   1.073735e-01   1.792145e+01   4.074866e+00   1.533380e+04   1.049176e+05  -1.024348e+05  -5.847925e+10   5.830993e+09  -2.781628e+09   1.474304e+05   2.680888e-29   0.000000e+00   0.000000e+00
     3056000   3.055999e-07   1.073857e-01   1.792153e+01   4.074784e+00   1.528702e+04   1.049223e+05  -1.024370e+05  -5.848093e+10   5.804094e+09  -2.782396e+09   1.474304e+05   2.680801e-29   0.000000e+00   0.000000e+00
     3064000   3.063999e-07   1.073979e-01   1.792162e+01   4.074702e+00   1.524023e+04   1.049269e+05  -1.024392e+05  -5.848259e+10   5.777197e+09  -2.783163e+09   1.474304e+05   2.680714e-29   0.000000e+00   0.000000e+00
     3072000   3.071999e-07   1.074101e-01   1.792170e+01   4.074620e+00   1.519344e+04   1.049315e+05  -1.024414e+05  -5.848425e+10   5.750300e+09  -2.783929e+09   1.474304e+05   2.680627e-29   0.000000e+00   0.000000e+00
     3080000   3.079999e-07   1.074222e-01   1.792179e+01   4.074538e+00   1.514666e+04   1.049361e+05  -1.024437e+05  -5.848589e+10   5.723403e+09  -2.784694e+09   1.474304e+05   2.680540e-29   0.000000e+00   0.000000e+00
     3088000   3.087999e-07   1.074343e-01   1.792187e+01   4.074456e+00   1.509987e+04   1.049407e+05  -1.024459e+05  -5.848752e+10   5.696508e+09  -2.785458e+09   1.474304e+05   2.680453e-29   0.000000e+00   0.000000e+00
     3096000   3.095999e-07   1.074464e-01   1.792195e+01   4.074374e+00   1.505308e+04   1.049452e+05  -1.024481e+05  -5.848914e+10   5.669612e+09  -2.786220e+09   1.474304e+05   2.680367e-29   0.000000e+00   0.000000e+00
     3104000   3.103999e-07   1.074584e-01   1.792204e+01   4.074292e+00   1.500628e+04   1.049498e+05  -1.024503e+05  -5.849075e+10   5.642717e+09  -2.786982e+09   1.474304e+05   2.680280e-29   0.000000e+00   0.000000e+00
     3112000   3.111999e-07   1.074704e-01   1.792212e+01   4.074210e+00   1.495949e+04   1.049543e+05  -1.024526e+05  -5.849234e+10   5.615823e+09  -2.787743e+09   1.474304e+05   2.680193e-29   0.000000e+00   0.000000e+00
     3120000   3.119999e-07   1.074824e-01   1.792221e+01   4.074128e+00   1.491270e+04   1.049587e+05  -1.024548e+05  -5.849393e+10   5.588929e+09  -2.788502e+09   1.474304e+05   2.680106e-29   0.000000e+00   0.000000e+00
     3128000   3.127999e-07   1.074943e-01   1.792229e+01   4.074046e+00   1.486590e+04   1.049632e+05  -1.024570e+05  -5.849550e+10   5.562036e+09  -2.789261e+09   1.474304e+05   2.680020e-29   0.000000e+00   0.000000e+00
     3136000   3.135999e-07   1.075062e-01   1.792237e+01   4.073964e+00   1.481910e+04   1.049676e+05  -1.024593e+05  -5.849706e+10   5.535144e+09  -2.790019e+09   1.474304e+05   2.679933e-29   0.000000e+00   0.000000e+00
     3144000   3.143999e-07   1.075180e-01   1.792246e+01   4.073882e+00   1.477230e+04   1.049721e+05  -1.024615e+05  -5.849861e+10   5.508252e+09  -2.790775e+09   1.474304e+05   2.679847e-29   0.000000e+00   0.000000e+00
     3152000   3.151999e-07   1.075298e-01   1.792254e+01   4.073801e+00   1.472551e+04   1.049765e+05  -1.024637e+05  -5.850014e+10   5.481360e+09  -2.791531e+09   1.474304e+05   2.679760e-29   0.000000e+00   0.000000e+00
     3160000   3.159999e-07   1.075415e-01   1.792263e+01   4.073719e+00   1.467870e+04   1.049808e+05  -1.024660e+05  -5.850166e+10   5.454469e+09  -2.792285e+09   1.474304e+05   2.679674e-29   0.000000e+00   0.000000e+00
     3168000   3.167999e-07   1.075533e-01   1.792271e+01   4.073637e+00   1.463190e+04   1.049852e+05  -1.024682e+05  -5.850317e+10   5.427579e+09  -2.793039e+09   1.474304e+05   2.679587e-29   0.000000e+00   0.000000e+00
     3176000   3.175999e-07   1.075650e-01   1.792279e+01   4.073555e+00   1.458510e+04   1.049895e+05  -1.024704e+05  -5.850467e+10   5.400690e+09  -2.793791e+09   1.474304e+05   2.679501e-29   0.000000e+00   0.000000e+00
     3184000   3.183999e-07   1.075766e-01   1.792288e+01   4.073473e+00   1.453830e+04   1.049938e+05  -1.024727e+05  -5.850616e+10   5.373801e+09  -2.794543e+09   1.474304e+05   2.679414e-29   0.000000e+00   0.000000e+00
     3192000   3.191999e-07   1.075882e-01   1.792296e+01   4.073391e+00   1.449149e+04   1.049981e+05  -1.024749e+05  -5.850763e+10   5.346912e+09  -2.795293e+09   1.474304e+05   2.679328e-29   0.000000e+00   0.000000e+00
     3200000   3.199999e-07   1.075998e-01   1.792305e+01   4.073309e+00   1.444468e+04   1.050024e+05  -1.024771e+05  -5.850910e+10   5.320024e+09  -2.796043e+09   1.474304e+05   2.679242e-29   0.000000e+00   0.000000e+00
     3208000   3.207999e-07   1.076113e-01   1.792313e+01   4.073227e+00   1.439787e+04   1.050066e+05  -1.024794e+05  -5.851055e+10   5.293137e+09  -2.796791e+09   1.474304e+05   2.679156e-29   0.000000e+00   0.000000e+00
     3216000   3.215999e-07   1.076228e-01   1.792321e+01   4.073145e+00   1.435107e+04   1.050109e+05  -1.024816e+05  -5.851199e+10   5.266251e+09  -2.797538e+09   1.474304e+05   2.679069e-29   0.000000e+00   0.000000e+00
     3224000   3.223999e-07   1.076343e-01   1.792330e+01   4.073063e+00   1.430426e+04   1.050151e+05  -1.024839e+05  -5.851341e+10   5.239365e+09  -2.798285e+09   1.474304e+05   2.678983e-29   0.000000e+00   0.000000e+00
     3232000   3.231999e-07   1.076457e-01   1.792338e+01   4.072981e+00   1.425744e+04   1.050192e+05  -1.024861e+05  -5.851483e+10   5.212479e+09  -2.799030e+09   1.474304e+05   2.678897e-29   0.000000e+00   0.000000e+00
     3240000   3.239999e-07   1.076571e-01   1.792347e+01   4.072899e+00   1.421063e+04   1.050234e+05  -1.024883e+05  -5.851623e+10   5.185595e+09  -2.799774e+09   1.474304e+05   2.678811e-29   0.000000e+00   0.000000e+00
     3248000   3.247999e-07   1.076685e-01   1.792355e+01   4.072817e+00   1.416382e+04   1.050275e+05  -1.024906e+05  -5.851762e+10   5.158711e+09  -2.800517e+09   1.474304e+05   2.678725e-29   0.000000e+00   0.000000e+00
     3256000   3.255999e-07   1.076798e-01   1.792363e+01   4.072735e+00   1.411700e+04   1.050317e+05  -1.024928e+05  -5.851900e+10   5.131828e+09  -2.801260e+09   1.474304e+05   2.678639e-29   0.000000e+00   0.000000e+00
     3264000   3.263999e-07   1.076910e-01   1.792372e+01   4.072653e+00   1.407019e+04   1.050357e+05  -1.024951e+05  -5.852037e+10   5.104945e+09  -2.802001e+09   1.474304e+05   2.678552e-29   0.000000e+00   0.000000e+00
     3272000   3.271999e-07   1.077023e-01   1.792380e+01   4.072571e+00   1.402337e+04   1.050398e+05  -1.024973e+05  -5.852172e+10   5.078063e+09  -2.802741e+09   1.474304e+05   2.678466e-29   0.000000e+00   0.000000e+00
     3280000   3.279999e-07   1.077135e-01   1.792389e+01   4.072489e+00   1.397655e+04   1.050439e+05  -1.024995e+05  -5.852306e+10   5.051182e+09  -2.803480e+09   1.474304e+05   2.678380e-29   0.000000e+00   0.000000e+00
     3288000   3.287999e-07   1.077246e-01   1.792397e+01   4.072407e+00   1.392973e+04   1.050479e+05  -1.025018e+05  -5.852439e+10   5.024301e+09  -2.804218e+09   1.474304e+05   2.678294e-29   0.000000e+00   0.000000e+00
     3296000   3.295999e-07   1.077358e-01   1.792405e+01   4.072325e+00   1.388291e+04   1.050519e+05  -1.025040e+05  -5.852571e+10   4.997421e+09  -2.804955e+09   1.474304e+05   2.678209e-29   0.000000e+00   0.000000e+00
     3304000   3.303999e-07   1.077469e-01   1.792414e+01   4.072243e+00   1.383609e+04   1.050559e+05  -1.025063e+05  -5.852702e+10   4.970542e+09  -2.805691e+09   1.474304e+05   2.678123e-29   0.000000e+00   0.000000e+00
     3312000   3.311999e-07   1.077579e-01   1.792422e+01   4.072161e+00   1.378927e+04   1.050599e+05  -1.025085e+05  -5.852831e+10   4.943663e+09  -2.806426e+09   1.474304e+05   2.678037e-29   0.000000e+00   0.000000e+00
     3320000   3.319999e-07   1.077689e-01   1.792431e+01   4.072079e+00   1.374245e+04   1.050638e+05  -1.025108e+05  -5.852959e+10   4.916785e+09  -2.807160e+09   1.474304e+05   2.677951e-29   0.000000e+00   0.000000e+00
     3328000   3.327999e-07   1.077799e-01   1.792439e+01   4.071997e+00   1.369562e+04   1.050677e+05  -1.025130e+05  -5.853086e+10   4.889908e+09  -2.807893e+09   1.474304e+05   2.677865e-29   0.000000e+00   0.000000e+00
     3336000   3.335999e-07   1.077908e-01   1.792447e+01   4.071915e+00   1.364880e+04   1.050716e+05  -1.025153e+05  -5.853212e+10   4.863032e+09  -2.808624e+09   1.474304e+05   2.677779e-29   0.000000e+00   0.000000e+00
     3344000   3.343999e-07   1.078017e-01   1.792456e+01   4.071833e+00   1.360197e+04   1.050755e+05  -1.025175e+05  -5.853337e+10   4.836156e+09  -2.809355e+09   1.474304e+05   2.677694e-29   0.000000e+00   0.000000e+00
     3352000   3.351999e-07   1.078126e-01   1.792464e+01   4.071751e+00   1.355515e+04   1.050794e+05  -1.025197e+05  -5.853460e+10   4.809281e+09  -2.810085e+09   1.474304e+05   2.677608e-29   0.000000e+00   0.000000e+00
     3360000   3.359999e-07   1.078234e-01   1.792473e+01   4.071669e+00   1.350832e+04   1.050832e+05  -1.025220e+05  -5.853583e+10   4.782407e+09  -2.810814e+09   1.474304e+05   2.677522e-29   0.000000e+00   0.000000e+00
     3368000   3.367999e-07   1.078342e-01   1.792481e+01   4.071587e+00   1.346149e+04   1.050870e+05  -1.025242e+05  -5.853704e+10   4.755533e+09  -2.811541e+09   1.474304e+05   2.677437e-29   0.000000e+00   0.000000e+00
     3376000   3.375999e-07   1.078450e-01   1.792489e+01   4.071505e+00   1.341466e+04   1.050908e+05  -1.025265e+05  -5.853823e+10   4.728660e+09  -2.812268e+09   1.474304e+05   2.677351e-29   0.000000e+00   0.000000e+00
     3384000   3.383999e-07   1.078557e-01   1.792498e+01   4.071423e+00   1.336783e+04   1.050946e+05  -1.025287e+05  -5.853942e+10   4.701788e+09  -2.812993e+09   1.474304e+05   2.677266e-29   0.000000e+00   0.000000e+00
     3392000   3.391999e-07   1.078663e-01   1.792506e+01   4.071341e+00   1.332099e+04   1.050983e+05  -1.025310e+05  -5.854059e+10   4.674917e+09  -2.813718e+09   1.474304e+05   2.677180e-29   0.000000e+00   0.000000e+00
     3400000   3.399999e-07   1.078770e-01   1.792515e+01   4.071259e+00   1.327416e+04   1.051021e+05  -1.025332e+05  -5.854176e+10   4.648046e+09  -2.814442e+09   1.474304e+05   2.677095e-29   0.000000e+00   0.000000e+00
     3408000   3.407999e-07   1.078876e-01   1.792523e+01   4.071177e+00   1.322733e+04   1.051058e+05  -1.025355e+05  -5.854291e+10   4.621176e+09  -2.815164e+09   1.474304e+05   2.677009e-29   0.000000e+00   0.000000e+00
     3416000   3.415999e-07   1.078981e-01   1.792531e+01   4.071095e+00   1.318049e+04   1.051095e+05  -1.025378e+05  -5.854404e+10   4.594307e+09  -2.815885e+09   1.474304e+05   2.676924e-29   0.000000e+00   0.000000e+00
     3424000   3.423999e-07   1.079087e-01   1.792540e+01   4.071012e+00   1.313366e+04   1.051131e+05  -1.025400e+05  -5.854517e+10   4.567439e+09  -2.816606e+09   1.474304e+05   2.676838e-29   0.000000e+00   0.000000e+00
     3432000   3.431999e-07   1.079192e-01   1.792548e+01   4.070930e+00   1.308682e+04   1.051168e+05  -1.025423e+05  -5.854628e+10   4.540571e+09  -2.817325e+09   1.474304e+05   2.676753e-29   0.000000e+00   0.000000e+00
     3440000   3.439999e-07   1.079296e-01   1.792557e+01   4.070848e+00   1.303998e+04   1.051204e+05  -1.025445e+05  -5.854739e+10   4.513705e+09  -2.818043e+09   1.474304e+05   2.676668e-29   0.000000e+00   0.000000e+00
     3448000   3.447999e-07   1.079400e-01   1.792565e+01   4.070766e+00   1.299315e+04   1.051240e+05  -1.025468e+05  -5.854848e+10   4.486839e+09  -2.818761e+09   1.474304e+05   2.676582e-29   0.000000e+00   0.000000e+00
     3456000   3.455999e-07   1.079504e-01   1.792574e+01   4.070684e+00   1.294631e+04   1.051276e+05  -1.025490e+05  -5.854955e+10   4.459974e+09  -2.819477e+09   1.474304e+05   2.676497e-29   0.000000e+00   0.000000e+00
     3464000   3.463999e-07   1.079607e-01   1.792582e+01   4.070602e+00   1.289947e+04   1.051311e+05  -1.025513e+05  -5.855062e+10   4.433109e+09  -2.820192e+09   1.474304e+05   2.676412e-29   0.000000e+00   0.000000e+00
     3472000   3.471999e-07   1.079710e-01   1.792590e+01   4.070520e+00   1.285262e+04   1.051347e+05  -1.025535e+05  -5.855167e+10   4.406246e+09  -2.820906e+09   1.474304e+05   2.676327e-29   0.000000e+00   0.000000e+00
     3480000   3.479999e-07   1.079813e-01   1.792599e+01   4.070438e+00   1.280578e+04   1.051382e+05  -1.025558e+05  -5.855271e+10   4.379383e+09  -2.821619e+09   1.474304e+05   2.676241e-29   0.000000e+00   0.000000e+00
     3488000   3.487999e-07   1.079915e-01   1.792607e+01   4.070356e+00   1.275894e+04   1.051417e+05  -1.025580e+05  -5.855374e+10   4.352521e+09  -2.822331e+09   1.474304e+05   2.676156e-29   0.000000e+00   0.000000e+00
     3496000   3.495999e-07   1.080017e-01   1.792616e+01   4.070274e+00   1.271210e+04   1.051451e+05  -1.025603e+05  -5.855476e+10   4.325660e+09  -2.823042e+09   1.474304e+05   2.676071e-29   0.000000e+00   0.000000e+00
     3504000   3.503999e-07   1.080119e-01   1.792624e+01   4.070192e+00   1.266525e+04   1.051486e+05  -1.025626e+05  -5.855577e+10   4.298800e+09  -2.823752e+09   1.474304e+05   2.675986e-29   0.000000e+00   0.000000e+00
     3512000   3.511999e-07   1.080220e-01   1.792632e+01   4.070110e+00   1.261841e+04   1.051520e+05  -1.025648e+05  -5.855676e+10   4.271940e+09  -2.824461e+09   1.474304e+05   2.675901e-29   0.000000e+00   0.000000e+00
     3520000   3.519999e-07   1.080321e-01   1.792641e+01   4.070028e+00   1.257156e+04   1.051554e+05  -1.025671e+05  -5.855774e+10   4.245081e+09  -2.825169e+09   1.474304e+05   2.675816e-29   0.000000e+00   0.000000e+00
     3528000   3.527999e-07   1.080421e-01   1.792649e+01   4.069946e+00   1.252472e+04   1.051588e+05  -1.025693e+05  -5.855871e+10   4.218224e+09  -2.825875e+09   1.474304e+05   2.675731e-29   0.000000e+00   0.000000e+00
     3536000   3.535999e-07   1.080521e-01   1.792658e+01   4.069864e+00   1.247787e+04   1.051622e+05  -1.025716e+05  -5.855967e+10   4.191367e+09  -2.826581e+09   1.474304e+05   2.675646e-29   0.000000e+00   0.000000e+00
     3544000   3.543999e-07   1.080621e-01   1.792666e+01   4.069782e+00   1.243102e+04   1.051655e+05  -1.025739e+05  -5.856062e+10   4.164511e+09  -2.827286e+09   1.474304e+05   2.675561e-29   0.000000e+00   0.000000e+00
     3552000   3.551999e-07   1.080720e-01   1.792674e+01   4.069700e+00   1.238417e+04   1.051688e+05  -1.025761e+05  -5.856155e+10   4.137655e+09  -2.827989e+09   1.474304e+05   2.675476e-29   0.000000e+00   0.000000e+00
     3560000   3.559999e-07   1.080819e-01   1.792683e+01   4.069618e+00   1.233732e+04   1.051721e+05  -1.025784e+05  -5.856247e+10   4.110801e+09  -2.828692e+09   1.474304e+05   2.675391e-29   0.000000e+00   0.000000e+00
     3568000   3.567999e-07   1.080917e-01   1.792691e+01   4.069536e+00   1.229047e+04   1.051754e+05  -1.025807e+05  -5.856338e+10   4.083948e+09  -2.829393e+09   1.474304e+05   2.675307e-29   0.000000e+00   0.000000e+00
     3576000   3.575999e-07   1.081015e-01   1.792700e+01   4.069454e+00   1.224362e+04   1.051787e+05  -1.025829e+05  -5.856428e+10   4.057095e+09  -2.830094e+09   1.474304e+05   2.675222e-29   0.000000e+00   0.000000e+00
     3584000   3.583999e-07   1.081113e-01   1.792708e+01   4.069371e+00   1.219677e+04   1.051819e+05  -1.025852e+05  -5.856517e+10   4.030243e+09  -2.830793e+09   1.474304e+05   2.675137e-29   0.000000e+00   0.000000e+00
     3592000   3.591999e-07   1.081211e-01   1.792717e+01   4.069289e+00   1.214992e+04   1.051851e+05  -1.025874e+05  -5.856604e+10   4.003392e+09  -2.831492e+09   1.474304e+05   2.675052e-29   0.000000e+00   0.000000e+00
     3600000   3.599999e-07   1.081308e-01   1.792725e+01   4.069207e+00   1.210306e+04   1.051883e+05  -1.025897e+05  -5.856690e+10   3.976542e+09  -2.832189e+09   1.474304e+05   2.674968e-29   0.000000e+00   0.000000e+00
     3608000   3.607999e-07   1.081404e-01   1.792733e+01   4.069125e+00   1.205621e+04   1.051915e+05  -1.025920e+05  -5.856775e+10   3.949693e+09  -2.832885e+09   1.474304e+05   2.674883e-29   0.000000e+00   0.000000e+00
     3616000   3.615999e-07   1.081500e-01   1.792742e+01   4.069043e+00   1.200935e+04   1.051946e+05  -1.025942e+05  -5.856859e+10   3.922845e+09  -2.833580e+09   1.474304e+05   2.674798e-29   0.000000e+00   0.000000e+00
     3624000   3.623999e-07   1.081596e-01   1.792750e+01   4.068961e+00   1.196250e+04   1.051978e+05  -1.025965e+05  -5.856941e+10   3.895998e+09  -2.834274e+09   1.474304e+05   2.674714e-29   0.000000e+00   0.000000e+00
     3632000   3.631999e-07   1.081692e-01   1.792759e+01   4.068879e+00   1.191564e+04   1.052009e+05  -1.025988e+05  -5.857023e+10   3.869151e+09  -2.834968e+09   1.474304e+05   2.674629e-29   0.000000e+00   0.000000e+00
     3640000   3.639999e-07   1.081787e-01   1.792767e+01   4.068797e+00   1.186879e+04   1.052039e+05  -1.026011e+05  -5.857103e+10   3.842306e+09  -2.835660e+09   1.474304e+05   2.674545e-29   0.000000e+00   0.000000e+00
     3648000   3.647999e-07   1.081882e-01   1.792775e+01   4.068715e+00   1.182193e+04   1.052070e+05  -1.026033e+05  -5.857182e+10   3.815462e+09  -2.836351e+09   1.474304e+05   2.674460e-29   0.000000e+00   0.000000e+00
     3656000   3.655999e-07   1.081976e-01   1.792784e+01   4.068633e+00   1.177507e+04   1.052101e+05  -1.026056e+05  -5.857260e+10   3.788618e+09  -2.837040e+09   1.474304e+05   2.674376e-29   0.000000e+00   0.000000e+00
     3664000   3.663999e-07   1.082070e-01   1.792792e+01   4.068551e+00   1.172821e+04   1.052131e+05  -1.026079e+05  -5.857336e+10   3.761775e+09  -2.837729e+09   1.474304e+05   2.674291e-29   0.000000e+00   0.000000e+00
     3672000   3.671999e-07   1.082164e-01   1.792801e+01   4.068469e+00   1.168135e+04   1.052161e+05  -1.026101e+05  -5.857412e+10   3.734934e+09  -2.838417e+09   1.474304e+05   2.674207e-29   0.000000e+00   0.000000e+00
     3680000   3.679999e-07   1.082257e-01   1.792809e+01   4.068387e+00   1.163449e+04   1.052190e+05  -1.026124e+05  -5.857486e+10   3.708093e+09  -2.839104e+09   1.474304e+05   2.674122e-29   0.000000e+00   0.000000e+00
     3688000   3.687999e-07   1.082350e-01   1.792818e+01   4.068304e+00   1.158763e+04   1.052220e+05  -1.026147e+05  -5.857559e+10   3.681253e+09  -2.839789e+09   1.474304e+05   2.674038e-29   0.000000e+00   0.000000e+00
     3696000   3.695999e-07   1.082442e-01   1.792826e+01   4.068222e+00   1.154077e+04   1.052249e+05  -1.026169e+05  -5.857631e+10   3.654414e+09  -2.840474e+09   1.474304e+05   2.673954e-29   0.000000e+00   0.000000e+00
     3704000   3.703999e-07   1.082535e-01   1.792834e+01   4.068140e+00   1.149391e+04   1.052279e+05  -1.026192e+05  -5.857701e+10   3.627576e+09  -2.841158e+09   1.474304e+05   2.673869e-29   0.000000e+00   0.000000e+00
     3712000   3.711999e-07   1.082626e-01   1.792843e+01   4.068058e+00   1.144705e+04   1.052307e+05  -1.026215e+05  -5.857771e+10   3.600739e+09  -2.841840e+09   1.474304e+05   2.673785e-29   0.000000e+00   0.000000e+00
     3720000   3.719999e-07   1.082718e-01   1.792851e+01   4.067976e+00   1.140019e+04   1.052336e+05  -1.026238e+05  -5.857839e+10   3.573903e+09  -2.842522e+09   1.474304e+05   2.673701e-29   0.000000e+00   0.000000e+00
     3728000   3.727999e-07   1.082809e-01   1.792860e+01   4.067894e+00   1.135333e+04   1.052365e+05  -1.026260e+05  -5.857906e+10   3.547068e+09  -2.843202e+09   1.474304e+05   2.673617e-29   0.000000e+00   0.000000e+00
     3736000   3.735999e-07   1.082899e-01   1.792868e+01   4.067812e+00   1.130646e+04   1.052393e+05  -1.026283e+05  -5.857972e+10   3.520234e+09  -2.843881e+09   1.474304e+05   2.673532e-29   0.000000e+00   0.000000e+00
     3744000   3.743999e-07   1.082990e-01   1.792876e+01   4.067730e+00   1.125960e+04   1.052421e+05  -1.026306e+05  -5.858036e+10   3.493401e+09  -2.844559e+09   1.474304e+05   2.673448e-29   0.000000e+00   0.000000e+00
     3752000   3.751999e-07   1.083080e-01   1.792885e+01   4.067648e+00   1.121273e+04   1.052449e+05  -1.026329e+05  -5.858100e+10   3.466569e+09  -2.845237e+09   1.474304e+05   2.673364e-29   0.000000e+00   0.000000e+00
     3760000   3.759999e-07   1.083169e-01   1.792893e+01   4.067566e+00   1.116587e+04   1.052476e+05  -1.026351e+05  -5.858162e+10   3.439738e+09  -2.845913e+09   1.474304e+05   2.673280e-29   0.000000e+00   0.000000e+00
     3768000   3.767999e-07   1.083258e-01   1.792902e+01   4.067483e+00   1.111900e+04   1.052504e+05  -1.026374e+05  -5.858223e+10   3.412908e+09  -2.846588e+09   1.474304e+05   2.673196e-29   0.000000e+00   0.000000e+00
     3776000   3.775999e-07   1.083347e-01   1.792910e+01   4.067401e+00   1.107214e+04   1.052531e+05  -1.026397e+05  -5.858283e+10   3.386079e+09  -2.847262e+09   1.474304e+05   2.673112e-29   0.000000e+00   0.000000e+00
     3784000   3.783999e-07   1.083435e-01   1.792919e+01   4.067319e+00   1.102527e+04   1.052558e+05  -1.026420e+05  -5.858341e+10   3.359251e+09  -2.847935e+09   1.474304e+05   2.673028e-29   0.000000e+00   0.000000e+00
     3792000   3.791999e-07   1.083523e-01   1.792927e+01   4.067237e+00   1.097840e+04   1.052585e+05  -1.026443e+05  -5.858399e+10   3.332424e+09  -2.848607e+09   1.474304e+05   2.672944e-29   0.000000e+00   0.000000e+00
     3800000   3.799999e-07   1.083611e-01   1.792935e+01   4.067155e+00   1.093154e+04   1.052611e+05  -1.026465e+05  -5.858455e+10   3.305598e+09  -2.849277e+09   1.474304e+05   2.672860e-29   0.000000e+00   0.000000e+00
     3808000   3.807999e-07   1.083698e-01   1.792944e+01   4.067073e+00   1.088467e+04   1.052638e+05  -1.026488e+05  -5.858510e+10   3.278773e+09  -2.849947e+09   1.474304e+05   2.672776e-29   0.000000e+00   0.000000e+00
     3816000   3.815999e-07   1.083785e-01   1.792952e+01   4.066991e+00   1.083780e+04   1.052664e+05  -1.026511e+05  -5.858564e+10   3.251949e+09  -2.850616e+09   1.474304e+05   2.672692e-29   0.000000e+00   0.000000e+00
     3824000   3.823999e-07   1.083872e-01   1.792961e+01   4.066909e+00   1.079093e+04   1.052690e+05  -1.026534e+05  -5.858616e+10   3.225127e+09  -2.851283e+09   1.474304e+05   2.672608e-29   0.000000e+00   0.000000e+00
     3832000   3.831999e-07   1.083958e-01   1.792969e+01   4.066826e+00   1.074406e+04   1.052715e+05  -1.026557e+05  -5.858668e+10   3.198305e+09  -2.851950e+09   1.474304e+05   2.672524e-29   0.000000e+00   0.000000e+00
     3840000   3.839999e-07   1.084044e-01   1.792978e+01   4.066744e+00   1.069719e+04   1.052741e+05  -1.026579e+05  -5.858718e+10   3.171484e+09  -2.852615e+09   1.474304e+05   2.672441e-29   0.000000e+00   0.000000e+00
     3848000   3.847999e-07   1.084129e-01   1.792986e+01   4.066662e+00   1.065032e+04   1.052766e+05  -1.026602e+05  -5.858767e+10   3.144664e+09  -2.853280e+09   1.474304e+05   2.672357e-29   0.000000e+00   0.000000e+00
     3856000   3.855999e-07   1.084214e-01   1.792994e+01   4.066580e+00   1.060345e+04   1.052791e+05  -1.026625e+05  -5.858815e+10   3.117846e+09  -2.853943e+09   1.474304e+05   2.672273e-29   0.000000e+00   0.000000e+00
     3864000   3.863999e-07   1.084299e-01   1.793003e+01   4.066498e+00   1.055658e+04   1.052816e+05  -1.026648e+05  -5.858862e+10   3.091028e+09  -2.854605e+09   1.474304e+05   2.672189e-29   0.000000e+00   0.000000e+00
     3872000   3.871999e-07   1.084383e-01   1.793011e+01   4.066416e+00   1.050971e+04   1.052841e+05  -1.026671e+05  -5.858907e+10   3.064212e+09  -2.855266e+09   1.474304e+05   2.672106e-29   0.000000e+00   0.000000e+00
     3880000   3.879999e-07   1.084467e-01   1.793020e+01   4.066334e+00   1.046284e+04   1.052865e+05  -1.026694e+05  -5.858951e+10   3.037396e+09  -2.855927e+09   1.474304e+05   2.672022e-29   0.000000e+00   0.000000e+00
     3888000   3.887999e-07   1.084550e-01   1.793028e+01   4.066252e+00   1.041597e+04   1.052889e+05  -1.026716e+05  -5.858994e+10   3.010582e+09  -2.856586e+09   1.474304e+05   2.671939e-29   0.000000e+00   0.000000e+00
     3896000   3.895999e-07   1.084633e-01   1.793036e+01   4.066169e+00   1.036909e+04   1.052913e+05  -1.026739e+05  -5.859036e+10   2.983769e+09  -2.857244e+09   1.474304e+05   2.671855e-29   0.000000e+00   0.000000e+00
     3904000   3.903999e-07   1.084716e-01   1.793045e+01   4.066087e+00   1.032222e+04   1.052937e+05  -1.026762e+05  -5.859077e+10   2.956957e+09  -2.857900e+09   1.474304e+05   2.671771e-29   0.000000e+00   0.000000e+00
     3912000   3.911999e-07   1.084799e-01   1.793053e+01   4.066005e+00   1.027535e+04   1.052961e+05  -1.026785e+05  -5.859116e+10   2.930146e+09  -2.858556e+09   1.474304e+05   2.671688e-29   0.000000e+00   0.000000e+00
     3920000   3.919999e-07   1.084881e-01   1.793062e+01   4.065923e+00   1.022848e+04   1.052984e+05  -1.026808e+05  -5.859154e+10   2.903336e+09  -2.859211e+09   1.474304e+05   2.671604e-29   0.000000e+00   0.000000e+00
     3928000   3.927999e-07   1.084962e-01   1.793070e+01   4.065841e+00   1.018160e+04   1.053007e+05  -1.026831e+05  -5.859192e+10   2.876527e+09  -2.859865e+09   1.474304e+05   2.671521e-29   0.000000e+00   0.000000e+00
     3936000   3.935999e-07   1.085044e-01   1.793079e+01   4.065759e+00   1.013473e+04   1.053030e+05  -1.026854e+05  -5.859227e+10   2.849719e+09  -2.860517e+09   1.474304e+05   2.671437e-29   0.000000e+00   0.000000e+00
     3944000   3.943999e-07   1.085124e-01   1.793087e+01   4.065677e+00   1.008786e+04   1.053053e+05  -1.026876e+05  -5.859262e+10   2.822913e+09  -2.861169e+09   1.474304e+05   2.671354e-29   0.000000e+00   0.000000e+00
     3952000   3.951999e-07   1.085205e-01   1.793095e+01   4.065594e+00   1.004098e+04   1.053075e+05  -1.026899e+05  -5.859296e+10   2.796107e+09  -2.861819e+09   1.474304e+05   2.671271e-29   0.000000e+00   0.000000e+00
     3960000   3.959999e-07   1.085285e-01   1.793104e+01   4.065512e+00   9.994107e+03   1.053097e+05  -1.026922e+05  -5.859328e+10   2.769303e+09  -2.862469e+09   1.474304e+05   2.671187e-29   0.000000e+00   0.000000e+00
     3968000   3.967999e-07   1.085365e-01   1.793112e+01   4.065430e+00   9.947232e+03   1.053119e+05  -1.026945e+05  -5.859359e+10   2.742500e+09  -2.863117e+09   1.474304e+05   2.671104e-29   0.000000e+00   0.000000e+00
     3976000   3.975999e-07   1.085444e-01   1.793121e+01   4.065348e+00   9.900357e+03   1.053141e+05  -1.026968e+05  -5.859389e+10   2.715698e+09  -2.863764e+09   1.474304e+05   2.671021e-29   0.000000e+00   0.000000e+00
     3984000   3.983999e-07   1.085523e-01   1.793129e+01   4.065266e+00   9.853482e+03   1.053163e+05  -1.026991e+05  -5.859418e+10   2.688897e+09  -2.864410e+09   1.474304e+05   2.670937e-29   0.000000e+00   0.000000e+00
     3992000   3.991999e-07   1.085602e-01   1.793138e+01   4.065184e+00   9.806606e+03   1.053184e+05  -1.027014e+05  -5.859445e+10   2.662097e+09  -2.865056e+09   1.474304e+05   2.670854e-29   0.000000e+00   0.000000e+00
     4000000   3.999999e-07   1.085680e-01   1.793146e+01   4.065101e+00   9.759731e+03   1.053205e+05  -1.027037e+05  -5.859471e+10   2.635299e+09  -2.865700e+09   1.474304e+05   2.670771e-29   0.000000e+00   0.000000e+00
     4008000   4.007999e-07   1.085758e-01   1.793154e+01   4.065019e+00   9.712855e+03   1.053226e+05  -1.027060e+05  -5.859496e+10   2.608501e+09  -2.866343e+09   1.474304e+05   2.670688e-29   0.000000e+00   0.000000e+00
     4016000   4.015999e-07   1.085836e-01   1.793163e+01   4.064937e+00   9.665979e+03   1.053247e+05  -1.027083e+05  -5.859520e+10   2.581705e+09  -2.866984e+09   1.474304e+05   2.670605e-29   0.000000e+00   0.000000e+00
     4024000   4.023999e-07   1.085913e-01   1.793171e+01   4.064855e+00   9.619102e+03   1.053268e+05  -1.027106e+05  -5.859543e+10   2.554910e+09  -2.867625e+09   1.474304e+05   2.670522e-29   0.000000e+00   0.000000e+00
     4032000   4.031999e-07   1.085989e-01   1.793180e+01   4.064773e+00   9.572226e+03   1.053288e+05  -1.027129e+05  -5.859565e+10   2.528116e+09  -2.868265e+09   1.474304e+05   2.670438e-29   0.000000e+00   0.000000e+00
     4040000   4.039999e-07   1.086066e-01   1.793188e+01   4.064691e+00   9.525349e+03   1.053308e+05  -1.027152e+05  -5.859585e+10   2.501324e+09  -2.868903e+09   1.474304e+05   2.670355e-29   0.000000e+00   0.000000e+00
     4048000   4.047999e-07   1.086142e-01   1.793197e+01   4.064608e+00   9.478473e+03   1.053328e+05  -1.027174e+05  -5.859604e+10   2.474532e+09  -2.869541e+09   1.474304e+05   2.670272e-29   0.000000e+00   0.000000e+00
     4056000   4.055999e-07   1.086218e-01   1.793205e+01   4.064526e+00   9.431596e+03   1.053348e+05  -1.027197e+05  -5.859622e+10   2.447742e+09  -2.870177e+09   1.474304e+05   2.670189e-29   0.000000e+00   0.000000e+00
     4064000   4.063999e-07   1.086293e-01   1.793213e+01   4.064444e+00   9.384719e+03   1.053367e+05  -1.027220e+05  -5.859639e+10   2.420953e+09  -2.870813e+09   1.474304e+05   2.670106e-29   0.000000e+00   0.000000e+00
     4072000   4.071999e-07   1.086368e-01   1.793222e+01   4.064362e+00   9.337841e+03   1.053386e+05  -1.027243e+05  -5.859654e+10   2.394165e+09  -2.871447e+09   1.474304e+05   2.670023e-29   0.000000e+00   0.000000e+00
     4080000   4.079999e-07   1.086442e-01   1.793230e+01   4.064280e+00   9.290964e+03   1.053405e+05  -1.027266e+05  -5.859669e+10   2.367378e+09  -2.872080e+09   1.474304e+05   2.669940e-29   0.000000e+00   0.000000e+00
     4088000   4.087999e-07   1.086516e-01   1.793239e+01   4.064198e+00   9.244087e+03   1.053424e+05  -1.027289e+05  -5.859682e+10   2.340593e+09  -2.872713e+09   1.474304e+05   2.669858e-29   0.000000e+00   0.000000e+00
     4096000   4.095999e-07   1.086590e-01   1.793247e+01   4.064115e+00   9.197209e+03   1.053443e+05  -1.027312e+05  -5.859694e+10   2.313809e+09  -2.873344e+09   1.474304e+05   2.669775e-29   0.000000e+00   0.000000e+00
     4104000   4.103999e-07   1.086664e-01   1.793256e+01   4.064033e+00   9.150332e+03   1.053461e+05  -1.027335e+05  -5.859705e+10   2.287026e+09  -2.873974e+09   1.474304e+05   2.669692e-29   0.000000e+00   0.000000e+00
     4112000   4.111999e-07   1.086737e-01   1.793264e+01   4.063951e+00   9.103454e+03   1.053480e+05  -1.027358e+05  -5.859714e+10   2.260244e+09  -2.874602e+09   1.474304e+05   2.669609e-29   0.000000e+00   0.000000e+00
     4120000   4.119999e-07   1.086809e-01   1.793272e+01   4.063869e+00   9.056576e+03   1.053498e+05  -1.027381e+05  -5.859723e+10   2.233463e+09  -2.875230e+09   1.474304e+05   2.669526e-29   0.000000e+00   0.000000e+00
     4128000   4.127999e-07   1.086881e-01   1.793281e+01   4.063787e+00   9.009698e+03   1.053515e+05  -1.027404e+05  -5.859730e+10   2.206684e+09  -2.875857e+09   1.474304e+05   2.669443e-29   0.000000e+00   0.000000e+00
     4136000   4.135999e-07   1.086953e-01   1.793289e+01   4.063704e+00   8.962821e+03   1.053533e+05  -1.027427e+05  -5.859736e+10   2.179906e+09  -2.876483e+09   1.474304e+05   2.669361e-29   0.000000e+00   0.000000e+00
     4144000   4.143999e-07   1.087025e-01   1.793298e+01   4.063622e+00   8.915943e+03   1.053550e+05  -1.027450e+05  -5.859741e+10   2.153130e+09  -2.877107e+09   1.474304e+05   2.669278e-29   0.000000e+00   0.000000e+00
     4152000   4.151999e-07   1.087096e-01   1.793306e+01   4.063540e+00   8.869065e+03   1.053567e+05  -1.027473e+05  -5.859744e+10   2.126354e+09  -2.877731e+09   1.474304e+05   2.669195e-29   0.000000e+00   0.000000e+00
     4160000   4.159999e-07   1.087167e-01   1.793315e+01   4.063458e+00   8.822187e+03   1.053584e+05  -1.027496e+05  -5.859747e+10   2.099580e+09  -2.878353e+09   1.474304e+05   2.669113e-29   0.000000e+00   0.000000e+00
     4168000   4.167999e-07   1.087237e-01   1.793323e+01   4.063376e+00   8.775309e+03   1.053601e+05  -1.027519e+05  -5.859748e+10   2.072807e+09  -2.878974e+09   1.474304e+05   2.669030e-29   0.000000e+00   0.000000e+00
     4176000   4.175999e-07   1.087307e-01   1.793331e+01   4.063293e+00   8.728431e+03   1.053617e+05  -1.027542e+05  -5.859748e+10   2.046035e+09  -2.879595e+09   1.474304e+05   2.668948e-29   0.000000e+00   0.000000e+00
     4184000   4.183999e-07   1.087377e-01   1.793340e+01   4.063211e+00   8.681553e+03   1.053634e+05  -1.027565e+05  -5.859747e+10   2.019265e+09  -2.880214e+09   1.474304e+05   2.668865e-29   0.000000e+00   0.000000e+00
     4192000   4.191999e-07   1.087446e-01   1.793348e+01   4.063129e+00   8.634675e+03   1.053650e+05  -1.027588e+05  -5.859745e+10   1.992496e+09  -2.880832e+09   1.474304e+05   2.668782e-29   0.000000e+00   0.000000e+00
     4200000   4.199999e-07   1.087515e-01   1.793357e+01   4.063047e+00   8.587797e+03   1.053665e+05  -1.027612e+05  -5.859741e+10   1.965728e+09  -2.881449e+09   1.474304e+05   2.668700e-29   0.000000e+00   0.000000e+00
     4208000   4.207999e-07   1.087583e-01   1.793365e+01   4.062965e+00   8.540919e+03   1.053681e+05  -1.027635e+05  -5.859736e+10   1.938962e+09  -2.882065e+09   1.474304e+05   2.668617e-29   0.000000e+00   0.000000e+00
     4216000   4.215999e-07   1.087652e-01   1.793374e+01   4.062882e+00   8.494041e+03   1.053696e+05  -1.027658e+05  -5.859730e+10   1.912197e+09  -2.882680e+09   1.474304e+05   2.668535e-29   0.000000e+00   0.000000e+00
     4224000   4.223999e-07   1.087719e-01   1.793382e+01   4.062800e+00   8.447163e+03   1.053712e+05  -1.027681e+05  -5.859723e+10   1.885433e+09  -2.883293e+09   1.474304e+05   2.668453e-29   0.000000e+00   0.000000e+00
     4232000   4.231999e-07   1.087787e-01   1.793390e+01   4.062718e+00   8.400286e+03   1.053727e+05  -1.027704e+05  -5.859715e+10   1.858670e+09  -2.883906e+09   1.474304e+05   2.668370e-29   0.000000e+00   0.000000e+00
     4240000   4.239999e-07   1.087854e-01   1.793399e+01   4.062636e+00   8.353408e+03   1.053741e+05  -1.027727e+05  -5.859705e+10   1.831909e+09  -2.884517e+09   1.474304e+05   2.668288e-29   0.000000e+00   0.000000e+00
     4248000   4.247999e-07   1.087920e-01   1.793407e+01   4.062554e+00   8.306530e+03   1.053756e+05  -1.027750e+05  -5.859695e+10   1.805149e+09  -2.885128e+09   1.474304e+05   2.668205e-29   0.000000e+00   0.000000e+00
     4256000   4.255999e-07   1.087987e-01   1.793416e+01   4.062471e+00   8.259653e+03   1.053770e+05  -1.027773e+05  -5.859683e+10   1.778391e+09  -2.885737e+09   1.474304e+05   2.668123e-29   0.000000e+00   0.000000e+00
     4264000   4.263999e-07   1.088053e-01   1.793424e+01   4.062389e+00   8.212775e+03   1.053784e+05  -1.027796e+05  -5.859670e+10   1.751633e+09  -2.886345e+09   1.474304e+05   2.668041e-29   0.000000e+00   0.000000e+00
     4272000   4.271999e-07   1.088118e-01   1.793433e+01   4.062307e+00   8.165898e+03   1.053798e+05  -1.027819e+05  -5.859656e+10   1.724878e+09  -2.886953e+09   1.474304e+05   2.667959e-29   0.000000e+00   0.000000e+00
     4280000   4.279999e-07   1.088183e-01   1.793441e+01   4.062225e+00   8.119021e+03   1.053812e+05  -1.027842e+05  -5.859640e+10   1.698123e+09  -2.887559e+09   1.474304e+05   2.667876e-29   0.000000e+00   0.000000e+00
     4288000   4.287999e-07   1.088248e-01   1.793449e+01   4.062142e+00   8.072144e+03   1.053826e+05  -1.027865e+05  -5.859624e+10   1.671370e+09  -2.888164e+09   1.474304e+05   2.667794e-29   0.000000e+00   0.000000e+00
