     timestep     time              x             y              z              vx             vy             vz             ax             ay             az         v_magnitude      ELoss        Electronic      Nuclear
           0   0.000000e+00   1.000000e-01   1.199120e+01   6.265746e+00  -5.462080e+05   6.185773e+04  -2.954492e+05   0.000000e+00   0.000000e+00   0.000000e+00   6.240672e+05   0.000000e+00   0.000000e+00   0.000000e+00
        8000   7.999000e-10   9.956302e-02   1.199125e+01   6.265510e+00  -5.462319e+05   6.162033e+04  -2.954546e+05  -2.983768e+10  -2.967421e+11  -6.725433e+09   6.240672e+05   1.234943e-26   0.000000e+00   0.000000e+00
       16000   1.599900e-09   9.912603e-02   1.199130e+01   6.265273e+00  -5.462557e+05   6.138294e+04  -2.954600e+05  -2.971626e+10  -2.967335e+11  -6.707183e+09   6.240672e+05   1.234769e-26   0.000000e+00   0.000000e+00
       24000   2.399900e-09   9.868901e-02   1.199135e+01   6.265037e+00  -5.462795e+05   6.114556e+04  -2.954654e+05  -2.959486e+10  -2.967248e+11  -6.688948e+09   6.240672e+05   1.234594e-26   0.000000e+00   0.000000e+00
       32000   3.199900e-09   9.825198e-02   1.199140e+01   6.264801e+00  -5.463031e+05   6.090818e+04  -2.954707e+05  -2.947346e+10  -2.967161e+11  -6.670726e+09   6.240672e+05   1.234419e-26   0.000000e+00   0.000000e+00
       40000   3.999900e-09   9.781493e-02   1.199145e+01   6.264564e+00  -5.463266e+05   6.067081e+04  -2.954760e+05  -2.935208e+10  -2.967073e+11  -6.652518e+09   6.240672e+05   1.234245e-26   0.000000e+00   0.000000e+00
       48000   4.799900e-09   9.737786e-02   1.199150e+01   6.264328e+00  -5.463501e+05   6.043345e+04  -2.954813e+05  -2.923072e+10  -2.966985e+11  -6.634324e+09   6.240672e+05   1.234070e-26   0.000000e+00   0.000000e+00
       56000   5.599900e-09   9.694077e-02   1.199154e+01   6.264091e+00  -5.463734e+05   6.019609e+04  -2.954866e+05  -2.910937e+10  -2.966896e+11  -6.616143e+09   6.240672e+05   1.233895e-26   0.000000e+00   0.000000e+00
       64000   6.399900e-09   9.650366e-02   1.199159e+01   6.263855e+00  -5.463966e+05   5.995875e+04  -2.954919e+05  -2.898803e+10  -2.966807e+11  -6.597977e+09   6.240672e+05   1.233720e-26   0.000000e+00   0.000000e+00
       72000   7.199900e-09   9.606654e-02   1.199164e+01   6.263619e+00  -5.464198e+05   5.972140e+04  -2.954972e+05  -2.886670e+10  -2.966717e+11  -6.579825e+09   6.240672e+05   1.233546e-26   0.000000e+00   0.000000e+00
       80000   7.999900e-09   9.562939e-02   1.199169e+01   6.263382e+00  -5.464428e+05   5.948407e+04  -2.955025e+05  -2.874539e+10  -2.966626e+11  -6.561686e+09   6.240672e+05   1.233371e-26   0.000000e+00   0.000000e+00
       88000   8.799900e-09   9.519223e-02   1.199174e+01   6.263146e+00  -5.464658e+05   5.924674e+04  -2.955077e+05  -2.862410e+10  -2.966535e+11  -6.543562e+09   6.240672e+05   1.233196e-26   0.000000e+00   0.000000e+00
       96000   9.599900e-09   9.475505e-02   1.199178e+01   6.262909e+00  -5.464886e+05   5.900943e+04  -2.955129e+05  -2.850281e+10  -2.966443e+11  -6.525452e+09   6.240672e+05   1.233020e-26   0.000000e+00   0.000000e+00
      104000   1.039990e-08   9.431785e-02   1.199183e+01   6.262673e+00  -5.465114e+05   5.877211e+04  -2.955181e+05  -2.838154e+10  -2.966351e+11  -6.507355e+09   6.240672e+05   1.232845e-26   0.000000e+00   0.000000e+00
      112000   1.119990e-08   9.388063e-02   1.199188e+01   6.262437e+00  -5.465340e+05   5.853481e+04  -2.955233e+05  -2.826029e+10  -2.966257e+11  -6.489272e+09   6.240672e+05   1.232670e-26   0.000000e+00   0.000000e+00
      120000   1.199990e-08   9.344339e-02   1.199192e+01   6.262200e+00  -5.465566e+05   5.829751e+04  -2.955285e+05  -2.813905e+10  -2.966164e+11  -6.471204e+09   6.240672e+05   1.232495e-26   0.000000e+00   0.000000e+00
      128000   1.279990e-08   9.300614e-02   1.199197e+01   6.261964e+00  -5.465790e+05   5.806022e+04  -2.955337e+05  -2.801782e+10  -2.966070e+11  -6.453149e+09   6.240672e+05   1.232320e-26   0.000000e+00   0.000000e+00
      136000   1.359990e-08   9.256886e-02   1.199202e+01   6.261727e+00  -5.466014e+05   5.782294e+04  -2.955389e+05  -2.789660e+10  -2.965975e+11  -6.435109e+09   6.240672e+05   1.232144e-26   0.000000e+00   0.000000e+00
      144000   1.439990e-08   9.213157e-02   1.199206e+01   6.261491e+00  -5.466237e+05   5.758567e+04  -2.955440e+05  -2.777540e+10  -2.965879e+11  -6.417082e+09   6.240672e+05   1.231969e-26   0.000000e+00   0.000000e+00
      152000   1.519990e-08   9.169427e-02   1.199211e+01   6.261254e+00  -5.466459e+05   5.734840e+04  -2.955491e+05  -2.765422e+10  -2.965783e+11  -6.399069e+09   6.240672e+05   1.231793e-26   0.000000e+00   0.000000e+00
      160000   1.599990e-08   9.125694e-02   1.199215e+01   6.261018e+00  -5.466679e+05   5.711114e+04  -2.955542e+05  -2.753304e+10  -2.965687e+11  -6.381071e+09   6.240672e+05   1.231618e-26   0.000000e+00   0.000000e+00
      168000   1.679990e-08   9.081960e-02   1.199220e+01   6.260782e+00  -5.466899e+05   5.687389e+04  -2.955593e+05  -2.741188e+10  -2.965589e+11  -6.363086e+09   6.240672e+05   1.231442e-26   0.000000e+00   0.000000e+00
      176000   1.759990e-08   9.038224e-02   1.199225e+01   6.260545e+00  -5.467118e+05   5.663665e+04  -2.955644e+05  -2.729074e+10  -2.965492e+11  -6.345116e+09   6.240672e+05   1.231267e-26   0.000000e+00   0.000000e+00
      184000   1.839990e-08   8.994486e-02   1.199229e+01   6.260309e+00  -5.467336e+05   5.639941e+04  -2.955695e+05  -2.716961e+10  -2.965393e+11  -6.327160e+09   6.240672e+05   1.231091e-26   0.000000e+00   0.000000e+00
      192000   1.919990e-08   8.950746e-02   1.199234e+01   6.260072e+00  -5.467553e+05   5.616218e+04  -2.955745e+05  -2.704849e+10  -2.965294e+11  -6.309217e+09   6.240672e+05   1.230915e-26   0.000000e+00   0.000000e+00
      200000   1.999990e-08   8.907005e-02   1.199238e+01   6.259836e+00  -5.467768e+05   5.592497e+04  -2.955796e+05  -2.692739e+10  -2.965195e+11  -6.291289e+09   6.240672e+05   1.230739e-26   0.000000e+00   0.000000e+00
      208000   2.079990e-08   8.863262e-02   1.199243e+01   6.259599e+00  -5.467983e+05   5.568775e+04  -2.955846e+05  -2.680630e+10  -2.965094e+11  -6.273375e+09   6.240672e+05   1.230564e-26   0.000000e+00   0.000000e+00
      216000   2.159990e-08   8.819517e-02   1.199247e+01   6.259363e+00  -5.468197e+05   5.545055e+04  -2.955896e+05  -2.668523e+10  -2.964994e+11  -6.255475e+09   6.240672e+05   1.230388e-26   0.000000e+00   0.000000e+00
      224000   2.239990e-08   8.775771e-02   1.199251e+01   6.259126e+00  -5.468410e+05   5.521335e+04  -2.955946e+05  -2.656416e+10  -2.964892e+11  -6.237589e+09   6.240672e+05   1.230212e-26   0.000000e+00   0.000000e+00
      232000   2.319990e-08   8.732023e-02   1.199256e+01   6.258890e+00  -5.468622e+05   5.497617e+04  -2.955996e+05  -2.644312e+10  -2.964790e+11  -6.219718e+09   6.240672e+05   1.230036e-26   0.000000e+00   0.000000e+00
      240000   2.399990e-08   8.688273e-02   1.199260e+01   6.258653e+00  -5.468833e+05   5.473899e+04  -2.956046e+05  -2.632209e+10  -2.964688e+11  -6.201860e+09   6.240672e+05   1.229859e-26   0.000000e+00   0.000000e+00
      248000   2.479990e-08   8.644521e-02   1.199265e+01   6.258417e+00  -5.469044e+05   5.450182e+04  -2.956095e+05  -2.620107e+10  -2.964584e+11  -6.184017e+09   6.240672e+05   1.229683e-26   0.000000e+00   0.000000e+00
      256000   2.559990e-08   8.600768e-02   1.199269e+01   6.258180e+00  -5.469253e+05   5.426465e+04  -2.956145e+05  -2.608007e+10  -2.964481e+11  -6.166187e+09   6.240672e+05   1.229507e-26   0.000000e+00   0.000000e+00
      264000   2.639990e-08   8.557013e-02   1.199273e+01   6.257944e+00  -5.469461e+05   5.402750e+04  -2.956194e+05  -2.595908e+10  -2.964376e+11  -6.148372e+09   6.240672e+05   1.229331e-26   0.000000e+00   0.000000e+00
      272000   2.719990e-08   8.513257e-02   1.199278e+01   6.257707e+00  -5.469668e+05   5.379035e+04  -2.956243e+05  -2.583810e+10  -2.964271e+11  -6.130571e+09   6.240672e+05   1.229155e-26   0.000000e+00   0.000000e+00
      280000   2.799990e-08   8.469499e-02   1.199282e+01   6.257471e+00  -5.469874e+05   5.355322e+04  -2.956292e+05  -2.571714e+10  -2.964166e+11  -6.112784e+09   6.240672e+05   1.228978e-26   0.000000e+00   0.000000e+00
      288000   2.879990e-08   8.425739e-02   1.199286e+01   6.257234e+00  -5.470080e+05   5.331609e+04  -2.956341e+05  -2.559620e+10  -2.964060e+11  -6.095012e+09   6.240672e+05   1.228802e-26   0.000000e+00   0.000000e+00
      296000   2.959990e-08   8.381977e-02   1.199290e+01   6.256998e+00  -5.470284e+05   5.307897e+04  -2.956389e+05  -2.547526e+10  -2.963953e+11  -6.077254e+09   6.240672e+05   1.228625e-26   0.000000e+00   0.000000e+00
      304000   3.039990e-08   8.338214e-02   1.199295e+01   6.256761e+00  -5.470487e+05   5.284186e+04  -2.956438e+05  -2.535435e+10  -2.963846e+11  -6.059509e+09   6.240672e+05   1.228449e-26   0.000000e+00   0.000000e+00
      312000   3.119990e-08   8.294450e-02   1.199299e+01   6.256525e+00  -5.470689e+05   5.260475e+04  -2.956486e+05  -2.523345e+10  -2.963738e+11  -6.041780e+09   6.240672e+05   1.228272e-26   0.000000e+00   0.000000e+00
      320000   3.199990e-08   8.250683e-02   1.199303e+01   6.256288e+00  -5.470891e+05   5.236766e+04  -2.956535e+05  -2.511256e+10  -2.963629e+11  -6.024064e+09   6.240672e+05   1.228095e-26   0.000000e+00   0.000000e+00
      328000   3.279990e-08   8.206915e-02   1.199307e+01   6.256052e+00  -5.471091e+05   5.213057e+04  -2.956583e+05  -2.499168e+10  -2.963520e+11  -6.006363e+09   6.240672e+05   1.227919e-26   0.000000e+00   0.000000e+00
      336000   3.359990e-08   8.163146e-02   1.199311e+01   6.255815e+00  -5.471291e+05   5.189349e+04  -2.956631e+05  -2.487083e+10  -2.963411e+11  -5.988675e+09   6.240672e+05   1.227742e-26   0.000000e+00   0.000000e+00
      344000   3.439990e-08   8.119375e-02   1.199316e+01   6.255579e+00  -5.471489e+05   5.165643e+04  -2.956679e+05  -2.474998e+10  -2.963300e+11  -5.971003e+09   6.240672e+05   1.227565e-26   0.000000e+00   0.000000e+00
      352000   3.519990e-08   8.075602e-02   1.199320e+01   6.255342e+00  -5.471687e+05   5.141937e+04  -2.956726e+05  -2.462915e+10  -2.963189e+11  -5.953344e+09   6.240672e+05   1.227388e-26   0.000000e+00   0.000000e+00
      360000   3.599990e-08   8.031828e-02   1.199324e+01   6.255106e+00  -5.471883e+05   5.118232e+04  -2.956774e+05  -2.450834e+10  -2.963078e+11  -5.935700e+09   6.240672e+05   1.227211e-26   0.000000e+00   0.000000e+00
      368000   3.679990e-08   7.988052e-02   1.199328e+01   6.254869e+00  -5.472079e+05   5.094527e+04  -2.956821e+05  -2.438754e+10  -2.962966e+11  -5.918070e+09   6.240672e+05   1.227034e-26   0.000000e+00   0.000000e+00
      376000   3.759990e-08   7.944274e-02   1.199332e+01   6.254633e+00  -5.472273e+05   5.070824e+04  -2.956869e+05  -2.426675e+10  -2.962853e+11  -5.900454e+09   6.240672e+05   1.226857e-26   0.000000e+00   0.000000e+00
      384000   3.839990e-08   7.900496e-02   1.199336e+01   6.254396e+00  -5.472467e+05   5.047122e+04  -2.956916e+05  -2.414598e+10  -2.962740e+11  -5.882853e+09   6.240672e+05   1.226680e-26   0.000000e+00   0.000000e+00
      392000   3.919990e-08   7.856715e-02   1.199340e+01   6.254159e+00  -5.472660e+05   5.023420e+04  -2.956963e+05  -2.402523e+10  -2.962626e+11  -5.865266e+09   6.240672e+05   1.226503e-26   0.000000e+00   0.000000e+00
      400000   3.999990e-08   7.812933e-02   1.199344e+01   6.253923e+00  -5.472852e+05   4.999720e+04  -2.957009e+05  -2.390449e+10  -2.962512e+11  -5.847693e+09   6.240672e+05   1.226326e-26   0.000000e+00   0.000000e+00
      408000   4.079990e-08   7.769149e-02   1.199348e+01   6.253686e+00  -5.473042e+05   4.976020e+04  -2.957056e+05  -2.378376e+10  -2.962397e+11  -5.830135e+09   6.240672e+05   1.226148e-26   0.000000e+00   0.000000e+00
      416000   4.159990e-08   7.725364e-02   1.199352e+01   6.253450e+00  -5.473232e+05   4.952321e+04  -2.957103e+05  -2.366305e+10  -2.962281e+11  -5.812591e+09   6.240672e+05   1.225971e-26   0.000000e+00   0.000000e+00
      424000   4.239990e-08   7.681578e-02   1.199356e+01   6.253213e+00  -5.473421e+05   4.928624e+04  -2.957149e+05  -2.354235e+10  -2.962165e+11  -5.795061e+09   6.240672e+05   1.225794e-26   0.000000e+00   0.000000e+00
      432000   4.319990e-08   7.637790e-02   1.199360e+01   6.252977e+00  -5.473609e+05   4.904927e+04  -2.957195e+05  -2.342167e+10  -2.962048e+11  -5.777546e+09   6.240672e+05   1.225616e-26   0.000000e+00   0.000000e+00
      440000   4.399990e-08   7.594000e-02   1.199364e+01   6.252740e+00  -5.473796e+05   4.881231e+04  -2.957242e+05  -2.330100e+10  -2.961931e+11  -5.760045e+09   6.240672e+05   1.225439e-26   0.000000e+00   0.000000e+00
      448000   4.479990e-08   7.550209e-02   1.199368e+01   6.252503e+00  -5.473982e+05   4.857536e+04  -2.957288e+05  -2.318035e+10  -2.961813e+11  -5.742559e+09   6.240672e+05   1.225261e-26   0.000000e+00   0.000000e+00
      456000   4.559990e-08   7.506416e-02   1.199372e+01   6.252267e+00  -5.474167e+05   4.833842e+04  -2.957334e+05  -2.305972e+10  -2.961695e+11  -5.725087e+09   6.240672e+05   1.225083e-26   0.000000e+00   0.000000e+00
      464000   4.639990e-08   7.462622e-02   1.199375e+01   6.252030e+00  -5.474351e+05   4.810149e+04  -2.957379e+05  -2.293910e+10  -2.961576e+11  -5.707629e+09   6.240672e+05   1.224906e-26   0.000000e+00   0.000000e+00
      472000   4.719990e-08   7.418827e-02   1.199379e+01   6.251794e+00  -5.474534e+05   4.786457e+04  -2.957425e+05  -2.281849e+10  -2.961456e+11  -5.690186e+09   6.240672e+05   1.224728e-26   0.000000e+00   0.000000e+00
      480000   4.799990e-08   7.375030e-02   1.199383e+01   6.251557e+00  -5.474716e+05   4.762765e+04  -2.957470e+05  -2.269790e+10  -2.961336e+11  -5.672758e+09   6.240672e+05   1.224550e-26   0.000000e+00   0.000000e+00
      488000   4.879990e-08   7.331231e-02   1.199387e+01   6.251320e+00  -5.474897e+05   4.739075e+04  -2.957516e+05  -2.257732e+10  -2.961215e+11  -5.655343e+09   6.240672e+05   1.224372e-26   0.000000e+00   0.000000e+00
      496000   4.959990e-08   7.287431e-02   1.199391e+01   6.251084e+00  -5.475077e+05   4.715386e+04  -2.957561e+05  -2.245676e+10  -2.961093e+11  -5.637944e+09   6.240672e+05   1.224195e-26   0.000000e+00   0.000000e+00
      504000   5.039990e-08   7.243630e-02   1.199394e+01   6.250847e+00  -5.475256e+05   4.691698e+04  -2.957606e+05  -2.233622e+10  -2.960971e+11  -5.620558e+09   6.240672e+05   1.224017e-26   0.000000e+00   0.000000e+00
      512000   5.119990e-08   7.199827e-02   1.199398e+01   6.250611e+00  -5.475434e+05   4.668010e+04  -2.957651e+05  -2.221569e+10  -2.960849e+11  -5.603187e+09   6.240672e+05   1.223839e-26   0.000000e+00   0.000000e+00
      520000   5.199990e-08   7.156023e-02   1.199402e+01   6.250374e+00  -5.475611e+05   4.644324e+04  -2.957695e+05  -2.209517e+10  -2.960725e+11  -5.585831e+09   6.240672e+05   1.223661e-26   0.000000e+00   0.000000e+00
      528000   5.279990e-08   7.112217e-02   1.199406e+01   6.250137e+00  -5.475788e+05   4.620639e+04  -2.957740e+05  -2.197467e+10  -2.960601e+11  -5.568489e+09   6.240672e+05   1.223482e-26   0.000000e+00   0.000000e+00
      536000   5.359990e-08   7.068410e-02   1.199409e+01   6.249901e+00  -5.475963e+05   4.596955e+04  -2.957785e+05  -2.185419e+10  -2.960477e+11  -5.551162e+09   6.240672e+05   1.223304e-26   0.000000e+00   0.000000e+00
      544000   5.439990e-08   7.024602e-02   1.199413e+01   6.249664e+00  -5.476137e+05   4.573271e+04  -2.957829e+05  -2.173372e+10  -2.960352e+11  -5.533849e+09   6.240672e+05   1.223126e-26   0.000000e+00   0.000000e+00
      552000   5.519990e-08   6.980792e-02   1.199417e+01   6.249428e+00  -5.476311e+05   4.549589e+04  -2.957873e+05  -2.161327e+10  -2.960226e+11  -5.516551e+09   6.240672e+05   1.222948e-26   0.000000e+00   0.000000e+00
      560000   5.599990e-08   6.936981e-02   1.199420e+01   6.249191e+00  -5.476483e+05   4.525908e+04  -2.957917e+05  -2.149283e+10  -2.960100e+11  -5.499267e+09   6.240672e+05   1.222769e-26   0.000000e+00   0.000000e+00
      568000   5.679990e-08   6.893168e-02   1.199424e+01   6.248954e+00  -5.476655e+05   4.502227e+04  -2.957961e+05  -2.137241e+10  -2.959974e+11  -5.481998e+09   6.240672e+05   1.222591e-26   0.000000e+00   0.000000e+00
      576000   5.759990e-08   6.849355e-02   1.199427e+01   6.248718e+00  -5.476825e+05   4.478548e+04  -2.958005e+05  -2.125200e+10  -2.959846e+11  -5.464743e+09   6.240672e+05   1.222413e-26   0.000000e+00   0.000000e+00
      584000   5.839990e-08   6.805539e-02   1.199431e+01   6.248481e+00  -5.476995e+05   4.454870e+04  -2.958049e+05  -2.113161e+10  -2.959718e+11  -5.447503e+09   6.240672e+05   1.222234e-26   0.000000e+00   0.000000e+00
      592000   5.919990e-08   6.761723e-02   1.199435e+01   6.248244e+00  -5.477163e+05   4.431193e+04  -2.958092e+05  -2.101123e+10  -2.959590e+11  -5.430278e+09   6.240672e+05   1.222055e-26   0.000000e+00   0.000000e+00
      600000   5.999990e-08   6.717905e-02   1.199438e+01   6.248008e+00  -5.477331e+05   4.407516e+04  -2.958135e+05  -2.089087e+10  -2.959461e+11  -5.413067e+09   6.240672e+05   1.221877e-26   0.000000e+00   0.000000e+00
      608000   6.079990e-08   6.674085e-02   1.199442e+01   6.247771e+00  -5.477498e+05   4.383841e+04  -2.958179e+05  -2.077053e+10  -2.959331e+11  -5.395871e+09   6.240672e+05   1.221698e-26   0.000000e+00   0.000000e+00
      616000   6.159990e-08   6.630265e-02   1.199445e+01   6.247534e+00  -5.477663e+05   4.360167e+04  -2.958222e+05  -2.065020e+10  -2.959201e+11  -5.378689e+09   6.240672e+05   1.221519e-26   0.000000e+00   0.000000e+00
      624000   6.239990e-08   6.586443e-02   1.199449e+01   6.247298e+00  -5.477828e+05   4.336494e+04  -2.958265e+05  -2.052988e+10  -2.959070e+11  -5.361522e+09   6.240672e+05   1.221341e-26   0.000000e+00   0.000000e+00
      632000   6.319990e-08   6.542619e-02   1.199452e+01   6.247061e+00  -5.477992e+05   4.312822e+04  -2.958308e+05  -2.040959e+10  -2.958938e+11  -5.344370e+09   6.240672e+05   1.221162e-26   0.000000e+00   0.000000e+00
      640000   6.399990e-08   6.498795e-02   1.199455e+01   6.246824e+00  -5.478155e+05   4.289151e+04  -2.958350e+05  -2.028930e+10  -2.958806e+11  -5.327232e+09   6.240672e+05   1.220983e-26   0.000000e+00   0.000000e+00
      648000   6.479990e-08   6.454969e-02   1.199459e+01   6.246588e+00  -5.478316e+05   4.265481e+04  -2.958393e+05  -2.016904e+10  -2.958674e+11  -5.310109e+09   6.240672e+05   1.220804e-26   0.000000e+00   0.000000e+00
      656000   6.559990e-08   6.411142e-02   1.199462e+01   6.246351e+00  -5.478477e+05   4.241812e+04  -2.958435e+05  -2.004879e+10  -2.958541e+11  -5.293000e+09   6.240672e+05   1.220625e-26   0.000000e+00   0.000000e+00
      664000   6.639990e-08   6.367313e-02   1.199466e+01   6.246114e+00  -5.478637e+05   4.218144e+04  -2.958477e+05  -1.992855e+10  -2.958407e+11  -5.275907e+09   6.240672e+05   1.220446e-26   0.000000e+00   0.000000e+00
      672000   6.719990e-08   6.323484e-02   1.199469e+01   6.245878e+00  -5.478796e+05   4.194478e+04  -2.958520e+05  -1.980833e+10  -2.958273e+11  -5.258827e+09   6.240672e+05   1.220267e-26   0.000000e+00   0.000000e+00
      680000   6.799990e-08   6.279653e-02   1.199472e+01   6.245641e+00  -5.478954e+05   4.170812e+04  -2.958562e+05  -1.968813e+10  -2.958138e+11  -5.241763e+09   6.240672e+05   1.220088e-26   0.000000e+00   0.000000e+00
      688000   6.879990e-08   6.235820e-02   1.199476e+01   6.245404e+00  -5.479111e+05   4.147147e+04  -2.958603e+05  -1.956794e+10  -2.958002e+11  -5.224713e+09   6.240672e+05   1.219908e-26   0.000000e+00   0.000000e+00
      696000   6.959990e-08   6.191987e-02   1.199479e+01   6.245168e+00  -5.479267e+05   4.123484e+04  -2.958645e+05  -1.944777e+10  -2.957866e+11  -5.207678e+09   6.240672e+05   1.219729e-26   0.000000e+00   0.000000e+00
      704000   7.039990e-08   6.148152e-02   1.199482e+01   6.244931e+00  -5.479422e+05   4.099822e+04  -2.958687e+05  -1.932762e+10  -2.957729e+11  -5.190658e+09   6.240672e+05   1.219550e-26   0.000000e+00   0.000000e+00
      712000   7.119990e-08   6.104316e-02   1.199486e+01   6.244694e+00  -5.479576e+05   4.076160e+04  -2.958728e+05  -1.920748e+10  -2.957592e+11  -5.173652e+09   6.240672e+05   1.219370e-26   0.000000e+00   0.000000e+00
      720000   7.199990e-08   6.060479e-02   1.199489e+01   6.244458e+00  -5.479730e+05   4.052500e+04  -2.958770e+05  -1.908736e+10  -2.957454e+11  -5.156662e+09   6.240672e+05   1.219191e-26   0.000000e+00   0.000000e+00
      728000   7.279990e-08   6.016640e-02   1.199492e+01   6.244221e+00  -5.479882e+05   4.028841e+04  -2.958811e+05  -1.896725e+10  -2.957316e+11  -5.139685e+09   6.240672e+05   1.219012e-26   0.000000e+00   0.000000e+00
      736000   7.359990e-08   5.972801e-02   1.199495e+01   6.243984e+00  -5.480033e+05   4.005183e+04  -2.958852e+05  -1.884716e+10  -2.957177e+11  -5.122724e+09   6.240672e+05   1.218832e-26   0.000000e+00   0.000000e+00
      744000   7.439990e-08   5.928960e-02   1.199498e+01   6.243747e+00  -5.480183e+05   3.981526e+04  -2.958893e+05  -1.872708e+10  -2.957037e+11  -5.105777e+09   6.240672e+05   1.218652e-26   0.000000e+00   0.000000e+00
      752000   7.519990e-08   5.885118e-02   1.199502e+01   6.243511e+00  -5.480333e+05   3.957870e+04  -2.958933e+05  -1.860702e+10  -2.956897e+11  -5.088846e+09   6.240672e+05   1.218473e-26   0.000000e+00   0.000000e+00
      760000   7.599990e-08   5.841275e-02   1.199505e+01   6.243274e+00  -5.480481e+05   3.934216e+04  -2.958974e+05  -1.848698e+10  -2.956756e+11  -5.071929e+09   6.240672e+05   1.218293e-26   0.000000e+00   0.000000e+00
      768000   7.679990e-08   5.797430e-02   1.199508e+01   6.243037e+00  -5.480628e+05   3.910562e+04  -2.959015e+05  -1.836695e+10  -2.956615e+11  -5.055026e+09   6.240672e+05   1.218113e-26   0.000000e+00   0.000000e+00
      776000   7.759990e-08   5.753585e-02   1.199511e+01   6.242801e+00  -5.480775e+05   3.886910e+04  -2.959055e+05  -1.824694e+10  -2.956473e+11  -5.038139e+09   6.240672e+05   1.217933e-26   0.000000e+00   0.000000e+00
      784000   7.839990e-08   5.709738e-02   1.199514e+01   6.242564e+00  -5.480920e+05   3.863259e+04  -2.959095e+05  -1.812695e+10  -2.956330e+11  -5.021266e+09   6.240672e+05   1.217754e-26   0.000000e+00   0.000000e+00
      792000   7.919990e-08   5.665890e-02   1.199517e+01   6.242327e+00  -5.481065e+05   3.839609e+04  -2.959135e+05  -1.800697e+10  -2.956187e+11  -5.004408e+09   6.240672e+05   1.217574e-26   0.000000e+00   0.000000e+00
      800000   7.999990e-08   5.622041e-02   1.199520e+01   6.242090e+00  -5.481209e+05   3.815960e+04  -2.959175e+05  -1.788701e+10  -2.956043e+11  -4.987565e+09   6.240672e+05   1.217394e-26   0.000000e+00   0.000000e+00
      808000   8.079990e-08   5.578190e-02   1.199523e+01   6.241854e+00  -5.481351e+05   3.792312e+04  -2.959215e+05  -1.776707e+10  -2.955899e+11  -4.970737e+09   6.240672e+05   1.217214e-26   0.000000e+00   0.000000e+00
      816000   8.159990e-08   5.534339e-02   1.199526e+01   6.241617e+00  -5.481493e+05   3.768665e+04  -2.959255e+05  -1.764714e+10  -2.955754e+11  -4.953924e+09   6.240672e+05   1.217034e-26   0.000000e+00   0.000000e+00
      824000   8.239990e-08   5.490487e-02   1.199529e+01   6.241380e+00  -5.481633e+05   3.745020e+04  -2.959294e+05  -1.752722e+10  -2.955609e+11  -4.937125e+09   6.240672e+05   1.216853e-26   0.000000e+00   0.000000e+00
      832000   8.319990e-08   5.446633e-02   1.199532e+01   6.241143e+00  -5.481773e+05   3.721376e+04  -2.959334e+05  -1.740733e+10  -2.955463e+11  -4.920342e+09   6.240672e+05   1.216673e-26   0.000000e+00   0.000000e+00
      840000   8.399990e-08   5.402778e-02   1.199535e+01   6.240907e+00  -5.481912e+05   3.697733e+04  -2.959373e+05  -1.728745e+10  -2.955316e+11  -4.903573e+09   6.240672e+05   1.216493e-26   0.000000e+00   0.000000e+00
      848000   8.479990e-08   5.358922e-02   1.199538e+01   6.240670e+00  -5.482050e+05   3.674091e+04  -2.959412e+05  -1.716759e+10  -2.955169e+11  -4.886819e+09   6.240672e+05   1.216313e-26   0.000000e+00   0.000000e+00
      856000   8.559990e-08   5.315065e-02   1.199541e+01   6.240433e+00  -5.482187e+05   3.650450e+04  -2.959451e+05  -1.704774e+10  -2.955021e+11  -4.870080e+09   6.240672e+05   1.216132e-26   0.000000e+00   0.000000e+00
      864000   8.639990e-08   5.271207e-02   1.199544e+01   6.240196e+00  -5.482323e+05   3.626810e+04  -2.959490e+05  -1.692791e+10  -2.954873e+11  -4.853356e+09   6.240672e+05   1.215952e-26   0.000000e+00   0.000000e+00
      872000   8.719990e-08   5.227348e-02   1.199547e+01   6.239960e+00  -5.482458e+05   3.603172e+04  -2.959529e+05  -1.680810e+10  -2.954724e+11  -4.836647e+09   6.240672e+05   1.215771e-26   0.000000e+00   0.000000e+00
      880000   8.799990e-08   5.183488e-02   1.199550e+01   6.239723e+00  -5.482592e+05   3.579535e+04  -2.959568e+05  -1.668830e+10  -2.954575e+11  -4.819953e+09   6.240672e+05   1.215591e-26   0.000000e+00   0.000000e+00
      888000   8.879990e-08   5.139627e-02   1.199553e+01   6.239486e+00  -5.482725e+05   3.555899e+04  -2.959606e+05  -1.656852e+10  -2.954424e+11  -4.803274e+09   6.240672e+05   1.215410e-26   0.000000e+00   0.000000e+00
      896000   8.959990e-08   5.095764e-02   1.199556e+01   6.239249e+00  -5.482857e+05   3.532264e+04  -2.959644e+05  -1.644876e+10  -2.954274e+11  -4.786610e+09   6.240672e+05   1.215230e-26   0.000000e+00   0.000000e+00
      904000   9.039990e-08   5.051901e-02   1.199558e+01   6.239013e+00  -5.482988e+05   3.508630e+04  -2.959683e+05  -1.632901e+10  -2.954123e+11  -4.769960e+09   6.240672e+05   1.215049e-26   0.000000e+00   0.000000e+00
      912000   9.119990e-08   5.008037e-02   1.199561e+01   6.238776e+00  -5.483118e+05   3.484998e+04  -2.959721e+05  -1.620928e+10  -2.953971e+11  -4.753326e+09   6.240672e+05   1.214868e-26   0.000000e+00   0.000000e+00
      920000   9.199990e-08   4.964171e-02   1.199564e+01   6.238539e+00  -5.483247e+05   3.461367e+04  -2.959759e+05  -1.608957e+10  -2.953818e+11  -4.736706e+09   6.240672e+05   1.214688e-26   0.000000e+00   0.000000e+00
      928000   9.279990e-08   4.920305e-02   1.199567e+01   6.238302e+00  -5.483375e+05   3.437737e+04  -2.959797e+05  -1.596987e+10  -2.953665e+11  -4.720102e+09   6.240672e+05   1.214507e-26   0.000000e+00   0.000000e+00
      936000   9.359990e-08   4.876437e-02   1.199569e+01   6.238065e+00  -5.483503e+05   3.414108e+04  -2.959834e+05  -1.585019e+10  -2.953512e+11  -4.703512e+09   6.240672e+05   1.214326e-26   0.000000e+00   0.000000e+00
      944000   9.439990e-08   4.832569e-02   1.199572e+01   6.237829e+00  -5.483629e+05   3.390481e+04  -2.959872e+05  -1.573053e+10  -2.953358e+11  -4.686938e+09   6.240672e+05   1.214145e-26   0.000000e+00   0.000000e+00
      952000   9.519990e-08   4.788699e-02   1.199575e+01   6.237592e+00  -5.483754e+05   3.366854e+04  -2.959909e+05  -1.561088e+10  -2.953203e+11  -4.670378e+09   6.240672e+05   1.213964e-26   0.000000e+00   0.000000e+00
      960000   9.599990e-08   4.744829e-02   1.199578e+01   6.237355e+00  -5.483879e+05   3.343229e+04  -2.959947e+05  -1.549125e+10  -2.953048e+11  -4.653834e+09   6.240672e+05   1.213783e-26   0.000000e+00   0.000000e+00
      968000   9.679990e-08   4.700957e-02   1.199580e+01   6.237118e+00  -5.484002e+05   3.319606e+04  -2.959984e+05  -1.537164e+10  -2.952892e+11  -4.637304e+09   6.240672e+05   1.213602e-26   0.000000e+00   0.000000e+00
      976000   9.759990e-08   4.657085e-02   1.199583e+01   6.236881e+00  -5.484125e+05   3.295983e+04  -2.960021e+05  -1.525204e+10  -2.952735e+11  -4.620790e+09   6.240672e+05   1.213421e-26   0.000000e+00   0.000000e+00
      984000   9.839990e-08   4.613211e-02   1.199586e+01   6.236645e+00  -5.484246e+05   3.272362e+04  -2.960058e+05  -1.513247e+10  -2.952578e+11  -4.604291e+09   6.240672e+05   1.213239e-26   0.000000e+00   0.000000e+00
      992000   9.919990e-08   4.569337e-02   1.199588e+01   6.236408e+00  -5.484367e+05   3.248742e+04  -2.960094e+05  -1.501291e+10  -2.952421e+11  -4.587806e+09   6.240672e+05   1.213058e-26   0.000000e+00   0.000000e+00
     1000000   9.999990e-08   4.525461e-02   1.199591e+01   6.236171e+00  -5.484486e+05   3.225123e+04  -2.960131e+05  -1.489336e+10  -2.952263e+11  -4.571337e+09   6.240672e+05   1.212877e-26   0.000000e+00   0.000000e+00
     1008000   1.007999e-07   4.481585e-02   1.199593e+01   6.235934e+00  -5.484605e+05   3.201506e+04  -2.960168e+05  -1.477383e+10  -2.952104e+11  -4.554883e+09   6.240672e+05   1.212695e-26   0.000000e+00   0.000000e+00
     1016000   1.015999e-07   4.437708e-02   1.199596e+01   6.235697e+00  -5.484723e+05   3.177890e+04  -2.960204e+05  -1.465432e+10  -2.951945e+11  -4.538444e+09   6.240672e+05   1.212514e-26   0.000000e+00   0.000000e+00
     1024000   1.023999e-07   4.393829e-02   1.199598e+01   6.235461e+00  -5.484840e+05   3.154275e+04  -2.960240e+05  -1.453483e+10  -2.951785e+11  -4.522020e+09   6.240672e+05   1.212333e-26   0.000000e+00   0.000000e+00
     1032000   1.031999e-07   4.349950e-02   1.199601e+01   6.235224e+00  -5.484955e+05   3.130661e+04  -2.960276e+05  -1.441536e+10  -2.951624e+11  -4.505611e+09   6.240672e+05   1.212151e-26   0.000000e+00   0.000000e+00
     1040000   1.039999e-07   4.306070e-02   1.199603e+01   6.234987e+00  -5.485070e+05   3.107049e+04  -2.960312e+05  -1.429590e+10  -2.951463e+11  -4.489217e+09   6.240672e+05   1.211969e-26   0.000000e+00   0.000000e+00
     1048000   1.047999e-07   4.262189e-02   1.199606e+01   6.234750e+00  -5.485184e+05   3.083438e+04  -2.960348e+05  -1.417646e+10  -2.951301e+11  -4.472838e+09   6.240672e+05   1.211788e-26   0.000000e+00   0.000000e+00
     1056000   1.055999e-07   4.218307e-02   1.199608e+01   6.234513e+00  -5.485297e+05   3.059828e+04  -2.960384e+05  -1.405703e+10  -2.951139e+11  -4.456475e+09   6.240672e+05   1.211606e-26   0.000000e+00   0.000000e+00
     1064000   1.063999e-07   4.174424e-02   1.199611e+01   6.234276e+00  -5.485409e+05   3.036219e+04  -2.960419e+05  -1.393762e+10  -2.950976e+11  -4.440126e+09   6.240672e+05   1.211424e-26   0.000000e+00   0.000000e+00
     1072000   1.071999e-07   4.130541e-02   1.199613e+01   6.234040e+00  -5.485520e+05   3.012612e+04  -2.960455e+05  -1.381823e+10  -2.950813e+11  -4.423793e+09   6.240672e+05   1.211243e-26   0.000000e+00   0.000000e+00
     1080000   1.079999e-07   4.086656e-02   1.199616e+01   6.233803e+00  -5.485630e+05   2.989006e+04  -2.960490e+05  -1.369886e+10  -2.950649e+11  -4.407475e+09   6.240672e+05   1.211061e-26   0.000000e+00   0.000000e+00
     1088000   1.087999e-07   4.042770e-02   1.199618e+01   6.233566e+00  -5.485739e+05   2.965402e+04  -2.960525e+05  -1.357951e+10  -2.950485e+11  -4.391172e+09   6.240672e+05   1.210879e-26   0.000000e+00   0.000000e+00
     1096000   1.095999e-07   3.998884e-02   1.199620e+01   6.233329e+00  -5.485847e+05   2.941799e+04  -2.960560e+05  -1.346017e+10  -2.950320e+11  -4.374884e+09   6.240672e+05   1.210697e-26   0.000000e+00   0.000000e+00
     1104000   1.103999e-07   3.954997e-02   1.199623e+01   6.233092e+00  -5.485955e+05   2.918197e+04  -2.960595e+05  -1.334085e+10  -2.950154e+11  -4.358611e+09   6.240672e+05   1.210515e-26   0.000000e+00   0.000000e+00
     1112000   1.111999e-07   3.911109e-02   1.199625e+01   6.232855e+00  -5.486061e+05   2.894596e+04  -2.960630e+05  -1.322155e+10  -2.949988e+11  -4.342354e+09   6.240672e+05   1.210333e-26   0.000000e+00   0.000000e+00
     1120000   1.119999e-07   3.867220e-02   1.199627e+01   6.232619e+00  -5.486166e+05   2.870997e+04  -2.960665e+05  -1.310226e+10  -2.949821e+11  -4.326111e+09   6.240672e+05   1.210151e-26   0.000000e+00   0.000000e+00
     1128000   1.127999e-07   3.823330e-02   1.199630e+01   6.232382e+00  -5.486270e+05   2.847399e+04  -2.960699e+05  -1.298299e+10  -2.949653e+11  -4.309884e+09   6.240672e+05   1.209969e-26   0.000000e+00   0.000000e+00
     1136000   1.135999e-07   3.779440e-02   1.199632e+01   6.232145e+00  -5.486374e+05   2.823802e+04  -2.960734e+05  -1.286374e+10  -2.949486e+11  -4.293672e+09   6.240672e+05   1.209786e-26   0.000000e+00   0.000000e+00
     1144000   1.143999e-07   3.735548e-02   1.199634e+01   6.231908e+00  -5.486476e+05   2.800207e+04  -2.960768e+05  -1.274451e+10  -2.949317e+11  -4.277476e+09   6.240672e+05   1.209604e-26   0.000000e+00   0.000000e+00
     1152000   1.151999e-07   3.691656e-02   1.199636e+01   6.231671e+00  -5.486578e+05   2.776613e+04  -2.960802e+05  -1.262530e+10  -2.949148e+11  -4.261294e+09   6.240672e+05   1.209422e-26   0.000000e+00   0.000000e+00
     1160000   1.159999e-07   3.647763e-02   1.199639e+01   6.231434e+00  -5.486678e+05   2.753021e+04  -2.960836e+05  -1.250610e+10  -2.948978e+11  -4.245128e+09   6.240672e+05   1.209240e-26   0.000000e+00   0.000000e+00
     1168000   1.167999e-07   3.603869e-02   1.199641e+01   6.231197e+00  -5.486778e+05   2.729430e+04  -2.960870e+05  -1.238692e+10  -2.948808e+11  -4.228977e+09   6.240672e+05   1.209057e-26   0.000000e+00   0.000000e+00
     1176000   1.175999e-07   3.559975e-02   1.199643e+01   6.230961e+00  -5.486876e+05   2.705840e+04  -2.960904e+05  -1.226776e+10  -2.948637e+11  -4.212842e+09   6.240672e+05   1.208875e-26   0.000000e+00   0.000000e+00
     1184000   1.183999e-07   3.516079e-02   1.199645e+01   6.230724e+00  -5.486974e+05   2.682252e+04  -2.960938e+05  -1.214861e+10  -2.948466e+11  -4.196721e+09   6.240672e+05   1.208692e-26   0.000000e+00   0.000000e+00
     1192000   1.191999e-07   3.472183e-02   1.199647e+01   6.230487e+00  -5.487071e+05   2.658664e+04  -2.960971e+05  -1.202949e+10  -2.948294e+11  -4.180616e+09   6.240672e+05   1.208510e-26   0.000000e+00   0.000000e+00
     1200000   1.199999e-07   3.428286e-02   1.199649e+01   6.230250e+00  -5.487167e+05   2.635079e+04  -2.961004e+05  -1.191038e+10  -2.948121e+11  -4.164526e+09   6.240672e+05   1.208327e-26   0.000000e+00   0.000000e+00
     1208000   1.207999e-07   3.384388e-02   1.199651e+01   6.230013e+00  -5.487261e+05   2.611495e+04  -2.961038e+05  -1.179129e+10  -2.947948e+11  -4.148452e+09   6.240672e+05   1.208144e-26   0.000000e+00   0.000000e+00
     1216000   1.215999e-07   3.340490e-02   1.199653e+01   6.229776e+00  -5.487355e+05   2.587912e+04  -2.961071e+05  -1.167221e+10  -2.947774e+11  -4.132392e+09   6.240672e+05   1.207962e-26   0.000000e+00   0.000000e+00
     1224000   1.223999e-07   3.296591e-02   1.199656e+01   6.229539e+00  -5.487448e+05   2.564330e+04  -2.961104e+05  -1.155316e+10  -2.947600e+11  -4.116348e+09   6.240672e+05   1.207779e-26   0.000000e+00   0.000000e+00
     1232000   1.231999e-07   3.252691e-02   1.199658e+01   6.229302e+00  -5.487540e+05   2.540750e+04  -2.961137e+05  -1.143412e+10  -2.947425e+11  -4.100320e+09   6.240672e+05   1.207596e-26   0.000000e+00   0.000000e+00
     1240000   1.239999e-07   3.208790e-02   1.199660e+01   6.229065e+00  -5.487631e+05   2.517171e+04  -2.961169e+05  -1.131510e+10  -2.947250e+11  -4.084306e+09   6.240672e+05   1.207413e-26   0.000000e+00   0.000000e+00
     1248000   1.247999e-07   3.164889e-02   1.199662e+01   6.228829e+00  -5.487721e+05   2.493594e+04  -2.961202e+05  -1.119610e+10  -2.947074e+11  -4.068308e+09   6.240672e+05   1.207230e-26   0.000000e+00   0.000000e+00
     1256000   1.255999e-07   3.120986e-02   1.199664e+01   6.228592e+00  -5.487810e+05   2.470018e+04  -2.961235e+05  -1.107711e+10  -2.946897e+11  -4.052326e+09   6.240672e+05   1.207047e-26   0.000000e+00   0.000000e+00
     1264000   1.263999e-07   3.077084e-02   1.199666e+01   6.228355e+00  -5.487898e+05   2.446444e+04  -2.961267e+05  -1.095815e+10  -2.946720e+11  -4.036358e+09   6.240672e+05   1.206864e-26   0.000000e+00   0.000000e+00
     1272000   1.271999e-07   3.033180e-02   1.199668e+01   6.228118e+00  -5.487986e+05   2.422871e+04  -2.961299e+05  -1.083920e+10  -2.946542e+11  -4.020406e+09   6.240672e+05   1.206681e-26   0.000000e+00   0.000000e+00
     1280000   1.279999e-07   2.989276e-02   1.199669e+01   6.227881e+00  -5.488072e+05   2.399299e+04  -2.961331e+05  -1.072027e+10  -2.946364e+11  -4.004470e+09   6.240672e+05   1.206498e-26   0.000000e+00   0.000000e+00
     1288000   1.287999e-07   2.945371e-02   1.199671e+01   6.227644e+00  -5.488157e+05   2.375729e+04  -2.961363e+05  -1.060136e+10  -2.946185e+11  -3.988549e+09   6.240672e+05   1.206315e-26   0.000000e+00   0.000000e+00
     1296000   1.295999e-07   2.901465e-02   1.199673e+01   6.227407e+00  -5.488241e+05   2.352160e+04  -2.961395e+05  -1.048246e+10  -2.946006e+11  -3.972643e+09   6.240672e+05   1.206131e-26   0.000000e+00   0.000000e+00
     1304000   1.303999e-07   2.857559e-02   1.199675e+01   6.227170e+00  -5.488325e+05   2.328593e+04  -2.961427e+05  -1.036359e+10  -2.945826e+11  -3.956752e+09   6.240672e+05   1.205948e-26   0.000000e+00   0.000000e+00
     1312000   1.311999e-07   2.813652e-02   1.199677e+01   6.226933e+00  -5.488407e+05   2.305027e+04  -2.961458e+05  -1.024473e+10  -2.945645e+11  -3.940877e+09   6.240672e+05   1.205765e-26   0.000000e+00   0.000000e+00
     1320000   1.319999e-07   2.769745e-02   1.199679e+01   6.226696e+00  -5.488489e+05   2.281462e+04  -2.961490e+05  -1.012589e+10  -2.945464e+11  -3.925018e+09   6.240672e+05   1.205581e-26   0.000000e+00   0.000000e+00
     1328000   1.327999e-07   2.725836e-02   1.199681e+01   6.226460e+00  -5.488569e+05   2.257899e+04  -2.961521e+05  -1.000707e+10  -2.945283e+11  -3.909173e+09   6.240672e+05   1.205398e-26   0.000000e+00   0.000000e+00
     1336000   1.335999e-07   2.681927e-02   1.199682e+01   6.226223e+00  -5.488649e+05   2.234338e+04  -2.961552e+05  -9.888269e+09  -2.945100e+11  -3.893345e+09   6.240672e+05   1.205214e-26   0.000000e+00   0.000000e+00
     1344000   1.343999e-07   2.638018e-02   1.199684e+01   6.225986e+00  -5.488727e+05   2.210778e+04  -2.961583e+05  -9.769484e+09  -2.944918e+11  -3.877531e+09   6.240672e+05   1.205031e-26   0.000000e+00   0.000000e+00
     1352000   1.351999e-07   2.594108e-02   1.199686e+01   6.225749e+00  -5.488805e+05   2.187219e+04  -2.961614e+05  -9.650718e+09  -2.944734e+11  -3.861734e+09   6.240672e+05   1.204847e-26   0.000000e+00   0.000000e+00
     1360000   1.359999e-07   2.550197e-02   1.199688e+01   6.225512e+00  -5.488882e+05   2.163662e+04  -2.961645e+05  -9.531970e+09  -2.944550e+11  -3.845951e+09   6.240672e+05   1.204664e-26   0.000000e+00   0.000000e+00
     1368000   1.367999e-07   2.506286e-02   1.199689e+01   6.225275e+00  -5.488958e+05   2.140106e+04  -2.961676e+05  -9.413241e+09  -2.944366e+11  -3.830184e+09   6.240672e+05   1.204480e-26   0.000000e+00   0.000000e+00
     1376000   1.375999e-07   2.462374e-02   1.199691e+01   6.225038e+00  -5.489032e+05   2.116552e+04  -2.961707e+05  -9.294530e+09  -2.944180e+11  -3.814433e+09   6.240672e+05   1.204296e-26   0.000000e+00   0.000000e+00
     1384000   1.383999e-07   2.418461e-02   1.199693e+01   6.224801e+00  -5.489106e+05   2.093000e+04  -2.961737e+05  -9.175837e+09  -2.943995e+11  -3.798697e+09   6.240672e+05   1.204112e-26   0.000000e+00   0.000000e+00
     1392000   1.391999e-07   2.374548e-02   1.199694e+01   6.224564e+00  -5.489179e+05   2.069448e+04  -2.961767e+05  -9.057162e+09  -2.943809e+11  -3.782976e+09   6.240672e+05   1.203929e-26   0.000000e+00   0.000000e+00
     1400000   1.399999e-07   2.330634e-02   1.199696e+01   6.224327e+00  -5.489251e+05   2.045899e+04  -2.961798e+05  -8.938507e+09  -2.943622e+11  -3.767271e+09   6.240672e+05   1.203745e-26   0.000000e+00   0.000000e+00
     1408000   1.407999e-07   2.286720e-02   1.199698e+01   6.224090e+00  -5.489322e+05   2.022350e+04  -2.961828e+05  -8.819869e+09  -2.943434e+11  -3.751581e+09   6.240672e+05   1.203561e-26   0.000000e+00   0.000000e+00
     1416000   1.415999e-07   2.242805e-02   1.199699e+01   6.223853e+00  -5.489392e+05   1.998804e+04  -2.961858e+05  -8.701250e+09  -2.943246e+11  -3.735907e+09   6.240672e+05   1.203377e-26   0.000000e+00   0.000000e+00
     1424000   1.423999e-07   2.198890e-02   1.199701e+01   6.223616e+00  -5.489462e+05   1.975258e+04  -2.961887e+05  -8.582650e+09  -2.943058e+11  -3.720249e+09   6.240672e+05   1.203193e-26   0.000000e+00   0.000000e+00
     1432000   1.431999e-07   2.154974e-02   1.199703e+01   6.223379e+00  -5.489530e+05   1.951715e+04  -2.961917e+05  -8.464068e+09  -2.942869e+11  -3.704606e+09   6.240672e+05   1.203009e-26   0.000000e+00   0.000000e+00
     1440000   1.439999e-07   2.111057e-02   1.199704e+01   6.223142e+00  -5.489597e+05   1.928173e+04  -2.961947e+05  -8.345505e+09  -2.942679e+11  -3.688979e+09   6.240672e+05   1.202824e-26   0.000000e+00   0.000000e+00
     1448000   1.447999e-07   2.067140e-02   1.199706e+01   6.222905e+00  -5.489663e+05   1.904632e+04  -2.961976e+05  -8.226961e+09  -2.942489e+11  -3.673367e+09   6.240672e+05   1.202640e-26   0.000000e+00   0.000000e+00
     1456000   1.455999e-07   2.023223e-02   1.199707e+01   6.222668e+00  -5.489729e+05   1.881093e+04  -2.962005e+05  -8.108435e+09  -2.942298e+11  -3.657770e+09   6.240672e+05   1.202456e-26   0.000000e+00   0.000000e+00
     1464000   1.463999e-07   1.979305e-02   1.199709e+01   6.222431e+00  -5.489793e+05   1.857555e+04  -2.962035e+05  -7.989928e+09  -2.942107e+11  -3.642190e+09   6.240672e+05   1.202272e-26   0.000000e+00   0.000000e+00
     1472000   1.471999e-07   1.935386e-02   1.199710e+01   6.222195e+00  -5.489856e+05   1.834019e+04  -2.962064e+05  -7.871439e+09  -2.941915e+11  -3.626624e+09   6.240672e+05   1.202087e-26   0.000000e+00   0.000000e+00
     1480000   1.479999e-07   1.891467e-02   1.199712e+01   6.221958e+00  -5.489919e+05   1.810484e+04  -2.962093e+05  -7.752970e+09  -2.941722e+11  -3.611075e+09   6.240672e+05   1.201903e-26   0.000000e+00   0.000000e+00
     1488000   1.487999e-07   1.847547e-02   1.199713e+01   6.221721e+00  -5.489980e+05   1.786951e+04  -2.962121e+05  -7.634519e+09  -2.941529e+11  -3.595541e+09   6.240672e+05   1.201718e-26   0.000000e+00   0.000000e+00
     1496000   1.495999e-07   1.803627e-02   1.199714e+01   6.221484e+00  -5.490041e+05   1.763420e+04  -2.962150e+05  -7.516087e+09  -2.941336e+11  -3.580022e+09   6.240672e+05   1.201534e-26   0.000000e+00   0.000000e+00
     1504000   1.503999e-07   1.759707e-02   1.199716e+01   6.221247e+00  -5.490101e+05   1.739890e+04  -2.962179e+05  -7.397674e+09  -2.941142e+11  -3.564519e+09   6.240672e+05   1.201349e-26   0.000000e+00   0.000000e+00
     1512000   1.511999e-07   1.715786e-02   1.199717e+01   6.221010e+00  -5.490159e+05   1.716362e+04  -2.962207e+05  -7.279279e+09  -2.940947e+11  -3.549032e+09   6.240672e+05   1.201165e-26   0.000000e+00   0.000000e+00
     1520000   1.519999e-07   1.671864e-02   1.199719e+01   6.220773e+00  -5.490217e+05   1.692835e+04  -2.962236e+05  -7.160904e+09  -2.940751e+11  -3.533561e+09   6.240672e+05   1.200980e-26   0.000000e+00   0.000000e+00
     1528000   1.527999e-07   1.627942e-02   1.199720e+01   6.220536e+00  -5.490274e+05   1.669310e+04  -2.962264e+05  -7.042547e+09  -2.940556e+11  -3.518105e+09   6.240672e+05   1.200795e-26   0.000000e+00   0.000000e+00
     1536000   1.535999e-07   1.584020e-02   1.199721e+01   6.220299e+00  -5.490330e+05   1.645786e+04  -2.962292e+05  -6.924209e+09  -2.940359e+11  -3.502664e+09   6.240672e+05   1.200611e-26   0.000000e+00   0.000000e+00
     1544000   1.543999e-07   1.540097e-02   1.199723e+01   6.220062e+00  -5.490385e+05   1.622264e+04  -2.962320e+05  -6.805891e+09  -2.940162e+11  -3.487239e+09   6.240672e+05   1.200426e-26   0.000000e+00   0.000000e+00
     1552000   1.551999e-07   1.496174e-02   1.199724e+01   6.219825e+00  -5.490439e+05   1.598743e+04  -2.962348e+05  -6.687591e+09  -2.939965e+11  -3.471830e+09   6.240672e+05   1.200241e-26   0.000000e+00   0.000000e+00
     1560000   1.559999e-07   1.452250e-02   1.199725e+01   6.219588e+00  -5.490492e+05   1.575225e+04  -2.962375e+05  -6.569310e+09  -2.939766e+11  -3.456437e+09   6.240672e+05   1.200056e-26   0.000000e+00   0.000000e+00
     1568000   1.567999e-07   1.408326e-02   1.199726e+01   6.219351e+00  -5.490544e+05   1.551707e+04  -2.962403e+05  -6.451049e+09  -2.939568e+11  -3.441059e+09   6.240672e+05   1.199871e-26   0.000000e+00   0.000000e+00
     1576000   1.575999e-07   1.364401e-02   1.199728e+01   6.219114e+00  -5.490595e+05   1.528191e+04  -2.962430e+05  -6.332806e+09  -2.939368e+11  -3.425697e+09   6.240672e+05   1.199686e-26   0.000000e+00   0.000000e+00
     1584000   1.583999e-07   1.320476e-02   1.199729e+01   6.218877e+00  -5.490645e+05   1.504677e+04  -2.962458e+05  -6.214583e+09  -2.939169e+11  -3.410351e+09   6.240672e+05   1.199501e-26   0.000000e+00   0.000000e+00
     1592000   1.591999e-07   1.276551e-02   1.199730e+01   6.218640e+00  -5.490694e+05   1.481165e+04  -2.962485e+05  -6.096378e+09  -2.938968e+11  -3.395020e+09   6.240672e+05   1.199316e-26   0.000000e+00   0.000000e+00
     1600000   1.599999e-07   1.232625e-02   1.199731e+01   6.218403e+00  -5.490743e+05   1.457654e+04  -2.962512e+05  -5.978193e+09  -2.938767e+11  -3.379705e+09   6.240672e+05   1.199131e-26   0.000000e+00   0.000000e+00
     1608000   1.607999e-07   1.188699e-02   1.199732e+01   6.218166e+00  -5.490790e+05   1.434144e+04  -2.962539e+05  -5.860027e+09  -2.938566e+11  -3.364406e+09   6.240672e+05   1.198945e-26   0.000000e+00   0.000000e+00
     1616000   1.615999e-07   1.144772e-02   1.199733e+01   6.217929e+00  -5.490837e+05   1.410637e+04  -2.962566e+05  -5.741881e+09  -2.938364e+11  -3.349122e+09   6.240672e+05   1.198760e-26   0.000000e+00   0.000000e+00
     1624000   1.623999e-07   1.100846e-02   1.199735e+01   6.217692e+00  -5.490882e+05   1.387131e+04  -2.962593e+05  -5.623753e+09  -2.938161e+11  -3.333855e+09   6.240672e+05   1.198575e-26   0.000000e+00   0.000000e+00
     1632000   1.631999e-07   1.056918e-02   1.199736e+01   6.217455e+00  -5.490926e+05   1.363626e+04  -2.962619e+05  -5.505645e+09  -2.937958e+11  -3.318603e+09   6.240672e+05   1.198390e-26   0.000000e+00   0.000000e+00
     1640000   1.639999e-07   1.012991e-02   1.199737e+01   6.217218e+00  -5.490970e+05   1.340123e+04  -2.962646e+05  -5.387556e+09  -2.937754e+11  -3.303366e+09   6.240672e+05   1.198204e-26   0.000000e+00   0.000000e+00
     1648000   1.647999e-07   9.690628e-03   1.199738e+01   6.216981e+00  -5.491013e+05   1.316622e+04  -2.962672e+05  -5.269487e+09  -2.937550e+11  -3.288146e+09   6.240672e+05   1.198019e-26   0.000000e+00   0.000000e+00
     1656000   1.655999e-07   9.251345e-03   1.199739e+01   6.216744e+00  -5.491054e+05   1.293123e+04  -2.962698e+05  -5.151436e+09  -2.937345e+11  -3.272941e+09   6.240672e+05   1.197833e-26   0.000000e+00   0.000000e+00
     1664000   1.663999e-07   8.812059e-03   1.199740e+01   6.216507e+00  -5.491095e+05   1.269625e+04  -2.962724e+05  -5.033406e+09  -2.937139e+11  -3.257752e+09   6.240672e+05   1.197648e-26   0.000000e+00   0.000000e+00
     1672000   1.671999e-07   8.372770e-03   1.199741e+01   6.216270e+00  -5.491135e+05   1.246128e+04  -2.962750e+05  -4.915394e+09  -2.936933e+11  -3.242578e+09   6.240672e+05   1.197462e-26   0.000000e+00   0.000000e+00
     1680000   1.679999e-07   7.933478e-03   1.199742e+01   6.216033e+00  -5.491174e+05   1.222634e+04  -2.962776e+05  -4.797402e+09  -2.936727e+11  -3.227421e+09   6.240672e+05   1.197276e-26   0.000000e+00   0.000000e+00
     1688000   1.687999e-07   7.494182e-03   1.199743e+01   6.215796e+00  -5.491212e+05   1.199141e+04  -2.962802e+05  -4.679430e+09  -2.936520e+11  -3.212279e+09   6.240672e+05   1.197091e-26   0.000000e+00   0.000000e+00
     1696000   1.695999e-07   7.054884e-03   1.199744e+01   6.215559e+00  -5.491249e+05   1.175649e+04  -2.962828e+05  -4.561477e+09  -2.936312e+11  -3.197153e+09   6.240672e+05   1.196905e-26   0.000000e+00   0.000000e+00
     1704000   1.703999e-07   6.615583e-03   1.199745e+01   6.215322e+00  -5.491285e+05   1.152160e+04  -2.962853e+05  -4.443543e+09  -2.936104e+11  -3.182043e+09   6.240672e+05   1.196719e-26   0.000000e+00   0.000000e+00
     1712000   1.711999e-07   6.176278e-03   1.199746e+01   6.215085e+00  -5.491320e+05   1.128672e+04  -2.962879e+05  -4.325629e+09  -2.935895e+11  -3.166949e+09   6.240672e+05   1.196533e-26   0.000000e+00   0.000000e+00
     1720000   1.719999e-07   5.736971e-03   1.199747e+01   6.214848e+00  -5.491354e+05   1.105185e+04  -2.962904e+05  -4.207735e+09  -2.935685e+11  -3.151870e+09   6.240672e+05   1.196347e-26   0.000000e+00   0.000000e+00
     1728000   1.727999e-07   5.297662e-03   1.199747e+01   6.214610e+00  -5.491387e+05   1.081701e+04  -2.962929e+05  -4.089860e+09  -2.935475e+11  -3.136808e+09   6.240672e+05   1.196161e-26   0.000000e+00   0.000000e+00
     1736000   1.735999e-07   4.858349e-03   1.199748e+01   6.214373e+00  -5.491419e+05   1.058218e+04  -2.962954e+05  -3.972005e+09  -2.935265e+11  -3.121761e+09   6.240672e+05   1.195975e-26   0.000000e+00   0.000000e+00
     1744000   1.743999e-07   4.419035e-03   1.199749e+01   6.214136e+00  -5.491451e+05   1.034737e+04  -2.962979e+05  -3.854170e+09  -2.935054e+11  -3.106730e+09   6.240672e+05   1.195789e-26   0.000000e+00   0.000000e+00
     1752000   1.751999e-07   3.979717e-03   1.199750e+01   6.213899e+00  -5.491481e+05   1.011257e+04  -2.963004e+05  -3.736354e+09  -2.934842e+11  -3.091715e+09   6.240672e+05   1.195603e-26   0.000000e+00   0.000000e+00
     1760000   1.759999e-07   3.540398e-03   1.199751e+01   6.213662e+00  -5.491510e+05   9.877790e+03  -2.963028e+05  -3.618558e+09  -2.934630e+11  -3.076715e+09   6.240672e+05   1.195417e-26   0.000000e+00   0.000000e+00
     1768000   1.767999e-07   3.101076e-03   1.199752e+01   6.213425e+00  -5.491539e+05   9.643028e+03  -2.963053e+05  -3.500782e+09  -2.934417e+11  -3.061732e+09   6.240672e+05   1.195231e-26   0.000000e+00   0.000000e+00
     1776000   1.775999e-07   2.661752e-03   1.199752e+01   6.213188e+00  -5.491566e+05   9.408284e+03  -2.963077e+05  -3.383026e+09  -2.934204e+11  -3.046764e+09   6.240672e+05   1.195045e-26   0.000000e+00   0.000000e+00
     1784000   1.783999e-07   2.222425e-03   1.199753e+01   6.212951e+00  -5.491593e+05   9.173556e+03  -2.963102e+05  -3.265289e+09  -2.933990e+11  -3.031813e+09   6.240672e+05   1.194858e-26   0.000000e+00   0.000000e+00
     1792000   1.791999e-07   1.783097e-03   1.199754e+01   6.212714e+00  -5.491619e+05   8.938845e+03  -2.963126e+05  -3.147572e+09  -2.933776e+11  -3.016877e+09   6.240672e+05   1.194672e-26   0.000000e+00   0.000000e+00
     1800000   1.799999e-07   1.343766e-03   1.199754e+01   6.212477e+00  -5.491643e+05   8.704152e+03  -2.963150e+05  -3.029875e+09  -2.933561e+11  -3.001957e+09   6.240672e+05   1.194486e-26   0.000000e+00   0.000000e+00
     1808000   1.807999e-07   9.044338e-04   1.199755e+01   6.212240e+00  -5.491667e+05   8.469476e+03  -2.963174e+05  -2.912198e+09  -2.933345e+11  -2.987053e+09   6.240672e+05   1.194299e-26   0.000000e+00   0.000000e+00
     1816000   1.815999e-07   4.650995e-04   1.199756e+01   6.212003e+00  -5.491690e+05   8.234817e+03  -2.963198e+05  -2.794541e+09  -2.933129e+11  -2.972165e+09   6.240672e+05   1.194113e-26   0.000000e+00   0.000000e+00
     1824000   1.823999e-07   2.576345e-05   1.199756e+01   6.211766e+00  -5.491712e+05   8.000175e+03  -2.963222e+05  -2.676904e+09  -2.932912e+11  -2.957293e+09   6.240672e+05   1.193926e-26   0.000000e+00   0.000000e+00
