     timestep     time              x             y              z              vx             vy             vz             ax             ay             az         v_magnitude      ELoss        Electronic      Nuclear
           0   0.000000e+00   1.000000e-01   1.976599e+01   1.236353e+01  -6.803915e+04   1.292373e+05   2.010259e+04   0.000000e+00   0.000000e+00   0.000000e+00   1.474304e+05   0.000000e+00   0.000000e+00   0.000000e+00
        8000   7.999000e-10   9.994550e-02   1.976609e+01   1.236355e+01  -6.821422e+04   1.291454e+05   2.010004e+04  -2.187600e+11  -1.150522e+11  -3.188458e+09   1.474304e+05   4.732277e-28   0.000000e+00   0.000000e+00
       16000   1.599900e-09   9.989086e-02   1.976619e+01   1.236356e+01  -6.838917e+04   1.290532e+05   2.009749e+04  -2.186056e+11  -1.153494e+11  -3.186436e+09   1.474304e+05   4.732348e-28   0.000000e+00   0.000000e+00
       24000   2.399900e-09   9.983608e-02   1.976630e+01   1.236358e+01  -6.856399e+04   1.289608e+05   2.009494e+04  -2.184507e+11  -1.156464e+11  -3.184407e+09   1.474304e+05   4.732419e-28   0.000000e+00   0.000000e+00
       32000   3.199900e-09   9.978115e-02   1.976640e+01   1.236360e+01  -6.873869e+04   1.288682e+05   2.009240e+04  -2.182955e+11  -1.159433e+11  -3.182370e+09   1.474304e+05   4.732491e-28   0.000000e+00   0.000000e+00
       40000   3.999900e-09   9.972609e-02   1.976650e+01   1.236361e+01  -6.891326e+04   1.287753e+05   2.008985e+04  -2.181398e+11  -1.162399e+11  -3.180325e+09   1.474304e+05   4.732562e-28   0.000000e+00   0.000000e+00
       48000   4.799900e-09   9.967089e-02   1.976661e+01   1.236363e+01  -6.908771e+04   1.286822e+05   2.008731e+04  -2.179837e+11  -1.165363e+11  -3.178273e+09   1.474304e+05   4.732633e-28   0.000000e+00   0.000000e+00
       56000   5.599900e-09   9.961555e-02   1.976671e+01   1.236364e+01  -6.926203e+04   1.285888e+05   2.008477e+04  -2.178273e+11  -1.168325e+11  -3.176214e+09   1.474304e+05   4.732705e-28   0.000000e+00   0.000000e+00
       64000   6.399900e-09   9.956007e-02   1.976681e+01   1.236366e+01  -6.943623e+04   1.284952e+05   2.008223e+04  -2.176704e+11  -1.171286e+11  -3.174147e+09   1.474304e+05   4.732776e-28   0.000000e+00   0.000000e+00
       72000   7.199900e-09   9.950446e-02   1.976691e+01   1.236368e+01  -6.961031e+04   1.284014e+05   2.007969e+04  -2.175131e+11  -1.174244e+11  -3.172073e+09   1.474304e+05   4.732848e-28   0.000000e+00   0.000000e+00
       80000   7.999900e-09   9.944870e-02   1.976702e+01   1.236369e+01  -6.978425e+04   1.283074e+05   2.007715e+04  -2.173554e+11  -1.177199e+11  -3.169991e+09   1.474304e+05   4.732919e-28   0.000000e+00   0.000000e+00
       88000   8.799900e-09   9.939280e-02   1.976712e+01   1.236371e+01  -6.995808e+04   1.282131e+05   2.007462e+04  -2.171974e+11  -1.180153e+11  -3.167902e+09   1.474304e+05   4.732991e-28   0.000000e+00   0.000000e+00
       96000   9.599900e-09   9.933677e-02   1.976722e+01   1.236372e+01  -7.013177e+04   1.281185e+05   2.007208e+04  -2.170389e+11  -1.183105e+11  -3.165806e+09   1.474304e+05   4.733063e-28   0.000000e+00   0.000000e+00
      104000   1.039990e-08   9.928059e-02   1.976732e+01   1.236374e+01  -7.030534e+04   1.280238e+05   2.006955e+04  -2.168800e+11  -1.186055e+11  -3.163702e+09   1.474304e+05   4.733134e-28   0.000000e+00   0.000000e+00
      112000   1.119990e-08   9.922428e-02   1.976743e+01   1.236376e+01  -7.047878e+04   1.279288e+05   2.006702e+04  -2.167207e+11  -1.189002e+11  -3.161591e+09   1.474304e+05   4.733206e-28   0.000000e+00   0.000000e+00
      120000   1.199990e-08   9.916782e-02   1.976753e+01   1.236377e+01  -7.065209e+04   1.278335e+05   2.006449e+04  -2.165610e+11  -1.191948e+11  -3.159473e+09   1.474304e+05   4.733278e-28   0.000000e+00   0.000000e+00
      128000   1.279990e-08   9.911123e-02   1.976763e+01   1.236379e+01  -7.082528e+04   1.277381e+05   2.006196e+04  -2.164009e+11  -1.194891e+11  -3.157347e+09   1.474304e+05   4.733349e-28   0.000000e+00   0.000000e+00
      136000   1.359990e-08   9.905450e-02   1.976773e+01   1.236380e+01  -7.099833e+04   1.276424e+05   2.005944e+04  -2.162404e+11  -1.197832e+11  -3.155214e+09   1.474304e+05   4.733421e-28   0.000000e+00   0.000000e+00
      144000   1.439990e-08   9.899764e-02   1.976784e+01   1.236382e+01  -7.117126e+04   1.275464e+05   2.005692e+04  -2.160795e+11  -1.200771e+11  -3.153073e+09   1.474304e+05   4.733493e-28   0.000000e+00   0.000000e+00
      152000   1.519990e-08   9.894063e-02   1.976794e+01   1.236384e+01  -7.134406e+04   1.274502e+05   2.005439e+04  -2.159182e+11  -1.203708e+11  -3.150925e+09   1.474304e+05   4.733565e-28   0.000000e+00   0.000000e+00
      160000   1.599990e-08   9.888349e-02   1.976804e+01   1.236385e+01  -7.151673e+04   1.273538e+05   2.005187e+04  -2.157566e+11  -1.206643e+11  -3.148770e+09   1.474304e+05   4.733636e-28   0.000000e+00   0.000000e+00
      168000   1.679990e-08   9.882620e-02   1.976814e+01   1.236387e+01  -7.168927e+04   1.272572e+05   2.004936e+04  -2.155945e+11  -1.209576e+11  -3.146608e+09   1.474304e+05   4.733708e-28   0.000000e+00   0.000000e+00
      176000   1.759990e-08   9.876878e-02   1.976824e+01   1.236388e+01  -7.186168e+04   1.271603e+05   2.004684e+04  -2.154320e+11  -1.212506e+11  -3.144438e+09   1.474304e+05   4.733780e-28   0.000000e+00   0.000000e+00
      184000   1.839990e-08   9.871122e-02   1.976835e+01   1.236390e+01  -7.203396e+04   1.270632e+05   2.004433e+04  -2.152691e+11  -1.215434e+11  -3.142261e+09   1.474304e+05   4.733852e-28   0.000000e+00   0.000000e+00
      192000   1.919990e-08   9.865353e-02   1.976845e+01   1.236392e+01  -7.220611e+04   1.269658e+05   2.004181e+04  -2.151058e+11  -1.218361e+11  -3.140077e+09   1.474304e+05   4.733924e-28   0.000000e+00   0.000000e+00
      200000   1.999990e-08   9.859569e-02   1.976855e+01   1.236393e+01  -7.237813e+04   1.268682e+05   2.003930e+04  -2.149421e+11  -1.221285e+11  -3.137886e+09   1.474304e+05   4.733996e-28   0.000000e+00   0.000000e+00
      208000   2.079990e-08   9.853772e-02   1.976865e+01   1.236395e+01  -7.255002e+04   1.267704e+05   2.003679e+04  -2.147780e+11  -1.224206e+11  -3.135687e+09   1.474304e+05   4.734068e-28   0.000000e+00   0.000000e+00
      216000   2.159990e-08   9.847961e-02   1.976875e+01   1.236396e+01  -7.272177e+04   1.266724e+05   2.003428e+04  -2.146136e+11  -1.227126e+11  -3.133481e+09   1.474304e+05   4.734140e-28   0.000000e+00   0.000000e+00
      224000   2.239990e-08   9.842137e-02   1.976885e+01   1.236398e+01  -7.289340e+04   1.265741e+05   2.003178e+04  -2.144487e+11  -1.230044e+11  -3.131268e+09   1.474304e+05   4.734212e-28   0.000000e+00   0.000000e+00
      232000   2.319990e-08   9.836299e-02   1.976895e+01   1.236400e+01  -7.306489e+04   1.264755e+05   2.002927e+04  -2.142834e+11  -1.232959e+11  -3.129048e+09   1.474304e+05   4.734284e-28   0.000000e+00   0.000000e+00
      240000   2.399990e-08   9.830446e-02   1.976905e+01   1.236401e+01  -7.323625e+04   1.263768e+05   2.002677e+04  -2.141177e+11  -1.235872e+11  -3.126820e+09   1.474304e+05   4.734356e-28   0.000000e+00   0.000000e+00
      248000   2.479990e-08   9.824581e-02   1.976916e+01   1.236403e+01  -7.340748e+04   1.262778e+05   2.002427e+04  -2.139517e+11  -1.238783e+11  -3.124586e+09   1.474304e+05   4.734428e-28   0.000000e+00   0.000000e+00
      256000   2.559990e-08   9.818701e-02   1.976926e+01   1.236404e+01  -7.357857e+04   1.261786e+05   2.002177e+04  -2.137852e+11  -1.241692e+11  -3.122344e+09   1.474304e+05   4.734500e-28   0.000000e+00   0.000000e+00
      264000   2.639990e-08   9.812808e-02   1.976936e+01   1.236406e+01  -7.374954e+04   1.260791e+05   2.001928e+04  -2.136183e+11  -1.244598e+11  -3.120095e+09   1.474304e+05   4.734573e-28   0.000000e+00   0.000000e+00
      272000   2.719990e-08   9.806901e-02   1.976946e+01   1.236408e+01  -7.392036e+04   1.259795e+05   2.001678e+04  -2.134511e+11  -1.247502e+11  -3.117839e+09   1.474304e+05   4.734645e-28   0.000000e+00   0.000000e+00
      280000   2.799990e-08   9.800981e-02   1.976956e+01   1.236409e+01  -7.409106e+04   1.258795e+05   2.001429e+04  -2.132834e+11  -1.250404e+11  -3.115576e+09   1.474304e+05   4.734717e-28   0.000000e+00   0.000000e+00
      288000   2.879990e-08   9.795047e-02   1.976966e+01   1.236411e+01  -7.426162e+04   1.257794e+05   2.001180e+04  -2.131154e+11  -1.253304e+11  -3.113305e+09   1.474304e+05   4.734789e-28   0.000000e+00   0.000000e+00
      296000   2.959990e-08   9.789099e-02   1.976976e+01   1.236412e+01  -7.443204e+04   1.256790e+05   2.000931e+04  -2.129469e+11  -1.256202e+11  -3.111028e+09   1.474304e+05   4.734862e-28   0.000000e+00   0.000000e+00
      304000   3.039990e-08   9.783138e-02   1.976986e+01   1.236414e+01  -7.460233e+04   1.255784e+05   2.000682e+04  -2.127781e+11  -1.259097e+11  -3.108744e+09   1.474304e+05   4.734934e-28   0.000000e+00   0.000000e+00
      312000   3.119990e-08   9.777163e-02   1.976996e+01   1.236416e+01  -7.477249e+04   1.254776e+05   2.000433e+04  -2.126088e+11  -1.261990e+11  -3.106452e+09   1.474304e+05   4.735006e-28   0.000000e+00   0.000000e+00
      320000   3.199990e-08   9.771174e-02   1.977006e+01   1.236417e+01  -7.494251e+04   1.253765e+05   2.000185e+04  -2.124392e+11  -1.264881e+11  -3.104153e+09   1.474304e+05   4.735079e-28   0.000000e+00   0.000000e+00
      328000   3.279990e-08   9.765172e-02   1.977016e+01   1.236419e+01  -7.511239e+04   1.252752e+05   1.999937e+04  -2.122692e+11  -1.267770e+11  -3.101848e+09   1.474304e+05   4.735151e-28   0.000000e+00   0.000000e+00
      336000   3.359990e-08   9.759156e-02   1.977026e+01   1.236420e+01  -7.528214e+04   1.251736e+05   1.999688e+04  -2.120988e+11  -1.270656e+11  -3.099535e+09   1.474304e+05   4.735223e-28   0.000000e+00   0.000000e+00
      344000   3.439990e-08   9.753127e-02   1.977036e+01   1.236422e+01  -7.545175e+04   1.250719e+05   1.999441e+04  -2.119280e+11  -1.273540e+11  -3.097215e+09   1.474304e+05   4.735296e-28   0.000000e+00   0.000000e+00
      352000   3.519990e-08   9.747084e-02   1.977046e+01   1.236424e+01  -7.562122e+04   1.249699e+05   1.999193e+04  -2.117568e+11  -1.276422e+11  -3.094889e+09   1.474304e+05   4.735368e-28   0.000000e+00   0.000000e+00
      360000   3.599990e-08   9.741027e-02   1.977056e+01   1.236425e+01  -7.579056e+04   1.248676e+05   1.998945e+04  -2.115852e+11  -1.279301e+11  -3.092555e+09   1.474304e+05   4.735441e-28   0.000000e+00   0.000000e+00
      368000   3.679990e-08   9.734957e-02   1.977066e+01   1.236427e+01  -7.595976e+04   1.247652e+05   1.998698e+04  -2.114132e+11  -1.282179e+11  -3.090214e+09   1.474304e+05   4.735513e-28   0.000000e+00   0.000000e+00
      376000   3.759990e-08   9.728874e-02   1.977076e+01   1.236428e+01  -7.612882e+04   1.246625e+05   1.998451e+04  -2.112408e+11  -1.285054e+11  -3.087866e+09   1.474304e+05   4.735586e-28   0.000000e+00   0.000000e+00
      384000   3.839990e-08   9.722777e-02   1.977086e+01   1.236430e+01  -7.629774e+04   1.245596e+05   1.998204e+04  -2.110681e+11  -1.287926e+11  -3.085512e+09   1.474304e+05   4.735658e-28   0.000000e+00   0.000000e+00
      392000   3.919990e-08   9.716666e-02   1.977096e+01   1.236432e+01  -7.646653e+04   1.244564e+05   1.997957e+04  -2.108949e+11  -1.290797e+11  -3.083150e+09   1.474304e+05   4.735731e-28   0.000000e+00   0.000000e+00
      400000   3.999990e-08   9.710542e-02   1.977106e+01   1.236433e+01  -7.663517e+04   1.243530e+05   1.997711e+04  -2.107213e+11  -1.293665e+11  -3.080782e+09   1.474304e+05   4.735804e-28   0.000000e+00   0.000000e+00
      408000   4.079990e-08   9.704405e-02   1.977116e+01   1.236435e+01  -7.680368e+04   1.242494e+05   1.997464e+04  -2.105474e+11  -1.296531e+11  -3.078406e+09   1.474304e+05   4.735876e-28   0.000000e+00   0.000000e+00
      416000   4.159990e-08   9.698254e-02   1.977126e+01   1.236436e+01  -7.697205e+04   1.241456e+05   1.997218e+04  -2.103731e+11  -1.299394e+11  -3.076024e+09   1.474304e+05   4.735949e-28   0.000000e+00   0.000000e+00
      424000   4.239990e-08   9.692089e-02   1.977136e+01   1.236438e+01  -7.714028e+04   1.240415e+05   1.996972e+04  -2.101983e+11  -1.302255e+11  -3.073634e+09   1.474304e+05   4.736021e-28   0.000000e+00   0.000000e+00
      432000   4.319990e-08   9.685911e-02   1.977146e+01   1.236440e+01  -7.730837e+04   1.239372e+05   1.996726e+04  -2.100232e+11  -1.305114e+11  -3.071238e+09   1.474304e+05   4.736094e-28   0.000000e+00   0.000000e+00
      440000   4.399990e-08   9.679720e-02   1.977156e+01   1.236441e+01  -7.747632e+04   1.238327e+05   1.996481e+04  -2.098477e+11  -1.307970e+11  -3.068835e+09   1.474304e+05   4.736167e-28   0.000000e+00   0.000000e+00
      448000   4.479990e-08   9.673515e-02   1.977166e+01   1.236443e+01  -7.764412e+04   1.237280e+05   1.996235e+04  -2.096718e+11  -1.310825e+11  -3.066425e+09   1.474304e+05   4.736240e-28   0.000000e+00   0.000000e+00
      456000   4.559990e-08   9.667297e-02   1.977176e+01   1.236444e+01  -7.781179e+04   1.236230e+05   1.995990e+04  -2.094955e+11  -1.313676e+11  -3.064008e+09   1.474304e+05   4.736312e-28   0.000000e+00   0.000000e+00
      464000   4.639990e-08   9.661065e-02   1.977185e+01   1.236446e+01  -7.797932e+04   1.235178e+05   1.995745e+04  -2.093189e+11  -1.316526e+11  -3.061585e+09   1.474304e+05   4.736385e-28   0.000000e+00   0.000000e+00
      472000   4.719990e-08   9.654820e-02   1.977195e+01   1.236448e+01  -7.814670e+04   1.234123e+05   1.995500e+04  -2.091418e+11  -1.319373e+11  -3.059154e+09   1.474304e+05   4.736458e-28   0.000000e+00   0.000000e+00
      480000   4.799990e-08   9.648562e-02   1.977205e+01   1.236449e+01  -7.831394e+04   1.233067e+05   1.995256e+04  -2.089644e+11  -1.322218e+11  -3.056717e+09   1.474304e+05   4.736531e-28   0.000000e+00   0.000000e+00
      488000   4.879990e-08   9.642290e-02   1.977215e+01   1.236451e+01  -7.848104e+04   1.232008e+05   1.995011e+04  -2.087865e+11  -1.325060e+11  -3.054273e+09   1.474304e+05   4.736604e-28   0.000000e+00   0.000000e+00
      496000   4.959990e-08   9.636005e-02   1.977225e+01   1.236452e+01  -7.864800e+04   1.230947e+05   1.994767e+04  -2.086083e+11  -1.327900e+11  -3.051822e+09   1.474304e+05   4.736677e-28   0.000000e+00   0.000000e+00
      504000   5.039990e-08   9.629706e-02   1.977235e+01   1.236454e+01  -7.881482e+04   1.229883e+05   1.994523e+04  -2.084297e+11  -1.330738e+11  -3.049364e+09   1.474304e+05   4.736750e-28   0.000000e+00   0.000000e+00
      512000   5.119990e-08   9.623394e-02   1.977245e+01   1.236456e+01  -7.898149e+04   1.228817e+05   1.994279e+04  -2.082507e+11  -1.333573e+11  -3.046900e+09   1.474304e+05   4.736823e-28   0.000000e+00   0.000000e+00
      520000   5.199990e-08   9.617069e-02   1.977254e+01   1.236457e+01  -7.914802e+04   1.227749e+05   1.994035e+04  -2.080713e+11  -1.336406e+11  -3.044429e+09   1.474304e+05   4.736896e-28   0.000000e+00   0.000000e+00
      528000   5.279990e-08   9.610731e-02   1.977264e+01   1.236459e+01  -7.931440e+04   1.226679e+05   1.993792e+04  -2.078916e+11  -1.339237e+11  -3.041951e+09   1.474304e+05   4.736969e-28   0.000000e+00   0.000000e+00
      536000   5.359990e-08   9.604379e-02   1.977274e+01   1.236460e+01  -7.948064e+04   1.225607e+05   1.993549e+04  -2.077114e+11  -1.342065e+11  -3.039466e+09   1.474304e+05   4.737042e-28   0.000000e+00   0.000000e+00
      544000   5.439990e-08   9.598014e-02   1.977284e+01   1.236462e+01  -7.964674e+04   1.224532e+05   1.993306e+04  -2.075309e+11  -1.344891e+11  -3.036975e+09   1.474304e+05   4.737115e-28   0.000000e+00   0.000000e+00
      552000   5.519990e-08   9.591635e-02   1.977294e+01   1.236464e+01  -7.981269e+04   1.223455e+05   1.993063e+04  -2.073499e+11  -1.347714e+11  -3.034477e+09   1.474304e+05   4.737188e-28   0.000000e+00   0.000000e+00
      560000   5.599990e-08   9.585244e-02   1.977303e+01   1.236465e+01  -7.997850e+04   1.222376e+05   1.992820e+04  -2.071686e+11  -1.350535e+11  -3.031972e+09   1.474304e+05   4.737261e-28   0.000000e+00   0.000000e+00
      568000   5.679990e-08   9.578839e-02   1.977313e+01   1.236467e+01  -8.014416e+04   1.221294e+05   1.992578e+04  -2.069869e+11  -1.353353e+11  -3.029461e+09   1.474304e+05   4.737334e-28   0.000000e+00   0.000000e+00
      576000   5.759990e-08   9.572421e-02   1.977323e+01   1.236468e+01  -8.030968e+04   1.220210e+05   1.992335e+04  -2.068048e+11  -1.356169e+11  -3.026943e+09   1.474304e+05   4.737407e-28   0.000000e+00   0.000000e+00
      584000   5.839990e-08   9.565989e-02   1.977333e+01   1.236470e+01  -8.047505e+04   1.219124e+05   1.992093e+04  -2.066224e+11  -1.358983e+11  -3.024418e+09   1.474304e+05   4.737480e-28   0.000000e+00   0.000000e+00
      592000   5.919990e-08   9.559545e-02   1.977342e+01   1.236472e+01  -8.064028e+04   1.218036e+05   1.991852e+04  -2.064395e+11  -1.361794e+11  -3.021887e+09   1.474304e+05   4.737553e-28   0.000000e+00   0.000000e+00
      600000   5.999990e-08   9.553087e-02   1.977352e+01   1.236473e+01  -8.080535e+04   1.216945e+05   1.991610e+04  -2.062563e+11  -1.364603e+11  -3.019349e+09   1.474304e+05   4.737627e-28   0.000000e+00   0.000000e+00
      608000   6.079990e-08   9.546616e-02   1.977362e+01   1.236475e+01  -8.097029e+04   1.215852e+05   1.991368e+04  -2.060727e+11  -1.367410e+11  -3.016804e+09   1.474304e+05   4.737700e-28   0.000000e+00   0.000000e+00
      616000   6.159990e-08   9.540131e-02   1.977372e+01   1.236476e+01  -8.113507e+04   1.214757e+05   1.991127e+04  -2.058887e+11  -1.370213e+11  -3.014253e+09   1.474304e+05   4.737773e-28   0.000000e+00   0.000000e+00
      624000   6.239990e-08   9.533634e-02   1.977381e+01   1.236478e+01  -8.129971e+04   1.213660e+05   1.990886e+04  -2.057043e+11  -1.373015e+11  -3.011696e+09   1.474304e+05   4.737846e-28   0.000000e+00   0.000000e+00
      632000   6.319990e-08   9.527124e-02   1.977391e+01   1.236480e+01  -8.146420e+04   1.212561e+05   1.990645e+04  -2.055196e+11  -1.375814e+11  -3.009131e+09   1.474304e+05   4.737920e-28   0.000000e+00   0.000000e+00
      640000   6.399990e-08   9.520600e-02   1.977401e+01   1.236481e+01  -8.162854e+04   1.211459e+05   1.990405e+04  -2.053344e+11  -1.378611e+11  -3.006561e+09   1.474304e+05   4.737993e-28   0.000000e+00   0.000000e+00
      648000   6.479990e-08   9.514063e-02   1.977410e+01   1.236483e+01  -8.179273e+04   1.210355e+05   1.990164e+04  -2.051489e+11  -1.381405e+11  -3.003983e+09   1.474304e+05   4.738066e-28   0.000000e+00   0.000000e+00
      656000   6.559990e-08   9.507513e-02   1.977420e+01   1.236484e+01  -8.195678e+04   1.209249e+05   1.989924e+04  -2.049630e+11  -1.384196e+11  -3.001399e+09   1.474304e+05   4.738140e-28   0.000000e+00   0.000000e+00
      664000   6.639990e-08   9.500950e-02   1.977430e+01   1.236486e+01  -8.212067e+04   1.208140e+05   1.989684e+04  -2.047767e+11  -1.386985e+11  -2.998809e+09   1.474304e+05   4.738213e-28   0.000000e+00   0.000000e+00
      672000   6.719990e-08   9.494374e-02   1.977439e+01   1.236487e+01  -8.228442e+04   1.207029e+05   1.989444e+04  -2.045900e+11  -1.389772e+11  -2.996212e+09   1.474304e+05   4.738286e-28   0.000000e+00   0.000000e+00
      680000   6.799990e-08   9.487784e-02   1.977449e+01   1.236489e+01  -8.244802e+04   1.205916e+05   1.989205e+04  -2.044030e+11  -1.392556e+11  -2.993609e+09   1.474304e+05   4.738360e-28   0.000000e+00   0.000000e+00
      688000   6.879990e-08   9.481182e-02   1.977459e+01   1.236491e+01  -8.261146e+04   1.204801e+05   1.988965e+04  -2.042155e+11  -1.395338e+11  -2.990999e+09   1.474304e+05   4.738433e-28   0.000000e+00   0.000000e+00
      696000   6.959990e-08   9.474567e-02   1.977468e+01   1.236492e+01  -8.277476e+04   1.203684e+05   1.988726e+04  -2.040277e+11  -1.398117e+11  -2.988382e+09   1.474304e+05   4.738507e-28   0.000000e+00   0.000000e+00
      704000   7.039990e-08   9.467938e-02   1.977478e+01   1.236494e+01  -8.293791e+04   1.202564e+05   1.988487e+04  -2.038396e+11  -1.400894e+11  -2.985760e+09   1.474304e+05   4.738580e-28   0.000000e+00   0.000000e+00
      712000   7.119990e-08   9.461296e-02   1.977488e+01   1.236495e+01  -8.310090e+04   1.201443e+05   1.988248e+04  -2.036510e+11  -1.403668e+11  -2.983130e+09   1.474304e+05   4.738654e-28   0.000000e+00   0.000000e+00
      720000   7.199990e-08   9.454642e-02   1.977497e+01   1.236497e+01  -8.326375e+04   1.200318e+05   1.988010e+04  -2.034620e+11  -1.406440e+11  -2.980495e+09   1.474304e+05   4.738727e-28   0.000000e+00   0.000000e+00
      728000   7.279990e-08   9.447974e-02   1.977507e+01   1.236499e+01  -8.342644e+04   1.199192e+05   1.987772e+04  -2.032727e+11  -1.409209e+11  -2.977853e+09   1.474304e+05   4.738801e-28   0.000000e+00   0.000000e+00
      736000   7.359990e-08   9.441294e-02   1.977516e+01   1.236500e+01  -8.358899e+04   1.198064e+05   1.987533e+04  -2.030830e+11  -1.411975e+11  -2.975204e+09   1.474304e+05   4.738874e-28   0.000000e+00   0.000000e+00
      744000   7.439990e-08   9.434600e-02   1.977526e+01   1.236502e+01  -8.375138e+04   1.196933e+05   1.987295e+04  -2.028929e+11  -1.414739e+11  -2.972550e+09   1.474304e+05   4.738948e-28   0.000000e+00   0.000000e+00
      752000   7.519990e-08   9.427893e-02   1.977536e+01   1.236503e+01  -8.391361e+04   1.195800e+05   1.987058e+04  -2.027025e+11  -1.417501e+11  -2.969888e+09   1.474304e+05   4.739021e-28   0.000000e+00   0.000000e+00
      760000   7.599990e-08   9.421174e-02   1.977545e+01   1.236505e+01  -8.407570e+04   1.194665e+05   1.986820e+04  -2.025117e+11  -1.420260e+11  -2.967221e+09   1.474304e+05   4.739095e-28   0.000000e+00   0.000000e+00
      768000   7.679990e-08   9.414441e-02   1.977555e+01   1.236507e+01  -8.423763e+04   1.193528e+05   1.986583e+04  -2.023204e+11  -1.423016e+11  -2.964547e+09   1.474304e+05   4.739169e-28   0.000000e+00   0.000000e+00
      776000   7.759990e-08   9.407696e-02   1.977564e+01   1.236508e+01  -8.439941e+04   1.192388e+05   1.986346e+04  -2.021289e+11  -1.425770e+11  -2.961867e+09   1.474304e+05   4.739242e-28   0.000000e+00   0.000000e+00
      784000   7.839990e-08   9.400937e-02   1.977574e+01   1.236510e+01  -8.456104e+04   1.191247e+05   1.986109e+04  -2.019369e+11  -1.428522e+11  -2.959181e+09   1.474304e+05   4.739316e-28   0.000000e+00   0.000000e+00
      792000   7.919990e-08   9.394166e-02   1.977583e+01   1.236511e+01  -8.472251e+04   1.190103e+05   1.985872e+04  -2.017446e+11  -1.431271e+11  -2.956488e+09   1.474304e+05   4.739390e-28   0.000000e+00   0.000000e+00
      800000   7.999990e-08   9.387382e-02   1.977593e+01   1.236513e+01  -8.488383e+04   1.188956e+05   1.985636e+04  -2.015519e+11  -1.434017e+11  -2.953789e+09   1.474304e+05   4.739464e-28   0.000000e+00   0.000000e+00
      808000   8.079990e-08   9.380585e-02   1.977602e+01   1.236515e+01  -8.504499e+04   1.187808e+05   1.985400e+04  -2.013588e+11  -1.436761e+11  -2.951083e+09   1.474304e+05   4.739537e-28   0.000000e+00   0.000000e+00
      816000   8.159990e-08   9.373775e-02   1.977612e+01   1.236516e+01  -8.520600e+04   1.186658e+05   1.985164e+04  -2.011653e+11  -1.439502e+11  -2.948372e+09   1.474304e+05   4.739611e-28   0.000000e+00   0.000000e+00
      824000   8.239990e-08   9.366952e-02   1.977621e+01   1.236518e+01  -8.536686e+04   1.185505e+05   1.984928e+04  -2.009715e+11  -1.442240e+11  -2.945654e+09   1.474304e+05   4.739685e-28   0.000000e+00   0.000000e+00
      832000   8.319990e-08   9.360116e-02   1.977631e+01   1.236519e+01  -8.552756e+04   1.184350e+05   1.984693e+04  -2.007773e+11  -1.444976e+11  -2.942930e+09   1.474304e+05   4.739759e-28   0.000000e+00   0.000000e+00
      840000   8.399990e-08   9.353267e-02   1.977640e+01   1.236521e+01  -8.568810e+04   1.183193e+05   1.984457e+04  -2.005827e+11  -1.447709e+11  -2.940200e+09   1.474304e+05   4.739833e-28   0.000000e+00   0.000000e+00
      848000   8.479990e-08   9.346406e-02   1.977650e+01   1.236522e+01  -8.584849e+04   1.182034e+05   1.984222e+04  -2.003877e+11  -1.450440e+11  -2.937463e+09   1.474304e+05   4.739906e-28   0.000000e+00   0.000000e+00
      856000   8.559990e-08   9.339532e-02   1.977659e+01   1.236524e+01  -8.600872e+04   1.180872e+05   1.983987e+04  -2.001924e+11  -1.453168e+11  -2.934721e+09   1.474304e+05   4.739980e-28   0.000000e+00   0.000000e+00
      864000   8.639990e-08   9.332644e-02   1.977669e+01   1.236526e+01  -8.616880e+04   1.179709e+05   1.983753e+04  -1.999967e+11  -1.455894e+11  -2.931972e+09   1.474304e+05   4.740054e-28   0.000000e+00   0.000000e+00
      872000   8.719990e-08   9.325745e-02   1.977678e+01   1.236527e+01  -8.632872e+04   1.178543e+05   1.983518e+04  -1.998006e+11  -1.458617e+11  -2.929217e+09   1.474304e+05   4.740128e-28   0.000000e+00   0.000000e+00
      880000   8.799990e-08   9.318832e-02   1.977687e+01   1.236529e+01  -8.648848e+04   1.177375e+05   1.983284e+04  -1.996042e+11  -1.461337e+11  -2.926456e+09   1.474304e+05   4.740202e-28   0.000000e+00   0.000000e+00
      888000   8.879990e-08   9.311906e-02   1.977697e+01   1.236530e+01  -8.664808e+04   1.176205e+05   1.983050e+04  -1.994074e+11  -1.464055e+11  -2.923689e+09   1.474304e+05   4.740276e-28   0.000000e+00   0.000000e+00
      896000   8.959990e-08   9.304968e-02   1.977706e+01   1.236532e+01  -8.680753e+04   1.175032e+05   1.982816e+04  -1.992102e+11  -1.466770e+11  -2.920916e+09   1.474304e+05   4.740350e-28   0.000000e+00   0.000000e+00
      904000   9.039990e-08   9.298017e-02   1.977716e+01   1.236534e+01  -8.696682e+04   1.173858e+05   1.982583e+04  -1.990126e+11  -1.469482e+11  -2.918136e+09   1.474304e+05   4.740424e-28   0.000000e+00   0.000000e+00
      912000   9.119990e-08   9.291053e-02   1.977725e+01   1.236535e+01  -8.712595e+04   1.172681e+05   1.982349e+04  -1.988147e+11  -1.472192e+11  -2.915351e+09   1.474304e+05   4.740498e-28   0.000000e+00   0.000000e+00
      920000   9.199990e-08   9.284077e-02   1.977734e+01   1.236537e+01  -8.728492e+04   1.171502e+05   1.982116e+04  -1.986164e+11  -1.474899e+11  -2.912559e+09   1.474304e+05   4.740572e-28   0.000000e+00   0.000000e+00
      928000   9.279990e-08   9.277088e-02   1.977744e+01   1.236538e+01  -8.744374e+04   1.170321e+05   1.981883e+04  -1.984177e+11  -1.477604e+11  -2.909762e+09   1.474304e+05   4.740646e-28   0.000000e+00   0.000000e+00
      936000   9.359990e-08   9.270086e-02   1.977753e+01   1.236540e+01  -8.760239e+04   1.169138e+05   1.981651e+04  -1.982187e+11  -1.480306e+11  -2.906958e+09   1.474304e+05   4.740720e-28   0.000000e+00   0.000000e+00
      944000   9.439990e-08   9.263072e-02   1.977762e+01   1.236541e+01  -8.776089e+04   1.167953e+05   1.981418e+04  -1.980193e+11  -1.483005e+11  -2.904148e+09   1.474304e+05   4.740794e-28   0.000000e+00   0.000000e+00
      952000   9.519990e-08   9.256044e-02   1.977772e+01   1.236543e+01  -8.791922e+04   1.166765e+05   1.981186e+04  -1.978195e+11  -1.485701e+11  -2.901333e+09   1.474304e+05   4.740868e-28   0.000000e+00   0.000000e+00
      960000   9.599990e-08   9.249004e-02   1.977781e+01   1.236545e+01  -8.807740e+04   1.165576e+05   1.980954e+04  -1.976194e+11  -1.488395e+11  -2.898511e+09   1.474304e+05   4.740943e-28   0.000000e+00   0.000000e+00
      968000   9.679990e-08   9.241952e-02   1.977790e+01   1.236546e+01  -8.823541e+04   1.164384e+05   1.980722e+04  -1.974188e+11  -1.491086e+11  -2.895683e+09   1.474304e+05   4.741017e-28   0.000000e+00   0.000000e+00
      976000   9.759990e-08   9.234887e-02   1.977800e+01   1.236548e+01  -8.839327e+04   1.163190e+05   1.980491e+04  -1.972180e+11  -1.493775e+11  -2.892850e+09   1.474304e+05   4.741091e-28   0.000000e+00   0.000000e+00
      984000   9.839990e-08   9.227809e-02   1.977809e+01   1.236549e+01  -8.855096e+04   1.161994e+05   1.980259e+04  -1.970167e+11  -1.496461e+11  -2.890010e+09   1.474304e+05   4.741165e-28   0.000000e+00   0.000000e+00
      992000   9.919990e-08   9.220719e-02   1.977818e+01   1.236551e+01  -8.870849e+04   1.160796e+05   1.980028e+04  -1.968151e+11  -1.499144e+11  -2.887165e+09   1.474304e+05   4.741239e-28   0.000000e+00   0.000000e+00
     1000000   9.999990e-08   9.213616e-02   1.977828e+01   1.236553e+01  -8.886587e+04   1.159595e+05   1.979797e+04  -1.966131e+11  -1.501824e+11  -2.884313e+09   1.474304e+05   4.741313e-28   0.000000e+00   0.000000e+00
     1008000   1.007999e-07   9.206500e-02   1.977837e+01   1.236554e+01  -8.902308e+04   1.158393e+05   1.979567e+04  -1.964108e+11  -1.504502e+11  -2.881456e+09   1.474304e+05   4.741388e-28   0.000000e+00   0.000000e+00
     1016000   1.015999e-07   9.199372e-02   1.977846e+01   1.236556e+01  -8.918012e+04   1.157188e+05   1.979336e+04  -1.962081e+11  -1.507177e+11  -2.878592e+09   1.474304e+05   4.741462e-28   0.000000e+00   0.000000e+00
     1024000   1.023999e-07   9.192231e-02   1.977855e+01   1.236557e+01  -8.933701e+04   1.155981e+05   1.979106e+04  -1.960050e+11  -1.509850e+11  -2.875723e+09   1.474304e+05   4.741536e-28   0.000000e+00   0.000000e+00
     1032000   1.031999e-07   9.185078e-02   1.977865e+01   1.236559e+01  -8.949373e+04   1.154772e+05   1.978876e+04  -1.958015e+11  -1.512519e+11  -2.872848e+09   1.474304e+05   4.741611e-28   0.000000e+00   0.000000e+00
     1040000   1.039999e-07   9.177912e-02   1.977874e+01   1.236560e+01  -8.965029e+04   1.153561e+05   1.978646e+04  -1.955977e+11  -1.515186e+11  -2.869968e+09   1.474304e+05   4.741685e-28   0.000000e+00   0.000000e+00
     1048000   1.047999e-07   9.170734e-02   1.977883e+01   1.236562e+01  -8.980669e+04   1.152348e+05   1.978417e+04  -1.953936e+11  -1.517850e+11  -2.867081e+09   1.474304e+05   4.741759e-28   0.000000e+00   0.000000e+00
     1056000   1.055999e-07   9.163543e-02   1.977892e+01   1.236564e+01  -8.996292e+04   1.151133e+05   1.978188e+04  -1.951890e+11  -1.520512e+11  -2.864188e+09   1.474304e+05   4.741834e-28   0.000000e+00   0.000000e+00
     1064000   1.063999e-07   9.156340e-02   1.977902e+01   1.236565e+01  -9.011899e+04   1.149915e+05   1.977959e+04  -1.949841e+11  -1.523171e+11  -2.861290e+09   1.474304e+05   4.741908e-28   0.000000e+00   0.000000e+00
     1072000   1.071999e-07   9.149124e-02   1.977911e+01   1.236567e+01  -9.027489e+04   1.148696e+05   1.977730e+04  -1.947789e+11  -1.525827e+11  -2.858386e+09   1.474304e+05   4.741982e-28   0.000000e+00   0.000000e+00
     1080000   1.079999e-07   9.141896e-02   1.977920e+01   1.236568e+01  -9.043064e+04   1.147474e+05   1.977501e+04  -1.945732e+11  -1.528480e+11  -2.855476e+09   1.474304e+05   4.742057e-28   0.000000e+00   0.000000e+00
     1088000   1.087999e-07   9.134655e-02   1.977929e+01   1.236570e+01  -9.058621e+04   1.146250e+05   1.977273e+04  -1.943672e+11  -1.531130e+11  -2.852560e+09   1.474304e+05   4.742131e-28   0.000000e+00   0.000000e+00
     1096000   1.095999e-07   9.127402e-02   1.977938e+01   1.236572e+01  -9.074162e+04   1.145024e+05   1.977045e+04  -1.941609e+11  -1.533778e+11  -2.849639e+09   1.474304e+05   4.742205e-28   0.000000e+00   0.000000e+00
     1104000   1.103999e-07   9.120137e-02   1.977947e+01   1.236573e+01  -9.089687e+04   1.143796e+05   1.976817e+04  -1.939542e+11  -1.536423e+11  -2.846712e+09   1.474304e+05   4.742280e-28   0.000000e+00   0.000000e+00
     1112000   1.111999e-07   9.112859e-02   1.977957e+01   1.236575e+01  -9.105195e+04   1.142566e+05   1.976590e+04  -1.937471e+11  -1.539065e+11  -2.843779e+09   1.474304e+05   4.742354e-28   0.000000e+00   0.000000e+00
     1120000   1.119999e-07   9.105568e-02   1.977966e+01   1.236576e+01  -9.120686e+04   1.141334e+05   1.976362e+04  -1.935397e+11  -1.541705e+11  -2.840841e+09   1.474304e+05   4.742429e-28   0.000000e+00   0.000000e+00
     1128000   1.127999e-07   9.098266e-02   1.977975e+01   1.236578e+01  -9.136161e+04   1.140099e+05   1.976135e+04  -1.933319e+11  -1.544341e+11  -2.837896e+09   1.474304e+05   4.742503e-28   0.000000e+00   0.000000e+00
     1136000   1.135999e-07   9.090950e-02   1.977984e+01   1.236579e+01  -9.151619e+04   1.138863e+05   1.975908e+04  -1.931237e+11  -1.546975e+11  -2.834946e+09   1.474304e+05   4.742578e-28   0.000000e+00   0.000000e+00
     1144000   1.143999e-07   9.083623e-02   1.977993e+01   1.236581e+01  -9.167061e+04   1.137624e+05   1.975681e+04  -1.929152e+11  -1.549607e+11  -2.831991e+09   1.474304e+05   4.742652e-28   0.000000e+00   0.000000e+00
     1152000   1.151999e-07   9.076283e-02   1.978002e+01   1.236583e+01  -9.182486e+04   1.136383e+05   1.975455e+04  -1.927063e+11  -1.552235e+11  -2.829030e+09   1.474304e+05   4.742727e-28   0.000000e+00   0.000000e+00
     1160000   1.159999e-07   9.068931e-02   1.978011e+01   1.236584e+01  -9.197894e+04   1.135140e+05   1.975229e+04  -1.924971e+11  -1.554860e+11  -2.826063e+09   1.474304e+05   4.742802e-28   0.000000e+00   0.000000e+00
     1168000   1.167999e-07   9.061567e-02   1.978020e+01   1.236586e+01  -9.213285e+04   1.133895e+05   1.975003e+04  -1.922875e+11  -1.557483e+11  -2.823090e+09   1.474304e+05   4.742876e-28   0.000000e+00   0.000000e+00
     1176000   1.175999e-07   9.054190e-02   1.978029e+01   1.236587e+01  -9.228660e+04   1.132648e+05   1.974777e+04  -1.920775e+11  -1.560103e+11  -2.820112e+09   1.474304e+05   4.742951e-28   0.000000e+00   0.000000e+00
     1184000   1.183999e-07   9.046801e-02   1.978038e+01   1.236589e+01  -9.244018e+04   1.131399e+05   1.974552e+04  -1.918672e+11  -1.562720e+11  -2.817129e+09   1.474304e+05   4.743025e-28   0.000000e+00   0.000000e+00
     1192000   1.191999e-07   9.039399e-02   1.978047e+01   1.236591e+01  -9.259359e+04   1.130148e+05   1.974326e+04  -1.916565e+11  -1.565335e+11  -2.814140e+09   1.474304e+05   4.743100e-28   0.000000e+00   0.000000e+00
     1200000   1.199999e-07   9.031986e-02   1.978057e+01   1.236592e+01  -9.274683e+04   1.128895e+05   1.974101e+04  -1.914455e+11  -1.567946e+11  -2.811145e+09   1.474304e+05   4.743175e-28   0.000000e+00   0.000000e+00
     1208000   1.207999e-07   9.024560e-02   1.978066e+01   1.236594e+01  -9.289990e+04   1.127639e+05   1.973877e+04  -1.912341e+11  -1.570555e+11  -2.808144e+09   1.474304e+05   4.743249e-28   0.000000e+00   0.000000e+00
     1216000   1.215999e-07   9.017122e-02   1.978075e+01   1.236595e+01  -9.305280e+04   1.126382e+05   1.973652e+04  -1.910224e+11  -1.573161e+11  -2.805139e+09   1.474304e+05   4.743324e-28   0.000000e+00   0.000000e+00
     1224000   1.223999e-07   9.009671e-02   1.978084e+01   1.236597e+01  -9.320554e+04   1.125122e+05   1.973428e+04  -1.908103e+11  -1.575764e+11  -2.802127e+09   1.474304e+05   4.743399e-28   0.000000e+00   0.000000e+00
     1232000   1.231999e-07   9.002209e-02   1.978093e+01   1.236598e+01  -9.335810e+04   1.123861e+05   1.973204e+04  -1.905978e+11  -1.578364e+11  -2.799111e+09   1.474304e+05   4.743473e-28   0.000000e+00   0.000000e+00
     1240000   1.239999e-07   8.994734e-02   1.978102e+01   1.236600e+01  -9.351049e+04   1.122597e+05   1.972980e+04  -1.903850e+11  -1.580961e+11  -2.796088e+09   1.474304e+05   4.743548e-28   0.000000e+00   0.000000e+00
     1248000   1.247999e-07   8.987247e-02   1.978111e+01   1.236602e+01  -9.366272e+04   1.121331e+05   1.972756e+04  -1.901718e+11  -1.583556e+11  -2.793061e+09   1.474304e+05   4.743623e-28   0.000000e+00   0.000000e+00
     1256000   1.255999e-07   8.979748e-02   1.978119e+01   1.236603e+01  -9.381477e+04   1.120063e+05   1.972533e+04  -1.899583e+11  -1.586148e+11  -2.790027e+09   1.474304e+05   4.743698e-28   0.000000e+00   0.000000e+00
     1264000   1.263999e-07   8.972237e-02   1.978128e+01   1.236605e+01  -9.396665e+04   1.118793e+05   1.972310e+04  -1.897444e+11  -1.588736e+11  -2.786989e+09   1.474304e+05   4.743772e-28   0.000000e+00   0.000000e+00
     1272000   1.271999e-07   8.964713e-02   1.978137e+01   1.236606e+01  -9.411836e+04   1.117521e+05   1.972087e+04  -1.895302e+11  -1.591322e+11  -2.783945e+09   1.474304e+05   4.743847e-28   0.000000e+00   0.000000e+00
     1280000   1.279999e-07   8.957178e-02   1.978146e+01   1.236608e+01  -9.426990e+04   1.116247e+05   1.971864e+04  -1.893156e+11  -1.593905e+11  -2.780895e+09   1.474304e+05   4.743922e-28   0.000000e+00   0.000000e+00
     1288000   1.287999e-07   8.949630e-02   1.978155e+01   1.236609e+01  -9.442126e+04   1.114971e+05   1.971642e+04  -1.891007e+11  -1.596486e+11  -2.777840e+09   1.474304e+05   4.743997e-28   0.000000e+00   0.000000e+00
     1296000   1.295999e-07   8.942071e-02   1.978164e+01   1.236611e+01  -9.457246e+04   1.113693e+05   1.971420e+04  -1.888854e+11  -1.599063e+11  -2.774780e+09   1.474304e+05   4.744072e-28   0.000000e+00   0.000000e+00
     1304000   1.303999e-07   8.934499e-02   1.978173e+01   1.236613e+01  -9.472348e+04   1.112412e+05   1.971198e+04  -1.886698e+11  -1.601637e+11  -2.771715e+09   1.474304e+05   4.744146e-28   0.000000e+00   0.000000e+00
     1312000   1.311999e-07   8.926915e-02   1.978182e+01   1.236614e+01  -9.487433e+04   1.111130e+05   1.970977e+04  -1.884538e+11  -1.604209e+11  -2.768644e+09   1.474304e+05   4.744221e-28   0.000000e+00   0.000000e+00
     1320000   1.319999e-07   8.919319e-02   1.978191e+01   1.236616e+01  -9.502501e+04   1.109846e+05   1.970755e+04  -1.882374e+11  -1.606778e+11  -2.765568e+09   1.474304e+05   4.744296e-28   0.000000e+00   0.000000e+00
     1328000   1.327999e-07   8.911711e-02   1.978200e+01   1.236617e+01  -9.517551e+04   1.108559e+05   1.970534e+04  -1.880207e+11  -1.609343e+11  -2.762486e+09   1.474304e+05   4.744371e-28   0.000000e+00   0.000000e+00
     1336000   1.335999e-07   8.904091e-02   1.978209e+01   1.236619e+01  -9.532584e+04   1.107271e+05   1.970313e+04  -1.878037e+11  -1.611906e+11  -2.759399e+09   1.474304e+05   4.744446e-28   0.000000e+00   0.000000e+00
     1344000   1.343999e-07   8.896459e-02   1.978217e+01   1.236621e+01  -9.547599e+04   1.105980e+05   1.970093e+04  -1.875863e+11  -1.614466e+11  -2.756307e+09   1.474304e+05   4.744521e-28   0.000000e+00   0.000000e+00
     1352000   1.351999e-07   8.888815e-02   1.978226e+01   1.236622e+01  -9.562598e+04   1.104688e+05   1.969872e+04  -1.873685e+11  -1.617023e+11  -2.753210e+09   1.474304e+05   4.744596e-28   0.000000e+00   0.000000e+00
     1360000   1.359999e-07   8.881158e-02   1.978235e+01   1.236624e+01  -9.577578e+04   1.103393e+05   1.969652e+04  -1.871504e+11  -1.619577e+11  -2.750107e+09   1.474304e+05   4.744671e-28   0.000000e+00   0.000000e+00
     1368000   1.367999e-07   8.873490e-02   1.978244e+01   1.236625e+01  -9.592542e+04   1.102096e+05   1.969432e+04  -1.869320e+11  -1.622129e+11  -2.747000e+09   1.474304e+05   4.744746e-28   0.000000e+00   0.000000e+00
     1376000   1.375999e-07   8.865810e-02   1.978253e+01   1.236627e+01  -9.607488e+04   1.100798e+05   1.969212e+04  -1.867132e+11  -1.624677e+11  -2.743887e+09   1.474304e+05   4.744821e-28   0.000000e+00   0.000000e+00
     1384000   1.383999e-07   8.858118e-02   1.978262e+01   1.236628e+01  -9.622416e+04   1.099497e+05   1.968993e+04  -1.864940e+11  -1.627222e+11  -2.740768e+09   1.474304e+05   4.744896e-28   0.000000e+00   0.000000e+00
     1392000   1.391999e-07   8.850415e-02   1.978270e+01   1.236630e+01  -9.637327e+04   1.098194e+05   1.968774e+04  -1.862745e+11  -1.629765e+11  -2.737645e+09   1.474304e+05   4.744971e-28   0.000000e+00   0.000000e+00
     1400000   1.399999e-07   8.842699e-02   1.978279e+01   1.236632e+01  -9.652220e+04   1.096889e+05   1.968555e+04  -1.860547e+11  -1.632304e+11  -2.734516e+09   1.474304e+05   4.745046e-28   0.000000e+00   0.000000e+00
     1408000   1.407999e-07   8.834971e-02   1.978288e+01   1.236633e+01  -9.667095e+04   1.095582e+05   1.968336e+04  -1.858345e+11  -1.634841e+11  -2.731383e+09   1.474304e+05   4.745121e-28   0.000000e+00   0.000000e+00
     1416000   1.415999e-07   8.827231e-02   1.978297e+01   1.236635e+01  -9.681953e+04   1.094273e+05   1.968118e+04  -1.856139e+11  -1.637374e+11  -2.728244e+09   1.474304e+05   4.745196e-28   0.000000e+00   0.000000e+00
     1424000   1.423999e-07   8.819480e-02   1.978305e+01   1.236636e+01  -9.696794e+04   1.092963e+05   1.967900e+04  -1.853931e+11  -1.639905e+11  -2.725100e+09   1.474304e+05   4.745271e-28   0.000000e+00   0.000000e+00
     1432000   1.431999e-07   8.811717e-02   1.978314e+01   1.236638e+01  -9.711616e+04   1.091650e+05   1.967682e+04  -1.851718e+11  -1.642433e+11  -2.721951e+09   1.474304e+05   4.745346e-28   0.000000e+00   0.000000e+00
     1440000   1.439999e-07   8.803941e-02   1.978323e+01   1.236639e+01  -9.726421e+04   1.090335e+05   1.967464e+04  -1.849502e+11  -1.644957e+11  -2.718797e+09   1.474304e+05   4.745421e-28   0.000000e+00   0.000000e+00
     1448000   1.447999e-07   8.796154e-02   1.978332e+01   1.236641e+01  -9.741208e+04   1.089018e+05   1.967247e+04  -1.847283e+11  -1.647479e+11  -2.715637e+09   1.474304e+05   4.745496e-28   0.000000e+00   0.000000e+00
     1456000   1.455999e-07   8.788355e-02   1.978340e+01   1.236643e+01  -9.755978e+04   1.087699e+05   1.967030e+04  -1.845060e+11  -1.649998e+11  -2.712473e+09   1.474304e+05   4.745571e-28   0.000000e+00   0.000000e+00
     1464000   1.463999e-07   8.780545e-02   1.978349e+01   1.236644e+01  -9.770729e+04   1.086378e+05   1.966813e+04  -1.842834e+11  -1.652514e+11  -2.709304e+09   1.474304e+05   4.745646e-28   0.000000e+00   0.000000e+00
     1472000   1.471999e-07   8.772722e-02   1.978358e+01   1.236646e+01  -9.785463e+04   1.085055e+05   1.966596e+04  -1.840605e+11  -1.655027e+11  -2.706129e+09   1.474304e+05   4.745721e-28   0.000000e+00   0.000000e+00
     1480000   1.479999e-07   8.764888e-02   1.978366e+01   1.236647e+01  -9.800179e+04   1.083730e+05   1.966380e+04  -1.838372e+11  -1.657537e+11  -2.702950e+09   1.474304e+05   4.745796e-28   0.000000e+00   0.000000e+00
     1488000   1.487999e-07   8.757042e-02   1.978375e+01   1.236649e+01  -9.814877e+04   1.082403e+05   1.966164e+04  -1.836135e+11  -1.660043e+11  -2.699766e+09   1.474304e+05   4.745871e-28   0.000000e+00   0.000000e+00
     1496000   1.495999e-07   8.749184e-02   1.978384e+01   1.236650e+01  -9.829557e+04   1.081074e+05   1.965948e+04  -1.833895e+11  -1.662547e+11  -2.696576e+09   1.474304e+05   4.745947e-28   0.000000e+00   0.000000e+00
     1504000   1.503999e-07   8.741315e-02   1.978392e+01   1.236652e+01  -9.844219e+04   1.079743e+05   1.965732e+04  -1.831652e+11  -1.665048e+11  -2.693382e+09   1.474304e+05   4.746022e-28   0.000000e+00   0.000000e+00
     1512000   1.511999e-07   8.733433e-02   1.978401e+01   1.236654e+01  -9.858863e+04   1.078410e+05   1.965517e+04  -1.829405e+11  -1.667546e+11  -2.690183e+09   1.474304e+05   4.746097e-28   0.000000e+00   0.000000e+00
     1520000   1.519999e-07   8.725540e-02   1.978410e+01   1.236655e+01  -9.873490e+04   1.077074e+05   1.965302e+04  -1.827155e+11  -1.670041e+11  -2.686978e+09   1.474304e+05   4.746172e-28   0.000000e+00   0.000000e+00
     1528000   1.527999e-07   8.717636e-02   1.978418e+01   1.236657e+01  -9.888098e+04   1.075737e+05   1.965087e+04  -1.824901e+11  -1.672533e+11  -2.683769e+09   1.474304e+05   4.746247e-28   0.000000e+00   0.000000e+00
     1536000   1.535999e-07   8.709720e-02   1.978427e+01   1.236658e+01  -9.902688e+04   1.074398e+05   1.964873e+04  -1.822644e+11  -1.675021e+11  -2.680555e+09   1.474304e+05   4.746323e-28   0.000000e+00   0.000000e+00
     1544000   1.543999e-07   8.701792e-02   1.978435e+01   1.236660e+01  -9.917260e+04   1.073057e+05   1.964658e+04  -1.820384e+11  -1.677507e+11  -2.677336e+09   1.474304e+05   4.746398e-28   0.000000e+00   0.000000e+00
     1552000   1.551999e-07   8.693852e-02   1.978444e+01   1.236661e+01  -9.931814e+04   1.071714e+05   1.964444e+04  -1.818120e+11  -1.679990e+11  -2.674113e+09   1.474304e+05   4.746473e-28   0.000000e+00   0.000000e+00
     1560000   1.559999e-07   8.685901e-02   1.978453e+01   1.236663e+01  -9.946350e+04   1.070369e+05   1.964230e+04  -1.815853e+11  -1.682470e+11  -2.670884e+09   1.474304e+05   4.746548e-28   0.000000e+00   0.000000e+00
     1568000   1.567999e-07   8.677938e-02   1.978461e+01   1.236665e+01  -9.960868e+04   1.069022e+05   1.964017e+04  -1.813582e+11  -1.684946e+11  -2.667651e+09   1.474304e+05   4.746624e-28   0.000000e+00   0.000000e+00
     1576000   1.575999e-07   8.669963e-02   1.978470e+01   1.236666e+01  -9.975367e+04   1.067674e+05   1.963804e+04  -1.811308e+11  -1.687420e+11  -2.664412e+09   1.474304e+05   4.746699e-28   0.000000e+00   0.000000e+00
     1584000   1.583999e-07   8.661977e-02   1.978478e+01   1.236668e+01  -9.989849e+04   1.066323e+05   1.963591e+04  -1.809031e+11  -1.689891e+11  -2.661169e+09   1.474304e+05   4.746774e-28   0.000000e+00   0.000000e+00
     1592000   1.591999e-07   8.653980e-02   1.978487e+01   1.236669e+01  -1.000431e+05   1.064970e+05   1.963378e+04  -1.806750e+11  -1.692358e+11  -2.657922e+09   1.474304e+05   4.746849e-28   0.000000e+00   0.000000e+00
     1600000   1.599999e-07   8.645970e-02   1.978495e+01   1.236671e+01  -1.001876e+05   1.063615e+05   1.963165e+04  -1.804466e+11  -1.694823e+11  -2.654669e+09   1.474304e+05   4.746925e-28   0.000000e+00   0.000000e+00
     1608000   1.607999e-07   8.637950e-02   1.978504e+01   1.236672e+01  -1.003318e+05   1.062258e+05   1.962953e+04  -1.802178e+11  -1.697284e+11  -2.651412e+09   1.474304e+05   4.747000e-28   0.000000e+00   0.000000e+00
     1616000   1.615999e-07   8.629917e-02   1.978512e+01   1.236674e+01  -1.004759e+05   1.060899e+05   1.962741e+04  -1.799887e+11  -1.699742e+11  -2.648150e+09   1.474304e+05   4.747075e-28   0.000000e+00   0.000000e+00
     1624000   1.623999e-07   8.621873e-02   1.978521e+01   1.236676e+01  -1.006198e+05   1.059538e+05   1.962529e+04  -1.797593e+11  -1.702198e+11  -2.644883e+09   1.474304e+05   4.747151e-28   0.000000e+00   0.000000e+00
     1632000   1.631999e-07   8.613818e-02   1.978529e+01   1.236677e+01  -1.007635e+05   1.058176e+05   1.962318e+04  -1.795296e+11  -1.704650e+11  -2.641611e+09   1.474304e+05   4.747226e-28   0.000000e+00   0.000000e+00
     1640000   1.639999e-07   8.605751e-02   1.978538e+01   1.236679e+01  -1.009071e+05   1.056811e+05   1.962107e+04  -1.792995e+11  -1.707099e+11  -2.638335e+09   1.474304e+05   4.747301e-28   0.000000e+00   0.000000e+00
     1648000   1.647999e-07   8.597673e-02   1.978546e+01   1.236680e+01  -1.010504e+05   1.055444e+05   1.961896e+04  -1.790690e+11  -1.709545e+11  -2.635054e+09   1.474304e+05   4.747377e-28   0.000000e+00   0.000000e+00
     1656000   1.655999e-07   8.589583e-02   1.978554e+01   1.236682e+01  -1.011936e+05   1.054076e+05   1.961685e+04  -1.788382e+11  -1.711988e+11  -2.631769e+09   1.474304e+05   4.747452e-28   0.000000e+00   0.000000e+00
     1664000   1.663999e-07   8.581482e-02   1.978563e+01   1.236683e+01  -1.013365e+05   1.052705e+05   1.961475e+04  -1.786071e+11  -1.714428e+11  -2.628479e+09   1.474304e+05   4.747528e-28   0.000000e+00   0.000000e+00
     1672000   1.671999e-07   8.573369e-02   1.978571e+01   1.236685e+01  -1.014793e+05   1.051333e+05   1.961265e+04  -1.783757e+11  -1.716864e+11  -2.625184e+09   1.474304e+05   4.747603e-28   0.000000e+00   0.000000e+00
     1680000   1.679999e-07   8.565245e-02   1.978580e+01   1.236687e+01  -1.016220e+05   1.049958e+05   1.961055e+04  -1.781439e+11  -1.719298e+11  -2.621884e+09   1.474304e+05   4.747678e-28   0.000000e+00   0.000000e+00
     1688000   1.687999e-07   8.557110e-02   1.978588e+01   1.236688e+01  -1.017644e+05   1.048582e+05   1.960845e+04  -1.779118e+11  -1.721729e+11  -2.618580e+09   1.474304e+05   4.747754e-28   0.000000e+00   0.000000e+00
     1696000   1.695999e-07   8.548963e-02   1.978597e+01   1.236690e+01  -1.019066e+05   1.047203e+05   1.960636e+04  -1.776794e+11  -1.724156e+11  -2.615272e+09   1.474304e+05   4.747829e-28   0.000000e+00   0.000000e+00
     1704000   1.703999e-07   8.540805e-02   1.978605e+01   1.236691e+01  -1.020487e+05   1.045823e+05   1.960427e+04  -1.774466e+11  -1.726580e+11  -2.611959e+09   1.474304e+05   4.747905e-28   0.000000e+00   0.000000e+00
     1712000   1.711999e-07   8.532635e-02   1.978613e+01   1.236693e+01  -1.021905e+05   1.044441e+05   1.960218e+04  -1.772135e+11  -1.729001e+11  -2.608641e+09   1.474304e+05   4.747980e-28   0.000000e+00   0.000000e+00
     1720000   1.719999e-07   8.524454e-02   1.978622e+01   1.236694e+01  -1.023322e+05   1.043057e+05   1.960009e+04  -1.769800e+11  -1.731419e+11  -2.605319e+09   1.474304e+05   4.748056e-28   0.000000e+00   0.000000e+00
     1728000   1.727999e-07   8.516262e-02   1.978630e+01   1.236696e+01  -1.024737e+05   1.041671e+05   1.959801e+04  -1.767463e+11  -1.733834e+11  -2.601992e+09   1.474304e+05   4.748131e-28   0.000000e+00   0.000000e+00
     1736000   1.735999e-07   8.508058e-02   1.978638e+01   1.236698e+01  -1.026150e+05   1.040283e+05   1.959593e+04  -1.765122e+11  -1.736246e+11  -2.598661e+09   1.474304e+05   4.748207e-28   0.000000e+00   0.000000e+00
     1744000   1.743999e-07   8.499844e-02   1.978647e+01   1.236699e+01  -1.027561e+05   1.038893e+05   1.959385e+04  -1.762777e+11  -1.738655e+11  -2.595325e+09   1.474304e+05   4.748282e-28   0.000000e+00   0.000000e+00
     1752000   1.751999e-07   8.491618e-02   1.978655e+01   1.236701e+01  -1.028970e+05   1.037501e+05   1.959178e+04  -1.760430e+11  -1.741060e+11  -2.591985e+09   1.474304e+05   4.748358e-28   0.000000e+00   0.000000e+00
     1760000   1.759999e-07   8.483380e-02   1.978663e+01   1.236702e+01  -1.030378e+05   1.036107e+05   1.958970e+04  -1.758079e+11  -1.743463e+11  -2.588641e+09   1.474304e+05   4.748433e-28   0.000000e+00   0.000000e+00
     1768000   1.767999e-07   8.475131e-02   1.978671e+01   1.236704e+01  -1.031783e+05   1.034711e+05   1.958764e+04  -1.755725e+11  -1.745862e+11  -2.585292e+09   1.474304e+05   4.748509e-28   0.000000e+00   0.000000e+00
     1776000   1.775999e-07   8.466872e-02   1.978680e+01   1.236705e+01  -1.033187e+05   1.033313e+05   1.958557e+04  -1.753367e+11  -1.748258e+11  -2.581938e+09   1.474304e+05   4.748584e-28   0.000000e+00   0.000000e+00
     1784000   1.783999e-07   8.458600e-02   1.978688e+01   1.236707e+01  -1.034589e+05   1.031914e+05   1.958350e+04  -1.751006e+11  -1.750651e+11  -2.578581e+09   1.474304e+05   4.748660e-28   0.000000e+00   0.000000e+00
     1792000   1.791999e-07   8.450318e-02   1.978696e+01   1.236709e+01  -1.035989e+05   1.030512e+05   1.958144e+04  -1.748642e+11  -1.753040e+11  -2.575218e+09   1.474304e+05   4.748735e-28   0.000000e+00   0.000000e+00
     1800000   1.799999e-07   8.442025e-02   1.978704e+01   1.236710e+01  -1.037387e+05   1.029109e+05   1.957938e+04  -1.746275e+11  -1.755427e+11  -2.571852e+09   1.474304e+05   4.748811e-28   0.000000e+00   0.000000e+00
     1808000   1.807999e-07   8.433720e-02   1.978713e+01   1.236712e+01  -1.038783e+05   1.027704e+05   1.957733e+04  -1.743904e+11  -1.757810e+11  -2.568481e+09   1.474304e+05   4.748886e-28   0.000000e+00   0.000000e+00
     1816000   1.815999e-07   8.425404e-02   1.978721e+01   1.236713e+01  -1.040177e+05   1.026297e+05   1.957527e+04  -1.741530e+11  -1.760190e+11  -2.565106e+09   1.474304e+05   4.748962e-28   0.000000e+00   0.000000e+00
     1824000   1.823999e-07   8.417077e-02   1.978729e+01   1.236715e+01  -1.041569e+05   1.024887e+05   1.957322e+04  -1.739153e+11  -1.762567e+11  -2.561726e+09   1.474304e+05   4.749037e-28   0.000000e+00   0.000000e+00
     1832000   1.831999e-07   8.408739e-02   1.978737e+01   1.236716e+01  -1.042959e+05   1.023476e+05   1.957118e+04  -1.736773e+11  -1.764941e+11  -2.558343e+09   1.474304e+05   4.749113e-28   0.000000e+00   0.000000e+00
     1840000   1.839999e-07   8.400390e-02   1.978745e+01   1.236718e+01  -1.044348e+05   1.022064e+05   1.956913e+04  -1.734389e+11  -1.767312e+11  -2.554955e+09   1.474304e+05   4.749189e-28   0.000000e+00   0.000000e+00
     1848000   1.847999e-07   8.392030e-02   1.978754e+01   1.236719e+01  -1.045734e+05   1.020649e+05   1.956709e+04  -1.732002e+11  -1.769679e+11  -2.551562e+09   1.474304e+05   4.749264e-28   0.000000e+00   0.000000e+00
     1856000   1.855999e-07   8.383658e-02   1.978762e+01   1.236721e+01  -1.047119e+05   1.019232e+05   1.956505e+04  -1.729612e+11  -1.772043e+11  -2.548166e+09   1.474304e+05   4.749340e-28   0.000000e+00   0.000000e+00
     1864000   1.863999e-07   8.375276e-02   1.978770e+01   1.236723e+01  -1.048502e+05   1.017814e+05   1.956301e+04  -1.727218e+11  -1.774404e+11  -2.544765e+09   1.474304e+05   4.749415e-28   0.000000e+00   0.000000e+00
     1872000   1.871999e-07   8.366882e-02   1.978778e+01   1.236724e+01  -1.049883e+05   1.016393e+05   1.956098e+04  -1.724822e+11  -1.776762e+11  -2.541360e+09   1.474304e+05   4.749491e-28   0.000000e+00   0.000000e+00
     1880000   1.879999e-07   8.358477e-02   1.978786e+01   1.236726e+01  -1.051262e+05   1.014971e+05   1.955894e+04  -1.722422e+11  -1.779117e+11  -2.537951e+09   1.474304e+05   4.749567e-28   0.000000e+00   0.000000e+00
     1888000   1.887999e-07   8.350062e-02   1.978794e+01   1.236727e+01  -1.052639e+05   1.013546e+05   1.955692e+04  -1.720019e+11  -1.781468e+11  -2.534537e+09   1.474304e+05   4.749642e-28   0.000000e+00   0.000000e+00
     1896000   1.895999e-07   8.341635e-02   1.978802e+01   1.236729e+01  -1.054014e+05   1.012120e+05   1.955489e+04  -1.717612e+11  -1.783816e+11  -2.531120e+09   1.474304e+05   4.749718e-28   0.000000e+00   0.000000e+00
     1904000   1.903999e-07   8.333198e-02   1.978811e+01   1.236730e+01  -1.055387e+05   1.010692e+05   1.955287e+04  -1.715203e+11  -1.786161e+11  -2.527698e+09   1.474304e+05   4.749793e-28   0.000000e+00   0.000000e+00
     1912000   1.911999e-07   8.324749e-02   1.978819e+01   1.236732e+01  -1.056758e+05   1.009262e+05   1.955084e+04  -1.712790e+11  -1.788502e+11  -2.524272e+09   1.474304e+05   4.749869e-28   0.000000e+00   0.000000e+00
     1920000   1.919999e-07   8.316290e-02   1.978827e+01   1.236734e+01  -1.058127e+05   1.007831e+05   1.954883e+04  -1.710374e+11  -1.790841e+11  -2.520842e+09   1.474304e+05   4.749945e-28   0.000000e+00   0.000000e+00
     1928000   1.927999e-07   8.307819e-02   1.978835e+01   1.236735e+01  -1.059494e+05   1.006397e+05   1.954681e+04  -1.707955e+11  -1.793176e+11  -2.517408e+09   1.474304e+05   4.750020e-28   0.000000e+00   0.000000e+00
     1936000   1.935999e-07   8.299338e-02   1.978843e+01   1.236737e+01  -1.060860e+05   1.004962e+05   1.954480e+04  -1.705532e+11  -1.795508e+11  -2.513970e+09   1.474304e+05   4.750096e-28   0.000000e+00   0.000000e+00
     1944000   1.943999e-07   8.290845e-02   1.978851e+01   1.236738e+01  -1.062223e+05   1.003524e+05   1.954279e+04  -1.703107e+11  -1.797836e+11  -2.510528e+09   1.474304e+05   4.750172e-28   0.000000e+00   0.000000e+00
     1952000   1.951999e-07   8.282342e-02   1.978859e+01   1.236740e+01  -1.063585e+05   1.002085e+05   1.954078e+04  -1.700678e+11  -1.800162e+11  -2.507082e+09   1.474304e+05   4.750247e-28   0.000000e+00   0.000000e+00
     1960000   1.959999e-07   8.273828e-02   1.978867e+01   1.236741e+01  -1.064944e+05   1.000644e+05   1.953878e+04  -1.698246e+11  -1.802484e+11  -2.503632e+09   1.474304e+05   4.750323e-28   0.000000e+00   0.000000e+00
     1968000   1.967999e-07   8.265303e-02   1.978875e+01   1.236743e+01  -1.066302e+05   9.992011e+04   1.953678e+04  -1.695810e+11  -1.804803e+11  -2.500178e+09   1.474304e+05   4.750399e-28   0.000000e+00   0.000000e+00
     1976000   1.975999e-07   8.256767e-02   1.978883e+01   1.236744e+01  -1.067658e+05   9.977564e+04   1.953478e+04  -1.693372e+11  -1.807118e+11  -2.496719e+09   1.474304e+05   4.750475e-28   0.000000e+00   0.000000e+00
     1984000   1.983999e-07   8.248220e-02   1.978891e+01   1.236746e+01  -1.069011e+05   9.963098e+04   1.953278e+04  -1.690930e+11  -1.809431e+11  -2.493257e+09   1.474304e+05   4.750550e-28   0.000000e+00   0.000000e+00
     1992000   1.991999e-07   8.239663e-02   1.978899e+01   1.236748e+01  -1.070363e+05   9.948613e+04   1.953079e+04  -1.688486e+11  -1.811740e+11  -2.489791e+09   1.474304e+05   4.750626e-28   0.000000e+00   0.000000e+00
     2000000   1.999999e-07   8.231095e-02   1.978907e+01   1.236749e+01  -1.071713e+05   9.934110e+04   1.952880e+04  -1.686038e+11  -1.814045e+11  -2.486321e+09   1.474304e+05   4.750702e-28   0.000000e+00   0.000000e+00
     2008000   2.007999e-07   8.222516e-02   1.978915e+01   1.236751e+01  -1.073061e+05   9.919588e+04   1.952681e+04  -1.683587e+11  -1.816348e+11  -2.482847e+09   1.474304e+05   4.750777e-28   0.000000e+00   0.000000e+00
     2016000   2.015999e-07   8.213926e-02   1.978923e+01   1.236752e+01  -1.074407e+05   9.905048e+04   1.952483e+04  -1.681132e+11  -1.818647e+11  -2.479369e+09   1.474304e+05   4.750853e-28   0.000000e+00   0.000000e+00
     2024000   2.023999e-07   8.205325e-02   1.978931e+01   1.236754e+01  -1.075751e+05   9.890490e+04   1.952284e+04  -1.678675e+11  -1.820943e+11  -2.475887e+09   1.474304e+05   4.750929e-28   0.000000e+00   0.000000e+00
     2032000   2.031999e-07   8.196714e-02   1.978938e+01   1.236755e+01  -1.077093e+05   9.875913e+04   1.952086e+04  -1.676215e+11  -1.823235e+11  -2.472401e+09   1.474304e+05   4.751005e-28   0.000000e+00   0.000000e+00
     2040000   2.039999e-07   8.188092e-02   1.978946e+01   1.236757e+01  -1.078433e+05   9.861318e+04   1.951889e+04  -1.673751e+11  -1.825525e+11  -2.468912e+09   1.474304e+05   4.751080e-28   0.000000e+00   0.000000e+00
     2048000   2.047999e-07   8.179459e-02   1.978954e+01   1.236759e+01  -1.079771e+05   9.846705e+04   1.951691e+04  -1.671284e+11  -1.827810e+11  -2.465419e+09   1.474304e+05   4.751156e-28   0.000000e+00   0.000000e+00
     2056000   2.055999e-07   8.170815e-02   1.978962e+01   1.236760e+01  -1.081107e+05   9.832073e+04   1.951494e+04  -1.668814e+11  -1.830093e+11  -2.461921e+09   1.474304e+05   4.751232e-28   0.000000e+00   0.000000e+00
     2064000   2.063999e-07   8.162161e-02   1.978970e+01   1.236762e+01  -1.082441e+05   9.817423e+04   1.951297e+04  -1.666341e+11  -1.832372e+11  -2.458420e+09   1.474304e+05   4.751308e-28   0.000000e+00   0.000000e+00
     2072000   2.071999e-07   8.153496e-02   1.978978e+01   1.236763e+01  -1.083773e+05   9.802755e+04   1.951101e+04  -1.663865e+11  -1.834648e+11  -2.454916e+09   1.474304e+05   4.751383e-28   0.000000e+00   0.000000e+00
     2080000   2.079999e-07   8.144821e-02   1.978986e+01   1.236765e+01  -1.085103e+05   9.788069e+04   1.950905e+04  -1.661385e+11  -1.836921e+11  -2.451407e+09   1.474304e+05   4.751459e-28   0.000000e+00   0.000000e+00
     2088000   2.087999e-07   8.136135e-02   1.978993e+01   1.236766e+01  -1.086431e+05   9.773364e+04   1.950709e+04  -1.658903e+11  -1.839190e+11  -2.447895e+09   1.474304e+05   4.751535e-28   0.000000e+00   0.000000e+00
     2096000   2.095999e-07   8.127438e-02   1.979001e+01   1.236768e+01  -1.087757e+05   9.758642e+04   1.950513e+04  -1.656417e+11  -1.841456e+11  -2.444379e+09   1.474304e+05   4.751611e-28   0.000000e+00   0.000000e+00
     2104000   2.103999e-07   8.118730e-02   1.979009e+01   1.236769e+01  -1.089081e+05   9.743901e+04   1.950318e+04  -1.653928e+11  -1.843719e+11  -2.440859e+09   1.474304e+05   4.751687e-28   0.000000e+00   0.000000e+00
     2112000   2.111999e-07   8.110013e-02   1.979017e+01   1.236771e+01  -1.090403e+05   9.729142e+04   1.950122e+04  -1.651437e+11  -1.845978e+11  -2.437335e+09   1.474304e+05   4.751762e-28   0.000000e+00   0.000000e+00
     2120000   2.119999e-07   8.101284e-02   1.979025e+01   1.236773e+01  -1.091724e+05   9.714366e+04   1.949928e+04  -1.648942e+11  -1.848234e+11  -2.433808e+09   1.474304e+05   4.751838e-28   0.000000e+00   0.000000e+00
     2128000   2.127999e-07   8.092545e-02   1.979032e+01   1.236774e+01  -1.093042e+05   9.699571e+04   1.949733e+04  -1.646444e+11  -1.850487e+11  -2.430277e+09   1.474304e+05   4.751914e-28   0.000000e+00   0.000000e+00
     2136000   2.135999e-07   8.083795e-02   1.979040e+01   1.236776e+01  -1.094358e+05   9.684758e+04   1.949539e+04  -1.643942e+11  -1.852736e+11  -2.426743e+09   1.474304e+05   4.751990e-28   0.000000e+00   0.000000e+00
     2144000   2.143999e-07   8.075035e-02   1.979048e+01   1.236777e+01  -1.095672e+05   9.669927e+04   1.949345e+04  -1.641438e+11  -1.854982e+11  -2.423205e+09   1.474304e+05   4.752065e-28   0.000000e+00   0.000000e+00
     2152000   2.151999e-07   8.066265e-02   1.979056e+01   1.236779e+01  -1.096984e+05   9.655078e+04   1.949151e+04  -1.638931e+11  -1.857224e+11  -2.419663e+09   1.474304e+05   4.752141e-28   0.000000e+00   0.000000e+00
     2160000   2.159999e-07   8.057483e-02   1.979063e+01   1.236780e+01  -1.098294e+05   9.640211e+04   1.948958e+04  -1.636420e+11  -1.859463e+11  -2.416118e+09   1.474304e+05   4.752217e-28   0.000000e+00   0.000000e+00
     2168000   2.167999e-07   8.048692e-02   1.979071e+01   1.236782e+01  -1.099602e+05   9.625327e+04   1.948764e+04  -1.633907e+11  -1.861699e+11  -2.412569e+09   1.474304e+05   4.752293e-28   0.000000e+00   0.000000e+00
     2176000   2.175999e-07   8.039890e-02   1.979079e+01   1.236784e+01  -1.100909e+05   9.610424e+04   1.948572e+04  -1.631390e+11  -1.863931e+11  -2.409016e+09   1.474304e+05   4.752369e-28   0.000000e+00   0.000000e+00
     2184000   2.183999e-07   8.031077e-02   1.979086e+01   1.236785e+01  -1.102213e+05   9.595504e+04   1.948379e+04  -1.628871e+11  -1.866160e+11  -2.405460e+09   1.474304e+05   4.752445e-28   0.000000e+00   0.000000e+00
     2192000   2.191999e-07   8.022254e-02   1.979094e+01   1.236787e+01  -1.103515e+05   9.580566e+04   1.948187e+04  -1.626348e+11  -1.868386e+11  -2.401900e+09   1.474304e+05   4.752520e-28   0.000000e+00   0.000000e+00
     2200000   2.199999e-07   8.013421e-02   1.979102e+01   1.236788e+01  -1.104815e+05   9.565610e+04   1.947995e+04  -1.623822e+11  -1.870608e+11  -2.398337e+09   1.474304e+05   4.752596e-28   0.000000e+00   0.000000e+00
     2208000   2.207999e-07   8.004577e-02   1.979109e+01   1.236790e+01  -1.106113e+05   9.550636e+04   1.947803e+04  -1.621294e+11  -1.872827e+11  -2.394771e+09   1.474304e+05   4.752672e-28   0.000000e+00   0.000000e+00
     2216000   2.215999e-07   7.995723e-02   1.979117e+01   1.236791e+01  -1.107409e+05   9.535644e+04   1.947612e+04  -1.618762e+11  -1.875042e+11  -2.391201e+09   1.474304e+05   4.752748e-28   0.000000e+00   0.000000e+00
     2224000   2.223999e-07   7.986859e-02   1.979125e+01   1.236793e+01  -1.108703e+05   9.520635e+04   1.947420e+04  -1.616227e+11  -1.877254e+11  -2.387627e+09   1.474304e+05   4.752824e-28   0.000000e+00   0.000000e+00
     2232000   2.231999e-07   7.977984e-02   1.979132e+01   1.236794e+01  -1.109995e+05   9.505608e+04   1.947230e+04  -1.613689e+11  -1.879463e+11  -2.384050e+09   1.474304e+05   4.752900e-28   0.000000e+00   0.000000e+00
     2240000   2.239999e-07   7.969099e-02   1.979140e+01   1.236796e+01  -1.111285e+05   9.490564e+04   1.947039e+04  -1.611148e+11  -1.881668e+11  -2.380470e+09   1.474304e+05   4.752975e-28   0.000000e+00   0.000000e+00
     2248000   2.247999e-07   7.960204e-02   1.979147e+01   1.236798e+01  -1.112573e+05   9.475502e+04   1.946849e+04  -1.608604e+11  -1.883869e+11  -2.376886e+09   1.474304e+05   4.753051e-28   0.000000e+00   0.000000e+00
     2256000   2.255999e-07   7.951298e-02   1.979155e+01   1.236799e+01  -1.113859e+05   9.460422e+04   1.946659e+04  -1.606057e+11  -1.886068e+11  -2.373299e+09   1.474304e+05   4.753127e-28   0.000000e+00   0.000000e+00
     2264000   2.263999e-07   7.942382e-02   1.979163e+01   1.236801e+01  -1.115142e+05   9.445325e+04   1.946469e+04  -1.603507e+11  -1.888263e+11  -2.369708e+09   1.474304e+05   4.753203e-28   0.000000e+00   0.000000e+00
     2272000   2.271999e-07   7.933456e-02   1.979170e+01   1.236802e+01  -1.116424e+05   9.430210e+04   1.946280e+04  -1.600954e+11  -1.890454e+11  -2.366114e+09   1.474304e+05   4.753279e-28   0.000000e+00   0.000000e+00
     2280000   2.279999e-07   7.924519e-02   1.979178e+01   1.236804e+01  -1.117704e+05   9.415077e+04   1.946090e+04  -1.598398e+11  -1.892642e+11  -2.362517e+09   1.474304e+05   4.753355e-28   0.000000e+00   0.000000e+00
     2288000   2.287999e-07   7.915572e-02   1.979185e+01   1.236805e+01  -1.118982e+05   9.399927e+04   1.945902e+04  -1.595839e+11  -1.894827e+11  -2.358916e+09   1.474304e+05   4.753430e-28   0.000000e+00   0.000000e+00
     2296000   2.295999e-07   7.906615e-02   1.979193e+01   1.236807e+01  -1.120257e+05   9.384760e+04   1.945713e+04  -1.593277e+11  -1.897008e+11  -2.355312e+09   1.474304e+05   4.753506e-28   0.000000e+00   0.000000e+00
     2304000   2.303999e-07   7.897648e-02   1.979200e+01   1.236808e+01  -1.121531e+05   9.369575e+04   1.945525e+04  -1.590711e+11  -1.899185e+11  -2.351705e+09   1.474304e+05   4.753582e-28   0.000000e+00   0.000000e+00
     2312000   2.311999e-07   7.888671e-02   1.979208e+01   1.236810e+01  -1.122802e+05   9.354373e+04   1.945337e+04  -1.588143e+11  -1.901360e+11  -2.348094e+09   1.474304e+05   4.753658e-28   0.000000e+00   0.000000e+00
     2320000   2.319999e-07   7.879683e-02   1.979215e+01   1.236812e+01  -1.124072e+05   9.339154e+04   1.945149e+04  -1.585572e+11  -1.903530e+11  -2.344481e+09   1.474304e+05   4.753734e-28   0.000000e+00   0.000000e+00
     2328000   2.327999e-07   7.870686e-02   1.979223e+01   1.236813e+01  -1.125339e+05   9.323917e+04   1.944962e+04  -1.582998e+11  -1.905698e+11  -2.340864e+09   1.474304e+05   4.753810e-28   0.000000e+00   0.000000e+00
     2336000   2.335999e-07   7.861678e-02   1.979230e+01   1.236815e+01  -1.126605e+05   9.308662e+04   1.944774e+04  -1.580421e+11  -1.907862e+11  -2.337243e+09   1.474304e+05   4.753886e-28   0.000000e+00   0.000000e+00
     2344000   2.343999e-07   7.852660e-02   1.979238e+01   1.236816e+01  -1.127868e+05   9.293391e+04   1.944588e+04  -1.577841e+11  -1.910022e+11  -2.333620e+09   1.474304e+05   4.753961e-28   0.000000e+00   0.000000e+00
     2352000   2.351999e-07   7.843632e-02   1.979245e+01   1.236818e+01  -1.129129e+05   9.278102e+04   1.944401e+04  -1.575258e+11  -1.912179e+11  -2.329993e+09   1.474304e+05   4.754037e-28   0.000000e+00   0.000000e+00
     2360000   2.359999e-07   7.834594e-02   1.979252e+01   1.236819e+01  -1.130388e+05   9.262796e+04   1.944215e+04  -1.572672e+11  -1.914332e+11  -2.326364e+09   1.474304e+05   4.754113e-28   0.000000e+00   0.000000e+00
     2368000   2.367999e-07   7.825546e-02   1.979260e+01   1.236821e+01  -1.131646e+05   9.247473e+04   1.944029e+04  -1.570083e+11  -1.916482e+11  -2.322731e+09   1.474304e+05   4.754189e-28   0.000000e+00   0.000000e+00
     2376000   2.375999e-07   7.816488e-02   1.979267e+01   1.236822e+01  -1.132901e+05   9.232132e+04   1.943843e+04  -1.567491e+11  -1.918629e+11  -2.319095e+09   1.474304e+05   4.754265e-28   0.000000e+00   0.000000e+00
     2384000   2.383999e-07   7.807419e-02   1.979275e+01   1.236824e+01  -1.134153e+05   9.216775e+04   1.943658e+04  -1.564897e+11  -1.920772e+11  -2.315455e+09   1.474304e+05   4.754341e-28   0.000000e+00   0.000000e+00
     2392000   2.391999e-07   7.798341e-02   1.979282e+01   1.236826e+01  -1.135404e+05   9.201400e+04   1.943473e+04  -1.562299e+11  -1.922911e+11  -2.311813e+09   1.474304e+05   4.754417e-28   0.000000e+00   0.000000e+00
     2400000   2.399999e-07   7.789253e-02   1.979289e+01   1.236827e+01  -1.136653e+05   9.186008e+04   1.943288e+04  -1.559698e+11  -1.925047e+11  -2.308168e+09   1.474304e+05   4.754492e-28   0.000000e+00   0.000000e+00
     2408000   2.407999e-07   7.780155e-02   1.979297e+01   1.236829e+01  -1.137900e+05   9.170599e+04   1.943103e+04  -1.557094e+11  -1.927179e+11  -2.304519e+09   1.474304e+05   4.754568e-28   0.000000e+00   0.000000e+00
     2416000   2.415999e-07   7.771047e-02   1.979304e+01   1.236830e+01  -1.139145e+05   9.155173e+04   1.942919e+04  -1.554488e+11  -1.929308e+11  -2.300868e+09   1.474304e+05   4.754644e-28   0.000000e+00   0.000000e+00
     2424000   2.423999e-07   7.761928e-02   1.979311e+01   1.236832e+01  -1.140387e+05   9.139730e+04   1.942735e+04  -1.551878e+11  -1.931434e+11  -2.297213e+09   1.474304e+05   4.754720e-28   0.000000e+00   0.000000e+00
     2432000   2.431999e-07   7.752800e-02   1.979319e+01   1.236833e+01  -1.141628e+05   9.124270e+04   1.942552e+04  -1.549266e+11  -1.933556e+11  -2.293556e+09   1.474304e+05   4.754796e-28   0.000000e+00   0.000000e+00
     2440000   2.439999e-07   7.743662e-02   1.979326e+01   1.236835e+01  -1.142866e+05   9.108793e+04   1.942368e+04  -1.546650e+11  -1.935674e+11  -2.289895e+09   1.474304e+05   4.754872e-28   0.000000e+00   0.000000e+00
     2448000   2.447999e-07   7.734515e-02   1.979333e+01   1.236836e+01  -1.144102e+05   9.093300e+04   1.942185e+04  -1.544032e+11  -1.937789e+11  -2.286232e+09   1.474304e+05   4.754948e-28   0.000000e+00   0.000000e+00
     2456000   2.455999e-07   7.725357e-02   1.979340e+01   1.236838e+01  -1.145336e+05   9.077789e+04   1.942002e+04  -1.541411e+11  -1.939900e+11  -2.282565e+09   1.474304e+05   4.755023e-28   0.000000e+00   0.000000e+00
     2464000   2.463999e-07   7.716189e-02   1.979348e+01   1.236840e+01  -1.146568e+05   9.062261e+04   1.941820e+04  -1.538787e+11  -1.942008e+11  -2.278896e+09   1.474304e+05   4.755099e-28   0.000000e+00   0.000000e+00
     2472000   2.471999e-07   7.707012e-02   1.979355e+01   1.236841e+01  -1.147798e+05   9.046717e+04   1.941638e+04  -1.536160e+11  -1.944113e+11  -2.275223e+09   1.474304e+05   4.755175e-28   0.000000e+00   0.000000e+00
     2480000   2.479999e-07   7.697824e-02   1.979362e+01   1.236843e+01  -1.149026e+05   9.031155e+04   1.941456e+04  -1.533530e+11  -1.946213e+11  -2.271548e+09   1.474304e+05   4.755251e-28   0.000000e+00   0.000000e+00
     2488000   2.487999e-07   7.688627e-02   1.979369e+01   1.236844e+01  -1.150252e+05   9.015577e+04   1.941274e+04  -1.530897e+11  -1.948311e+11  -2.267870e+09   1.474304e+05   4.755327e-28   0.000000e+00   0.000000e+00
     2496000   2.495999e-07   7.679420e-02   1.979377e+01   1.236846e+01  -1.151476e+05   8.999982e+04   1.941093e+04  -1.528261e+11  -1.950404e+11  -2.264189e+09   1.474304e+05   4.755403e-28   0.000000e+00   0.000000e+00
     2504000   2.503999e-07   7.670204e-02   1.979384e+01   1.236847e+01  -1.152697e+05   8.984371e+04   1.940912e+04  -1.525623e+11  -1.952494e+11  -2.260505e+09   1.474304e+05   4.755479e-28   0.000000e+00   0.000000e+00
     2512000   2.511999e-07   7.660977e-02   1.979391e+01   1.236849e+01  -1.153917e+05   8.968742e+04   1.940731e+04  -1.522981e+11  -1.954581e+11  -2.256818e+09   1.474304e+05   4.755554e-28   0.000000e+00   0.000000e+00
     2520000   2.519999e-07   7.651741e-02   1.979398e+01   1.236850e+01  -1.155134e+05   8.953097e+04   1.940551e+04  -1.520337e+11  -1.956664e+11  -2.253129e+09   1.474304e+05   4.755630e-28   0.000000e+00   0.000000e+00
     2528000   2.527999e-07   7.642495e-02   1.979405e+01   1.236852e+01  -1.156349e+05   8.937436e+04   1.940371e+04  -1.517690e+11  -1.958743e+11  -2.249436e+09   1.474304e+05   4.755706e-28   0.000000e+00   0.000000e+00
     2536000   2.535999e-07   7.633239e-02   1.979412e+01   1.236854e+01  -1.157562e+05   8.921758e+04   1.940191e+04  -1.515040e+11  -1.960819e+11  -2.245741e+09   1.474304e+05   4.755782e-28   0.000000e+00   0.000000e+00
     2544000   2.543999e-07   7.623974e-02   1.979420e+01   1.236855e+01  -1.158773e+05   8.906063e+04   1.940012e+04  -1.512387e+11  -1.962891e+11  -2.242043e+09   1.474304e+05   4.755858e-28   0.000000e+00   0.000000e+00
     2552000   2.551999e-07   7.614699e-02   1.979427e+01   1.236857e+01  -1.159982e+05   8.890351e+04   1.939832e+04  -1.509731e+11  -1.964960e+11  -2.238342e+09   1.474304e+05   4.755934e-28   0.000000e+00   0.000000e+00
     2560000   2.559999e-07   7.605414e-02   1.979434e+01   1.236858e+01  -1.161189e+05   8.874623e+04   1.939653e+04  -1.507073e+11  -1.967025e+11  -2.234639e+09   1.474304e+05   4.756010e-28   0.000000e+00   0.000000e+00
     2568000   2.567999e-07   7.596120e-02   1.979441e+01   1.236860e+01  -1.162393e+05   8.858879e+04   1.939475e+04  -1.504411e+11  -1.969087e+11  -2.230933e+09   1.474304e+05   4.756085e-28   0.000000e+00   0.000000e+00
     2576000   2.575999e-07   7.586816e-02   1.979448e+01   1.236861e+01  -1.163596e+05   8.843118e+04   1.939297e+04  -1.501747e+11  -1.971145e+11  -2.227224e+09   1.474304e+05   4.756161e-28   0.000000e+00   0.000000e+00
     2584000   2.583999e-07   7.577502e-02   1.979455e+01   1.236863e+01  -1.164796e+05   8.827341e+04   1.939119e+04  -1.499080e+11  -1.973199e+11  -2.223513e+09   1.474304e+05   4.756237e-28   0.000000e+00   0.000000e+00
     2592000   2.591999e-07   7.568179e-02   1.979462e+01   1.236864e+01  -1.165994e+05   8.811547e+04   1.938941e+04  -1.496410e+11  -1.975250e+11  -2.219798e+09   1.474304e+05   4.756313e-28   0.000000e+00   0.000000e+00
     2600000   2.599999e-07   7.558847e-02   1.979469e+01   1.236866e+01  -1.167191e+05   8.795737e+04   1.938763e+04  -1.493737e+11  -1.977297e+11  -2.216082e+09   1.474304e+05   4.756389e-28   0.000000e+00   0.000000e+00
     2608000   2.607999e-07   7.549504e-02   1.979476e+01   1.236867e+01  -1.168384e+05   8.779910e+04   1.938586e+04  -1.491061e+11  -1.979341e+11  -2.212362e+09   1.474304e+05   4.756465e-28   0.000000e+00   0.000000e+00
     2616000   2.615999e-07   7.540152e-02   1.979483e+01   1.236869e+01  -1.169576e+05   8.764067e+04   1.938409e+04  -1.488383e+11  -1.981381e+11  -2.208640e+09   1.474304e+05   4.756540e-28   0.000000e+00   0.000000e+00
     2624000   2.623999e-07   7.530791e-02   1.979490e+01   1.236871e+01  -1.170766e+05   8.748208e+04   1.938233e+04  -1.485702e+11  -1.983417e+11  -2.204915e+09   1.474304e+05   4.756616e-28   0.000000e+00   0.000000e+00
     2632000   2.631999e-07   7.521420e-02   1.979497e+01   1.236872e+01  -1.171953e+05   8.732333e+04   1.938057e+04  -1.483018e+11  -1.985450e+11  -2.201188e+09   1.474304e+05   4.756692e-28   0.000000e+00   0.000000e+00
     2640000   2.639999e-07   7.512040e-02   1.979504e+01   1.236874e+01  -1.173139e+05   8.716441e+04   1.937881e+04  -1.480331e+11  -1.987479e+11  -2.197458e+09   1.474304e+05   4.756768e-28   0.000000e+00   0.000000e+00
     2648000   2.647999e-07   7.502650e-02   1.979511e+01   1.236875e+01  -1.174322e+05   8.700533e+04   1.937705e+04  -1.477641e+11  -1.989504e+11  -2.193726e+09   1.474304e+05   4.756844e-28   0.000000e+00   0.000000e+00
     2656000   2.655999e-07   7.493251e-02   1.979518e+01   1.236877e+01  -1.175503e+05   8.684609e+04   1.937530e+04  -1.474949e+11  -1.991526e+11  -2.189991e+09   1.474304e+05   4.756919e-28   0.000000e+00   0.000000e+00
     2664000   2.663999e-07   7.483842e-02   1.979525e+01   1.236878e+01  -1.176682e+05   8.668668e+04   1.937355e+04  -1.472253e+11  -1.993545e+11  -2.186254e+09   1.474304e+05   4.756995e-28   0.000000e+00   0.000000e+00
     2672000   2.671999e-07   7.474424e-02   1.979532e+01   1.236880e+01  -1.177859e+05   8.652712e+04   1.937180e+04  -1.469555e+11  -1.995559e+11  -2.182514e+09   1.474304e+05   4.757071e-28   0.000000e+00   0.000000e+00
     2680000   2.679999e-07   7.464996e-02   1.979539e+01   1.236881e+01  -1.179033e+05   8.636740e+04   1.937005e+04  -1.466855e+11  -1.997570e+11  -2.178772e+09   1.474304e+05   4.757147e-28   0.000000e+00   0.000000e+00
     2688000   2.687999e-07   7.455559e-02   1.979546e+01   1.236883e+01  -1.180205e+05   8.620751e+04   1.936831e+04  -1.464151e+11  -1.999578e+11  -2.175027e+09   1.474304e+05   4.757223e-28   0.000000e+00   0.000000e+00
     2696000   2.695999e-07   7.446113e-02   1.979553e+01   1.236885e+01  -1.181376e+05   8.604746e+04   1.936657e+04  -1.461445e+11  -2.001581e+11  -2.171280e+09   1.474304e+05   4.757298e-28   0.000000e+00   0.000000e+00
     2704000   2.703999e-07   7.436657e-02   1.979560e+01   1.236886e+01  -1.182544e+05   8.588726e+04   1.936484e+04  -1.458736e+11  -2.003581e+11  -2.167530e+09   1.474304e+05   4.757374e-28   0.000000e+00   0.000000e+00
     2712000   2.711999e-07   7.427192e-02   1.979566e+01   1.236888e+01  -1.183710e+05   8.572689e+04   1.936311e+04  -1.456024e+11  -2.005578e+11  -2.163778e+09   1.474304e+05   4.757450e-28   0.000000e+00   0.000000e+00
     2720000   2.719999e-07   7.417718e-02   1.979573e+01   1.236889e+01  -1.184873e+05   8.556636e+04   1.936138e+04  -1.453309e+11  -2.007570e+11  -2.160023e+09   1.474304e+05   4.757526e-28   0.000000e+00   0.000000e+00
     2728000   2.727999e-07   7.408234e-02   1.979580e+01   1.236891e+01  -1.186035e+05   8.540568e+04   1.935965e+04  -1.450592e+11  -2.009559e+11  -2.156267e+09   1.474304e+05   4.757602e-28   0.000000e+00   0.000000e+00
     2736000   2.735999e-07   7.398741e-02   1.979587e+01   1.236892e+01  -1.187194e+05   8.524483e+04   1.935793e+04  -1.447872e+11  -2.011545e+11  -2.152507e+09   1.474304e+05   4.757677e-28   0.000000e+00   0.000000e+00
     2744000   2.743999e-07   7.389239e-02   1.979594e+01   1.236894e+01  -1.188352e+05   8.508383e+04   1.935621e+04  -1.445149e+11  -2.013527e+11  -2.148746e+09   1.474304e+05   4.757753e-28   0.000000e+00   0.000000e+00
     2752000   2.751999e-07   7.379728e-02   1.979601e+01   1.236895e+01  -1.189507e+05   8.492267e+04   1.935449e+04  -1.442424e+11  -2.015505e+11  -2.144982e+09   1.474304e+05   4.757829e-28   0.000000e+00   0.000000e+00
     2760000   2.759999e-07   7.370207e-02   1.979607e+01   1.236897e+01  -1.190659e+05   8.476135e+04   1.935277e+04  -1.439695e+11  -2.017479e+11  -2.141216e+09   1.474304e+05   4.757905e-28   0.000000e+00   0.000000e+00
     2768000   2.767999e-07   7.360677e-02   1.979614e+01   1.236898e+01  -1.191810e+05   8.459987e+04   1.935106e+04  -1.436964e+11  -2.019450e+11  -2.137448e+09   1.474304e+05   4.757980e-28   0.000000e+00   0.000000e+00
     2776000   2.775999e-07   7.351138e-02   1.979621e+01   1.236900e+01  -1.192959e+05   8.443824e+04   1.934935e+04  -1.434231e+11  -2.021417e+11  -2.133677e+09   1.474304e+05   4.758056e-28   0.000000e+00   0.000000e+00
     2784000   2.783999e-07   7.341590e-02   1.979628e+01   1.236902e+01  -1.194105e+05   8.427645e+04   1.934765e+04  -1.431494e+11  -2.023380e+11  -2.129904e+09   1.474304e+05   4.758132e-28   0.000000e+00   0.000000e+00
     2792000   2.791999e-07   7.332032e-02   1.979634e+01   1.236903e+01  -1.195249e+05   8.411450e+04   1.934595e+04  -1.428755e+11  -2.025340e+11  -2.126129e+09   1.474304e+05   4.758208e-28   0.000000e+00   0.000000e+00
     2800000   2.799999e-07   7.322466e-02   1.979641e+01   1.236905e+01  -1.196391e+05   8.395239e+04   1.934425e+04  -1.426013e+11  -2.027296e+11  -2.122352e+09   1.474304e+05   4.758283e-28   0.000000e+00   0.000000e+00
     2808000   2.807999e-07   7.312890e-02   1.979648e+01   1.236906e+01  -1.197531e+05   8.379013e+04   1.934255e+04  -1.423269e+11  -2.029248e+11  -2.118572e+09   1.474304e+05   4.758359e-28   0.000000e+00   0.000000e+00
     2816000   2.815999e-07   7.303305e-02   1.979654e+01   1.236908e+01  -1.198668e+05   8.362771e+04   1.934086e+04  -1.420521e+11  -2.031196e+11  -2.114790e+09   1.474304e+05   4.758435e-28   0.000000e+00   0.000000e+00
     2824000   2.823999e-07   7.293711e-02   1.979661e+01   1.236909e+01  -1.199803e+05   8.346514e+04   1.933917e+04  -1.417772e+11  -2.033141e+11  -2.111007e+09   1.474304e+05   4.758510e-28   0.000000e+00   0.000000e+00
     2832000   2.831999e-07   7.284109e-02   1.979668e+01   1.236911e+01  -1.200937e+05   8.330241e+04   1.933748e+04  -1.415019e+11  -2.035082e+11  -2.107221e+09   1.474304e+05   4.758586e-28   0.000000e+00   0.000000e+00
     2840000   2.839999e-07   7.274497e-02   1.979674e+01   1.236912e+01  -1.202067e+05   8.313953e+04   1.933579e+04  -1.412264e+11  -2.037020e+11  -2.103432e+09   1.474304e+05   4.758662e-28   0.000000e+00   0.000000e+00
     2848000   2.847999e-07   7.264875e-02   1.979681e+01   1.236914e+01  -1.203196e+05   8.297649e+04   1.933411e+04  -1.409506e+11  -2.038953e+11  -2.099642e+09   1.474304e+05   4.758738e-28   0.000000e+00   0.000000e+00
     2856000   2.855999e-07   7.255245e-02   1.979688e+01   1.236915e+01  -1.204323e+05   8.281329e+04   1.933244e+04  -1.406745e+11  -2.040883e+11  -2.095850e+09   1.474304e+05   4.758813e-28   0.000000e+00   0.000000e+00
     2864000   2.863999e-07   7.245606e-02   1.979694e+01   1.236917e+01  -1.205447e+05   8.264995e+04   1.933076e+04  -1.403982e+11  -2.042809e+11  -2.092055e+09   1.474304e+05   4.758889e-28   0.000000e+00   0.000000e+00
     2872000   2.871999e-07   7.235958e-02   1.979701e+01   1.236919e+01  -1.206569e+05   8.248645e+04   1.932909e+04  -1.401216e+11  -2.044732e+11  -2.088259e+09   1.474304e+05   4.758965e-28   0.000000e+00   0.000000e+00
     2880000   2.879999e-07   7.226301e-02   1.979708e+01   1.236920e+01  -1.207689e+05   8.232279e+04   1.932742e+04  -1.398447e+11  -2.046651e+11  -2.084461e+09   1.474304e+05   4.759040e-28   0.000000e+00   0.000000e+00
     2888000   2.887999e-07   7.216635e-02   1.979714e+01   1.236922e+01  -1.208807e+05   8.215898e+04   1.932575e+04  -1.395676e+11  -2.048566e+11  -2.080660e+09   1.474304e+05   4.759116e-28   0.000000e+00   0.000000e+00
     2896000   2.895999e-07   7.206960e-02   1.979721e+01   1.236923e+01  -1.209922e+05   8.199502e+04   1.932409e+04  -1.392902e+11  -2.050477e+11  -2.076858e+09   1.474304e+05   4.759192e-28   0.000000e+00   0.000000e+00
     2904000   2.903999e-07   7.197276e-02   1.979727e+01   1.236925e+01  -1.211035e+05   8.183090e+04   1.932243e+04  -1.390126e+11  -2.052385e+11  -2.073053e+09   1.474304e+05   4.759267e-28   0.000000e+00   0.000000e+00
     2912000   2.911999e-07   7.187584e-02   1.979734e+01   1.236926e+01  -1.212146e+05   8.166664e+04   1.932077e+04  -1.387347e+11  -2.054288e+11  -2.069247e+09   1.474304e+05   4.759343e-28   0.000000e+00   0.000000e+00
     2920000   2.919999e-07   7.177882e-02   1.979740e+01   1.236928e+01  -1.213255e+05   8.150222e+04   1.931912e+04  -1.384565e+11  -2.056188e+11  -2.065438e+09   1.474304e+05   4.759418e-28   0.000000e+00   0.000000e+00
     2928000   2.927999e-07   7.168172e-02   1.979747e+01   1.236929e+01  -1.214361e+05   8.133765e+04   1.931747e+04  -1.381780e+11  -2.058085e+11  -2.061628e+09   1.474304e+05   4.759494e-28   0.000000e+00   0.000000e+00
     2936000   2.935999e-07   7.158452e-02   1.979753e+01   1.236931e+01  -1.215466e+05   8.117293e+04   1.931582e+04  -1.378993e+11  -2.059977e+11  -2.057816e+09   1.474304e+05   4.759570e-28   0.000000e+00   0.000000e+00
     2944000   2.943999e-07   7.148724e-02   1.979760e+01   1.236932e+01  -1.216568e+05   8.100805e+04   1.931418e+04  -1.376204e+11  -2.061866e+11  -2.054002e+09   1.474304e+05   4.759645e-28   0.000000e+00   0.000000e+00
     2952000   2.951999e-07   7.138987e-02   1.979766e+01   1.236934e+01  -1.217668e+05   8.084303e+04   1.931253e+04  -1.373411e+11  -2.063751e+11  -2.050186e+09   1.474304e+05   4.759721e-28   0.000000e+00   0.000000e+00
     2960000   2.959999e-07   7.129242e-02   1.979773e+01   1.236936e+01  -1.218765e+05   8.067785e+04   1.931090e+04  -1.370617e+11  -2.065632e+11  -2.046368e+09   1.474304e+05   4.759797e-28   0.000000e+00   0.000000e+00
     2968000   2.967999e-07   7.119487e-02   1.979779e+01   1.236937e+01  -1.219861e+05   8.051253e+04   1.930926e+04  -1.367819e+11  -2.067510e+11  -2.042548e+09   1.474304e+05   4.759872e-28   0.000000e+00   0.000000e+00
     2976000   2.975999e-07   7.109724e-02   1.979786e+01   1.236939e+01  -1.220954e+05   8.034705e+04   1.930763e+04  -1.365019e+11  -2.069383e+11  -2.038727e+09   1.474304e+05   4.759948e-28   0.000000e+00   0.000000e+00
     2984000   2.983999e-07   7.099952e-02   1.979792e+01   1.236940e+01  -1.222045e+05   8.018142e+04   1.930600e+04  -1.362217e+11  -2.071253e+11  -2.034903e+09   1.474304e+05   4.760023e-28   0.000000e+00   0.000000e+00
     2992000   2.991999e-07   7.090171e-02   1.979798e+01   1.236942e+01  -1.223133e+05   8.001565e+04   1.930437e+04  -1.359411e+11  -2.073119e+11  -2.031078e+09   1.474304e+05   4.760099e-28   0.000000e+00   0.000000e+00
     3000000   2.999999e-07   7.080382e-02   1.979805e+01   1.236943e+01  -1.224220e+05   7.984973e+04   1.930275e+04  -1.356604e+11  -2.074982e+11  -2.027252e+09   1.474304e+05   4.760174e-28   0.000000e+00   0.000000e+00
     3008000   3.007999e-07   7.070584e-02   1.979811e+01   1.236945e+01  -1.225304e+05   7.968365e+04   1.930113e+04  -1.353793e+11  -2.076840e+11  -2.023423e+09   1.474304e+05   4.760250e-28   0.000000e+00   0.000000e+00
     3016000   3.015999e-07   7.060777e-02   1.979818e+01   1.236946e+01  -1.226386e+05   7.951743e+04   1.929951e+04  -1.350980e+11  -2.078695e+11  -2.019593e+09   1.474304e+05   4.760325e-28   0.000000e+00   0.000000e+00
     3024000   3.023999e-07   7.050961e-02   1.979824e+01   1.236948e+01  -1.227466e+05   7.935106e+04   1.929790e+04  -1.348165e+11  -2.080546e+11  -2.015760e+09   1.474304e+05   4.760401e-28   0.000000e+00   0.000000e+00
     3032000   3.031999e-07   7.041137e-02   1.979830e+01   1.236949e+01  -1.228543e+05   7.918454e+04   1.929629e+04  -1.345347e+11  -2.082393e+11  -2.011927e+09   1.474304e+05   4.760477e-28   0.000000e+00   0.000000e+00
     3040000   3.039999e-07   7.031305e-02   1.979837e+01   1.236951e+01  -1.229618e+05   7.901788e+04   1.929468e+04  -1.342526e+11  -2.084236e+11  -2.008091e+09   1.474304e+05   4.760552e-28   0.000000e+00   0.000000e+00
     3048000   3.047999e-07   7.021463e-02   1.979843e+01   1.236953e+01  -1.230691e+05   7.885107e+04   1.929307e+04  -1.339703e+11  -2.086076e+11  -2.004254e+09   1.474304e+05   4.760628e-28   0.000000e+00   0.000000e+00
     3056000   3.055999e-07   7.011614e-02   1.979849e+01   1.236954e+01  -1.231762e+05   7.868411e+04   1.929147e+04  -1.336877e+11  -2.087911e+11  -2.000415e+09   1.474304e+05   4.760703e-28   0.000000e+00   0.000000e+00
     3064000   3.063999e-07   7.001755e-02   1.979856e+01   1.236956e+01  -1.232830e+05   7.851700e+04   1.928987e+04  -1.334049e+11  -2.089743e+11  -1.996575e+09   1.474304e+05   4.760778e-28   0.000000e+00   0.000000e+00
     3072000   3.071999e-07   6.991888e-02   1.979862e+01   1.236957e+01  -1.233896e+05   7.834975e+04   1.928828e+04  -1.331218e+11  -2.091571e+11  -1.992733e+09   1.474304e+05   4.760854e-28   0.000000e+00   0.000000e+00
     3080000   3.079999e-07   6.982013e-02   1.979868e+01   1.236959e+01  -1.234960e+05   7.818235e+04   1.928668e+04  -1.328385e+11  -2.093396e+11  -1.988889e+09   1.474304e+05   4.760929e-28   0.000000e+00   0.000000e+00
     3088000   3.087999e-07   6.972129e-02   1.979874e+01   1.236960e+01  -1.236021e+05   7.801480e+04   1.928509e+04  -1.325549e+11  -2.095216e+11  -1.985044e+09   1.474304e+05   4.761005e-28   0.000000e+00   0.000000e+00
     3096000   3.095999e-07   6.962237e-02   1.979881e+01   1.236962e+01  -1.237081e+05   7.784711e+04   1.928351e+04  -1.322711e+11  -2.097033e+11  -1.981197e+09   1.474304e+05   4.761080e-28   0.000000e+00   0.000000e+00
     3104000   3.103999e-07   6.952336e-02   1.979887e+01   1.236963e+01  -1.238138e+05   7.767928e+04   1.928192e+04  -1.319870e+11  -2.098845e+11  -1.977349e+09   1.474304e+05   4.761156e-28   0.000000e+00   0.000000e+00
     3112000   3.111999e-07   6.942426e-02   1.979893e+01   1.236965e+01  -1.239193e+05   7.751130e+04   1.928034e+04  -1.317027e+11  -2.100654e+11  -1.973499e+09   1.474304e+05   4.761231e-28   0.000000e+00   0.000000e+00
     3120000   3.119999e-07   6.932509e-02   1.979899e+01   1.236966e+01  -1.240245e+05   7.734317e+04   1.927877e+04  -1.314181e+11  -2.102459e+11  -1.969648e+09   1.474304e+05   4.761307e-28   0.000000e+00   0.000000e+00
     3128000   3.127999e-07   6.922583e-02   1.979905e+01   1.236968e+01  -1.241295e+05   7.717491e+04   1.927719e+04  -1.311333e+11  -2.104261e+11  -1.965795e+09   1.474304e+05   4.761382e-28   0.000000e+00   0.000000e+00
     3136000   3.135999e-07   6.912648e-02   1.979912e+01   1.236970e+01  -1.242343e+05   7.700649e+04   1.927562e+04  -1.308482e+11  -2.106058e+11  -1.961941e+09   1.474304e+05   4.761457e-28   0.000000e+00   0.000000e+00
     3144000   3.143999e-07   6.902705e-02   1.979918e+01   1.236971e+01  -1.243389e+05   7.683794e+04   1.927405e+04  -1.305629e+11  -2.107851e+11  -1.958085e+09   1.474304e+05   4.761533e-28   0.000000e+00   0.000000e+00
     3152000   3.151999e-07   6.892754e-02   1.979924e+01   1.236973e+01  -1.244432e+05   7.666924e+04   1.927249e+04  -1.302773e+11  -2.109641e+11  -1.954228e+09   1.474304e+05   4.761608e-28   0.000000e+00   0.000000e+00
     3160000   3.159999e-07   6.882794e-02   1.979930e+01   1.236974e+01  -1.245473e+05   7.650039e+04   1.927093e+04  -1.299915e+11  -2.111427e+11  -1.950369e+09   1.474304e+05   4.761683e-28   0.000000e+00   0.000000e+00
     3168000   3.167999e-07   6.872826e-02   1.979936e+01   1.236976e+01  -1.246512e+05   7.633141e+04   1.926937e+04  -1.297054e+11  -2.113209e+11  -1.946509e+09   1.474304e+05   4.761759e-28   0.000000e+00   0.000000e+00
     3176000   3.175999e-07   6.862850e-02   1.979942e+01   1.236977e+01  -1.247549e+05   7.616228e+04   1.926781e+04  -1.294191e+11  -2.114987e+11  -1.942648e+09   1.474304e+05   4.761834e-28   0.000000e+00   0.000000e+00
     3184000   3.183999e-07   6.852865e-02   1.979948e+01   1.236979e+01  -1.248583e+05   7.599301e+04   1.926626e+04  -1.291325e+11  -2.116761e+11  -1.938785e+09   1.474304e+05   4.761910e-28   0.000000e+00   0.000000e+00
     3192000   3.191999e-07   6.842873e-02   1.979954e+01   1.236980e+01  -1.249615e+05   7.582360e+04   1.926471e+04  -1.288457e+11  -2.118531e+11  -1.934921e+09   1.474304e+05   4.761985e-28   0.000000e+00   0.000000e+00
     3200000   3.199999e-07   6.832872e-02   1.979960e+01   1.236982e+01  -1.250644e+05   7.565405e+04   1.926316e+04  -1.285587e+11  -2.120298e+11  -1.931056e+09   1.474304e+05   4.762060e-28   0.000000e+00   0.000000e+00
     3208000   3.207999e-07   6.822862e-02   1.979966e+01   1.236983e+01  -1.251672e+05   7.548435e+04   1.926162e+04  -1.282714e+11  -2.122060e+11  -1.927189e+09   1.474304e+05   4.762135e-28   0.000000e+00   0.000000e+00
     3216000   3.215999e-07   6.812845e-02   1.979972e+01   1.236985e+01  -1.252697e+05   7.531452e+04   1.926008e+04  -1.279838e+11  -2.123819e+11  -1.923321e+09   1.474304e+05   4.762211e-28   0.000000e+00   0.000000e+00
     3224000   3.223999e-07   6.802819e-02   1.979978e+01   1.236986e+01  -1.253719e+05   7.514454e+04   1.925854e+04  -1.276960e+11  -2.125574e+11  -1.919451e+09   1.474304e+05   4.762286e-28   0.000000e+00   0.000000e+00
     3232000   3.231999e-07   6.792785e-02   1.979984e+01   1.236988e+01  -1.254740e+05   7.497442e+04   1.925701e+04  -1.274080e+11  -2.127325e+11  -1.915581e+09   1.474304e+05   4.762361e-28   0.000000e+00   0.000000e+00
     3240000   3.239999e-07   6.782743e-02   1.979990e+01   1.236990e+01  -1.255758e+05   7.480417e+04   1.925548e+04  -1.271197e+11  -2.129072e+11  -1.911709e+09   1.474304e+05   4.762436e-28   0.000000e+00   0.000000e+00
     3248000   3.247999e-07   6.772693e-02   1.979996e+01   1.236991e+01  -1.256774e+05   7.463377e+04   1.925395e+04  -1.268312e+11  -2.130815e+11  -1.907836e+09   1.474304e+05   4.762512e-28   0.000000e+00   0.000000e+00
     3256000   3.255999e-07   6.762635e-02   1.980002e+01   1.236993e+01  -1.257787e+05   7.446325e+04   1.925241e+04  -1.265363e+11  -2.132345e+11  -1.944375e+09   1.474304e+05   4.761787e-28   0.000000e+00   0.000000e+00
     3264000   3.263999e-07   6.752569e-02   1.980008e+01   1.236994e+01  -1.258798e+05   7.429259e+04   1.925086e+04  -1.262473e+11  -2.134080e+11  -1.940464e+09   1.474304e+05   4.761862e-28   0.000000e+00   0.000000e+00
     3272000   3.271999e-07   6.742494e-02   1.980014e+01   1.236996e+01  -1.259807e+05   7.412179e+04   1.924931e+04  -1.259582e+11  -2.135811e+11  -1.936552e+09   1.474304e+05   4.761938e-28   0.000000e+00   0.000000e+00
     3280000   3.279999e-07   6.732412e-02   1.980020e+01   1.236997e+01  -1.260814e+05   7.395086e+04   1.924776e+04  -1.256687e+11  -2.137538e+11  -1.932639e+09   1.474304e+05   4.762013e-28   0.000000e+00   0.000000e+00
     3288000   3.287999e-07   6.722321e-02   1.980026e+01   1.236999e+01  -1.261818e+05   7.377979e+04   1.924622e+04  -1.253791e+11  -2.139262e+11  -1.928725e+09   1.474304e+05   4.762088e-28   0.000000e+00   0.000000e+00
     3296000   3.295999e-07   6.712223e-02   1.980032e+01   1.237000e+01  -1.262820e+05   7.360858e+04   1.924467e+04  -1.250892e+11  -2.140981e+11  -1.924810e+09   1.474304e+05   4.762163e-28   0.000000e+00   0.000000e+00
     3304000   3.303999e-07   6.702116e-02   1.980038e+01   1.237002e+01  -1.263819e+05   7.343723e+04   1.924314e+04  -1.247990e+11  -2.142697e+11  -1.920893e+09   1.474304e+05   4.762239e-28   0.000000e+00   0.000000e+00
     3312000   3.311999e-07   6.692002e-02   1.980044e+01   1.237003e+01  -1.264816e+05   7.326575e+04   1.924160e+04  -1.245087e+11  -2.144408e+11  -1.916975e+09   1.474304e+05   4.762314e-28   0.000000e+00   0.000000e+00
     3320000   3.319999e-07   6.681879e-02   1.980050e+01   1.237005e+01  -1.265811e+05   7.309412e+04   1.924007e+04  -1.242180e+11  -2.146116e+11  -1.913056e+09   1.474304e+05   4.762389e-28   0.000000e+00   0.000000e+00
     3328000   3.327999e-07   6.671749e-02   1.980055e+01   1.237007e+01  -1.266804e+05   7.292237e+04   1.923854e+04  -1.239272e+11  -2.147820e+11  -1.909135e+09   1.474304e+05   4.762464e-28   0.000000e+00   0.000000e+00
     3336000   3.335999e-07   6.661610e-02   1.980061e+01   1.237008e+01  -1.267794e+05   7.275047e+04   1.923701e+04  -1.236361e+11  -2.149520e+11  -1.905214e+09   1.474304e+05   4.762539e-28   0.000000e+00   0.000000e+00
     3344000   3.343999e-07   6.651464e-02   1.980067e+01   1.237010e+01  -1.268782e+05   7.257844e+04   1.923549e+04  -1.233448e+11  -2.151216e+11  -1.901291e+09   1.474304e+05   4.762614e-28   0.000000e+00   0.000000e+00
     3352000   3.351999e-07   6.641310e-02   1.980073e+01   1.237011e+01  -1.269768e+05   7.240628e+04   1.923397e+04  -1.230532e+11  -2.152908e+11  -1.897367e+09   1.474304e+05   4.762690e-28   0.000000e+00   0.000000e+00
     3360000   3.359999e-07   6.631148e-02   1.980079e+01   1.237013e+01  -1.270751e+05   7.223398e+04   1.923246e+04  -1.227614e+11  -2.154596e+11  -1.893442e+09   1.474304e+05   4.762765e-28   0.000000e+00   0.000000e+00
     3368000   3.367999e-07   6.620978e-02   1.980084e+01   1.237014e+01  -1.271732e+05   7.206154e+04   1.923094e+04  -1.224694e+11  -2.156280e+11  -1.889517e+09   1.474304e+05   4.762840e-28   0.000000e+00   0.000000e+00
     3376000   3.375999e-07   6.610800e-02   1.980090e+01   1.237016e+01  -1.272711e+05   7.188897e+04   1.922943e+04  -1.221772e+11  -2.157960e+11  -1.885589e+09   1.474304e+05   4.762915e-28   0.000000e+00   0.000000e+00
     3384000   3.383999e-07   6.600614e-02   1.980096e+01   1.237017e+01  -1.273687e+05   7.171627e+04   1.922793e+04  -1.218847e+11  -2.159636e+11  -1.881661e+09   1.474304e+05   4.762990e-28   0.000000e+00   0.000000e+00
     3392000   3.391999e-07   6.590421e-02   1.980102e+01   1.237019e+01  -1.274661e+05   7.154343e+04   1.922642e+04  -1.215920e+11  -2.161308e+11  -1.877732e+09   1.474304e+05   4.763065e-28   0.000000e+00   0.000000e+00
     3400000   3.399999e-07   6.580220e-02   1.980107e+01   1.237020e+01  -1.275632e+05   7.137046e+04   1.922492e+04  -1.212990e+11  -2.162976e+11  -1.873802e+09   1.474304e+05   4.763140e-28   0.000000e+00   0.000000e+00
     3408000   3.407999e-07   6.570011e-02   1.980113e+01   1.237022e+01  -1.276601e+05   7.119736e+04   1.922342e+04  -1.210058e+11  -2.164641e+11  -1.869871e+09   1.474304e+05   4.763215e-28   0.000000e+00   0.000000e+00
     3416000   3.415999e-07   6.559794e-02   1.980119e+01   1.237023e+01  -1.277568e+05   7.102412e+04   1.922193e+04  -1.207124e+11  -2.166301e+11  -1.865939e+09   1.474304e+05   4.763290e-28   0.000000e+00   0.000000e+00
     3424000   3.423999e-07   6.549570e-02   1.980124e+01   1.237025e+01  -1.278533e+05   7.085075e+04   1.922044e+04  -1.204188e+11  -2.167957e+11  -1.862006e+09   1.474304e+05   4.763365e-28   0.000000e+00   0.000000e+00
     3432000   3.431999e-07   6.539338e-02   1.980130e+01   1.237027e+01  -1.279495e+05   7.067725e+04   1.921895e+04  -1.201249e+11  -2.169610e+11  -1.858072e+09   1.474304e+05   4.763440e-28   0.000000e+00   0.000000e+00
     3440000   3.439999e-07   6.529098e-02   1.980136e+01   1.237028e+01  -1.280455e+05   7.050361e+04   1.921747e+04  -1.198308e+11  -2.171258e+11  -1.854137e+09   1.474304e+05   4.763515e-28   0.000000e+00   0.000000e+00
     3448000   3.447999e-07   6.518850e-02   1.980141e+01   1.237030e+01  -1.281412e+05   7.032984e+04   1.921598e+04  -1.195365e+11  -2.172902e+11  -1.850201e+09   1.474304e+05   4.763590e-28   0.000000e+00   0.000000e+00
     3456000   3.455999e-07   6.508595e-02   1.980147e+01   1.237031e+01  -1.282367e+05   7.015595e+04   1.921451e+04  -1.192419e+11  -2.174543e+11  -1.846264e+09   1.474304e+05   4.763665e-28   0.000000e+00   0.000000e+00
     3464000   3.463999e-07   6.498332e-02   1.980153e+01   1.237033e+01  -1.283320e+05   6.998192e+04   1.921303e+04  -1.189471e+11  -2.176179e+11  -1.842326e+09   1.474304e+05   4.763740e-28   0.000000e+00   0.000000e+00
     3472000   3.471999e-07   6.488062e-02   1.980158e+01   1.237034e+01  -1.284271e+05   6.980776e+04   1.921156e+04  -1.186521e+11  -2.177812e+11  -1.838388e+09   1.474304e+05   4.763815e-28   0.000000e+00   0.000000e+00
     3480000   3.479999e-07   6.477784e-02   1.980164e+01   1.237036e+01  -1.285219e+05   6.963347e+04   1.921009e+04  -1.183569e+11  -2.179440e+11  -1.834449e+09   1.474304e+05   4.763890e-28   0.000000e+00   0.000000e+00
     3488000   3.487999e-07   6.467499e-02   1.980169e+01   1.237037e+01  -1.286164e+05   6.945905e+04   1.920862e+04  -1.180614e+11  -2.181065e+11  -1.830508e+09   1.474304e+05   4.763965e-28   0.000000e+00   0.000000e+00
     3496000   3.495999e-07   6.457205e-02   1.980175e+01   1.237039e+01  -1.287108e+05   6.928450e+04   1.920716e+04  -1.177657e+11  -2.182685e+11  -1.826567e+09   1.474304e+05   4.764040e-28   0.000000e+00   0.000000e+00
     3504000   3.503999e-07   6.446905e-02   1.980180e+01   1.237040e+01  -1.288049e+05   6.910982e+04   1.920570e+04  -1.174698e+11  -2.184302e+11  -1.822626e+09   1.474304e+05   4.764115e-28   0.000000e+00   0.000000e+00
     3512000   3.511999e-07   6.436597e-02   1.980186e+01   1.237042e+01  -1.288987e+05   6.893501e+04   1.920424e+04  -1.171737e+11  -2.185914e+11  -1.818683e+09   1.474304e+05   4.764190e-28   0.000000e+00   0.000000e+00
     3520000   3.519999e-07   6.426281e-02   1.980192e+01   1.237043e+01  -1.289923e+05   6.876007e+04   1.920279e+04  -1.168773e+11  -2.187523e+11  -1.814740e+09   1.474304e+05   4.764265e-28   0.000000e+00   0.000000e+00
     3528000   3.527999e-07   6.415958e-02   1.980197e+01   1.237045e+01  -1.290857e+05   6.858501e+04   1.920134e+04  -1.165807e+11  -2.189127e+11  -1.810796e+09   1.474304e+05   4.764340e-28   0.000000e+00   0.000000e+00
     3536000   3.535999e-07   6.405627e-02   1.980202e+01   1.237046e+01  -1.291789e+05   6.840981e+04   1.919989e+04  -1.162839e+11  -2.190727e+11  -1.806851e+09   1.474304e+05   4.764414e-28   0.000000e+00   0.000000e+00
     3544000   3.543999e-07   6.395289e-02   1.980208e+01   1.237048e+01  -1.292718e+05   6.823449e+04   1.919845e+04  -1.159869e+11  -2.192324e+11  -1.802906e+09   1.474304e+05   4.764489e-28   0.000000e+00   0.000000e+00
     3552000   3.551999e-07   6.384944e-02   1.980213e+01   1.237050e+01  -1.293644e+05   6.805904e+04   1.919701e+04  -1.156896e+11  -2.193916e+11  -1.798959e+09   1.474304e+05   4.764564e-28   0.000000e+00   0.000000e+00
     3560000   3.559999e-07   6.374591e-02   1.980219e+01   1.237051e+01  -1.294569e+05   6.788346e+04   1.919557e+04  -1.153922e+11  -2.195505e+11  -1.795013e+09   1.474304e+05   4.764639e-28   0.000000e+00   0.000000e+00
     3568000   3.567999e-07   6.364231e-02   1.980224e+01   1.237053e+01  -1.295491e+05   6.770776e+04   1.919414e+04  -1.150945e+11  -2.197089e+11  -1.791065e+09   1.474304e+05   4.764714e-28   0.000000e+00   0.000000e+00
     3576000   3.575999e-07   6.353863e-02   1.980230e+01   1.237054e+01  -1.296410e+05   6.753193e+04   1.919270e+04  -1.147966e+11  -2.198669e+11  -1.787117e+09   1.474304e+05   4.764789e-28   0.000000e+00   0.000000e+00
     3584000   3.583999e-07   6.343488e-02   1.980235e+01   1.237056e+01  -1.297327e+05   6.735597e+04   1.919128e+04  -1.144984e+11  -2.200246e+11  -1.783168e+09   1.474304e+05   4.764863e-28   0.000000e+00   0.000000e+00
     3592000   3.591999e-07   6.333106e-02   1.980240e+01   1.237057e+01  -1.298242e+05   6.717989e+04   1.918985e+04  -1.142001e+11  -2.201818e+11  -1.779219e+09   1.474304e+05   4.764938e-28   0.000000e+00   0.000000e+00
     3600000   3.599999e-07   6.322716e-02   1.980246e+01   1.237059e+01  -1.299155e+05   6.700368e+04   1.918843e+04  -1.139015e+11  -2.203386e+11  -1.775269e+09   1.474304e+05   4.765013e-28   0.000000e+00   0.000000e+00
     3608000   3.607999e-07   6.312320e-02   1.980251e+01   1.237060e+01  -1.300065e+05   6.682735e+04   1.918701e+04  -1.136027e+11  -2.204950e+11  -1.771319e+09   1.474304e+05   4.765087e-28   0.000000e+00   0.000000e+00
     3616000   3.615999e-07   6.301915e-02   1.980257e+01   1.237062e+01  -1.300972e+05   6.665089e+04   1.918560e+04  -1.133037e+11  -2.206510e+11  -1.767368e+09   1.474304e+05   4.765162e-28   0.000000e+00   0.000000e+00
     3624000   3.623999e-07   6.291504e-02   1.980262e+01   1.237063e+01  -1.301877e+05   6.647431e+04   1.918418e+04  -1.130045e+11  -2.208066e+11  -1.763416e+09   1.474304e+05   4.765237e-28   0.000000e+00   0.000000e+00
     3632000   3.631999e-07   6.281085e-02   1.980267e+01   1.237065e+01  -1.302780e+05   6.629760e+04   1.918277e+04  -1.127051e+11  -2.209618e+11  -1.759464e+09   1.474304e+05   4.765312e-28   0.000000e+00   0.000000e+00
     3640000   3.639999e-07   6.270659e-02   1.980272e+01   1.237066e+01  -1.303681e+05   6.612077e+04   1.918137e+04  -1.124054e+11  -2.211166e+11  -1.755512e+09   1.474304e+05   4.765386e-28   0.000000e+00   0.000000e+00
     3648000   3.647999e-07   6.260226e-02   1.980278e+01   1.237068e+01  -1.304579e+05   6.594381e+04   1.917997e+04  -1.121056e+11  -2.212710e+11  -1.751559e+09   1.474304e+05   4.765461e-28   0.000000e+00   0.000000e+00
     3656000   3.655999e-07   6.249786e-02   1.980283e+01   1.237070e+01  -1.305474e+05   6.576673e+04   1.917857e+04  -1.118055e+11  -2.214250e+11  -1.747605e+09   1.474304e+05   4.765535e-28   0.000000e+00   0.000000e+00
     3664000   3.663999e-07   6.239339e-02   1.980288e+01   1.237071e+01  -1.306368e+05   6.558953e+04   1.917717e+04  -1.115052e+11  -2.215786e+11  -1.743652e+09   1.474304e+05   4.765610e-28   0.000000e+00   0.000000e+00
     3672000   3.671999e-07   6.228884e-02   1.980293e+01   1.237073e+01  -1.307259e+05   6.541221e+04   1.917578e+04  -1.112047e+11  -2.217317e+11  -1.739697e+09   1.474304e+05   4.765685e-28   0.000000e+00   0.000000e+00
     3680000   3.679999e-07   6.218423e-02   1.980299e+01   1.237074e+01  -1.308147e+05   6.523476e+04   1.917439e+04  -1.109040e+11  -2.218845e+11  -1.735743e+09   1.474304e+05   4.765759e-28   0.000000e+00   0.000000e+00
     3688000   3.687999e-07   6.207954e-02   1.980304e+01   1.237076e+01  -1.309033e+05   6.505719e+04   1.917300e+04  -1.106031e+11  -2.220369e+11  -1.731788e+09   1.474304e+05   4.765834e-28   0.000000e+00   0.000000e+00
     3696000   3.695999e-07   6.197478e-02   1.980309e+01   1.237077e+01  -1.309917e+05   6.487950e+04   1.917161e+04  -1.103019e+11  -2.221888e+11  -1.727832e+09   1.474304e+05   4.765908e-28   0.000000e+00   0.000000e+00
     3704000   3.703999e-07   6.186995e-02   1.980314e+01   1.237079e+01  -1.310798e+05   6.470169e+04   1.917023e+04  -1.100006e+11  -2.223404e+11  -1.723876e+09   1.474304e+05   4.765983e-28   0.000000e+00   0.000000e+00
     3712000   3.711999e-07   6.176505e-02   1.980319e+01   1.237080e+01  -1.311677e+05   6.452376e+04   1.916886e+04  -1.096990e+11  -2.224915e+11  -1.719920e+09   1.474304e+05   4.766057e-28   0.000000e+00   0.000000e+00
     3720000   3.719999e-07   6.166009e-02   1.980325e+01   1.237082e+01  -1.312553e+05   6.434571e+04   1.916748e+04  -1.093972e+11  -2.226422e+11  -1.715964e+09   1.474304e+05   4.766132e-28   0.000000e+00   0.000000e+00
     3728000   3.727999e-07   6.155505e-02   1.980330e+01   1.237083e+01  -1.313427e+05   6.416753e+04   1.916611e+04  -1.090953e+11  -2.227925e+11  -1.712007e+09   1.474304e+05   4.766206e-28   0.000000e+00   0.000000e+00
     3736000   3.735999e-07   6.144994e-02   1.980335e+01   1.237085e+01  -1.314299e+05   6.398924e+04   1.916474e+04  -1.087931e+11  -2.229424e+11  -1.708050e+09   1.474304e+05   4.766281e-28   0.000000e+00   0.000000e+00
     3744000   3.743999e-07   6.134476e-02   1.980340e+01   1.237086e+01  -1.315168e+05   6.381082e+04   1.916338e+04  -1.084907e+11  -2.230919e+11  -1.704093e+09   1.474304e+05   4.766355e-28   0.000000e+00   0.000000e+00
     3752000   3.751999e-07   6.123951e-02   1.980345e+01   1.237088e+01  -1.316034e+05   6.363229e+04   1.916202e+04  -1.081881e+11  -2.232410e+11  -1.700135e+09   1.474304e+05   4.766430e-28   0.000000e+00   0.000000e+00
     3760000   3.759999e-07   6.113419e-02   1.980350e+01   1.237089e+01  -1.316899e+05   6.345364e+04   1.916066e+04  -1.078853e+11  -2.233897e+11  -1.696177e+09   1.474304e+05   4.766504e-28   0.000000e+00   0.000000e+00
     3768000   3.767999e-07   6.102881e-02   1.980355e+01   1.237091e+01  -1.317761e+05   6.327487e+04   1.915930e+04  -1.075822e+11  -2.235380e+11  -1.692219e+09   1.474304e+05   4.766578e-28   0.000000e+00   0.000000e+00
     3776000   3.775999e-07   6.092335e-02   1.980360e+01   1.237093e+01  -1.318620e+05   6.309598e+04   1.915795e+04  -1.072790e+11  -2.236858e+11  -1.688261e+09   1.474304e+05   4.766653e-28   0.000000e+00   0.000000e+00
     3784000   3.783999e-07   6.081783e-02   1.980365e+01   1.237094e+01  -1.319477e+05   6.291697e+04   1.915660e+04  -1.069756e+11  -2.238333e+11  -1.684303e+09   1.474304e+05   4.766727e-28   0.000000e+00   0.000000e+00
     3792000   3.791999e-07   6.071223e-02   1.980370e+01   1.237096e+01  -1.320332e+05   6.273784e+04   1.915526e+04  -1.066719e+11  -2.239803e+11  -1.680344e+09   1.474304e+05   4.766802e-28   0.000000e+00   0.000000e+00
     3800000   3.799999e-07   6.060657e-02   1.980375e+01   1.237097e+01  -1.321184e+05   6.255860e+04   1.915391e+04  -1.063681e+11  -2.241269e+11  -1.676385e+09   1.474304e+05   4.766876e-28   0.000000e+00   0.000000e+00
     3808000   3.807999e-07   6.050085e-02   1.980380e+01   1.237099e+01  -1.322033e+05   6.237924e+04   1.915257e+04  -1.060641e+11  -2.242731e+11  -1.672426e+09   1.474304e+05   4.766950e-28   0.000000e+00   0.000000e+00
     3816000   3.815999e-07   6.039505e-02   1.980385e+01   1.237100e+01  -1.322881e+05   6.219976e+04   1.915124e+04  -1.057598e+11  -2.244189e+11  -1.668468e+09   1.474304e+05   4.767024e-28   0.000000e+00   0.000000e+00
     3824000   3.823999e-07   6.028918e-02   1.980390e+01   1.237102e+01  -1.323726e+05   6.202017e+04   1.914990e+04  -1.054554e+11  -2.245643e+11  -1.664508e+09   1.474304e+05   4.767099e-28   0.000000e+00   0.000000e+00
     3832000   3.831999e-07   6.018325e-02   1.980395e+01   1.237103e+01  -1.324568e+05   6.184046e+04   1.914857e+04  -1.051507e+11  -2.247093e+11  -1.660549e+09   1.474304e+05   4.767173e-28   0.000000e+00   0.000000e+00
     3840000   3.839999e-07   6.007725e-02   1.980400e+01   1.237105e+01  -1.325408e+05   6.166064e+04   1.914725e+04  -1.048459e+11  -2.248538e+11  -1.656590e+09   1.474304e+05   4.767247e-28   0.000000e+00   0.000000e+00
     3848000   3.847999e-07   5.997119e-02   1.980405e+01   1.237106e+01  -1.326246e+05   6.148070e+04   1.914592e+04  -1.045408e+11  -2.249980e+11  -1.652631e+09   1.474304e+05   4.767321e-28   0.000000e+00   0.000000e+00
     3856000   3.855999e-07   5.986505e-02   1.980410e+01   1.237108e+01  -1.327081e+05   6.130064e+04   1.914460e+04  -1.042356e+11  -2.251417e+11  -1.648672e+09   1.474304e+05   4.767396e-28   0.000000e+00   0.000000e+00
     3864000   3.863999e-07   5.975885e-02   1.980415e+01   1.237109e+01  -1.327913e+05   6.112047e+04   1.914329e+04  -1.039301e+11  -2.252850e+11  -1.644713e+09   1.474304e+05   4.767470e-28   0.000000e+00   0.000000e+00
     3872000   3.871999e-07   5.965259e-02   1.980420e+01   1.237111e+01  -1.328744e+05   6.094018e+04   1.914197e+04  -1.036245e+11  -2.254280e+11  -1.640753e+09   1.474304e+05   4.767544e-28   0.000000e+00   0.000000e+00
     3880000   3.879999e-07   5.954626e-02   1.980425e+01   1.237112e+01  -1.329571e+05   6.075978e+04   1.914066e+04  -1.033186e+11  -2.255704e+11  -1.636794e+09   1.474304e+05   4.767618e-28   0.000000e+00   0.000000e+00
     3888000   3.887999e-07   5.943986e-02   1.980430e+01   1.237114e+01  -1.330397e+05   6.057927e+04   1.913935e+04  -1.030126e+11  -2.257125e+11  -1.632835e+09   1.474304e+05   4.767692e-28   0.000000e+00   0.000000e+00
     3896000   3.895999e-07   5.933339e-02   1.980434e+01   1.237115e+01  -1.331220e+05   6.039864e+04   1.913805e+04  -1.027063e+11  -2.258542e+11  -1.628876e+09   1.474304e+05   4.767766e-28   0.000000e+00   0.000000e+00
     3904000   3.903999e-07   5.922686e-02   1.980439e+01   1.237117e+01  -1.332040e+05   6.021790e+04   1.913675e+04  -1.023999e+11  -2.259954e+11  -1.624917e+09   1.474304e+05   4.767840e-28   0.000000e+00   0.000000e+00
     3912000   3.911999e-07   5.912027e-02   1.980444e+01   1.237119e+01  -1.332858e+05   6.003705e+04   1.913545e+04  -1.020932e+11  -2.261363e+11  -1.620958e+09   1.474304e+05   4.767914e-28   0.000000e+00   0.000000e+00
     3920000   3.919999e-07   5.901360e-02   1.980449e+01   1.237120e+01  -1.333673e+05   5.985609e+04   1.913415e+04  -1.017864e+11  -2.262767e+11  -1.616999e+09   1.474304e+05   4.767988e-28   0.000000e+00   0.000000e+00
     3928000   3.927999e-07   5.890688e-02   1.980454e+01   1.237122e+01  -1.334487e+05   5.967501e+04   1.913286e+04  -1.014794e+11  -2.264167e+11  -1.613040e+09   1.474304e+05   4.768062e-28   0.000000e+00   0.000000e+00
     3936000   3.935999e-07   5.880009e-02   1.980458e+01   1.237123e+01  -1.335297e+05   5.949382e+04   1.913157e+04  -1.011721e+11  -2.265563e+11  -1.609082e+09   1.474304e+05   4.768136e-28   0.000000e+00   0.000000e+00
     3944000   3.943999e-07   5.869323e-02   1.980463e+01   1.237125e+01  -1.336105e+05   5.931252e+04   1.913029e+04  -1.008647e+11  -2.266954e+11  -1.605123e+09   1.474304e+05   4.768210e-28   0.000000e+00   0.000000e+00
     3952000   3.951999e-07   5.858631e-02   1.980468e+01   1.237126e+01  -1.336911e+05   5.913111e+04   1.912900e+04  -1.005571e+11  -2.268342e+11  -1.601165e+09   1.474304e+05   4.768284e-28   0.000000e+00   0.000000e+00
     3960000   3.959999e-07   5.847933e-02   1.980473e+01   1.237128e+01  -1.337714e+05   5.894958e+04   1.912772e+04  -1.002493e+11  -2.269725e+11  -1.597207e+09   1.474304e+05   4.768358e-28   0.000000e+00   0.000000e+00
     3968000   3.967999e-07   5.837228e-02   1.980477e+01   1.237129e+01  -1.338515e+05   5.876795e+04   1.912645e+04  -9.994131e+10  -2.271104e+11  -1.593249e+09   1.474304e+05   4.768432e-28   0.000000e+00   0.000000e+00
     3976000   3.975999e-07   5.826516e-02   1.980482e+01   1.237131e+01  -1.339313e+05   5.858621e+04   1.912517e+04  -9.963312e+10  -2.272479e+11  -1.589292e+09   1.474304e+05   4.768506e-28   0.000000e+00   0.000000e+00
     3984000   3.983999e-07   5.815799e-02   1.980487e+01   1.237132e+01  -1.340109e+05   5.840435e+04   1.912391e+04  -9.932474e+10  -2.273850e+11  -1.585334e+09   1.474304e+05   4.768580e-28   0.000000e+00   0.000000e+00
     3992000   3.991999e-07   5.805075e-02   1.980491e+01   1.237134e+01  -1.340902e+05   5.822239e+04   1.912264e+04  -9.901617e+10  -2.275217e+11  -1.581377e+09   1.474304e+05   4.768654e-28   0.000000e+00   0.000000e+00
     4000000   3.999999e-07   5.794344e-02   1.980496e+01   1.237135e+01  -1.341693e+05   5.804032e+04   1.912137e+04  -9.870741e+10  -2.276579e+11  -1.577420e+09   1.474304e+05   4.768728e-28   0.000000e+00   0.000000e+00
     4008000   4.007999e-07   5.783607e-02   1.980501e+01   1.237137e+01  -1.342482e+05   5.785814e+04   1.912011e+04  -9.839845e+10  -2.277937e+11  -1.573464e+09   1.474304e+05   4.768801e-28   0.000000e+00   0.000000e+00
     4016000   4.015999e-07   5.772864e-02   1.980505e+01   1.237138e+01  -1.343268e+05   5.767585e+04   1.911886e+04  -9.808931e+10  -2.279292e+11  -1.569508e+09   1.474304e+05   4.768875e-28   0.000000e+00   0.000000e+00
     4024000   4.023999e-07   5.762115e-02   1.980510e+01   1.237140e+01  -1.344051e+05   5.749345e+04   1.911760e+04  -9.777998e+10  -2.280641e+11  -1.565552e+09   1.474304e+05   4.768949e-28   0.000000e+00   0.000000e+00
     4032000   4.031999e-07   5.751360e-02   1.980514e+01   1.237141e+01  -1.344832e+05   5.731095e+04   1.911635e+04  -9.747047e+10  -2.281987e+11  -1.561596e+09   1.474304e+05   4.769023e-28   0.000000e+00   0.000000e+00
     4040000   4.039999e-07   5.740598e-02   1.980519e+01   1.237143e+01  -1.345611e+05   5.712834e+04   1.911510e+04  -9.716076e+10  -2.283329e+11  -1.557641e+09   1.474304e+05   4.769096e-28   0.000000e+00   0.000000e+00
     4048000   4.047999e-07   5.729830e-02   1.980524e+01   1.237145e+01  -1.346387e+05   5.694562e+04   1.911386e+04  -9.685087e+10  -2.284666e+11  -1.553687e+09   1.474304e+05   4.769170e-28   0.000000e+00   0.000000e+00
     4056000   4.055999e-07   5.719056e-02   1.980528e+01   1.237146e+01  -1.347160e+05   5.676279e+04   1.911262e+04  -9.654079e+10  -2.285999e+11  -1.549732e+09   1.474304e+05   4.769244e-28   0.000000e+00   0.000000e+00
     4064000   4.063999e-07   5.708275e-02   1.980533e+01   1.237148e+01  -1.347931e+05   5.657986e+04   1.911138e+04  -9.623053e+10  -2.287328e+11  -1.545778e+09   1.474304e+05   4.769317e-28   0.000000e+00   0.000000e+00
     4072000   4.071999e-07   5.697489e-02   1.980537e+01   1.237149e+01  -1.348700e+05   5.639682e+04   1.911015e+04  -9.592008e+10  -2.288652e+11  -1.541825e+09   1.474304e+05   4.769391e-28   0.000000e+00   0.000000e+00
     4080000   4.079999e-07   5.686696e-02   1.980542e+01   1.237151e+01  -1.349466e+05   5.621367e+04   1.910891e+04  -9.560945e+10  -2.289973e+11  -1.537872e+09   1.474304e+05   4.769465e-28   0.000000e+00   0.000000e+00
     4088000   4.087999e-07   5.675897e-02   1.980546e+01   1.237152e+01  -1.350230e+05   5.603042e+04   1.910769e+04  -9.529863e+10  -2.291289e+11  -1.533919e+09   1.474304e+05   4.769538e-28   0.000000e+00   0.000000e+00
     4096000   4.095999e-07   5.665092e-02   1.980551e+01   1.237154e+01  -1.350991e+05   5.584707e+04   1.910646e+04  -9.498763e+10  -2.292601e+11  -1.529967e+09   1.474304e+05   4.769612e-28   0.000000e+00   0.000000e+00
     4104000   4.103999e-07   5.654282e-02   1.980555e+01   1.237155e+01  -1.351750e+05   5.566360e+04   1.910524e+04  -9.467644e+10  -2.293909e+11  -1.526015e+09   1.474304e+05   4.769685e-28   0.000000e+00   0.000000e+00
     4112000   4.111999e-07   5.643464e-02   1.980560e+01   1.237157e+01  -1.352506e+05   5.548004e+04   1.910402e+04  -9.436508e+10  -2.295212e+11  -1.522064e+09   1.474304e+05   4.769759e-28   0.000000e+00   0.000000e+00
     4120000   4.119999e-07   5.632641e-02   1.980564e+01   1.237158e+01  -1.353259e+05   5.529637e+04   1.910280e+04  -9.405353e+10  -2.296512e+11  -1.518114e+09   1.474304e+05   4.769832e-28   0.000000e+00   0.000000e+00
     4128000   4.127999e-07   5.621812e-02   1.980568e+01   1.237160e+01  -1.354011e+05   5.511260e+04   1.910159e+04  -9.374180e+10  -2.297807e+11  -1.514164e+09   1.474304e+05   4.769906e-28   0.000000e+00   0.000000e+00
     4136000   4.135999e-07   5.610977e-02   1.980573e+01   1.237161e+01  -1.354759e+05   5.492872e+04   1.910038e+04  -9.342989e+10  -2.299098e+11  -1.510214e+09   1.474304e+05   4.769979e-28   0.000000e+00   0.000000e+00
     4144000   4.143999e-07   5.600136e-02   1.980577e+01   1.237163e+01  -1.355505e+05   5.474474e+04   1.909917e+04  -9.311781e+10  -2.300384e+11  -1.506265e+09   1.474304e+05   4.770053e-28   0.000000e+00   0.000000e+00
     4152000   4.151999e-07   5.589289e-02   1.980582e+01   1.237164e+01  -1.356249e+05   5.456066e+04   1.909797e+04  -9.280554e+10  -2.301667e+11  -1.502317e+09   1.474304e+05   4.770126e-28   0.000000e+00   0.000000e+00
     4160000   4.159999e-07   5.578436e-02   1.980586e+01   1.237166e+01  -1.356990e+05   5.437648e+04   1.909677e+04  -9.249309e+10  -2.302945e+11  -1.498369e+09   1.474304e+05   4.770200e-28   0.000000e+00   0.000000e+00
     4168000   4.167999e-07   5.567577e-02   1.980590e+01   1.237167e+01  -1.357729e+05   5.419219e+04   1.909557e+04  -9.218047e+10  -2.304219e+11  -1.494422e+09   1.474304e+05   4.770273e-28   0.000000e+00   0.000000e+00
     4176000   4.175999e-07   5.556713e-02   1.980595e+01   1.237169e+01  -1.358465e+05   5.400780e+04   1.909438e+04  -9.186766e+10  -2.305489e+11  -1.490476e+09   1.474304e+05   4.770346e-28   0.000000e+00   0.000000e+00
     4184000   4.183999e-07   5.545842e-02   1.980599e+01   1.237171e+01  -1.359199e+05   5.382331e+04   1.909319e+04  -9.155468e+10  -2.306754e+11  -1.486530e+09   1.474304e+05   4.770420e-28   0.000000e+00   0.000000e+00
     4192000   4.191999e-07   5.534965e-02   1.980603e+01   1.237172e+01  -1.359930e+05   5.363872e+04   1.909200e+04  -9.124153e+10  -2.308015e+11  -1.482585e+09   1.474304e+05   4.770493e-28   0.000000e+00   0.000000e+00
     4200000   4.199999e-07   5.524083e-02   1.980608e+01   1.237174e+01  -1.360659e+05   5.345403e+04   1.909081e+04  -9.092820e+10  -2.309272e+11  -1.478641e+09   1.474304e+05   4.770566e-28   0.000000e+00   0.000000e+00
     4208000   4.207999e-07   5.513195e-02   1.980612e+01   1.237175e+01  -1.361385e+05   5.326924e+04   1.908963e+04  -9.061469e+10  -2.310525e+11  -1.474697e+09   1.474304e+05   4.770639e-28   0.000000e+00   0.000000e+00
     4216000   4.215999e-07   5.502301e-02   1.980616e+01   1.237177e+01  -1.362109e+05   5.308435e+04   1.908846e+04  -9.030101e+10  -2.311773e+11  -1.470754e+09   1.474304e+05   4.770713e-28   0.000000e+00   0.000000e+00
     4224000   4.223999e-07   5.491401e-02   1.980620e+01   1.237178e+01  -1.362830e+05   5.289935e+04   1.908728e+04  -8.998715e+10  -2.313018e+11  -1.466812e+09   1.474304e+05   4.770786e-28   0.000000e+00   0.000000e+00
     4232000   4.231999e-07   5.480496e-02   1.980624e+01   1.237180e+01  -1.363548e+05   5.271426e+04   1.908611e+04  -8.967312e+10  -2.314258e+11  -1.462870e+09   1.474304e+05   4.770859e-28   0.000000e+00   0.000000e+00
     4240000   4.239999e-07   5.469584e-02   1.980629e+01   1.237181e+01  -1.364265e+05   5.252907e+04   1.908494e+04  -8.935892e+10  -2.315493e+11  -1.458930e+09   1.474304e+05   4.770932e-28   0.000000e+00   0.000000e+00
     4248000   4.247999e-07   5.458667e-02   1.980633e+01   1.237183e+01  -1.364978e+05   5.234378e+04   1.908377e+04  -8.904454e+10  -2.316725e+11  -1.454990e+09   1.474304e+05   4.771005e-28   0.000000e+00   0.000000e+00
     4256000   4.255999e-07   5.447745e-02   1.980637e+01   1.237184e+01  -1.365689e+05   5.215840e+04   1.908261e+04  -8.873000e+10  -2.317952e+11  -1.451051e+09   1.474304e+05   4.771078e-28   0.000000e+00   0.000000e+00
     4264000   4.263999e-07   5.436816e-02   1.980641e+01   1.237186e+01  -1.366398e+05   5.197291e+04   1.908145e+04  -8.841528e+10  -2.319175e+11  -1.447113e+09   1.474304e+05   4.771151e-28   0.000000e+00   0.000000e+00
     4272000   4.271999e-07   5.425882e-02   1.980645e+01   1.237187e+01  -1.367104e+05   5.178733e+04   1.908030e+04  -8.810039e+10  -2.320393e+11  -1.443175e+09   1.474304e+05   4.771224e-28   0.000000e+00   0.000000e+00
     4280000   4.279999e-07   5.414943e-02   1.980650e+01   1.237189e+01  -1.367807e+05   5.160165e+04   1.907914e+04  -8.778533e+10  -2.321607e+11  -1.439239e+09   1.474304e+05   4.771297e-28   0.000000e+00   0.000000e+00
     4288000   4.287999e-07   5.403997e-02   1.980654e+01   1.237190e+01  -1.368508e+05   5.141587e+04   1.907799e+04  -8.747010e+10  -2.322818e+11  -1.435303e+09   1.474304e+05   4.771370e-28   0.000000e+00   0.000000e+00
