     timestep     time              x             y              z              vx             vy             vz             ax             ay             az         v_magnitude      ELoss        Electronic      Nuclear
           0   0.000000e+00   3.500220e+01   1.000000e-01   4.275556e+01   6.635987e+04   4.556750e+04   1.235139e+05   0.000000e+00   0.000000e+00   0.000000e+00   1.474304e+05   0.000000e+00   0.000000e+00   0.000000e+00
        8000   7.999000e-08   3.500748e+01   1.036873e-01   4.276544e+01   6.569913e+04   4.661196e+04   1.234774e+05  -8.347461e+09   1.298662e+10  -4.608826e+08   1.474304e+05   1.847468e-26   0.000000e+00   0.000000e+00
       16000   1.599900e-07   3.501271e+01   1.074576e-01   4.277531e+01   6.502435e+04   4.764530e+04   1.234402e+05  -8.521351e+09   1.284654e+10  -4.696966e+08   1.474304e+05   1.842223e-26   0.000000e+00   0.000000e+00
       24000   2.399900e-07   3.501788e+01   1.113102e-01   4.278519e+01   6.433579e+04   4.866734e+04   1.234022e+05  -8.692293e+09   1.270423e+10  -4.785412e+08   1.474304e+05   1.836916e-26   0.000000e+00   0.000000e+00
       32000   3.199900e-07   3.502300e+01   1.152441e-01   4.279506e+01   6.363367e+04   4.967792e+04   1.233636e+05  -8.860267e+09   1.255974e+10  -4.874075e+08   1.474304e+05   1.831547e-26   0.000000e+00   0.000000e+00
       40000   3.999900e-07   3.502807e+01   1.192583e-01   4.280493e+01   6.291907e+04   5.067550e+04   1.233244e+05  -9.001587e+09   1.237583e+10  -4.928265e+08   1.474304e+05   1.815620e-26   0.000000e+00   0.000000e+00
       48000   4.799900e-07   3.503307e+01   1.233518e-01   4.281479e+01   6.219286e+04   5.165905e+04   1.232847e+05  -9.152922e+09   1.221262e+10  -5.000089e+08   1.474304e+05   1.805873e-26   0.000000e+00   0.000000e+00
       56000   5.599900e-07   3.503802e+01   1.275234e-01   4.282465e+01   6.145470e+04   5.262948e+04   1.232444e+05  -9.300548e+09   1.204797e+10  -5.072353e+08   1.474304e+05   1.796092e-26   0.000000e+00   0.000000e+00
       64000   6.399900e-07   3.504290e+01   1.317722e-01   4.283451e+01   6.070487e+04   5.358669e+04   1.232035e+05  -9.444466e+09   1.188197e+10  -5.144978e+08   1.474304e+05   1.786277e-26   0.000000e+00   0.000000e+00
       72000   7.199900e-07   3.504773e+01   1.360969e-01   4.284436e+01   5.994368e+04   5.453056e+04   1.231620e+05  -9.584683e+09   1.171468e+10  -5.217884e+08   1.474304e+05   1.776428e-26   0.000000e+00   0.000000e+00
       80000   7.999900e-07   3.505249e+01   1.404967e-01   4.285422e+01   5.917142e+04   5.546100e+04   1.231200e+05  -9.721207e+09   1.154618e+10  -5.290991e+08   1.474304e+05   1.766545e-26   0.000000e+00   0.000000e+00
       88000   8.799900e-07   3.505720e+01   1.449703e-01   4.286406e+01   5.838838e+04   5.637792e+04   1.230774e+05  -9.854044e+09   1.137653e+10  -5.364217e+08   1.474304e+05   1.756628e-26   0.000000e+00   0.000000e+00
       96000   9.599900e-07   3.506183e+01   1.495168e-01   4.287391e+01   5.759487e+04   5.728122e+04   1.230342e+05  -9.983205e+09   1.120582e+10  -5.437481e+08   1.474304e+05   1.746676e-26   0.000000e+00   0.000000e+00
      104000   1.039990e-06   3.506641e+01   1.541350e-01   4.288375e+01   5.679117e+04   5.817082e+04   1.229904e+05  -1.010870e+10   1.103411e+10  -5.510700e+08   1.474304e+05   1.736691e-26   0.000000e+00   0.000000e+00
      112000   1.119990e-06   3.507092e+01   1.588238e-01   4.289359e+01   5.597757e+04   5.904665e+04   1.229460e+05  -1.023055e+10   1.086148e+10  -5.583789e+08   1.474304e+05   1.726672e-26   0.000000e+00   0.000000e+00
      120000   1.199990e-06   3.507537e+01   1.635821e-01   4.290342e+01   5.515215e+04   5.991142e+04   1.229007e+05  -1.043185e+10   1.079032e+10  -5.786940e+08   1.474304e+05   1.747132e-26   0.000000e+00   0.000000e+00
      128000   1.279990e-06   3.507974e+01   1.684094e-01   4.291325e+01   5.431228e+04   6.076817e+04   1.228541e+05  -1.056431e+10   1.062818e+10  -5.867219e+08   1.474304e+05   1.741848e-26   0.000000e+00   0.000000e+00
      136000   1.359990e-06   3.508406e+01   1.733047e-01   4.292308e+01   5.346194e+04   6.161189e+04   1.228068e+05  -1.069372e+10   1.046459e+10  -5.947091e+08   1.474304e+05   1.736503e-26   0.000000e+00   0.000000e+00
      144000   1.439990e-06   3.508830e+01   1.782669e-01   4.293290e+01   5.260137e+04   6.244246e+04   1.227589e+05  -1.082006e+10   1.029960e+10  -6.026460e+08   1.474304e+05   1.731095e-26   0.000000e+00   0.000000e+00
      152000   1.519990e-06   3.509247e+01   1.832951e-01   4.294272e+01   5.173081e+04   6.325979e+04   1.227104e+05  -1.094334e+10   1.013326e+10  -6.105230e+08   1.474304e+05   1.725625e-26   0.000000e+00   0.000000e+00
      160000   1.599990e-06   3.509658e+01   1.883881e-01   4.295253e+01   5.085051e+04   6.406375e+04   1.226612e+05  -1.106355e+10   9.965617e+09  -6.183303e+08   1.474304e+05   1.720093e-26   0.000000e+00   0.000000e+00
      168000   1.679990e-06   3.510061e+01   1.935449e-01   4.296234e+01   4.996134e+04   6.485364e+04   1.226115e+05  -1.112826e+10   9.745622e+09  -6.202831e+08   1.474304e+05   1.697649e-26   0.000000e+00   0.000000e+00
      176000   1.759990e-06   3.510457e+01   1.987642e-01   4.297215e+01   4.906709e+04   6.562610e+04   1.225616e+05  -1.122764e+10   9.565931e+09  -6.271546e+08   1.474304e+05   1.688046e-26   0.000000e+00   0.000000e+00
      184000   1.839990e-06   3.510846e+01   2.040448e-01   4.298195e+01   4.816273e+04   6.638612e+04   1.225110e+05  -1.136360e+10   9.419247e+09  -6.367003e+08   1.474304e+05   1.690361e-26   0.000000e+00   0.000000e+00
      192000   1.919990e-06   3.511227e+01   2.093856e-01   4.299175e+01   4.724963e+04   6.713261e+04   1.224598e+05  -1.146350e+10   9.243040e+09  -6.439754e+08   1.474304e+05   1.682626e-26   0.000000e+00   0.000000e+00
      200000   1.999990e-06   3.511602e+01   2.147856e-01   4.300155e+01   4.632879e+04   6.786487e+04   1.224080e+05  -1.154989e+10   9.057296e+09  -6.501037e+08   1.474304e+05   1.671758e-26   0.000000e+00   0.000000e+00
      208000   2.079990e-06   3.511969e+01   2.202436e-01   4.301134e+01   4.540114e+04   6.858225e+04   1.223558e+05  -1.164072e+10   8.876956e+09  -6.562625e+08   1.474304e+05   1.663086e-26   0.000000e+00   0.000000e+00
      216000   2.159990e-06   3.512328e+01   2.257584e-01   4.302112e+01   4.446636e+04   6.928517e+04   1.223030e+05  -1.172828e+10   8.696097e+09  -6.622466e+08   1.474304e+05   1.654379e-26   0.000000e+00   0.000000e+00
      224000   2.239990e-06   3.512680e+01   2.313289e-01   4.303091e+01   4.352470e+04   6.997361e+04   1.222498e+05  -1.181257e+10   8.514773e+09  -6.680477e+08   1.474304e+05   1.645638e-26   0.000000e+00   0.000000e+00
      232000   2.319990e-06   3.513025e+01   2.369538e-01   4.304068e+01   4.257643e+04   7.064752e+04   1.221961e+05  -1.189362e+10   8.333035e+09  -6.736575e+08   1.474304e+05   1.636863e-26   0.000000e+00   0.000000e+00
      240000   2.399990e-06   3.513361e+01   2.426321e-01   4.305046e+01   4.162181e+04   7.130688e+04   1.221420e+05  -1.197144e+10   8.150934e+09  -6.790678e+08   1.474304e+05   1.628055e-26   0.000000e+00   0.000000e+00
      248000   2.479990e-06   3.513690e+01   2.483625e-01   4.306023e+01   4.066109e+04   7.195166e+04   1.220875e+05  -1.204605e+10   7.968521e+09  -6.842705e+08   1.474304e+05   1.619216e-26   0.000000e+00   0.000000e+00
      256000   2.559990e-06   3.514012e+01   2.541439e-01   4.306999e+01   3.969453e+04   7.258184e+04   1.220325e+05  -1.211747e+10   7.785846e+09  -6.892578e+08   1.474304e+05   1.610345e-26   0.000000e+00   0.000000e+00
      264000   2.639990e-06   3.514326e+01   2.599752e-01   4.307975e+01   3.872238e+04   7.319739e+04   1.219772e+05  -1.218571e+10   7.602958e+09  -6.940217e+08   1.474304e+05   1.601445e-26   0.000000e+00   0.000000e+00
      272000   2.719990e-06   3.514631e+01   2.658551e-01   4.308951e+01   3.774490e+04   7.379830e+04   1.219215e+05  -1.225081e+10   7.419905e+09  -6.985545e+08   1.474304e+05   1.592515e-26   0.000000e+00   0.000000e+00
      280000   2.799990e-06   3.514929e+01   2.717826e-01   4.309926e+01   3.676233e+04   7.438457e+04   1.218654e+05  -1.231277e+10   7.236733e+09  -7.028487e+08   1.474304e+05   1.583558e-26   0.000000e+00   0.000000e+00
      288000   2.879990e-06   3.515220e+01   2.777563e-01   4.310901e+01   3.577285e+04   7.495743e+04   1.218089e+05  -1.239878e+10   7.070471e+09  -7.096574e+08   1.474304e+05   1.581670e-26   0.000000e+00   0.000000e+00
      296000   2.959990e-06   3.515502e+01   2.837754e-01   4.311875e+01   3.477879e+04   7.551574e+04   1.217519e+05  -1.245225e+10   6.887214e+09  -7.147070e+08   1.474304e+05   1.572207e-26   0.000000e+00   0.000000e+00
      304000   3.039990e-06   3.515776e+01   2.898385e-01   4.312849e+01   3.378057e+04   7.605939e+04   1.216945e+05  -1.250260e+10   6.704066e+09  -7.195084e+08   1.474304e+05   1.562712e-26   0.000000e+00   0.000000e+00
      312000   3.119990e-06   3.516042e+01   2.959445e-01   4.313822e+01   3.277846e+04   7.658839e+04   1.216368e+05  -1.254985e+10   6.521071e+09  -7.240536e+08   1.474304e+05   1.553189e-26   0.000000e+00   0.000000e+00
      320000   3.199990e-06   3.516301e+01   3.020922e-01   4.314795e+01   3.177239e+04   7.710288e+04   1.215787e+05  -1.260545e+10   6.342817e+09  -7.282716e+08   1.474304e+05   1.546308e-26   0.000000e+00   0.000000e+00
      328000   3.279990e-06   3.516551e+01   3.082805e-01   4.315767e+01   3.076211e+04   7.760307e+04   1.215203e+05  -1.265101e+10   6.162036e+09  -7.325449e+08   1.474304e+05   1.537762e-26   0.000000e+00   0.000000e+00
      336000   3.359990e-06   3.516793e+01   3.145083e-01   4.316739e+01   2.974831e+04   7.808881e+04   1.214615e+05  -1.269364e+10   5.981413e+09  -7.365729e+08   1.474304e+05   1.529187e-26   0.000000e+00   0.000000e+00
      344000   3.439990e-06   3.517027e+01   3.207744e-01   4.317711e+01   2.873121e+04   7.856010e+04   1.214024e+05  -1.273334e+10   5.800988e+09  -7.403476e+08   1.474304e+05   1.520584e-26   0.000000e+00   0.000000e+00
      352000   3.519990e-06   3.517252e+01   3.270775e-01   4.318682e+01   2.771105e+04   7.901697e+04   1.213431e+05  -1.277014e+10   5.620799e+09  -7.438616e+08   1.474304e+05   1.511955e-26   0.000000e+00   0.000000e+00
      360000   3.599990e-06   3.517470e+01   3.334167e-01   4.319652e+01   2.668806e+04   7.945943e+04   1.212834e+05  -1.280407e+10   5.440884e+09  -7.471074e+08   1.474304e+05   1.503300e-26   0.000000e+00   0.000000e+00
      368000   3.679990e-06   3.517679e+01   3.397907e-01   4.320622e+01   2.566384e+04   7.988682e+04   1.212237e+05  -1.280982e+10   5.247994e+09  -7.465081e+08   1.474304e+05   1.488464e-26   0.000000e+00   0.000000e+00
      376000   3.759990e-06   3.517881e+01   3.461982e-01   4.321592e+01   2.463773e+04   8.029952e+04   1.211639e+05  -1.284258e+10   5.069761e+09  -7.484519e+08   1.474304e+05   1.480754e-26   0.000000e+00   0.000000e+00
      384000   3.839990e-06   3.518074e+01   3.526382e-01   4.322561e+01   2.360910e+04   8.069798e+04   1.211040e+05  -1.287268e+10   4.891629e+09  -7.500178e+08   1.474304e+05   1.473024e-26   0.000000e+00   0.000000e+00
      392000   3.919990e-06   3.518258e+01   3.591095e-01   4.323529e+01   2.257817e+04   8.108219e+04   1.210439e+05  -1.290014e+10   4.713631e+09  -7.511997e+08   1.474304e+05   1.465276e-26   0.000000e+00   0.000000e+00
      400000   3.999990e-06   3.518435e+01   3.656110e-01   4.324498e+01   2.154515e+04   8.145216e+04   1.209838e+05  -1.292496e+10   4.535801e+09  -7.519917e+08   1.474304e+05   1.457511e-26   0.000000e+00   0.000000e+00
      408000   4.079990e-06   3.518603e+01   3.721415e-01   4.325465e+01   2.051025e+04   8.180792e+04   1.209236e+05  -1.294716e+10   4.358171e+09  -7.523881e+08   1.474304e+05   1.449729e-26   0.000000e+00   0.000000e+00
      416000   4.159990e-06   3.518763e+01   3.786999e-01   4.326432e+01   1.947367e+04   8.214947e+04   1.208634e+05  -1.296677e+10   4.180771e+09  -7.523835e+08   1.474304e+05   1.441933e-26   0.000000e+00   0.000000e+00
      424000   4.239990e-06   3.518915e+01   3.852850e-01   4.327399e+01   1.843563e+04   8.247685e+04   1.208032e+05  -1.298380e+10   4.003634e+09  -7.519725e+08   1.474304e+05   1.434123e-26   0.000000e+00   0.000000e+00
      432000   4.319990e-06   3.519058e+01   3.918958e-01   4.328365e+01   1.739633e+04   8.279006e+04   1.207431e+05  -1.299827e+10   3.826791e+09  -7.511503e+08   1.474304e+05   1.426300e-26   0.000000e+00   0.000000e+00
      440000   4.399990e-06   3.519193e+01   3.985310e-01   4.329331e+01   1.635598e+04   8.308914e+04   1.206831e+05  -1.301019e+10   3.650271e+09  -7.499119e+08   1.474304e+05   1.418465e-26   0.000000e+00   0.000000e+00
      448000   4.479990e-06   3.519320e+01   4.051897e-01   4.330296e+01   1.531328e+04   8.337495e+04   1.206227e+05  -1.304024e+10   3.493147e+09  -7.589808e+08   1.474304e+05   1.415941e-26   0.000000e+00   0.000000e+00
      456000   4.559990e-06   3.519438e+01   4.118707e-01   4.331261e+01   1.426973e+04   8.364739e+04   1.205621e+05  -1.304799e+10   3.318058e+09  -7.577320e+08   1.474304e+05   1.408257e-26   0.000000e+00   0.000000e+00
      464000   4.639990e-06   3.519548e+01   4.185729e-01   4.332225e+01   1.322567e+04   8.390585e+04   1.205015e+05  -1.305324e+10   3.143405e+09  -7.560944e+08   1.474304e+05   1.400557e-26   0.000000e+00   0.000000e+00
      472000   4.719990e-06   3.519650e+01   4.252952e-01   4.333189e+01   1.218128e+04   8.415035e+04   1.204411e+05  -1.305598e+10   2.969217e+09  -7.540635e+08   1.474304e+05   1.392843e-26   0.000000e+00   0.000000e+00
      480000   4.799990e-06   3.519743e+01   4.320366e-01   4.334152e+01   1.113677e+04   8.438093e+04   1.203809e+05  -1.305625e+10   2.795523e+09  -7.516352e+08   1.474304e+05   1.385115e-26   0.000000e+00   0.000000e+00
      488000   4.879990e-06   3.519828e+01   4.387958e-01   4.335115e+01   1.009235e+04   8.459764e+04   1.203209e+05  -1.305407e+10   2.622353e+09  -7.488054e+08   1.474304e+05   1.377374e-26   0.000000e+00   0.000000e+00
      496000   4.959990e-06   3.519904e+01   4.455718e-01   4.336077e+01   9.048188e+03   8.480052e+04   1.202611e+05  -1.304946e+10   2.449735e+09  -7.455702e+08   1.474304e+05   1.369623e-26   0.000000e+00   0.000000e+00
      504000   5.039990e-06   3.519973e+01   4.523635e-01   4.337039e+01   8.004497e+03   8.498961e+04   1.202016e+05  -1.304243e+10   2.277696e+09  -7.419263e+08   1.474304e+05   1.361861e-26   0.000000e+00   0.000000e+00
      512000   5.119990e-06   3.520032e+01   4.591698e-01   4.338000e+01   6.965521e+03   8.516458e+04   1.201424e+05  -1.293916e+10   2.097931e+09  -7.369561e+08   1.474304e+05   1.334934e-26   0.000000e+00   0.000000e+00
      520000   5.199990e-06   3.520084e+01   4.659895e-01   4.338961e+01   5.931291e+03   8.532564e+04   1.200836e+05  -1.291620e+10   1.928807e+09  -7.325330e+08   1.474304e+05   1.325011e-26   0.000000e+00   0.000000e+00
      528000   5.279990e-06   3.520127e+01   4.728215e-01   4.339922e+01   4.898993e+03   8.547321e+04   1.200252e+05  -1.289087e+10   1.760784e+09  -7.277297e+08   1.474304e+05   1.315093e-26   0.000000e+00   0.000000e+00
      536000   5.359990e-06   3.520162e+01   4.796648e-01   4.340882e+01   3.862337e+03   8.560741e+04   1.199674e+05  -1.295713e+10   1.592582e+09  -7.192809e+08   1.474304e+05   1.323895e-26   0.000000e+00   0.000000e+00
      544000   5.439990e-06   3.520189e+01   4.865184e-01   4.341841e+01   2.826448e+03   8.572803e+04   1.199101e+05  -1.293971e+10   1.423243e+09  -7.125062e+08   1.474304e+05   1.316369e-26   0.000000e+00   0.000000e+00
      552000   5.519990e-06   3.520208e+01   4.933810e-01   4.342800e+01   1.792046e+03   8.583514e+04   1.198534e+05  -1.291998e+10   1.254649e+09  -7.053460e+08   1.474304e+05   1.308843e-26   0.000000e+00   0.000000e+00
      560000   5.599990e-06   3.520218e+01   5.002516e-01   4.343759e+01   7.594272e+02   8.592880e+04   1.197973e+05  -1.285850e+10   1.088069e+09  -6.989279e+08   1.474304e+05   1.293477e-26   0.000000e+00   0.000000e+00
      568000   5.679990e-06   3.520220e+01   5.071292e-01   4.344717e+01  -2.677141e+02   8.600923e+04   1.197417e+05  -1.281968e+10   9.229460e+08  -6.915907e+08   1.474304e+05   1.283106e-26   0.000000e+00   0.000000e+00
      576000   5.759990e-06   3.520214e+01   5.140127e-01   4.345675e+01  -1.291663e+03   8.607650e+04   1.196866e+05  -1.277870e+10   7.591657e+08  -6.838729e+08   1.474304e+05   1.272765e-26   0.000000e+00   0.000000e+00
      584000   5.839990e-06   3.520199e+01   5.209011e-01   4.346632e+01  -2.312249e+03   8.613073e+04   1.196323e+05  -1.273560e+10   5.967460e+08  -6.757743e+08   1.474304e+05   1.262458e-26   0.000000e+00   0.000000e+00
      592000   5.919990e-06   3.520177e+01   5.277933e-01   4.347589e+01  -3.329302e+03   8.617202e+04   1.195785e+05  -1.269041e+10   4.357047e+08  -6.672949e+08   1.474304e+05   1.252183e-26   0.000000e+00   0.000000e+00
      600000   5.999990e-06   3.520146e+01   5.346883e-01   4.348545e+01  -4.342659e+03   8.620048e+04   1.195255e+05  -1.264317e+10   2.760586e+08  -6.584349e+08   1.474304e+05   1.241945e-26   0.000000e+00   0.000000e+00
      608000   6.079990e-06   3.520107e+01   5.415851e-01   4.349501e+01  -5.352156e+03   8.621622e+04   1.194732e+05  -1.259392e+10   1.178239e+08  -6.491948e+08   1.474304e+05   1.231742e-26   0.000000e+00   0.000000e+00
      616000   6.159990e-06   3.520060e+01   5.484826e-01   4.350457e+01  -6.359532e+03   8.621926e+04   1.194216e+05  -1.259642e+10  -4.205824e+07  -6.404161e+08   1.474304e+05   1.232048e-26   0.000000e+00   0.000000e+00
      624000   6.239990e-06   3.520005e+01   5.553798e-01   4.351412e+01  -7.365814e+03   8.620961e+04   1.193707e+05  -1.256029e+10  -1.990535e+08  -6.312675e+08   1.474304e+05   1.225212e-26   0.000000e+00   0.000000e+00
      632000   6.319990e-06   3.519942e+01   5.622758e-01   4.352367e+01  -8.361383e+03   8.618757e+04   1.193211e+05  -1.240594e+10  -3.521988e+08  -6.149303e+08   1.474304e+05   1.195864e-26   0.000000e+00   0.000000e+00
      640000   6.399990e-06   3.519872e+01   5.691695e-01   4.353321e+01  -9.351407e+03   8.615329e+04   1.192723e+05  -1.234439e+10  -5.045249e+08  -6.034037e+08   1.474304e+05   1.184966e-26   0.000000e+00   0.000000e+00
      648000   6.479990e-06   3.519793e+01   5.760600e-01   4.354275e+01  -1.033644e+04   8.610689e+04   1.192245e+05  -1.228107e+10  -6.552443e+08  -5.914881e+08   1.474304e+05   1.174134e-26   0.000000e+00   0.000000e+00
      656000   6.559990e-06   3.519706e+01   5.829463e-01   4.355229e+01  -1.131633e+04   8.604850e+04   1.191777e+05  -1.221602e+10  -8.043489e+08  -5.791860e+08   1.474304e+05   1.163368e-26   0.000000e+00   0.000000e+00
      664000   6.639990e-06   3.519612e+01   5.898274e-01   4.356182e+01  -1.229095e+04   8.597824e+04   1.191319e+05  -1.214930e+10  -9.518310e+08  -5.665000e+08   1.474304e+05   1.152669e-26   0.000000e+00   0.000000e+00
      672000   6.719990e-06   3.519510e+01   5.967025e-01   4.357135e+01  -1.326017e+04   8.589624e+04   1.190871e+05  -1.208092e+10  -1.097684e+09  -5.534329e+08   1.474304e+05   1.142040e-26   0.000000e+00   0.000000e+00
      680000   6.799990e-06   3.519400e+01   6.035705e-01   4.358087e+01  -1.422977e+04   8.580243e+04   1.190428e+05  -1.215426e+10  -1.247751e+09  -5.535049e+08   1.474304e+05   1.158532e-26   0.000000e+00   0.000000e+00
      688000   6.879990e-06   3.519282e+01   6.104305e-01   4.359040e+01  -1.519944e+04   8.569680e+04   1.189990e+05  -1.208733e+10  -1.392773e+09  -5.408706e+08   1.474304e+05   1.148825e-26   0.000000e+00   0.000000e+00
      696000   6.959990e-06   3.519156e+01   6.172817e-01   4.359991e+01  -1.616370e+04   8.557963e+04   1.189563e+05  -1.201869e+10  -1.536304e+09  -5.278299e+08   1.474304e+05   1.139158e-26   0.000000e+00   0.000000e+00
      704000   7.039990e-06   3.519023e+01   6.241229e-01   4.360943e+01  -1.712704e+04   8.544963e+04   1.189149e+05  -1.201634e+10  -1.699392e+09  -5.095276e+08   1.474304e+05   1.142660e-26   0.000000e+00   0.000000e+00
      712000   7.119990e-06   3.518882e+01   6.309533e-01   4.361894e+01  -1.808623e+04   8.530776e+04   1.188747e+05  -1.196303e+10  -1.847350e+09  -4.943967e+08   1.474304e+05   1.136706e-26   0.000000e+00   0.000000e+00
      720000   7.199990e-06   3.518734e+01   6.377719e-01   4.362845e+01  -1.904107e+04   8.515408e+04   1.188358e+05  -1.190788e+10  -1.994393e+09  -4.788675e+08   1.474304e+05   1.130768e-26   0.000000e+00   0.000000e+00
      728000   7.279990e-06   3.518578e+01   6.445776e-01   4.363795e+01  -1.999144e+04   8.498868e+04   1.187981e+05  -1.185091e+10  -2.140503e+09  -4.629427e+08   1.474304e+05   1.124848e-26   0.000000e+00   0.000000e+00
      736000   7.359990e-06   3.518414e+01   6.513697e-01   4.364746e+01  -2.093717e+04   8.481162e+04   1.187617e+05  -1.179213e+10  -2.285660e+09  -4.466252e+08   1.474304e+05   1.118947e-26   0.000000e+00   0.000000e+00
      744000   7.439990e-06   3.518243e+01   6.581472e-01   4.365696e+01  -2.187813e+04   8.462300e+04   1.187267e+05  -1.173157e+10  -2.429844e+09  -4.299182e+08   1.474304e+05   1.113066e-26   0.000000e+00   0.000000e+00
      752000   7.519990e-06   3.518064e+01   6.649091e-01   4.366645e+01  -2.281417e+04   8.442287e+04   1.186930e+05  -1.166924e+10  -2.573038e+09  -4.128253e+08   1.474304e+05   1.107206e-26   0.000000e+00   0.000000e+00
      760000   7.599990e-06   3.517878e+01   6.716546e-01   4.367595e+01  -2.374516e+04   8.421134e+04   1.186606e+05  -1.160516e+10  -2.715222e+09  -3.953499e+08   1.474304e+05   1.101369e-26   0.000000e+00   0.000000e+00
      768000   7.679990e-06   3.517684e+01   6.783826e-01   4.368544e+01  -2.467095e+04   8.398846e+04   1.186297e+05  -1.153934e+10  -2.856378e+09  -3.774959e+08   1.474304e+05   1.095555e-26   0.000000e+00   0.000000e+00
      776000   7.759990e-06   3.517483e+01   6.850924e-01   4.369493e+01  -2.559141e+04   8.375434e+04   1.186002e+05  -1.147180e+10  -2.996489e+09  -3.592675e+08   1.474304e+05   1.089765e-26   0.000000e+00   0.000000e+00
      784000   7.839990e-06   3.517275e+01   6.917831e-01   4.370442e+01  -2.650268e+04   8.351103e+04   1.185717e+05  -1.129878e+10  -3.080221e+09  -3.560218e+08   1.474304e+05   1.063175e-26   0.000000e+00   0.000000e+00
      792000   7.919990e-06   3.517059e+01   6.984539e-01   4.371390e+01  -2.740307e+04   8.325946e+04   1.185439e+05  -1.121089e+10  -3.208749e+09  -3.378731e+08   1.474304e+05   1.054017e-26   0.000000e+00   0.000000e+00
      800000   7.999990e-06   3.516836e+01   7.051043e-01   4.372338e+01  -2.829638e+04   8.299735e+04   1.185179e+05  -1.112517e+10  -3.342665e+09  -3.152978e+08   1.474304e+05   1.045869e-26   0.000000e+00   0.000000e+00
      808000   8.079990e-06   3.516606e+01   7.117332e-01   4.373286e+01  -2.918315e+04   8.272473e+04   1.184934e+05  -1.104397e+10  -3.472575e+09  -2.956176e+08   1.474304e+05   1.038691e-26   0.000000e+00   0.000000e+00
      816000   8.159990e-06   3.516369e+01   7.183400e-01   4.374234e+01  -3.006337e+04   8.244177e+04   1.184706e+05  -1.096131e+10  -3.601187e+09  -2.755500e+08   1.474304e+05   1.031561e-26   0.000000e+00   0.000000e+00
      824000   8.239990e-06   3.516125e+01   7.249236e-01   4.375182e+01  -3.093692e+04   8.214857e+04   1.184493e+05  -1.087722e+10  -3.728486e+09  -2.551014e+08   1.474304e+05   1.024480e-26   0.000000e+00   0.000000e+00
      832000   8.319990e-06   3.515874e+01   7.314835e-01   4.376129e+01  -3.180369e+04   8.184525e+04   1.184298e+05  -1.079171e+10  -3.854461e+09  -2.342784e+08   1.474304e+05   1.017449e-26   0.000000e+00   0.000000e+00
      840000   8.399990e-06   3.515616e+01   7.380186e-01   4.377077e+01  -3.266356e+04   8.153189e+04   1.184119e+05  -1.070480e+10  -3.979099e+09  -2.130876e+08   1.474304e+05   1.010468e-26   0.000000e+00   0.000000e+00
      848000   8.479990e-06   3.515352e+01   7.445283e-01   4.378024e+01  -3.351642e+04   8.120862e+04   1.183957e+05  -1.061652e+10  -4.102389e+09  -1.915359e+08   1.474304e+05   1.003540e-26   0.000000e+00   0.000000e+00
      856000   8.559990e-06   3.515080e+01   7.510117e-01   4.378971e+01  -3.436217e+04   8.087555e+04   1.183812e+05  -1.052688e+10  -4.224320e+09  -1.696304e+08   1.474304e+05   9.966635e-27   0.000000e+00   0.000000e+00
      864000   8.639990e-06   3.514802e+01   7.574681e-01   4.379918e+01  -3.520069e+04   8.053277e+04   1.183686e+05  -1.043591e+10  -4.344879e+09  -1.473784e+08   1.474304e+05   9.898410e-27   0.000000e+00   0.000000e+00
      872000   8.719990e-06   3.514517e+01   7.638967e-01   4.380865e+01  -3.603242e+04   8.018054e+04   1.183574e+05  -1.035252e+10  -4.462441e+09  -1.286300e+08   1.474304e+05   9.843939e-27   0.000000e+00   0.000000e+00
      880000   8.799990e-06   3.514225e+01   7.702968e-01   4.381812e+01  -3.685701e+04   7.981880e+04   1.183480e+05  -1.026201e+10  -4.581024e+09  -1.062445e+08   1.474304e+05   9.782070e-27   0.000000e+00   0.000000e+00
      888000   8.879990e-06   3.513927e+01   7.766675e-01   4.382758e+01  -3.767431e+04   7.944762e+04   1.183404e+05  -1.017021e+10  -4.698259e+09  -8.356366e+07   1.474304e+05   9.720730e-27   0.000000e+00   0.000000e+00
      896000   8.959990e-06   3.513623e+01   7.830081e-01   4.383705e+01  -3.848421e+04   7.906711e+04   1.183346e+05  -1.007716e+10  -4.814136e+09  -6.059457e+07   1.474304e+05   9.659926e-27   0.000000e+00   0.000000e+00
      904000   9.039990e-06   3.513312e+01   7.893180e-01   4.384652e+01  -3.928662e+04   7.867739e+04   1.183307e+05  -9.982869e+09  -4.928645e+09  -3.734433e+07   1.474304e+05   9.599665e-27   0.000000e+00   0.000000e+00
      912000   9.119990e-06   3.512994e+01   7.955963e-01   4.385598e+01  -4.008144e+04   7.827856e+04   1.183287e+05  -9.887361e+09  -5.041777e+09  -1.382020e+07   1.474304e+05   9.539953e-27   0.000000e+00   0.000000e+00
      920000   9.199990e-06   3.512670e+01   8.018423e-01   4.386545e+01  -4.086861e+04   7.787063e+04   1.183286e+05  -9.792697e+09  -5.158371e+09   1.244802e+07   1.474304e+05   9.487772e-27   0.000000e+00   0.000000e+00
      928000   9.279990e-06   3.512340e+01   8.080553e-01   4.387492e+01  -4.164819e+04   7.745349e+04   1.183305e+05  -9.696721e+09  -5.270007e+09   3.659866e+07   1.474304e+05   9.433159e-27   0.000000e+00   0.000000e+00
      936000   9.359990e-06   3.512004e+01   8.142346e-01   4.388438e+01  -4.242005e+04   7.702746e+04   1.183344e+05  -9.599497e+09  -5.380289e+09   6.101451e+07   1.474304e+05   9.379015e-27   0.000000e+00   0.000000e+00
      944000   9.439990e-06   3.511662e+01   8.203795e-01   4.389385e+01  -4.318408e+04   7.659267e+04   1.183403e+05  -9.501046e+09  -5.489206e+09   8.568732e+07   1.474304e+05   9.325345e-27   0.000000e+00   0.000000e+00
      952000   9.519990e-06   3.511313e+01   8.264892e-01   4.390332e+01  -4.393998e+04   7.614937e+04   1.183481e+05  -9.394172e+09  -5.591579e+09   1.099867e+08   1.474304e+05   9.257170e-27   0.000000e+00   0.000000e+00
      960000   9.599990e-06   3.510959e+01   8.325632e-01   4.391279e+01  -4.468750e+04   7.569781e+04   1.183579e+05  -9.293716e+09  -5.697218e+09   1.348045e+08   1.474304e+05   9.204606e-27   0.000000e+00   0.000000e+00
      968000   9.679990e-06   3.510598e+01   8.386007e-01   4.392226e+01  -4.542694e+04   7.523785e+04   1.183697e+05  -9.192105e+09  -5.801499e+09   1.598742e+08   1.474304e+05   9.152570e-27   0.000000e+00   0.000000e+00
      976000   9.759990e-06   3.510232e+01   8.446010e-01   4.393173e+01  -4.615821e+04   7.476960e+04   1.183835e+05  -9.089357e+09  -5.904409e+09   1.851873e+08   1.474304e+05   9.101068e-27   0.000000e+00   0.000000e+00
      984000   9.839990e-06   3.509860e+01   8.505636e-01   4.394120e+01  -4.687952e+04   7.429421e+04   1.183994e+05  -8.928068e+09  -5.970337e+09   2.113113e+08   1.474304e+05   8.937441e-27   0.000000e+00   0.000000e+00
      992000   9.919990e-06   3.509482e+01   8.564879e-01   4.395067e+01  -4.758932e+04   7.381282e+04   1.184173e+05  -8.816955e+09  -6.064202e+09   2.366555e+08   1.474304e+05   8.873103e-27   0.000000e+00   0.000000e+00
     1000000   9.999990e-06   3.509098e+01   8.623734e-01   4.396014e+01  -4.829021e+04   7.332398e+04   1.184372e+05  -8.705007e+09  -6.156470e+09   2.621766e+08   1.474304e+05   8.809501e-27   0.000000e+00   0.000000e+00
     1008000   1.007999e-05   3.508709e+01   8.682196e-01   4.396962e+01  -4.898210e+04   7.282783e+04   1.184592e+05  -8.592247e+09  -6.247139e+09   2.878658e+08   1.474304e+05   8.746636e-27   0.000000e+00   0.000000e+00
     1016000   1.015999e-05   3.508314e+01   8.740257e-01   4.397910e+01  -4.966494e+04   7.232448e+04   1.184833e+05  -8.478694e+09  -6.336204e+09   3.137145e+08   1.474304e+05   8.684511e-27   0.000000e+00   0.000000e+00
     1024000   1.023999e-05   3.507914e+01   8.797913e-01   4.398858e+01  -5.033867e+04   7.181408e+04   1.185094e+05  -8.364371e+09  -6.423664e+09   3.397139e+08   1.474304e+05   8.623127e-27   0.000000e+00   0.000000e+00
     1032000   1.031999e-05   3.507509e+01   8.855158e-01   4.399806e+01  -5.100322e+04   7.129674e+04   1.185377e+05  -8.249298e+09  -6.509516e+09   3.658550e+08   1.474304e+05   8.562486e-27   0.000000e+00   0.000000e+00
     1040000   1.039999e-05   3.507098e+01   8.911985e-01   4.400754e+01  -5.166040e+04   7.077117e+04   1.185680e+05  -8.164757e+09  -6.618095e+09   3.928277e+08   1.474304e+05   8.566991e-27   0.000000e+00   0.000000e+00
     1048000   1.047999e-05   3.506683e+01   8.968390e-01   4.401703e+01  -5.230912e+04   7.023821e+04   1.186005e+05  -8.053074e+09  -6.705505e+09   4.193451e+08   1.474304e+05   8.518577e-27   0.000000e+00   0.000000e+00
     1056000   1.055999e-05   3.506262e+01   9.024364e-01   4.402652e+01  -5.295121e+04   6.969668e+04   1.186350e+05  -8.006318e+09  -6.838220e+09   4.438659e+08   1.474304e+05   8.601273e-27   0.000000e+00   0.000000e+00
     1064000   1.063999e-05   3.505835e+01   9.079902e-01   4.403601e+01  -5.358694e+04   6.914632e+04   1.186716e+05  -7.886635e+09  -6.920379e+09   4.710412e+08   1.474304e+05   8.543432e-27   0.000000e+00   0.000000e+00
     1072000   1.071999e-05   3.505404e+01   9.134997e-01   4.404551e+01  -5.421305e+04   6.858946e+04   1.187104e+05  -7.766179e+09  -7.000854e+09   4.983356e+08   1.474304e+05   8.486220e-27   0.000000e+00   0.000000e+00
     1080000   1.079999e-05   3.504968e+01   9.189644e-01   4.405501e+01  -5.482950e+04   6.802623e+04   1.187514e+05  -7.644971e+09  -7.079639e+09   5.257392e+08   1.474304e+05   8.429641e-27   0.000000e+00   0.000000e+00
     1088000   1.087999e-05   3.504527e+01   9.243837e-01   4.406451e+01  -5.543623e+04   6.745676e+04   1.187945e+05  -7.523038e+09  -7.156731e+09   5.532421e+08   1.474304e+05   8.373701e-27   0.000000e+00   0.000000e+00
     1096000   1.095999e-05   3.504081e+01   9.297573e-01   4.407401e+01  -5.603317e+04   6.688119e+04   1.188399e+05  -7.400402e+09  -7.232126e+09   5.808343e+08   1.474304e+05   8.318402e-27   0.000000e+00   0.000000e+00
     1104000   1.103999e-05   3.503630e+01   9.350845e-01   4.408352e+01  -5.662027e+04   6.629967e+04   1.188875e+05  -7.277089e+09  -7.305820e+09   6.085058e+08   1.474304e+05   8.263750e-27   0.000000e+00   0.000000e+00
     1112000   1.111999e-05   3.503175e+01   9.403651e-01   4.409303e+01  -5.719748e+04   6.571231e+04   1.189373e+05  -7.153121e+09  -7.377809e+09   6.362464e+08   1.474304e+05   8.209747e-27   0.000000e+00   0.000000e+00
     1120000   1.119999e-05   3.502715e+01   9.455984e-01   4.410255e+01  -5.776417e+04   6.511976e+04   1.189893e+05  -7.000430e+09  -7.424260e+09   6.647075e+08   1.474304e+05   8.098493e-27   0.000000e+00   0.000000e+00
     1128000   1.127999e-05   3.502251e+01   9.507841e-01   4.411207e+01  -5.831900e+04   6.452324e+04   1.190436e+05  -6.870347e+09  -7.488275e+09   6.929991e+08   1.474304e+05   8.035659e-27   0.000000e+00   0.000000e+00
     1136000   1.135999e-05   3.501782e+01   9.559220e-01   4.412160e+01  -5.886341e+04   6.392168e+04   1.191002e+05  -6.739877e+09  -7.550458e+09   7.212989e+08   1.474304e+05   7.973659e-27   0.000000e+00   0.000000e+00
     1144000   1.143999e-05   3.501309e+01   9.610115e-01   4.413113e+01  -5.939737e+04   6.331522e+04   1.191590e+05  -6.609047e+09  -7.610811e+09   7.495964e+08   1.474304e+05   7.912491e-27   0.000000e+00   0.000000e+00
     1152000   1.151999e-05   3.500832e+01   9.660523e-01   4.414066e+01  -5.992085e+04   6.270400e+04   1.192201e+05  -6.477880e+09  -7.669338e+09   7.778818e+08   1.474304e+05   7.852155e-27   0.000000e+00   0.000000e+00
     1160000   1.159999e-05   3.500350e+01   9.710440e-01   4.415020e+01  -6.043382e+04   6.208817e+04   1.192835e+05  -6.346402e+09  -7.726045e+09   8.061449e+08   1.474304e+05   7.792650e-27   0.000000e+00   0.000000e+00
     1168000   1.167999e-05   3.499865e+01   9.759862e-01   4.415975e+01  -6.093689e+04   6.146722e+04   1.193491e+05  -6.243065e+09  -7.810721e+09   8.351246e+08   1.474304e+05   7.797467e-27   0.000000e+00   0.000000e+00
     1176000   1.175999e-05   3.499375e+01   9.808786e-01   4.416930e+01  -6.143105e+04   6.084020e+04   1.194170e+05  -6.110752e+09  -7.864610e+09   8.633233e+08   1.474304e+05   7.740005e-27   0.000000e+00   0.000000e+00
     1184000   1.183999e-05   3.498882e+01   9.857206e-01   4.417886e+01  -6.191461e+04   6.020893e+04   1.194872e+05  -5.978144e+09  -7.916657e+09   8.914763e+08   1.474304e+05   7.683289e-27   0.000000e+00   0.000000e+00
     1192000   1.191999e-05   3.498385e+01   9.905119e-01   4.418842e+01  -6.238754e+04   5.957358e+04   1.195597e+05  -5.845267e+09  -7.966866e+09   9.195734e+08   1.474304e+05   7.627319e-27   0.000000e+00   0.000000e+00
     1200000   1.199999e-05   3.497884e+01   9.952522e-01   4.419799e+01  -6.284984e+04   5.893428e+04   1.196344e+05  -5.712146e+09  -8.015241e+09   9.476044e+08   1.474304e+05   7.572095e-27   0.000000e+00   0.000000e+00
     1208000   1.207999e-05   3.497379e+01   9.999413e-01   4.420756e+01  -6.329912e+04   5.829333e+04   1.197115e+05  -5.542166e+09  -8.027490e+09   9.784844e+08   1.474304e+05   7.443762e-27   0.000000e+00   0.000000e+00
     1216000   1.215999e-05   3.496871e+01   1.004579e+00   4.421714e+01  -6.373934e+04   5.764802e+04   1.197904e+05  -5.436693e+09  -8.088278e+09   9.996038e+08   1.474304e+05   7.433186e-27   0.000000e+00   0.000000e+00
     1224000   1.223999e-05   3.496359e+01   1.009165e+00   4.422673e+01  -6.416896e+04   5.699927e+04   1.198714e+05  -5.304004e+09  -8.129944e+09   1.026511e+09   1.474304e+05   7.379368e-27   0.000000e+00   0.000000e+00
     1232000   1.231999e-05   3.495844e+01   1.013699e+00   4.423632e+01  -6.458797e+04   5.634727e+04   1.199546e+05  -5.171208e+09  -8.169837e+09   1.053324e+09   1.474304e+05   7.326312e-27   0.000000e+00   0.000000e+00
     1240000   1.239999e-05   3.495326e+01   1.018180e+00   4.424592e+01  -6.499635e+04   5.569215e+04   1.200400e+05  -5.038326e+09  -8.207964e+09   1.080034e+09   1.474304e+05   7.274017e-27   0.000000e+00   0.000000e+00
     1248000   1.247999e-05   3.494805e+01   1.022609e+00   4.425553e+01  -6.539410e+04   5.503404e+04   1.201274e+05  -4.905384e+09  -8.244333e+09   1.106631e+09   1.474304e+05   7.222481e-27   0.000000e+00   0.000000e+00
     1256000   1.255999e-05   3.494280e+01   1.026986e+00   4.426514e+01  -6.578121e+04   5.437310e+04   1.202170e+05  -4.772404e+09  -8.278951e+09   1.133106e+09   1.474304e+05   7.171702e-27   0.000000e+00   0.000000e+00
     1264000   1.263999e-05   3.493752e+01   1.031309e+00   4.427476e+01  -6.615768e+04   5.370946e+04   1.203087e+05  -4.639409e+09  -8.311825e+09   1.159450e+09   1.474304e+05   7.121677e-27   0.000000e+00   0.000000e+00
     1272000   1.271999e-05   3.493221e+01   1.035579e+00   4.428439e+01  -6.652352e+04   5.304325e+04   1.204025e+05  -4.506422e+09  -8.342963e+09   1.185654e+09   1.474304e+05   7.072403e-27   0.000000e+00   0.000000e+00
     1280000   1.279999e-05   3.492688e+01   1.039796e+00   4.429403e+01  -6.687871e+04   5.237463e+04   1.204984e+05  -4.373466e+09  -8.372374e+09   1.211709e+09   1.474304e+05   7.023877e-27   0.000000e+00   0.000000e+00
     1288000   1.287999e-05   3.492151e+01   1.043959e+00   4.430367e+01  -6.722437e+04   5.170221e+04   1.205964e+05  -4.277169e+09  -8.450559e+09   1.238706e+09   1.474304e+05   7.066351e-27   0.000000e+00   0.000000e+00
     1296000   1.295999e-05   3.491612e+01   1.048068e+00   4.431332e+01  -6.756133e+04   5.102493e+04   1.206966e+05  -4.146701e+09  -8.481187e+09   1.264297e+09   1.474304e+05   7.026356e-27   0.000000e+00   0.000000e+00
     1304000   1.303999e-05   3.491070e+01   1.052123e+00   4.432298e+01  -6.788784e+04   5.034527e+04   1.207987e+05  -4.016160e+09  -8.510101e+09   1.289714e+09   1.474304e+05   6.986906e-27   0.000000e+00   0.000000e+00
     1312000   1.311999e-05   3.490526e+01   1.056123e+00   4.433265e+01  -6.820391e+04   4.966336e+04   1.209029e+05  -3.885571e+09  -8.537306e+09   1.314949e+09   1.474304e+05   6.947998e-27   0.000000e+00   0.000000e+00
     1320000   1.319999e-05   3.489979e+01   1.060069e+00   4.434233e+01  -6.850942e+04   4.897944e+04   1.210091e+05  -3.717974e+09  -8.531987e+09   1.348465e+09   1.474304e+05   6.849187e-27   0.000000e+00   0.000000e+00
     1328000   1.327999e-05   3.489430e+01   1.063960e+00   4.435201e+01  -6.880152e+04   4.829609e+04   1.211180e+05  -3.584637e+09  -8.551339e+09   1.373608e+09   1.474304e+05   6.804679e-27   0.000000e+00   0.000000e+00
     1336000   1.335999e-05   3.488878e+01   1.067796e+00   4.436170e+01  -6.908296e+04   4.761127e+04   1.212289e+05  -3.451474e+09  -8.568952e+09   1.398524e+09   1.474304e+05   6.760818e-27   0.000000e+00   0.000000e+00
     1344000   1.343999e-05   3.488325e+01   1.071578e+00   4.437141e+01  -6.935376e+04   4.692510e+04   1.213418e+05  -3.318509e+09  -8.584837e+09   1.423204e+09   1.474304e+05   6.717600e-27   0.000000e+00   0.000000e+00
     1352000   1.351999e-05   3.487769e+01   1.075304e+00   4.438112e+01  -6.961393e+04   4.623774e+04   1.214566e+05  -3.185765e+09  -8.599004e+09   1.447642e+09   1.474304e+05   6.675018e-27   0.000000e+00   0.000000e+00
     1360000   1.359999e-05   3.487211e+01   1.078976e+00   4.439084e+01  -6.986349e+04   4.554931e+04   1.215734e+05  -3.053264e+09  -8.611461e+09   1.471829e+09   1.474304e+05   6.633068e-27   0.000000e+00   0.000000e+00
     1368000   1.367999e-05   3.486651e+01   1.082592e+00   4.440057e+01  -7.010262e+04   4.485972e+04   1.216921e+05  -2.955694e+09  -8.670965e+09   1.493738e+09   1.474304e+05   6.672336e-27   0.000000e+00   0.000000e+00
     1376000   1.375999e-05   3.486089e+01   1.086153e+00   4.441031e+01  -7.033389e+04   4.416537e+04   1.218126e+05  -2.826215e+09  -8.687513e+09   1.517983e+09   1.474304e+05   6.642258e-27   0.000000e+00   0.000000e+00
     1384000   1.383999e-05   3.485526e+01   1.089659e+00   4.442006e+01  -7.055481e+04   4.346977e+04   1.219350e+05  -2.696810e+09  -8.702426e+09   1.541973e+09   1.474304e+05   6.612675e-27   0.000000e+00   0.000000e+00
     1392000   1.391999e-05   3.484960e+01   1.093108e+00   4.442982e+01  -7.076538e+04   4.277303e+04   1.220593e+05  -2.567499e+09  -8.715710e+09   1.565699e+09   1.474304e+05   6.583584e-27   0.000000e+00   0.000000e+00
     1400000   1.399999e-05   3.484393e+01   1.096502e+00   4.443959e+01  -7.096561e+04   4.207529e+04   1.221855e+05  -2.438307e+09  -8.727369e+09   1.589154e+09   1.474304e+05   6.554980e-27   0.000000e+00   0.000000e+00
     1408000   1.407999e-05   3.483825e+01   1.099840e+00   4.444937e+01  -7.115552e+04   4.137669e+04   1.223135e+05  -2.309254e+09  -8.737411e+09   1.612331e+09   1.474304e+05   6.526857e-27   0.000000e+00   0.000000e+00
     1416000   1.415999e-05   3.483255e+01   1.103123e+00   4.445916e+01  -7.133225e+04   4.068303e+04   1.224432e+05  -2.142618e+09  -8.669392e+09   1.632268e+09   1.474304e+05   6.382717e-27   0.000000e+00   0.000000e+00
     1424000   1.423999e-05   3.482684e+01   1.106350e+00   4.446896e+01  -7.149849e+04   3.998935e+04   1.225747e+05  -2.013298e+09  -8.672291e+09   1.654928e+09   1.474304e+05   6.350756e-27   0.000000e+00   0.000000e+00
     1432000   1.431999e-05   3.482111e+01   1.109521e+00   4.447877e+01  -7.165439e+04   3.929550e+04   1.227080e+05  -1.884363e+09  -8.673717e+09   1.677283e+09   1.474304e+05   6.319521e-27   0.000000e+00   0.000000e+00
     1440000   1.439999e-05   3.481537e+01   1.112637e+00   4.448859e+01  -7.179999e+04   3.860159e+04   1.228430e+05  -1.755828e+09  -8.673682e+09   1.699326e+09   1.474304e+05   6.289001e-27   0.000000e+00   0.000000e+00
     1448000   1.447999e-05   3.480962e+01   1.115697e+00   4.449843e+01  -7.193533e+04   3.790775e+04   1.229799e+05  -1.627708e+09  -8.672195e+09   1.721050e+09   1.474304e+05   6.259185e-27   0.000000e+00   0.000000e+00
     1456000   1.455999e-05   3.480386e+01   1.118702e+00   4.450827e+01  -7.206074e+04   3.721341e+04   1.231184e+05  -1.502621e+09  -8.675484e+09   1.742754e+09   1.474304e+05   6.239101e-27   0.000000e+00   0.000000e+00
     1464000   1.463999e-05   3.479809e+01   1.121652e+00   4.451813e+01  -7.217623e+04   3.651874e+04   1.232587e+05  -1.392723e+09  -8.707540e+09   1.764319e+09   1.474304e+05   6.263470e-27   0.000000e+00   0.000000e+00
     1472000   1.471999e-05   3.479231e+01   1.124545e+00   4.452799e+01  -7.228257e+04   3.582231e+04   1.234007e+05  -1.265859e+09  -8.702994e+09   1.784938e+09   1.474304e+05   6.236886e-27   0.000000e+00   0.000000e+00
     1480000   1.479999e-05   3.478653e+01   1.127383e+00   4.453787e+01  -7.237878e+04   3.512630e+04   1.235443e+05  -1.139403e+09  -8.696950e+09   1.805214e+09   1.474304e+05   6.210823e-27   0.000000e+00   0.000000e+00
     1488000   1.487999e-05   3.478073e+01   1.130165e+00   4.454776e+01  -7.246489e+04   3.443084e+04   1.236895e+05  -1.013376e+09  -8.689419e+09   1.825139e+09   1.474304e+05   6.185272e-27   0.000000e+00   0.000000e+00
     1496000   1.495999e-05   3.477493e+01   1.132892e+00   4.455766e+01  -7.254093e+04   3.373604e+04   1.238363e+05  -8.877955e+08  -8.680412e+09   1.844709e+09   1.474304e+05   6.160228e-27   0.000000e+00   0.000000e+00
     1504000   1.503999e-05   3.476913e+01   1.135563e+00   4.456757e+01  -7.260695e+04   3.304201e+04   1.239846e+05  -7.626806e+08  -8.669942e+09   1.863918e+09   1.474304e+05   6.135682e-27   0.000000e+00   0.000000e+00
     1512000   1.511999e-05   3.476332e+01   1.138179e+00   4.457750e+01  -7.266297e+04   3.234888e+04   1.241345e+05  -6.380495e+08  -8.658018e+09   1.882759e+09   1.474304e+05   6.111627e-27   0.000000e+00   0.000000e+00
     1520000   1.519999e-05   3.475750e+01   1.140739e+00   4.458744e+01  -7.270905e+04   3.165677e+04   1.242859e+05  -5.139206e+08  -8.644654e+09   1.901229e+09   1.474304e+05   6.088057e-27   0.000000e+00   0.000000e+00
     1528000   1.527999e-05   3.475168e+01   1.143244e+00   4.459738e+01  -7.274521e+04   3.096578e+04   1.244387e+05  -3.903117e+08  -8.629860e+09   1.919321e+09   1.474304e+05   6.064962e-27   0.000000e+00   0.000000e+00
     1536000   1.535999e-05   3.474586e+01   1.145694e+00   4.460735e+01  -7.276880e+04   3.028203e+04   1.245931e+05  -2.195292e+08  -8.505735e+09   1.939086e+09   1.474304e+05   5.898077e-27   0.000000e+00   0.000000e+00
     1544000   1.543999e-05   3.474004e+01   1.148089e+00   4.461732e+01  -7.278128e+04   2.960294e+04   1.247489e+05  -9.258728e+07  -8.471249e+09   1.956218e+09   1.474304e+05   5.854834e-27   0.000000e+00   0.000000e+00
     1552000   1.551999e-05   3.473422e+01   1.150430e+00   4.462731e+01  -7.278364e+04   2.892666e+04   1.249061e+05   3.327402e+07  -8.435372e+09   1.972920e+09   1.474304e+05   5.812361e-27   0.000000e+00   0.000000e+00
     1560000   1.559999e-05   3.472840e+01   1.152717e+00   4.463730e+01  -7.277598e+04   2.825331e+04   1.250646e+05   1.580423e+08  -8.398126e+09   1.989191e+09   1.474304e+05   5.770645e-27   0.000000e+00   0.000000e+00
     1568000   1.567999e-05   3.472257e+01   1.154951e+00   4.464732e+01  -7.275838e+04   2.758300e+04   1.252243e+05   2.817055e+08  -8.359538e+09   2.005028e+09   1.474304e+05   5.729674e-27   0.000000e+00   0.000000e+00
     1576000   1.575999e-05   3.471675e+01   1.157131e+00   4.465734e+01  -7.273094e+04   2.691582e+04   1.253854e+05   4.042522e+08  -8.319629e+09   2.020428e+09   1.474304e+05   5.689433e-27   0.000000e+00   0.000000e+00
     1584000   1.583999e-05   3.471094e+01   1.159258e+00   4.466738e+01  -7.269373e+04   2.625189e+04   1.255476e+05   5.256711e+08  -8.278426e+09   2.035388e+09   1.474304e+05   5.649911e-27   0.000000e+00   0.000000e+00
     1592000   1.591999e-05   3.470512e+01   1.161331e+00   4.467743e+01  -7.264686e+04   2.559131e+04   1.257110e+05   6.459515e+08  -8.235950e+09   2.049907e+09   1.474304e+05   5.611093e-27   0.000000e+00   0.000000e+00
     1600000   1.599999e-05   3.469931e+01   1.163352e+00   4.468749e+01  -7.259129e+04   2.493163e+04   1.258756e+05   6.718879e+08  -8.462733e+09   2.063655e+09   1.474304e+05   5.911409e-27   0.000000e+00   0.000000e+00
     1608000   1.607999e-05   3.469351e+01   1.165320e+00   4.469757e+01  -7.253274e+04   2.425582e+04   1.260412e+05   7.917767e+08  -8.432275e+09   2.078385e+09   1.474304e+05   5.889871e-27   0.000000e+00   0.000000e+00
     1616000   1.615999e-05   3.468771e+01   1.167234e+00   4.470766e+01  -7.246059e+04   2.359647e+04   1.262078e+05   9.761348e+08  -8.167778e+09   2.087531e+09   1.474304e+05   5.578020e-27   0.000000e+00   0.000000e+00
     1624000   1.623999e-05   3.468192e+01   1.169095e+00   4.471776e+01  -7.237789e+04   2.294463e+04   1.263753e+05   1.091085e+09  -8.127842e+09   2.100581e+09   1.474304e+05   5.550254e-27   0.000000e+00   0.000000e+00
     1632000   1.631999e-05   3.467613e+01   1.170905e+00   4.472788e+01  -7.228604e+04   2.229605e+04   1.265439e+05   1.205055e+09  -8.086696e+09   2.113186e+09   1.474304e+05   5.522964e-27   0.000000e+00   0.000000e+00
     1640000   1.639999e-05   3.467035e+01   1.172663e+00   4.473801e+01  -7.218511e+04   2.165080e+04   1.267134e+05   1.318031e+09  -8.044359e+09   2.125345e+09   1.474304e+05   5.496140e-27   0.000000e+00   0.000000e+00
     1648000   1.647999e-05   3.466458e+01   1.174369e+00   4.474815e+01  -7.207518e+04   2.100898e+04   1.268839e+05   1.430002e+09  -8.000851e+09   2.137056e+09   1.474304e+05   5.469771e-27   0.000000e+00   0.000000e+00
     1656000   1.655999e-05   3.465882e+01   1.176024e+00   4.475831e+01  -7.195634e+04   2.037069e+04   1.270553e+05   1.540956e+09  -7.956191e+09   2.148319e+09   1.474305e+05   5.443847e-27   0.000000e+00   0.000000e+00
     1664000   1.663999e-05   3.465307e+01   1.177628e+00   4.476848e+01  -7.182866e+04   1.973602e+04   1.272276e+05   1.650883e+09  -7.910399e+09   2.159131e+09   1.474305e+05   5.418357e-27   0.000000e+00   0.000000e+00
     1672000   1.671999e-05   3.464733e+01   1.179182e+00   4.477867e+01  -7.169222e+04   1.910506e+04   1.274008e+05   1.759771e+09  -7.863495e+09   2.169493e+09   1.474305e+05   5.393293e-27   0.000000e+00   0.000000e+00
     1680000   1.679999e-05   3.464160e+01   1.180685e+00   4.478886e+01  -7.154712e+04   1.847789e+04   1.275747e+05   1.867610e+09  -7.815497e+09   2.179403e+09   1.474305e+05   5.368643e-27   0.000000e+00   0.000000e+00
     1688000   1.687999e-05   3.463588e+01   1.182139e+00   4.479908e+01  -7.139343e+04   1.785461e+04   1.277495e+05   1.974390e+09  -7.766427e+09   2.188860e+09   1.474305e+05   5.344398e-27   0.000000e+00   0.000000e+00
     1696000   1.695999e-05   3.463017e+01   1.183542e+00   4.480930e+01  -7.123320e+04   1.722560e+04   1.279252e+05   2.053904e+09  -7.852086e+09   2.201004e+09   1.474305e+05   5.476947e-27   0.000000e+00   0.000000e+00
     1704000   1.703999e-05   3.462448e+01   1.184895e+00   4.481955e+01  -7.106463e+04   1.659924e+04   1.281016e+05   2.160177e+09  -7.806718e+09   2.209953e+09   1.474305e+05   5.459669e-27   0.000000e+00   0.000000e+00
     1712000   1.711999e-05   3.461880e+01   1.186198e+00   4.482980e+01  -7.088759e+04   1.597656e+04   1.282787e+05   2.265544e+09  -7.760262e+09   2.218465e+09   1.474305e+05   5.442696e-27   0.000000e+00   0.000000e+00
     1720000   1.719999e-05   3.461314e+01   1.187451e+00   4.484007e+01  -7.070217e+04   1.535763e+04   1.284565e+05   2.369995e+09  -7.712733e+09   2.226541e+09   1.474305e+05   5.426019e-27   0.000000e+00   0.000000e+00
     1728000   1.727999e-05   3.460749e+01   1.188655e+00   4.485035e+01  -7.050842e+04   1.474255e+04   1.286350e+05   2.473517e+09  -7.664149e+09   2.234179e+09   1.474305e+05   5.409632e-27   0.000000e+00   0.000000e+00
     1736000   1.735999e-05   3.460186e+01   1.189810e+00   4.486065e+01  -7.030643e+04   1.413139e+04   1.288140e+05   2.576100e+09  -7.614528e+09   2.241379e+09   1.474305e+05   5.393529e-27   0.000000e+00   0.000000e+00
     1744000   1.743999e-05   3.459624e+01   1.190916e+00   4.487096e+01  -7.009586e+04   1.352881e+04   1.289933e+05   2.684414e+09  -7.479760e+09   2.243211e+09   1.474305e+05   5.280749e-27   0.000000e+00   0.000000e+00
     1752000   1.751999e-05   3.459064e+01   1.191975e+00   4.488129e+01  -6.987718e+04   1.293237e+04   1.291730e+05   2.782544e+09  -7.431009e+09   2.249212e+09   1.474305e+05   5.268087e-27   0.000000e+00   0.000000e+00
     1760000   1.759999e-05   3.458506e+01   1.192986e+00   4.489163e+01  -6.965068e+04   1.233987e+04   1.293532e+05   2.879770e+09  -7.381262e+09   2.254776e+09   1.474305e+05   5.255595e-27   0.000000e+00   0.000000e+00
     1768000   1.767999e-05   3.457950e+01   1.193949e+00   4.490199e+01  -6.941642e+04   1.175013e+04   1.295339e+05   2.977231e+09  -7.412773e+09   2.267904e+09   1.474305e+05   5.340508e-27   0.000000e+00   0.000000e+00
     1776000   1.775999e-05   3.457396e+01   1.194866e+00   4.491236e+01  -6.917440e+04   1.115914e+04   1.297155e+05   3.073141e+09  -7.361950e+09   2.272176e+09   1.474305e+05   5.328797e-27   0.000000e+00   0.000000e+00
     1784000   1.783999e-05   3.456843e+01   1.195735e+00   4.492274e+01  -6.892474e+04   1.057225e+04   1.298974e+05   3.168133e+09  -7.310174e+09   2.276014e+09   1.474305e+05   5.317231e-27   0.000000e+00   0.000000e+00
     1792000   1.791999e-05   3.456293e+01   1.196557e+00   4.493314e+01  -6.866752e+04   9.989537e+03   1.300797e+05   3.262196e+09  -7.257458e+09   2.279420e+09   1.474305e+05   5.305802e-27   0.000000e+00   0.000000e+00
     1800000   1.799999e-05   3.455745e+01   1.197333e+00   4.494355e+01  -6.840282e+04   9.411080e+03   1.302621e+05   3.355319e+09  -7.203819e+09   2.282395e+09   1.474305e+05   5.294504e-27   0.000000e+00   0.000000e+00
     1808000   1.807999e-05   3.455198e+01   1.198063e+00   4.495398e+01  -6.813070e+04   8.836951e+03   1.304448e+05   3.447492e+09  -7.149271e+09   2.284939e+09   1.474305e+05   5.283331e-27   0.000000e+00   0.000000e+00
     1816000   1.815999e-05   3.454654e+01   1.198747e+00   4.496443e+01  -6.785124e+04   8.267221e+03   1.306277e+05   3.538707e+09  -7.093830e+09   2.287054e+09   1.474305e+05   5.272275e-27   0.000000e+00   0.000000e+00
     1824000   1.823999e-05   3.454113e+01   1.199386e+00   4.497488e+01  -6.756453e+04   7.701962e+03   1.308108e+05   3.628952e+09  -7.037511e+09   2.288740e+09   1.474305e+05   5.261332e-27   0.000000e+00   0.000000e+00
     1832000   1.831999e-05   3.453573e+01   1.199980e+00   4.498536e+01  -6.727063e+04   7.141243e+03   1.309939e+05   3.718220e+09  -6.980329e+09   2.289999e+09   1.474305e+05   5.250494e-27   0.000000e+00   0.000000e+00
     1840000   1.839999e-05   3.453037e+01   1.200529e+00   4.499584e+01  -6.696861e+04   6.588026e+03   1.311775e+05   3.820201e+09  -6.885775e+09   2.296109e+09   1.474305e+05   5.210662e-27   0.000000e+00   0.000000e+00
     1848000   1.847999e-05   3.452502e+01   1.201034e+00   4.500634e+01  -6.665957e+04   6.039492e+03   1.313612e+05   3.906282e+09  -6.826210e+09   2.296101e+09   1.474305e+05   5.198915e-27   0.000000e+00   0.000000e+00
     1856000   1.855999e-05   3.451970e+01   1.201495e+00   4.501686e+01  -6.634356e+04   5.495895e+03   1.315449e+05   3.993694e+09  -6.763586e+09   2.296770e+09   1.474305e+05   5.186723e-27   0.000000e+00   0.000000e+00
     1864000   1.863999e-05   3.451441e+01   1.201914e+00   4.502739e+01  -6.602060e+04   4.957340e+03   1.317287e+05   4.080014e+09  -6.700166e+09   2.296999e+09   1.474305e+05   5.174649e-27   0.000000e+00   0.000000e+00
     1872000   1.871999e-05   3.450914e+01   1.202289e+00   4.503794e+01  -6.569079e+04   4.423890e+03   1.319124e+05   4.165235e+09  -6.635967e+09   2.296789e+09   1.474305e+05   5.162688e-27   0.000000e+00   0.000000e+00
     1880000   1.879999e-05   3.450389e+01   1.202621e+00   4.504850e+01  -6.535419e+04   3.895606e+03   1.320961e+05   4.249351e+09  -6.571008e+09   2.296143e+09   1.474305e+05   5.150832e-27   0.000000e+00   0.000000e+00
     1888000   1.887999e-05   3.449868e+01   1.202912e+00   4.505907e+01  -6.501093e+04   3.372707e+03   1.322798e+05   4.331560e+09  -6.497255e+09   2.294476e+09   1.474305e+05   5.130227e-27   0.000000e+00   0.000000e+00
     1896000   1.895999e-05   3.449349e+01   1.203161e+00   4.506966e+01  -6.466115e+04   2.855654e+03   1.324633e+05   4.412764e+09  -6.428965e+09   2.292665e+09   1.474305e+05   5.116212e-27   0.000000e+00   0.000000e+00
     1904000   1.903999e-05   3.448833e+01   1.203369e+00   4.508027e+01  -6.430492e+04   2.344092e+03   1.326466e+05   4.492805e+09  -6.359983e+09   2.290436e+09   1.474305e+05   5.102301e-27   0.000000e+00   0.000000e+00
     1912000   1.911999e-05   3.448320e+01   1.203536e+00   4.509089e+01  -6.394233e+04   1.838075e+03   1.328297e+05   4.571677e+09  -6.290329e+09   2.287789e+09   1.474305e+05   5.088490e-27   0.000000e+00   0.000000e+00
     1920000   1.919999e-05   3.447810e+01   1.203663e+00   4.510152e+01  -6.357346e+04   1.337533e+03   1.330127e+05   4.651198e+09  -6.231231e+09   2.285707e+09   1.474305e+05   5.087242e-27   0.000000e+00   0.000000e+00
     1928000   1.927999e-05   3.447303e+01   1.203751e+00   4.511217e+01  -6.319824e+04   8.417052e+02   1.331954e+05   4.729092e+09  -6.164355e+09   2.282808e+09   1.474305e+05   5.078603e-27   0.000000e+00   0.000000e+00
     1936000   1.935999e-05   3.446799e+01   1.203798e+00   4.512283e+01  -6.281684e+04   3.512546e+02   1.333779e+05   4.805908e+09  -6.096809e+09   2.279494e+09   1.474305e+05   5.070017e-27   0.000000e+00   0.000000e+00
     1944000   1.943999e-05   3.446298e+01   1.203807e+00   4.513351e+01  -6.242933e+04  -1.337662e+02   1.335601e+05   4.881639e+09  -6.028612e+09   2.275767e+09   1.474305e+05   5.061478e-27   0.000000e+00   0.000000e+00
     1952000   1.951999e-05   3.445800e+01   1.203777e+00   4.514420e+01  -6.203580e+04  -6.133056e+02   1.337420e+05   4.956281e+09  -5.959778e+09   2.271630e+09   1.474305e+05   5.052982e-27   0.000000e+00   0.000000e+00
     1960000   1.959999e-05   3.445306e+01   1.203709e+00   4.515491e+01  -6.163635e+04  -1.087313e+03   1.339236e+05   5.029829e+09  -5.890323e+09   2.267087e+09   1.474305e+05   5.044524e-27   0.000000e+00   0.000000e+00
     1968000   1.967999e-05   3.444814e+01   1.203603e+00   4.516563e+01  -6.123106e+04  -1.555741e+03   1.341047e+05   5.102277e+09  -5.820265e+09   2.262140e+09   1.474305e+05   5.036100e-27   0.000000e+00   0.000000e+00
     1976000   1.975999e-05   3.444326e+01   1.203460e+00   4.517636e+01  -6.082001e+04  -2.018539e+03   1.342855e+05   5.173622e+09  -5.749618e+09   2.256793e+09   1.474305e+05   5.027704e-27   0.000000e+00   0.000000e+00
     1984000   1.983999e-05   3.443841e+01   1.203280e+00   4.518711e+01  -6.040331e+04  -2.475663e+03   1.344658e+05   5.243859e+09  -5.678400e+09   2.251050e+09   1.474305e+05   5.019334e-27   0.000000e+00   0.000000e+00
     1992000   1.991999e-05   3.443360e+01   1.203064e+00   4.519788e+01  -5.998103e+04  -2.927068e+03   1.346456e+05   5.312983e+09  -5.606626e+09   2.244914e+09   1.474305e+05   5.010983e-27   0.000000e+00   0.000000e+00
     2000000   1.999999e-05   3.442881e+01   1.202812e+00   4.520866e+01  -5.955357e+04  -3.372534e+03   1.348248e+05   5.375546e+09  -5.530167e+09   2.236108e+09   1.474305e+05   4.993770e-27   0.000000e+00   0.000000e+00
     2008000   2.007999e-05   3.442407e+01   1.202525e+00   4.521945e+01  -5.912091e+04  -3.811896e+03   1.350034e+05   5.440679e+09  -5.453829e+09   2.228603e+09   1.474305e+05   4.980796e-27   0.000000e+00   0.000000e+00
     2016000   2.015999e-05   3.441936e+01   1.202202e+00   4.523026e+01  -5.868309e+04  -4.245134e+03   1.351814e+05   5.504596e+09  -5.377043e+09   2.220728e+09   1.474305e+05   4.967854e-27   0.000000e+00   0.000000e+00
     2024000   2.023999e-05   3.441468e+01   1.201846e+00   4.524108e+01  -5.824021e+04  -4.672211e+03   1.353587e+05   5.567297e+09  -5.299828e+09   2.212486e+09   1.474305e+05   4.954941e-27   0.000000e+00   0.000000e+00
     2032000   2.031999e-05   3.441004e+01   1.201455e+00   4.525191e+01  -5.779235e+04  -5.093094e+03   1.355354e+05   5.628781e+09  -5.222201e+09   2.203882e+09   1.474305e+05   4.942053e-27   0.000000e+00   0.000000e+00
     2040000   2.039999e-05   3.440543e+01   1.201031e+00   4.526276e+01  -5.733963e+04  -5.507752e+03   1.357114e+05   5.689047e+09  -5.144182e+09   2.194920e+09   1.474305e+05   4.929188e-27   0.000000e+00   0.000000e+00
     2048000   2.047999e-05   3.440086e+01   1.200574e+00   4.527363e+01  -5.688214e+04  -5.916153e+03   1.358866e+05   5.748095e+09  -5.065788e+09   2.185607e+09   1.474305e+05   4.916342e-27   0.000000e+00   0.000000e+00
     2056000   2.055999e-05   3.439633e+01   1.200085e+00   4.528451e+01  -5.642023e+04  -6.319476e+03   1.360609e+05   5.801810e+09  -5.006100e+09   2.173322e+09   1.474305e+05   4.913685e-27   0.000000e+00   0.000000e+00
     2064000   2.063999e-05   3.439184e+01   1.199563e+00   4.529540e+01  -5.595290e+04  -6.713693e+03   1.362349e+05   5.872142e+09  -4.881909e+09   2.171165e+09   1.474305e+05   4.881441e-27   0.000000e+00   0.000000e+00
     2072000   2.071999e-05   3.438738e+01   1.199011e+00   4.530630e+01  -5.548155e+04  -7.101403e+03   1.364079e+05   5.913483e+09  -4.809951e+09   2.154806e+09   1.474305e+05   4.859683e-27   0.000000e+00   0.000000e+00
     2080000   2.079999e-05   3.438296e+01   1.198427e+00   4.531722e+01  -5.500630e+04  -7.483127e+03   1.365798e+05   5.967487e+09  -4.733119e+09   2.144032e+09   1.474305e+05   4.849003e-27   0.000000e+00   0.000000e+00
     2088000   2.087999e-05   3.437858e+01   1.197813e+00   4.532816e+01  -5.452678e+04  -7.858693e+03   1.367509e+05   6.020330e+09  -4.655986e+09   2.132928e+09   1.474305e+05   4.838297e-27   0.000000e+00   0.000000e+00
     2096000   2.095999e-05   3.437423e+01   1.197170e+00   4.533910e+01  -5.404308e+04  -8.228077e+03   1.369211e+05   6.072012e+09  -4.578567e+09   2.121500e+09   1.474305e+05   4.827563e-27   0.000000e+00   0.000000e+00
     2104000   2.103999e-05   3.436993e+01   1.196497e+00   4.535006e+01  -5.355529e+04  -8.591256e+03   1.370903e+05   6.122534e+09  -4.500878e+09   2.109751e+09   1.474305e+05   4.816798e-27   0.000000e+00   0.000000e+00
     2112000   2.111999e-05   3.436567e+01   1.195795e+00   4.536104e+01  -5.306351e+04  -8.948210e+03   1.372586e+05   6.171897e+09  -4.422935e+09   2.097688e+09   1.474305e+05   4.806002e-27   0.000000e+00   0.000000e+00
     2120000   2.119999e-05   3.436144e+01   1.195066e+00   4.537203e+01  -5.256782e+04  -9.298918e+03   1.374260e+05   6.220103e+09  -4.344755e+09   2.085314e+09   1.474305e+05   4.795171e-27   0.000000e+00   0.000000e+00
     2128000   2.127999e-05   3.435725e+01   1.194308e+00   4.538303e+01  -5.206832e+04  -9.643364e+03   1.375923e+05   6.267154e+09  -4.266353e+09   2.072636e+09   1.474305e+05   4.784304e-27   0.000000e+00   0.000000e+00
     2136000   2.135999e-05   3.435311e+01   1.193523e+00   4.539404e+01  -5.156510e+04  -9.981529e+03   1.377576e+05   6.313050e+09  -4.187745e+09   2.059659e+09   1.474305e+05   4.773400e-27   0.000000e+00   0.000000e+00
     2144000   2.143999e-05   3.434900e+01   1.192711e+00   4.540507e+01  -5.105788e+04  -1.031356e+04   1.379219e+05   6.368551e+09  -4.113391e+09   2.050012e+09   1.474305e+05   4.777037e-27   0.000000e+00   0.000000e+00
     2152000   2.151999e-05   3.434494e+01   1.191873e+00   4.541611e+01  -5.054657e+04  -1.063946e+04   1.380854e+05   6.414128e+09  -4.033983e+09   2.037097e+09   1.474305e+05   4.767964e-27   0.000000e+00   0.000000e+00
     2160000   2.159999e-05   3.434092e+01   1.191009e+00   4.542716e+01  -5.003165e+04  -1.095899e+04   1.382479e+05   6.458588e+09  -3.954354e+09   2.023892e+09   1.474305e+05   4.758871e-27   0.000000e+00   0.000000e+00
     2168000   2.167999e-05   3.433694e+01   1.190119e+00   4.543823e+01  -4.951322e+04  -1.127215e+04   1.384092e+05   6.501932e+09  -3.874518e+09   2.010401e+09   1.474305e+05   4.749756e-27   0.000000e+00   0.000000e+00
     2176000   2.175999e-05   3.433300e+01   1.189205e+00   4.544931e+01  -4.899137e+04  -1.157891e+04   1.385695e+05   6.544161e+09  -3.794490e+09   1.996629e+09   1.474305e+05   4.740618e-27   0.000000e+00   0.000000e+00
     2184000   2.183999e-05   3.432910e+01   1.188267e+00   4.546040e+01  -4.846619e+04  -1.187926e+04   1.387287e+05   6.585279e+09  -3.714286e+09   1.982582e+09   1.474305e+05   4.731457e-27   0.000000e+00   0.000000e+00
     2192000   2.191999e-05   3.432524e+01   1.187305e+00   4.547150e+01  -4.793776e+04  -1.217319e+04   1.388867e+05   6.625287e+09  -3.633919e+09   1.968263e+09   1.474305e+05   4.722272e-27   0.000000e+00   0.000000e+00
     2200000   2.199999e-05   3.432143e+01   1.186319e+00   4.548262e+01  -4.740617e+04  -1.246069e+04   1.390436e+05   6.664189e+09  -3.553404e+09   1.953678e+09   1.474305e+05   4.713063e-27   0.000000e+00   0.000000e+00
     2208000   2.207999e-05   3.431766e+01   1.185311e+00   4.549375e+01  -4.687152e+04  -1.274173e+04   1.391993e+05   6.701986e+09  -3.472756e+09   1.938831e+09   1.474305e+05   4.703829e-27   0.000000e+00   0.000000e+00
     2216000   2.215999e-05   3.431393e+01   1.184281e+00   4.550489e+01  -4.633432e+04  -1.301630e+04   1.393537e+05   6.725884e+09  -3.391453e+09   1.919545e+09   1.474305e+05   4.679697e-27   0.000000e+00   0.000000e+00
     2224000   2.223999e-05   3.431024e+01   1.183229e+00   4.551605e+01  -4.579487e+04  -1.328439e+04   1.395066e+05   6.760074e+09  -3.310855e+09   1.903814e+09   1.474305e+05   4.668912e-27   0.000000e+00   0.000000e+00
     2232000   2.231999e-05   3.430660e+01   1.182156e+00   4.552721e+01  -4.525274e+04  -1.354604e+04   1.396583e+05   6.793153e+09  -3.230222e+09   1.887841e+09   1.474305e+05   4.658097e-27   0.000000e+00   0.000000e+00
     2240000   2.239999e-05   3.430300e+01   1.181062e+00   4.553839e+01  -4.470800e+04  -1.380123e+04   1.398087e+05   6.825128e+09  -3.149570e+09   1.871633e+09   1.474305e+05   4.647251e-27   0.000000e+00   0.000000e+00
     2248000   2.247999e-05   3.429945e+01   1.179948e+00   4.554958e+01  -4.416076e+04  -1.404966e+04   1.399578e+05   6.854996e+09  -3.044525e+09   1.857331e+09   1.474305e+05   4.624373e-27   0.000000e+00   0.000000e+00
     2256000   2.255999e-05   3.429594e+01   1.178814e+00   4.556079e+01  -4.361115e+04  -1.429005e+04   1.401057e+05   6.885152e+09  -2.965126e+09   1.840740e+09   1.474305e+05   4.614757e-27   0.000000e+00   0.000000e+00
     2264000   2.263999e-05   3.429247e+01   1.177661e+00   4.557200e+01  -4.305916e+04  -1.452408e+04   1.402523e+05   6.914255e+09  -2.885713e+09   1.823930e+09   1.474305e+05   4.605104e-27   0.000000e+00   0.000000e+00
     2272000   2.271999e-05   3.428905e+01   1.176490e+00   4.558323e+01  -4.250489e+04  -1.475176e+04   1.403975e+05   6.942309e+09  -2.806297e+09   1.806904e+09   1.474305e+05   4.595414e-27   0.000000e+00   0.000000e+00
     2280000   2.279999e-05   3.428567e+01   1.175301e+00   4.559446e+01  -4.194842e+04  -1.497309e+04   1.405414e+05   6.969320e+09  -2.726892e+09   1.789669e+09   1.474305e+05   4.585687e-27   0.000000e+00   0.000000e+00
     2288000   2.287999e-05   3.428234e+01   1.174095e+00   4.560571e+01  -4.138994e+04  -1.518791e+04   1.406838e+05   6.991855e+09  -2.643182e+09   1.771694e+09   1.474305e+05   4.570282e-27   0.000000e+00   0.000000e+00
     2296000   2.295999e-05   3.427905e+01   1.172871e+00   4.561697e+01  -4.082969e+04  -1.539610e+04   1.408249e+05   7.014394e+09  -2.561736e+09   1.753635e+09   1.474305e+05   4.556969e-27   0.000000e+00   0.000000e+00
     2304000   2.303999e-05   3.427580e+01   1.171632e+00   4.562824e+01  -4.026767e+04  -1.559779e+04   1.409644e+05   7.035853e+09  -2.480431e+09   1.735394e+09   1.474305e+05   4.543640e-27   0.000000e+00   0.000000e+00
     2312000   2.311999e-05   3.427260e+01   1.170376e+00   4.563953e+01  -3.970398e+04  -1.579298e+04   1.411025e+05   7.056239e+09  -2.399280e+09   1.716976e+09   1.474305e+05   4.530296e-27   0.000000e+00   0.000000e+00
     2320000   2.319999e-05   3.426945e+01   1.169105e+00   4.565082e+01  -3.913870e+04  -1.598168e+04   1.412391e+05   7.075560e+09  -2.318297e+09   1.698386e+09   1.474305e+05   4.516938e-27   0.000000e+00   0.000000e+00
     2328000   2.327999e-05   3.426634e+01   1.167819e+00   4.566212e+01  -3.857192e+04  -1.616391e+04   1.413742e+05   7.093826e+09  -2.237493e+09   1.679630e+09   1.474305e+05   4.503565e-27   0.000000e+00   0.000000e+00
     2336000   2.335999e-05   3.426328e+01   1.166519e+00   4.567344e+01  -3.800372e+04  -1.633968e+04   1.415079e+05   7.111044e+09  -2.156882e+09   1.660713e+09   1.474305e+05   4.490179e-27   0.000000e+00   0.000000e+00
     2344000   2.343999e-05   3.426026e+01   1.165205e+00   4.568477e+01  -3.743418e+04  -1.650901e+04   1.416400e+05   7.127224e+09  -2.076475e+09   1.641640e+09   1.474305e+05   4.476779e-27   0.000000e+00   0.000000e+00
     2352000   2.351999e-05   3.425729e+01   1.163878e+00   4.569610e+01  -3.686339e+04  -1.667192e+04   1.417705e+05   7.142373e+09  -1.996285e+09   1.622416e+09   1.474305e+05   4.463368e-27   0.000000e+00   0.000000e+00
     2360000   2.359999e-05   3.425436e+01   1.162537e+00   4.570745e+01  -3.629035e+04  -1.682937e+04   1.418997e+05   7.177030e+09  -1.934581e+09   1.606062e+09   1.474305e+05   4.478929e-27   0.000000e+00   0.000000e+00
     2368000   2.367999e-05   3.425148e+01   1.161185e+00   4.571881e+01  -3.571564e+04  -1.698098e+04   1.420274e+05   7.190615e+09  -1.855839e+09   1.586342e+09   1.474305e+05   4.466054e-27   0.000000e+00   0.000000e+00
     2376000   2.375999e-05   3.424865e+01   1.159821e+00   4.573017e+01  -3.513988e+04  -1.712630e+04   1.421535e+05   7.203221e+09  -1.777291e+09   1.566493e+09   1.474305e+05   4.453159e-27   0.000000e+00   0.000000e+00
     2384000   2.383999e-05   3.424586e+01   1.158445e+00   4.574155e+01  -3.456315e+04  -1.726535e+04   1.422780e+05   7.214855e+09  -1.698948e+09   1.546520e+09   1.474305e+05   4.440243e-27   0.000000e+00   0.000000e+00
     2392000   2.391999e-05   3.424312e+01   1.157058e+00   4.575294e+01  -3.398553e+04  -1.739814e+04   1.424010e+05   7.225527e+09  -1.620821e+09   1.526427e+09   1.474305e+05   4.427308e-27   0.000000e+00   0.000000e+00
     2400000   2.399999e-05   3.424042e+01   1.155661e+00   4.576434e+01  -3.340709e+04  -1.752469e+04   1.425223e+05   7.235243e+09  -1.542920e+09   1.506220e+09   1.474305e+05   4.414356e-27   0.000000e+00   0.000000e+00
     2408000   2.407999e-05   3.423777e+01   1.154255e+00   4.577574e+01  -3.282792e+04  -1.764501e+04   1.426419e+05   7.244013e+09  -1.465256e+09   1.485902e+09   1.474305e+05   4.401389e-27   0.000000e+00   0.000000e+00
     2416000   2.415999e-05   3.423517e+01   1.152838e+00   4.578716e+01  -3.224808e+04  -1.775914e+04   1.427600e+05   7.251846e+09  -1.387838e+09   1.465480e+09   1.474305e+05   4.388408e-27   0.000000e+00   0.000000e+00
     2424000   2.423999e-05   3.423261e+01   1.151413e+00   4.579858e+01  -3.166765e+04  -1.786707e+04   1.428764e+05   7.258750e+09  -1.310676e+09   1.444956e+09   1.474305e+05   4.375414e-27   0.000000e+00   0.000000e+00
     2432000   2.431999e-05   3.423010e+01   1.149980e+00   4.581002e+01  -3.108660e+04  -1.796822e+04   1.429913e+05   7.265726e+09  -1.224153e+09   1.425761e+09   1.474305e+05   4.362008e-27   0.000000e+00   0.000000e+00
     2440000   2.439999e-05   3.422764e+01   1.148539e+00   4.582146e+01  -3.050517e+04  -1.806303e+04   1.431045e+05   7.269764e+09  -1.146287e+09   1.404991e+09   1.474305e+05   4.347705e-27   0.000000e+00   0.000000e+00
     2448000   2.447999e-05   3.422522e+01   1.147090e+00   4.583291e+01  -2.992346e+04  -1.815163e+04   1.432161e+05   7.272877e+09  -1.068781e+09   1.384133e+09   1.474305e+05   4.333410e-27   0.000000e+00   0.000000e+00
     2456000   2.455999e-05   3.422285e+01   1.145634e+00   4.584438e+01  -2.934154e+04  -1.823404e+04   1.433260e+05   7.275077e+09  -9.916453e+08   1.363192e+09   1.474305e+05   4.319123e-27   0.000000e+00   0.000000e+00
     2464000   2.463999e-05   3.422053e+01   1.144173e+00   4.585585e+01  -2.875947e+04  -1.831030e+04   1.434342e+05   7.276374e+09  -9.148880e+08   1.342172e+09   1.474305e+05   4.304848e-27   0.000000e+00   0.000000e+00
     2472000   2.471999e-05   3.421825e+01   1.142705e+00   4.586733e+01  -2.817734e+04  -1.838044e+04   1.435407e+05   7.276781e+09  -8.385191e+08   1.321078e+09   1.474305e+05   4.290585e-27   0.000000e+00   0.000000e+00
     2480000   2.479999e-05   3.421602e+01   1.141232e+00   4.587881e+01  -2.759521e+04  -1.844448e+04   1.436456e+05   7.276309e+09  -7.625476e+08   1.299915e+09   1.474305e+05   4.276336e-27   0.000000e+00   0.000000e+00
     2488000   2.487999e-05   3.421384e+01   1.139754e+00   4.589031e+01  -2.701316e+04  -1.850245e+04   1.437487e+05   7.274969e+09  -6.869824e+08   1.278687e+09   1.474305e+05   4.262104e-27   0.000000e+00   0.000000e+00
     2496000   2.495999e-05   3.421170e+01   1.138272e+00   4.590181e+01  -2.643125e+04  -1.855444e+04   1.438501e+05   7.272158e+09  -6.149995e+08   1.256876e+09   1.474305e+05   4.247395e-27   0.000000e+00   0.000000e+00
     2504000   2.503999e-05   3.420961e+01   1.136785e+00   4.591332e+01  -2.584946e+04  -1.860072e+04   1.439499e+05   7.272533e+09  -5.419622e+08   1.235921e+09   1.474305e+05   4.237227e-27   0.000000e+00   0.000000e+00
     2512000   2.511999e-05   3.420756e+01   1.135296e+00   4.592484e+01  -2.526767e+04  -1.864116e+04   1.440479e+05   7.272104e+09  -4.692485e+08   1.214890e+09   1.474305e+05   4.227058e-27   0.000000e+00   0.000000e+00
     2520000   2.519999e-05   3.420556e+01   1.133803e+00   4.593637e+01  -2.468594e+04  -1.867581e+04   1.441442e+05   7.270882e+09  -3.968662e+08   1.193786e+09   1.474305e+05   4.216889e-27   0.000000e+00   0.000000e+00
     2528000   2.527999e-05   3.420361e+01   1.132308e+00   4.594791e+01  -2.410435e+04  -1.870467e+04   1.442389e+05   7.268874e+09  -3.248229e+08   1.172612e+09   1.474305e+05   4.206721e-27   0.000000e+00   0.000000e+00
     2536000   2.535999e-05   3.420171e+01   1.130810e+00   4.595945e+01  -2.352294e+04  -1.872779e+04   1.443319e+05   7.266091e+09  -2.531259e+08   1.151374e+09   1.474305e+05   4.196556e-27   0.000000e+00   0.000000e+00
     2544000   2.543999e-05   3.419985e+01   1.129311e+00   4.597100e+01  -2.294188e+04  -1.874517e+04   1.444231e+05   7.248975e+09  -1.805381e+08   1.128085e+09   1.474305e+05   4.170766e-27   0.000000e+00   0.000000e+00
     2552000   2.551999e-05   3.419804e+01   1.127811e+00   4.598256e+01  -2.236219e+04  -1.875677e+04   1.445125e+05   7.243264e+09  -1.095900e+08   1.106619e+09   1.474305e+05   4.159047e-27   0.000000e+00   0.000000e+00
     2560000   2.559999e-05   3.419627e+01   1.126311e+00   4.599412e+01  -2.178298e+04  -1.876272e+04   1.446002e+05   7.236807e+09  -3.904446e+07   1.085111e+09   1.474305e+05   4.147342e-27   0.000000e+00   0.000000e+00
     2568000   2.567999e-05   3.419455e+01   1.124809e+00   4.600569e+01  -2.120375e+04  -1.876273e+04   1.446862e+05   7.243864e+09   3.932954e+07   1.066691e+09   1.474305e+05   4.152189e-27   0.000000e+00   0.000000e+00
     2576000   2.575999e-05   3.419288e+01   1.123309e+00   4.601727e+01  -2.062459e+04  -1.875669e+04   1.447707e+05   7.235130e+09   1.116114e+08   1.045208e+09   1.474305e+05   4.139726e-27   0.000000e+00   0.000000e+00
     2584000   2.583999e-05   3.419125e+01   1.121809e+00   4.602886e+01  -2.004615e+04  -1.874489e+04   1.448535e+05   7.225667e+09   1.833691e+08   1.023687e+09   1.474305e+05   4.127319e-27   0.000000e+00   0.000000e+00
     2592000   2.591999e-05   3.418967e+01   1.120310e+00   4.604045e+01  -1.946850e+04  -1.872736e+04   1.449345e+05   7.215489e+09   2.545974e+08   1.002130e+09   1.474305e+05   4.114969e-27   0.000000e+00   0.000000e+00
     2600000   2.599999e-05   3.418814e+01   1.118812e+00   4.605205e+01  -1.889169e+04  -1.870416e+04   1.450138e+05   7.204608e+09   3.252911e+08   9.805415e+08   1.474305e+05   4.102678e-27   0.000000e+00   0.000000e+00
     2608000   2.607999e-05   3.418665e+01   1.117317e+00   4.606365e+01  -1.831578e+04  -1.867533e+04   1.450914e+05   7.193038e+09   3.954452e+08   9.589246e+08   1.474305e+05   4.090445e-27   0.000000e+00   0.000000e+00
     2616000   2.615999e-05   3.418521e+01   1.115824e+00   4.607526e+01  -1.774082e+04  -1.864091e+04   1.451672e+05   7.180791e+09   4.650549e+08   9.372826e+08   1.474305e+05   4.078273e-27   0.000000e+00   0.000000e+00
     2624000   2.623999e-05   3.418381e+01   1.114335e+00   4.608688e+01  -1.716687e+04  -1.860094e+04   1.452413e+05   7.167882e+09   5.341158e+08   9.156186e+08   1.474305e+05   4.066162e-27   0.000000e+00   0.000000e+00
     2632000   2.631999e-05   3.418246e+01   1.112848e+00   4.609850e+01  -1.659398e+04  -1.855546e+04   1.453137e+05   7.154322e+09   6.026233e+08   8.939358e+08   1.474305e+05   4.054114e-27   0.000000e+00   0.000000e+00
     2640000   2.639999e-05   3.418115e+01   1.111366e+00   4.611013e+01  -1.602212e+04  -1.850456e+04   1.453844e+05   7.141703e+09   6.693328e+08   8.722496e+08   1.474305e+05   4.043747e-27   0.000000e+00   0.000000e+00
     2648000   2.647999e-05   3.417989e+01   1.109888e+00   4.612176e+01  -1.545133e+04  -1.844839e+04   1.454533e+05   7.128084e+09   7.347853e+08   8.504069e+08   1.474305e+05   4.032899e-27   0.000000e+00   0.000000e+00
     2656000   2.655999e-05   3.417868e+01   1.108414e+00   4.613340e+01  -1.488165e+04  -1.838700e+04   1.455204e+05   7.113856e+09   7.997931e+08   8.285586e+08   1.474305e+05   4.022092e-27   0.000000e+00   0.000000e+00
     2664000   2.663999e-05   3.417751e+01   1.106946e+00   4.614504e+01  -1.431313e+04  -1.832043e+04   1.455859e+05   7.099031e+09   8.643524e+08   8.067072e+08   1.474305e+05   4.011326e-27   0.000000e+00   0.000000e+00
     2672000   2.671999e-05   3.417639e+01   1.105483e+00   4.615669e+01  -1.374582e+04  -1.824872e+04   1.456495e+05   7.083618e+09   9.284593e+08   7.848555e+08   1.474305e+05   4.000604e-27   0.000000e+00   0.000000e+00
     2680000   2.679999e-05   3.417531e+01   1.104026e+00   4.616835e+01  -1.317976e+04  -1.817189e+04   1.457114e+05   7.067628e+09   9.921104e+08   7.630060e+08   1.474305e+05   3.989927e-27   0.000000e+00   0.000000e+00
     2688000   2.687999e-05   3.417428e+01   1.102576e+00   4.618001e+01  -1.261501e+04  -1.808999e+04   1.457716e+05   7.051070e+09   1.055302e+09   7.411612e+08   1.474305e+05   3.979297e-27   0.000000e+00   0.000000e+00
     2696000   2.695999e-05   3.417330e+01   1.101132e+00   4.619167e+01  -1.205161e+04  -1.800305e+04   1.458300e+05   7.033955e+09   1.118031e+09   7.193234e+08   1.474305e+05   3.968716e-27   0.000000e+00   0.000000e+00
     2704000   2.703999e-05   3.417235e+01   1.099696e+00   4.620334e+01  -1.148967e+04  -1.791106e+04   1.458867e+05   7.011890e+09   1.185612e+09   6.978042e+08   1.474305e+05   3.954408e-27   0.000000e+00   0.000000e+00
     2712000   2.711999e-05   3.417146e+01   1.098267e+00   4.621501e+01  -1.092953e+04  -1.781371e+04   1.459416e+05   6.991410e+09   1.248108e+09   6.759330e+08   1.474305e+05   3.941651e-27   0.000000e+00   0.000000e+00
     2720000   2.719999e-05   3.417061e+01   1.096845e+00   4.622669e+01  -1.037105e+04  -1.771138e+04   1.459948e+05   6.970424e+09   1.309983e+09   6.540831e+08   1.474305e+05   3.928966e-27   0.000000e+00   0.000000e+00
     2728000   2.727999e-05   3.416980e+01   1.095433e+00   4.623837e+01  -9.814275e+03  -1.760413e+04   1.460463e+05   6.948943e+09   1.371236e+09   6.322568e+08   1.474305e+05   3.916354e-27   0.000000e+00   0.000000e+00
     2736000   2.735999e-05   3.416904e+01   1.094029e+00   4.625006e+01  -9.259235e+03  -1.749200e+04   1.460960e+05   6.926982e+09   1.431865e+09   6.104564e+08   1.474305e+05   3.903817e-27   0.000000e+00   0.000000e+00
     2744000   2.743999e-05   3.416832e+01   1.092634e+00   4.626175e+01  -8.705971e+03  -1.737504e+04   1.461440e+05   6.904553e+09   1.491868e+09   5.886840e+08   1.474305e+05   3.891356e-27   0.000000e+00   0.000000e+00
     2752000   2.751999e-05   3.416764e+01   1.091249e+00   4.627344e+01  -8.154519e+03  -1.725331e+04   1.461902e+05   6.881670e+09   1.551243e+09   5.669415e+08   1.474305e+05   3.878971e-27   0.000000e+00   0.000000e+00
     2760000   2.759999e-05   3.416701e+01   1.089874e+00   4.628514e+01  -7.604916e+03  -1.712686e+04   1.462347e+05   6.858346e+09   1.609988e+09   5.452311e+08   1.474305e+05   3.866665e-27   0.000000e+00   0.000000e+00
     2768000   2.767999e-05   3.416643e+01   1.088509e+00   4.629684e+01  -7.057195e+03  -1.699573e+04   1.462774e+05   6.834595e+09   1.668103e+09   5.235545e+08   1.474305e+05   3.854436e-27   0.000000e+00   0.000000e+00
     2776000   2.775999e-05   3.416588e+01   1.087155e+00   4.630854e+01  -6.511342e+03  -1.686031e+04   1.463184e+05   6.812059e+09   1.719895e+09   5.013319e+08   1.474305e+05   3.842444e-27   0.000000e+00   0.000000e+00
     2784000   2.783999e-05   3.416538e+01   1.085811e+00   4.632025e+01  -5.967273e+03  -1.672045e+04   1.463577e+05   6.789577e+09   1.776524e+09   4.797838e+08   1.474305e+05   3.832458e-27   0.000000e+00   0.000000e+00
     2792000   2.791999e-05   3.416493e+01   1.084479e+00   4.633196e+01  -5.425021e+03  -1.657607e+04   1.463952e+05   6.766675e+09   1.832654e+09   4.582668e+08   1.474305e+05   3.822540e-27   0.000000e+00   0.000000e+00
     2800000   2.799999e-05   3.416452e+01   1.083159e+00   4.634367e+01  -4.884616e+03  -1.642723e+04   1.464310e+05   6.743365e+09   1.888282e+09   4.367826e+08   1.474305e+05   3.812691e-27   0.000000e+00   0.000000e+00
     2808000   2.807999e-05   3.416415e+01   1.081851e+00   4.635539e+01  -4.346093e+03  -1.627396e+04   1.464651e+05   6.719655e+09   1.943408e+09   4.153324e+08   1.474305e+05   3.802913e-27   0.000000e+00   0.000000e+00
     2816000   2.815999e-05   3.416382e+01   1.080556e+00   4.636711e+01  -3.809482e+03  -1.611630e+04   1.464974e+05   6.695557e+09   1.998031e+09   3.939179e+08   1.474305e+05   3.793207e-27   0.000000e+00   0.000000e+00
     2824000   2.823999e-05   3.416354e+01   1.079273e+00   4.637883e+01  -3.274814e+03  -1.595429e+04   1.465281e+05   6.671079e+09   2.052149e+09   3.725403e+08   1.474305e+05   3.783574e-27   0.000000e+00   0.000000e+00
     2832000   2.831999e-05   3.416330e+01   1.078003e+00   4.639055e+01  -2.742120e+03  -1.578797e+04   1.465570e+05   6.646231e+09   2.105762e+09   3.512009e+08   1.474305e+05   3.774015e-27   0.000000e+00   0.000000e+00
     2840000   2.839999e-05   3.416310e+01   1.076747e+00   4.640228e+01  -2.211656e+03  -1.561738e+04   1.465843e+05   6.606040e+09   2.159314e+09   3.297324e+08   1.474305e+05   3.749321e-27   0.000000e+00   0.000000e+00
     2848000   2.847999e-05   3.416294e+01   1.075504e+00   4.641401e+01  -1.684306e+03  -1.544244e+04   1.466098e+05   6.577648e+09   2.214112e+09   3.087825e+08   1.474305e+05   3.737857e-27   0.000000e+00   0.000000e+00
     2856000   2.855999e-05   3.416283e+01   1.074276e+00   4.642574e+01  -1.159241e+03  -1.526314e+04   1.466337e+05   6.548931e+09   2.268273e+09   2.878822e+08   1.474305e+05   3.726499e-27   0.000000e+00   0.000000e+00
     2864000   2.863999e-05   3.416276e+01   1.073062e+00   4.643747e+01  -6.364859e+02  -1.507953e+04   1.466559e+05   6.519902e+09   2.321797e+09   2.670326e+08   1.474305e+05   3.715248e-27   0.000000e+00   0.000000e+00
     2872000   2.871999e-05   3.416273e+01   1.071863e+00   4.644920e+01  -1.160652e+02  -1.489167e+04   1.466764e+05   6.490572e+09   2.374684e+09   2.462346e+08   1.474305e+05   3.704104e-27   0.000000e+00   0.000000e+00
     2880000   2.879999e-05   3.416274e+01   1.070680e+00   4.646094e+01   4.019976e+02  -1.469960e+04   1.466953e+05   6.460955e+09   2.426935e+09   2.254888e+08   1.474305e+05   3.693069e-27   0.000000e+00   0.000000e+00
     2888000   2.887999e-05   3.416279e+01   1.069512e+00   4.647267e+01   9.176799e+02  -1.450337e+04   1.467125e+05   6.431062e+09   2.478550e+09   2.047961e+08   1.474305e+05   3.682142e-27   0.000000e+00   0.000000e+00
     2896000   2.895999e-05   3.416288e+01   1.068359e+00   4.648441e+01   1.430960e+03  -1.430304e+04   1.467280e+05   6.400905e+09   2.529531e+09   1.841572e+08   1.474305e+05   3.671325e-27   0.000000e+00   0.000000e+00
     2904000   2.903999e-05   3.416302e+01   1.067223e+00   4.649615e+01   1.941818e+03  -1.409866e+04   1.467420e+05   6.370497e+09   2.579879e+09   1.635727e+08   1.474305e+05   3.660616e-27   0.000000e+00   0.000000e+00
     2912000   2.911999e-05   3.416320e+01   1.066104e+00   4.650789e+01   2.451095e+03  -1.389076e+04   1.467542e+05   6.356328e+09   2.619884e+09   1.418202e+08   1.474305e+05   3.662246e-27   0.000000e+00   0.000000e+00
     2920000   2.919999e-05   3.416341e+01   1.065001e+00   4.651963e+01   2.958420e+03  -1.367929e+04   1.467647e+05   6.326771e+09   2.666899e+09   1.210407e+08   1.474305e+05   3.652040e-27   0.000000e+00   0.000000e+00
     2928000   2.927999e-05   3.416367e+01   1.063915e+00   4.653137e+01   3.463371e+03  -1.346407e+04   1.467735e+05   6.296971e+09   2.713391e+09   1.003247e+08   1.474305e+05   3.641923e-27   0.000000e+00   0.000000e+00
     2936000   2.935999e-05   3.416397e+01   1.062847e+00   4.654311e+01   3.965929e+03  -1.324516e+04   1.467807e+05   6.266938e+09   2.759361e+09   7.967270e+07   1.474305e+05   3.631897e-27   0.000000e+00   0.000000e+00
     2944000   2.943999e-05   3.416430e+01   1.061796e+00   4.655486e+01   4.466075e+03  -1.302259e+04   1.467863e+05   6.236682e+09   2.804811e+09   5.908508e+07   1.474305e+05   3.621962e-27   0.000000e+00   0.000000e+00
     2952000   2.951999e-05   3.416468e+01   1.060763e+00   4.656660e+01   4.963792e+03  -1.279640e+04   1.467902e+05   6.206211e+09   2.849742e+09   3.856229e+07   1.474305e+05   3.612119e-27   0.000000e+00   0.000000e+00
     2960000   2.959999e-05   3.416510e+01   1.059749e+00   4.657834e+01   5.459063e+03  -1.256664e+04   1.467924e+05   6.175534e+09   2.894154e+09   1.810469e+07   1.474305e+05   3.602369e-27   0.000000e+00   0.000000e+00
     2968000   2.967999e-05   3.416555e+01   1.058753e+00   4.659008e+01   5.951872e+03  -1.233335e+04   1.467931e+05   6.144660e+09   2.938049e+09  -2.287419e+06   1.474305e+05   3.592712e-27   0.000000e+00   0.000000e+00
     2976000   2.975999e-05   3.416605e+01   1.057775e+00   4.660183e+01   6.442071e+03  -1.209652e+04   1.467921e+05   6.102858e+09   2.985363e+09  -2.181369e+07   1.474305e+05   3.574803e-27   0.000000e+00   0.000000e+00
     2984000   2.983999e-05   3.416658e+01   1.056817e+00   4.661357e+01   6.929012e+03  -1.185603e+04   1.467895e+05   6.070647e+09   3.026775e+09  -4.208470e+07   1.474305e+05   3.563817e-27   0.000000e+00   0.000000e+00
     2992000   2.991999e-05   3.416716e+01   1.055879e+00   4.662531e+01   7.413371e+03  -1.161225e+04   1.467854e+05   6.038322e+09   3.067574e+09  -6.228432e+07   1.474305e+05   3.552922e-27   0.000000e+00   0.000000e+00
     3000000   2.999999e-05   3.416777e+01   1.054959e+00   4.663706e+01   7.895140e+03  -1.136523e+04   1.467796e+05   6.005892e+09   3.107762e+09  -8.241243e+07   1.474305e+05   3.542117e-27   0.000000e+00   0.000000e+00
     3008000   3.007999e-05   3.416842e+01   1.054060e+00   4.664880e+01   8.374311e+03  -1.111502e+04   1.467722e+05   5.973367e+09   3.147342e+09  -1.024690e+08   1.474305e+05   3.531403e-27   0.000000e+00   0.000000e+00
     3016000   3.015999e-05   3.416911e+01   1.053181e+00   4.666054e+01   8.850876e+03  -1.086167e+04   1.467632e+05   5.940758e+09   3.186317e+09  -1.224539e+08   1.474305e+05   3.520781e-27   0.000000e+00   0.000000e+00
     3024000   3.023999e-05   3.416984e+01   1.052322e+00   4.667228e+01   9.324830e+03  -1.060523e+04   1.467526e+05   5.908074e+09   3.224691e+09  -1.423672e+08   1.474305e+05   3.510250e-27   0.000000e+00   0.000000e+00
     3032000   3.031999e-05   3.417060e+01   1.051484e+00   4.668402e+01   9.796166e+03  -1.034574e+04   1.467404e+05   5.875326e+09   3.262465e+09  -1.622089e+08   1.474305e+05   3.499810e-27   0.000000e+00   0.000000e+00
     3040000   3.039999e-05   3.417140e+01   1.050667e+00   4.669576e+01   1.026488e+04  -1.008325e+04   1.467266e+05   5.842523e+09   3.299643e+09  -1.819793e+08   1.474305e+05   3.489463e-27   0.000000e+00   0.000000e+00
     3048000   3.047999e-05   3.417224e+01   1.049871e+00   4.670750e+01   1.073148e+04  -9.817581e+03   1.467113e+05   5.820292e+09   3.341452e+09  -2.021311e+08   1.474305e+05   3.491486e-27   0.000000e+00   0.000000e+00
     3056000   3.055999e-05   3.417312e+01   1.049096e+00   4.671923e+01   1.119586e+04  -9.548728e+03   1.466943e+05   5.789313e+09   3.379783e+09  -2.218442e+08   1.474305e+05   3.484232e-27   0.000000e+00   0.000000e+00
     3064000   3.063999e-05   3.417404e+01   1.048343e+00   4.673097e+01   1.165777e+04  -9.276829e+03   1.466758e+05   5.758245e+09   3.417624e+09  -2.415062e+08   1.474305e+05   3.477073e-27   0.000000e+00   0.000000e+00
     3072000   3.071999e-05   3.417499e+01   1.047612e+00   4.674270e+01   1.211718e+04  -9.001921e+03   1.466557e+05   5.727096e+09   3.454977e+09  -2.611176e+08   1.474305e+05   3.470010e-27   0.000000e+00   0.000000e+00
     3080000   3.079999e-05   3.417597e+01   1.046903e+00   4.675443e+01   1.257410e+04  -8.724045e+03   1.466340e+05   5.695872e+09   3.491844e+09  -2.806785e+08   1.474305e+05   3.463043e-27   0.000000e+00   0.000000e+00
     3088000   3.087999e-05   3.417700e+01   1.046216e+00   4.676616e+01   1.302852e+04  -8.443239e+03   1.466108e+05   5.664582e+09   3.528227e+09  -3.001894e+08   1.474305e+05   3.456172e-27   0.000000e+00   0.000000e+00
     3096000   3.095999e-05   3.417806e+01   1.045552e+00   4.677789e+01   1.348043e+04  -8.159541e+03   1.465860e+05   5.633232e+09   3.564129e+09  -3.196506e+08   1.474305e+05   3.449396e-27   0.000000e+00   0.000000e+00
     3104000   3.103999e-05   3.417916e+01   1.044911e+00   4.678962e+01   1.392983e+04  -7.872990e+03   1.465596e+05   5.601832e+09   3.599553e+09  -3.390626e+08   1.474305e+05   3.442717e-27   0.000000e+00   0.000000e+00
     3112000   3.111999e-05   3.418029e+01   1.044293e+00   4.680134e+01   1.437678e+04  -7.583710e+03   1.465317e+05   5.576290e+09   3.625069e+09  -3.594932e+08   1.474305e+05   3.435988e-27   0.000000e+00   0.000000e+00
     3120000   3.119999e-05   3.418146e+01   1.043698e+00   4.681306e+01   1.482164e+04  -7.292401e+03   1.465022e+05   5.545352e+09   3.657553e+09  -3.789598e+08   1.474305e+05   3.428774e-27   0.000000e+00   0.000000e+00
     3128000   3.127999e-05   3.418266e+01   1.043126e+00   4.682478e+01   1.526403e+04  -6.998516e+03   1.464711e+05   5.514450e+09   3.689490e+09  -3.983814e+08   1.474305e+05   3.421647e-27   0.000000e+00   0.000000e+00
     3136000   3.135999e-05   3.418390e+01   1.042578e+00   4.683650e+01   1.570395e+04  -6.702097e+03   1.464384e+05   5.483594e+09   3.720886e+09  -4.177587e+08   1.474305e+05   3.414608e-27   0.000000e+00   0.000000e+00
     3144000   3.143999e-05   3.418517e+01   1.042054e+00   4.684821e+01   1.614141e+04  -6.403188e+03   1.464042e+05   5.452790e+09   3.751743e+09  -4.370923e+08   1.474305e+05   3.407656e-27   0.000000e+00   0.000000e+00
     3152000   3.151999e-05   3.418648e+01   1.041554e+00   4.685992e+01   1.657640e+04  -6.101832e+03   1.463685e+05   5.422048e+09   3.782065e+09  -4.563829e+08   1.474305e+05   3.400790e-27   0.000000e+00   0.000000e+00
     3160000   3.159999e-05   3.418782e+01   1.041077e+00   4.687163e+01   1.700894e+04  -5.798072e+03   1.463312e+05   5.391373e+09   3.811856e+09  -4.756311e+08   1.474305e+05   3.394012e-27   0.000000e+00   0.000000e+00
     3168000   3.167999e-05   3.418920e+01   1.040626e+00   4.688333e+01   1.743902e+04  -5.491949e+03   1.462924e+05   5.360775e+09   3.841120e+09  -4.948378e+08   1.474305e+05   3.387320e-27   0.000000e+00   0.000000e+00
     3176000   3.175999e-05   3.419061e+01   1.040199e+00   4.689504e+01   1.786666e+04  -5.183506e+03   1.462520e+05   5.330260e+09   3.869861e+09  -5.140036e+08   1.474305e+05   3.380715e-27   0.000000e+00   0.000000e+00
     3184000   3.183999e-05   3.419206e+01   1.039797e+00   4.690673e+01   1.829140e+04  -4.872322e+03   1.462102e+05   5.288886e+09   3.908640e+09  -5.314029e+08   1.474305e+05   3.371458e-27   0.000000e+00   0.000000e+00
     3192000   3.191999e-05   3.419354e+01   1.039419e+00   4.691843e+01   1.871318e+04  -4.558447e+03   1.461670e+05   5.255579e+09   3.938170e+09  -5.500300e+08   1.474305e+05   3.363764e-27   0.000000e+00   0.000000e+00
     3200000   3.199999e-05   3.419505e+01   1.039067e+00   4.693012e+01   1.913229e+04  -4.242227e+03   1.461222e+05   5.222305e+09   3.967248e+09  -5.685944e+08   1.474305e+05   3.356175e-27   0.000000e+00   0.000000e+00
     3208000   3.207999e-05   3.419660e+01   1.038741e+00   4.694181e+01   1.954875e+04  -3.923699e+03   1.460760e+05   5.189071e+09   3.995876e+09  -5.870972e+08   1.474305e+05   3.348689e-27   0.000000e+00   0.000000e+00
     3216000   3.215999e-05   3.419818e+01   1.038440e+00   4.695349e+01   1.996255e+04  -3.602898e+03   1.460283e+05   5.155883e+09   4.024059e+09  -6.055392e+08   1.474305e+05   3.341307e-27   0.000000e+00   0.000000e+00
     3224000   3.223999e-05   3.419980e+01   1.038164e+00   4.696517e+01   2.037369e+04  -3.279861e+03   1.459791e+05   5.122747e+09   4.051798e+09  -6.239214e+08   1.474305e+05   3.334029e-27   0.000000e+00   0.000000e+00
     3232000   3.231999e-05   3.420144e+01   1.037915e+00   4.697685e+01   2.078251e+04  -2.955081e+03   1.459284e+05   5.094508e+09   4.071761e+09  -6.430814e+08   1.474305e+05   3.326124e-27   0.000000e+00   0.000000e+00
     3240000   3.239999e-05   3.420312e+01   1.037691e+00   4.698852e+01   2.118877e+04  -2.628335e+03   1.458762e+05   5.062107e+09   4.096803e+09  -6.614623e+08   1.474305e+05   3.318336e-27   0.000000e+00   0.000000e+00
     3248000   3.247999e-05   3.420483e+01   1.037494e+00   4.700019e+01   2.159245e+04  -2.299602e+03   1.458226e+05   5.026964e+09   4.123723e+09  -6.793262e+08   1.474305e+05   3.309870e-27   0.000000e+00   0.000000e+00
     3256000   3.255999e-05   3.420658e+01   1.037324e+00   4.701185e+01   2.199329e+04  -1.968690e+03   1.457675e+05   4.994247e+09   4.149013e+09  -6.974901e+08   1.474305e+05   3.302618e-27   0.000000e+00   0.000000e+00
     3264000   3.263999e-05   3.420835e+01   1.037179e+00   4.702351e+01   2.239153e+04  -1.635772e+03   1.457110e+05   4.961625e+09   4.173866e+09  -7.155978e+08   1.474305e+05   3.295466e-27   0.000000e+00   0.000000e+00
     3272000   3.271999e-05   3.421016e+01   1.037062e+00   4.703517e+01   2.278716e+04  -1.300883e+03   1.456530e+05   4.929105e+09   4.198286e+09  -7.336503e+08   1.474305e+05   3.288416e-27   0.000000e+00   0.000000e+00
     3280000   3.279999e-05   3.421200e+01   1.036971e+00   4.704682e+01   2.318019e+04  -9.640573e+02   1.455936e+05   4.896691e+09   4.222277e+09  -7.516490e+08   1.474305e+05   3.281465e-27   0.000000e+00   0.000000e+00
     3288000   3.287999e-05   3.421387e+01   1.036908e+00   4.705846e+01   2.357063e+04  -6.253295e+02   1.455327e+05   4.864389e+09   4.245843e+09  -7.695948e+08   1.474305e+05   3.274616e-27   0.000000e+00   0.000000e+00
     3296000   3.295999e-05   3.421577e+01   1.036871e+00   4.707010e+01   2.395849e+04  -2.847335e+02   1.454705e+05   4.832205e+09   4.268987e+09  -7.874890e+08   1.474305e+05   3.267866e-27   0.000000e+00   0.000000e+00
     3304000   3.303999e-05   3.421770e+01   1.036862e+00   4.708174e+01   2.434378e+04   5.769742e+01   1.454068e+05   4.800142e+09   4.291713e+09  -8.053328e+08   1.474305e+05   3.261217e-27   0.000000e+00   0.000000e+00
     3312000   3.311999e-05   3.421966e+01   1.036881e+00   4.709337e+01   2.472652e+04   4.019299e+02   1.453416e+05   4.768207e+09   4.314026e+09  -8.231275e+08   1.474305e+05   3.254667e-27   0.000000e+00   0.000000e+00
     3320000   3.319999e-05   3.422166e+01   1.036927e+00   4.710499e+01   2.510688e+04   7.477218e+02   1.452750e+05   4.742267e+09   4.330002e+09  -8.418569e+08   1.474305e+05   3.248671e-27   0.000000e+00   0.000000e+00
     3328000   3.327999e-05   3.422368e+01   1.037000e+00   4.711661e+01   2.548510e+04   1.095014e+03   1.452069e+05   4.713084e+09   4.352221e+09  -8.600051e+08   1.474305e+05   3.244632e-27   0.000000e+00   0.000000e+00
     3336000   3.335999e-05   3.422573e+01   1.037102e+00   4.712823e+01   2.586098e+04   1.444066e+03   1.451374e+05   4.684070e+09   4.374010e+09  -8.781374e+08   1.474305e+05   3.240683e-27   0.000000e+00   0.000000e+00
     3344000   3.343999e-05   3.422782e+01   1.037231e+00   4.713983e+01   2.623455e+04   1.794844e+03   1.450664e+05   4.655233e+09   4.395372e+09  -8.962551e+08   1.474305e+05   3.236822e-27   0.000000e+00   0.000000e+00
     3352000   3.351999e-05   3.422993e+01   1.037389e+00   4.715144e+01   2.660582e+04   2.147314e+03   1.449940e+05   4.626576e+09   4.416310e+09  -9.143595e+08   1.474305e+05   3.233051e-27   0.000000e+00   0.000000e+00
     3360000   3.359999e-05   3.423207e+01   1.037575e+00   4.716303e+01   2.697481e+04   2.501443e+03   1.449201e+05   4.598106e+09   4.436830e+09  -9.324521e+08   1.474305e+05   3.229368e-27   0.000000e+00   0.000000e+00
     3368000   3.367999e-05   3.423425e+01   1.037789e+00   4.717462e+01   2.734153e+04   2.857196e+03   1.448448e+05   4.569827e+09   4.456934e+09  -9.505341e+08   1.474305e+05   3.225773e-27   0.000000e+00   0.000000e+00
     3376000   3.375999e-05   3.423645e+01   1.038032e+00   4.718621e+01   2.770599e+04   3.214541e+03   1.447681e+05   4.541744e+09   4.476626e+09  -9.686071e+08   1.474305e+05   3.222267e-27   0.000000e+00   0.000000e+00
     3384000   3.383999e-05   3.423868e+01   1.038304e+00   4.719779e+01   2.806821e+04   3.573446e+03   1.446899e+05   4.513861e+09   4.495911e+09  -9.866723e+08   1.474305e+05   3.218848e-27   0.000000e+00   0.000000e+00
     3392000   3.391999e-05   3.424094e+01   1.038604e+00   4.720936e+01   2.842806e+04   3.934266e+03   1.446102e+05   4.483418e+09   4.520753e+09  -1.004357e+09   1.474305e+05   3.217710e-27   0.000000e+00   0.000000e+00
     3400000   3.399999e-05   3.424323e+01   1.038933e+00   4.722092e+01   2.878559e+04   4.296663e+03   1.445292e+05   4.454644e+09   4.539091e+09  -1.022161e+09   1.474305e+05   3.213453e-27   0.000000e+00   0.000000e+00
     3408000   3.407999e-05   3.424555e+01   1.039291e+00   4.723248e+01   2.914081e+04   4.660511e+03   1.444467e+05   4.426056e+09   4.557061e+09  -1.039946e+09   1.474305e+05   3.209290e-27   0.000000e+00   0.000000e+00
     3416000   3.415999e-05   3.424789e+01   1.039679e+00   4.724404e+01   2.949376e+04   5.025783e+03   1.443628e+05   4.397657e+09   4.574667e+09  -1.057713e+09   1.474305e+05   3.205221e-27   0.000000e+00   0.000000e+00
     3424000   3.423999e-05   3.425026e+01   1.040096e+00   4.725558e+01   2.984444e+04   5.392449e+03   1.442774e+05   4.369452e+09   4.591911e+09  -1.075463e+09   1.474305e+05   3.201245e-27   0.000000e+00   0.000000e+00
     3432000   3.431999e-05   3.425267e+01   1.040542e+00   4.726712e+01   3.019288e+04   5.760479e+03   1.441907e+05   4.341443e+09   4.608798e+09  -1.093199e+09   1.474305e+05   3.197362e-27   0.000000e+00   0.000000e+00
     3440000   3.439999e-05   3.425510e+01   1.041017e+00   4.727865e+01   3.053908e+04   6.129847e+03   1.441025e+05   4.313636e+09   4.625332e+09  -1.110922e+09   1.474305e+05   3.193571e-27   0.000000e+00   0.000000e+00
     3448000   3.447999e-05   3.425755e+01   1.041523e+00   4.729018e+01   3.088306e+04   6.500524e+03   1.440129e+05   4.286032e+09   4.641517e+09  -1.128632e+09   1.474305e+05   3.189874e-27   0.000000e+00   0.000000e+00
     3456000   3.455999e-05   3.426004e+01   1.042057e+00   4.730169e+01   3.122494e+04   6.872396e+03   1.439219e+05   4.266293e+09   4.650060e+09  -1.147646e+09   1.474305e+05   3.186300e-27   0.000000e+00   0.000000e+00
     3464000   3.463999e-05   3.426255e+01   1.042622e+00   4.731320e+01   3.156515e+04   7.244960e+03   1.438294e+05   4.239054e+09   4.663975e+09  -1.165243e+09   1.474305e+05   3.181546e-27   0.000000e+00   0.000000e+00
     3472000   3.471999e-05   3.426509e+01   1.043217e+00   4.732471e+01   3.190319e+04   7.618623e+03   1.437355e+05   4.212074e+09   4.677521e+09  -1.182829e+09   1.474305e+05   3.176886e-27   0.000000e+00   0.000000e+00
     3480000   3.479999e-05   3.426765e+01   1.043841e+00   4.733620e+01   3.223909e+04   7.993354e+03   1.436402e+05   4.185358e+09   4.690703e+09  -1.200404e+09   1.474305e+05   3.172319e-27   0.000000e+00   0.000000e+00
     3488000   3.487999e-05   3.427024e+01   1.044496e+00   4.734769e+01   3.257286e+04   8.369126e+03   1.435434e+05   4.158909e+09   4.703525e+09  -1.217970e+09   1.474305e+05   3.167845e-27   0.000000e+00   0.000000e+00
     3496000   3.495999e-05   3.427286e+01   1.045180e+00   4.735917e+01   3.290452e+04   8.745909e+03   1.434453e+05   4.132730e+09   4.715992e+09  -1.235529e+09   1.474305e+05   3.163465e-27   0.000000e+00   0.000000e+00
     3504000   3.503999e-05   3.427551e+01   1.045895e+00   4.737064e+01   3.323410e+04   9.123675e+03   1.433457e+05   4.106825e+09   4.728107e+09  -1.253082e+09   1.474305e+05   3.159178e-27   0.000000e+00   0.000000e+00
     3512000   3.511999e-05   3.427818e+01   1.046640e+00   4.738210e+01   3.356162e+04   9.502397e+03   1.432448e+05   4.081196e+09   4.739874e+09  -1.270631e+09   1.474305e+05   3.154984e-27   0.000000e+00   0.000000e+00
     3520000   3.519999e-05   3.428088e+01   1.047415e+00   4.739356e+01   3.388710e+04   9.882046e+03   1.431424e+05   4.055846e+09   4.751297e+09  -1.288178e+09   1.474305e+05   3.150883e-27   0.000000e+00   0.000000e+00
     3528000   3.527999e-05   3.428360e+01   1.048221e+00   4.740501e+01   3.420992e+04   1.026308e+04   1.430388e+05   4.012279e+09   4.776484e+09  -1.302309e+09   1.474305e+05   3.145081e-27   0.000000e+00   0.000000e+00
     3536000   3.535999e-05   3.428635e+01   1.049058e+00   4.741645e+01   3.452987e+04   1.064569e+04   1.429339e+05   3.986443e+09   4.788845e+09  -1.319712e+09   1.474305e+05   3.141767e-27   0.000000e+00   0.000000e+00
     3544000   3.543999e-05   3.428913e+01   1.049925e+00   4.742788e+01   3.484776e+04   1.102928e+04   1.428276e+05   3.960852e+09   4.800896e+09  -1.337114e+09   1.474305e+05   3.138547e-27   0.000000e+00   0.000000e+00
     3552000   3.551999e-05   3.429193e+01   1.050822e+00   4.743930e+01   3.516361e+04   1.141383e+04   1.427200e+05   3.935508e+09   4.812641e+09  -1.354519e+09   1.474305e+05   3.135421e-27   0.000000e+00   0.000000e+00
     3560000   3.559999e-05   3.429475e+01   1.051751e+00   4.745071e+01   3.547745e+04   1.179930e+04   1.426109e+05   3.910412e+09   4.824085e+09  -1.371928e+09   1.474305e+05   3.132388e-27   0.000000e+00   0.000000e+00
     3568000   3.567999e-05   3.429760e+01   1.052710e+00   4.746212e+01   3.578929e+04   1.218567e+04   1.425005e+05   3.885569e+09   4.835229e+09  -1.389342e+09   1.474305e+05   3.129449e-27   0.000000e+00   0.000000e+00
     3576000   3.575999e-05   3.430048e+01   1.053701e+00   4.747351e+01   3.609954e+04   1.257262e+04   1.423886e+05   3.890708e+09   4.823027e+09  -1.412266e+09   1.474305e+05   3.128390e-27   0.000000e+00   0.000000e+00
     3584000   3.583999e-05   3.430338e+01   1.054722e+00   4.748490e+01   3.641001e+04   1.295880e+04   1.422748e+05   3.871296e+09   4.831255e+09  -1.430757e+09   1.474305e+05   3.126945e-27   0.000000e+00   0.000000e+00
     3592000   3.591999e-05   3.430631e+01   1.055774e+00   4.749627e+01   3.671895e+04   1.334562e+04   1.421596e+05   3.852201e+09   4.839178e+09  -1.449288e+09   1.474305e+05   3.125590e-27   0.000000e+00   0.000000e+00
     3600000   3.599999e-05   3.430926e+01   1.056857e+00   4.750764e+01   3.702566e+04   1.373378e+04   1.420431e+05   3.818303e+09   4.861918e+09  -1.465382e+09   1.474305e+05   3.126171e-27   0.000000e+00   0.000000e+00
     3608000   3.607999e-05   3.431223e+01   1.057971e+00   4.751900e+01   3.733017e+04   1.412323e+04   1.419251e+05   3.794395e+09   4.874221e+09  -1.483069e+09   1.474305e+05   3.125390e-27   0.000000e+00   0.000000e+00
     3616000   3.615999e-05   3.431523e+01   1.059117e+00   4.753035e+01   3.763277e+04   1.451365e+04   1.418058e+05   3.770714e+09   4.886258e+09  -1.500781e+09   1.474305e+05   3.124708e-27   0.000000e+00   0.000000e+00
     3624000   3.623999e-05   3.431825e+01   1.060294e+00   4.754169e+01   3.793349e+04   1.490502e+04   1.416850e+05   3.747263e+09   4.898032e+09  -1.518521e+09   1.474305e+05   3.124124e-27   0.000000e+00   0.000000e+00
     3632000   3.631999e-05   3.432130e+01   1.061502e+00   4.755302e+01   3.823234e+04   1.529733e+04   1.415628e+05   3.724044e+09   4.909546e+09  -1.536289e+09   1.474305e+05   3.123639e-27   0.000000e+00   0.000000e+00
     3640000   3.639999e-05   3.432437e+01   1.062741e+00   4.756434e+01   3.852934e+04   1.569054e+04   1.414392e+05   3.701059e+09   4.920804e+09  -1.554089e+09   1.474305e+05   3.123251e-27   0.000000e+00   0.000000e+00
     3648000   3.647999e-05   3.432746e+01   1.064012e+00   4.757565e+01   3.882451e+04   1.608465e+04   1.413142e+05   3.678308e+09   4.931807e+09  -1.571920e+09   1.474305e+05   3.122963e-27   0.000000e+00   0.000000e+00
     3656000   3.655999e-05   3.433058e+01   1.065315e+00   4.758695e+01   3.911787e+04   1.647963e+04   1.411877e+05   3.655795e+09   4.942561e+09  -1.589785e+09   1.474305e+05   3.122773e-27   0.000000e+00   0.000000e+00
     3664000   3.663999e-05   3.433372e+01   1.066649e+00   4.759824e+01   3.940944e+04   1.687545e+04   1.410598e+05   3.633520e+09   4.953066e+09  -1.607686e+09   1.474305e+05   3.122682e-27   0.000000e+00   0.000000e+00
     3672000   3.671999e-05   3.433689e+01   1.068015e+00   4.760952e+01   3.970037e+04   1.727086e+04   1.409303e+05   3.629347e+09   4.942985e+09  -1.628150e+09   1.474305e+05   3.117737e-27   0.000000e+00   0.000000e+00
     3680000   3.679999e-05   3.434007e+01   1.069412e+00   4.762079e+01   3.998996e+04   1.766652e+04   1.407993e+05   3.610312e+09   4.948458e+09  -1.646300e+09   1.474305e+05   3.115859e-27   0.000000e+00   0.000000e+00
     3688000   3.687999e-05   3.434328e+01   1.070841e+00   4.763205e+01   4.027803e+04   1.806261e+04   1.406669e+05   3.591608e+09   4.953658e+09  -1.664489e+09   1.474305e+05   3.114079e-27   0.000000e+00   0.000000e+00
     3696000   3.695999e-05   3.434652e+01   1.072302e+00   4.764330e+01   4.056462e+04   1.845910e+04   1.405330e+05   3.573237e+09   4.958589e+09  -1.682720e+09   1.474305e+05   3.112397e-27   0.000000e+00   0.000000e+00
     3704000   3.703999e-05   3.434977e+01   1.073795e+00   4.765453e+01   4.084976e+04   1.885598e+04   1.403976e+05   3.555200e+09   4.963255e+09  -1.700995e+09   1.474305e+05   3.110813e-27   0.000000e+00   0.000000e+00
     3712000   3.711999e-05   3.435305e+01   1.075319e+00   4.766576e+01   4.113346e+04   1.925322e+04   1.402608e+05   3.537499e+09   4.967658e+09  -1.719315e+09   1.474305e+05   3.109329e-27   0.000000e+00   0.000000e+00
     3720000   3.719999e-05   3.435636e+01   1.076875e+00   4.767697e+01   4.141577e+04   1.965080e+04   1.401225e+05   3.520133e+09   4.971803e+09  -1.737682e+09   1.474305e+05   3.107945e-27   0.000000e+00   0.000000e+00
     3728000   3.727999e-05   3.435968e+01   1.078463e+00   4.768818e+01   4.169669e+04   2.004870e+04   1.399828e+05   3.503104e+09   4.975691e+09  -1.756099e+09   1.474305e+05   3.106661e-27   0.000000e+00   0.000000e+00
     3736000   3.735999e-05   3.436303e+01   1.080083e+00   4.769937e+01   4.197627e+04   2.044690e+04   1.398416e+05   3.486413e+09   4.979327e+09  -1.774566e+09   1.474305e+05   3.105479e-27   0.000000e+00   0.000000e+00
     3744000   3.743999e-05   3.436640e+01   1.081735e+00   4.771055e+01   4.225431e+04   2.084610e+04   1.396988e+05   3.466566e+09   4.993143e+09  -1.793605e+09   1.474305e+05   3.110723e-27   0.000000e+00   0.000000e+00
     3752000   3.751999e-05   3.436979e+01   1.083419e+00   4.772172e+01   4.253094e+04   2.124576e+04   1.395546e+05   3.449163e+09   4.998406e+09  -1.812127e+09   1.474305e+05   3.110648e-27   0.000000e+00   0.000000e+00
     3760000   3.759999e-05   3.437320e+01   1.085134e+00   4.773288e+01   4.280619e+04   2.164584e+04   1.394089e+05   3.432031e+09   5.003463e+09  -1.830700e+09   1.474305e+05   3.110675e-27   0.000000e+00   0.000000e+00
     3768000   3.767999e-05   3.437664e+01   1.086882e+00   4.774403e+01   4.308007e+04   2.204631e+04   1.392617e+05   3.415169e+09   5.008317e+09  -1.849326e+09   1.474305e+05   3.110805e-27   0.000000e+00   0.000000e+00
     3776000   3.775999e-05   3.438009e+01   1.088662e+00   4.775516e+01   4.335262e+04   2.244716e+04   1.391130e+05   3.398578e+09   5.012971e+09  -1.868005e+09   1.474305e+05   3.111039e-27   0.000000e+00   0.000000e+00
     3784000   3.783999e-05   3.438357e+01   1.090474e+00   4.776629e+01   4.362385e+04   2.284838e+04   1.389628e+05   3.382257e+09   5.017426e+09  -1.886741e+09   1.474305e+05   3.111378e-27   0.000000e+00   0.000000e+00
     3792000   3.791999e-05   3.438707e+01   1.092317e+00   4.777740e+01   4.389379e+04   2.324994e+04   1.388111e+05   3.366208e+09   5.021686e+09  -1.905533e+09   1.474305e+05   3.111821e-27   0.000000e+00   0.000000e+00
     3800000   3.799999e-05   3.439060e+01   1.094194e+00   4.778850e+01   4.416245e+04   2.365184e+04   1.386579e+05   3.350431e+09   5.025753e+09  -1.924385e+09   1.474305e+05   3.112370e-27   0.000000e+00   0.000000e+00
     3808000   3.807999e-05   3.439414e+01   1.096102e+00   4.779958e+01   4.442986e+04   2.405406e+04   1.385032e+05   3.334925e+09   5.029630e+09  -1.943297e+09   1.474305e+05   3.113026e-27   0.000000e+00   0.000000e+00
     3816000   3.815999e-05   3.439770e+01   1.098042e+00   4.781066e+01   4.469745e+04   2.445466e+04   1.383469e+05   3.340268e+09   5.007084e+09  -1.964248e+09   1.474305e+05   3.104603e-27   0.000000e+00   0.000000e+00
     3824000   3.823999e-05   3.440129e+01   1.100015e+00   4.782172e+01   4.496382e+04   2.485508e+04   1.381891e+05   3.315617e+09   5.001005e+09  -1.978324e+09   1.474305e+05   3.091482e-27   0.000000e+00   0.000000e+00
     3832000   3.831999e-05   3.440490e+01   1.102019e+00   4.783277e+01   4.522859e+04   2.525526e+04   1.380301e+05   3.303679e+09   5.003573e+09  -1.998021e+09   1.474305e+05   3.093417e-27   0.000000e+00   0.000000e+00
     3840000   3.839999e-05   3.440853e+01   1.104055e+00   4.784380e+01   4.549242e+04   2.565564e+04   1.378694e+05   3.292024e+09   5.005960e+09  -2.017800e+09   1.474305e+05   3.095466e-27   0.000000e+00   0.000000e+00
     3848000   3.847999e-05   3.441218e+01   1.106124e+00   4.785483e+01   4.575533e+04   2.605621e+04   1.377072e+05   3.280652e+09   5.008169e+09  -2.037663e+09   1.474305e+05   3.097629e-27   0.000000e+00   0.000000e+00
     3856000   3.855999e-05   3.441585e+01   1.108224e+00   4.786584e+01   4.601733e+04   2.645695e+04   1.375434e+05   3.269563e+09   5.010202e+09  -2.057611e+09   1.474305e+05   3.099908e-27   0.000000e+00   0.000000e+00
     3864000   3.863999e-05   3.441954e+01   1.110357e+00   4.787683e+01   4.627846e+04   2.685784e+04   1.373780e+05   3.258756e+09   5.012060e+09  -2.077647e+09   1.474305e+05   3.102303e-27   0.000000e+00   0.000000e+00
     3872000   3.871999e-05   3.442325e+01   1.112522e+00   4.788782e+01   4.653874e+04   2.725887e+04   1.372110e+05   3.248230e+09   5.013747e+09  -2.097771e+09   1.474305e+05   3.104816e-27   0.000000e+00   0.000000e+00
     3880000   3.879999e-05   3.442699e+01   1.114718e+00   4.789879e+01   4.679819e+04   2.766003e+04   1.370423e+05   3.237985e+09   5.015264e+09  -2.117986e+09   1.474305e+05   3.107448e-27   0.000000e+00   0.000000e+00
     3888000   3.887999e-05   3.443074e+01   1.116947e+00   4.790974e+01   4.705686e+04   2.806137e+04   1.368721e+05   3.227935e+09   5.017876e+09  -2.138526e+09   1.474305e+05   3.111215e-27   0.000000e+00   0.000000e+00
     3896000   3.895999e-05   3.443452e+01   1.119208e+00   4.792069e+01   4.731465e+04   2.846289e+04   1.367002e+05   3.216977e+09   5.020064e+09  -2.158704e+09   1.474305e+05   3.114163e-27   0.000000e+00   0.000000e+00
     3904000   3.903999e-05   3.443831e+01   1.121501e+00   4.793162e+01   4.757158e+04   2.886457e+04   1.365267e+05   3.206304e+09   5.022078e+09  -2.178979e+09   1.474305e+05   3.117231e-27   0.000000e+00   0.000000e+00
     3912000   3.911999e-05   3.444213e+01   1.123827e+00   4.794253e+01   4.782767e+04   2.926641e+04   1.363515e+05   3.195916e+09   5.023919e+09  -2.199351e+09   1.474305e+05   3.120420e-27   0.000000e+00   0.000000e+00
     3920000   3.919999e-05   3.444596e+01   1.126184e+00   4.795343e+01   4.808294e+04   2.966840e+04   1.361748e+05   3.185811e+09   5.025589e+09  -2.219823e+09   1.474305e+05   3.123733e-27   0.000000e+00   0.000000e+00
     3928000   3.927999e-05   3.444982e+01   1.128574e+00   4.796432e+01   4.833741e+04   3.007050e+04   1.359964e+05   3.175989e+09   5.027091e+09  -2.240397e+09   1.474305e+05   3.127169e-27   0.000000e+00   0.000000e+00
     3936000   3.935999e-05   3.445370e+01   1.130995e+00   4.797519e+01   4.859110e+04   3.047273e+04   1.358163e+05   3.166449e+09   5.028425e+09  -2.261074e+09   1.474305e+05   3.130731e-27   0.000000e+00   0.000000e+00
     3944000   3.943999e-05   3.445760e+01   1.133449e+00   4.798605e+01   4.884405e+04   3.087505e+04   1.356346e+05   3.157190e+09   5.029595e+09  -2.281855e+09   1.474305e+05   3.134419e-27   0.000000e+00   0.000000e+00
     3952000   3.951999e-05   3.446151e+01   1.135935e+00   4.799689e+01   4.909626e+04   3.127746e+04   1.354512e+05   3.148211e+09   5.030601e+09  -2.302744e+09   1.474305e+05   3.138235e-27   0.000000e+00   0.000000e+00
     3960000   3.959999e-05   3.446545e+01   1.138454e+00   4.800772e+01   4.934681e+04   3.168006e+04   1.352665e+05   3.121938e+09   5.033138e+09  -2.317702e+09   1.474305e+05   3.132807e-27   0.000000e+00   0.000000e+00
     3968000   3.967999e-05   3.446941e+01   1.141004e+00   4.801854e+01   4.959614e+04   3.208269e+04   1.350802e+05   3.111289e+09   5.032512e+09  -2.337603e+09   1.474305e+05   3.134353e-27   0.000000e+00   0.000000e+00
     3976000   3.975999e-05   3.447339e+01   1.143587e+00   4.802933e+01   4.984462e+04   3.248526e+04   1.348924e+05   3.100917e+09   5.031734e+09  -2.357588e+09   1.474305e+05   3.136024e-27   0.000000e+00   0.000000e+00
     3984000   3.983999e-05   3.447738e+01   1.146202e+00   4.804012e+01   5.009229e+04   3.288776e+04   1.347030e+05   3.090822e+09   5.030806e+09  -2.377659e+09   1.474305e+05   3.137821e-27   0.000000e+00   0.000000e+00
     3992000   3.991999e-05   3.448140e+01   1.148849e+00   4.805089e+01   5.033916e+04   3.329019e+04   1.345120e+05   3.081002e+09   5.029731e+09  -2.397818e+09   1.474305e+05   3.139744e-27   0.000000e+00   0.000000e+00
     4000000   3.999999e-05   3.448544e+01   1.151528e+00   4.806164e+01   5.058526e+04   3.369252e+04   1.343194e+05   3.071455e+09   5.028509e+09  -2.418066e+09   1.474305e+05   3.141796e-27   0.000000e+00   0.000000e+00
     4008000   4.007999e-05   3.448949e+01   1.154240e+00   4.807238e+01   5.083060e+04   3.409474e+04   1.341251e+05   3.062182e+09   5.027142e+09  -2.438404e+09   1.474305e+05   3.143976e-27   0.000000e+00   0.000000e+00
     4016000   4.015999e-05   3.449357e+01   1.156983e+00   4.808310e+01   5.107522e+04   3.449686e+04   1.339292e+05   3.053180e+09   5.025633e+09  -2.458836e+09   1.474305e+05   3.146287e-27   0.000000e+00   0.000000e+00
     4024000   4.023999e-05   3.449767e+01   1.159759e+00   4.809381e+01   5.131912e+04   3.489884e+04   1.337317e+05   3.044448e+09   5.023983e+09  -2.479361e+09   1.474305e+05   3.148729e-27   0.000000e+00   0.000000e+00
     4032000   4.031999e-05   3.450178e+01   1.162567e+00   4.810450e+01   5.156279e+04   3.530004e+04   1.335325e+05   3.049293e+09   5.003364e+09  -2.500129e+09   1.474305e+05   3.143012e-27   0.000000e+00   0.000000e+00
     4040000   4.039999e-05   3.450592e+01   1.165407e+00   4.811517e+01   5.180642e+04   3.570027e+04   1.333317e+05   3.041649e+09   5.002402e+09  -2.521259e+09   1.474305e+05   3.146878e-27   0.000000e+00   0.000000e+00
     4048000   4.047999e-05   3.451007e+01   1.168279e+00   4.812583e+01   5.204946e+04   3.610042e+04   1.331291e+05   3.034244e+09   5.001311e+09  -2.542492e+09   1.474305e+05   3.150875e-27   0.000000e+00   0.000000e+00
     4056000   4.055999e-05   3.451424e+01   1.171183e+00   4.813647e+01   5.229191e+04   3.650047e+04   1.329249e+05   3.027076e+09   5.000092e+09  -2.563831e+09   1.474305e+05   3.155005e-27   0.000000e+00   0.000000e+00
     4064000   4.063999e-05   3.451844e+01   1.174119e+00   4.814710e+01   5.253379e+04   3.690043e+04   1.327189e+05   3.020143e+09   4.998748e+09  -2.585277e+09   1.474305e+05   3.159269e-27   0.000000e+00   0.000000e+00
     4072000   4.071999e-05   3.452265e+01   1.177087e+00   4.815771e+01   5.277514e+04   3.730027e+04   1.325112e+05   3.013444e+09   4.997279e+09  -2.606831e+09   1.474305e+05   3.163669e-27   0.000000e+00   0.000000e+00
     4080000   4.079999e-05   3.452688e+01   1.180087e+00   4.816830e+01   5.301595e+04   3.769999e+04   1.323018e+05   3.006977e+09   4.995687e+09  -2.628495e+09   1.474305e+05   3.168205e-27   0.000000e+00   0.000000e+00
     4088000   4.087999e-05   3.453113e+01   1.183119e+00   4.817888e+01   5.325626e+04   3.809958e+04   1.320907e+05   3.000741e+09   4.993972e+09  -2.650271e+09   1.474305e+05   3.172879e-27   0.000000e+00   0.000000e+00
     4096000   4.095999e-05   3.453540e+01   1.186183e+00   4.818943e+01   5.349608e+04   3.849902e+04   1.318778e+05   2.994734e+09   4.992136e+09  -2.672160e+09   1.474305e+05   3.177693e-27   0.000000e+00   0.000000e+00
     4104000   4.103999e-05   3.453969e+01   1.189279e+00   4.819998e+01   5.373542e+04   3.889831e+04   1.316631e+05   2.988955e+09   4.990180e+09  -2.694163e+09   1.474305e+05   3.182648e-27   0.000000e+00   0.000000e+00
     4112000   4.111999e-05   3.454400e+01   1.192407e+00   4.821050e+01   5.397385e+04   3.929777e+04   1.314468e+05   2.978812e+09   4.991710e+09  -2.715476e+09   1.474305e+05   3.188072e-27   0.000000e+00   0.000000e+00
     4120000   4.119999e-05   3.454833e+01   1.195567e+00   4.822101e+01   5.421204e+04   3.969698e+04   1.312286e+05   2.976041e+09   4.988526e+09  -2.738475e+09   1.474305e+05   3.194047e-27   0.000000e+00   0.000000e+00
     4128000   4.127999e-05   3.455267e+01   1.198758e+00   4.823150e+01   5.445002e+04   4.009593e+04   1.310086e+05   2.973535e+09   4.985201e+09  -2.761611e+09   1.474305e+05   3.200179e-27   0.000000e+00   0.000000e+00
     4136000   4.135999e-05   3.455704e+01   1.201982e+00   4.824197e+01   5.468797e+04   4.049426e+04   1.307868e+05   2.974881e+09   4.974117e+09  -2.784019e+09   1.474305e+05   3.201874e-27   0.000000e+00   0.000000e+00
     4144000   4.143999e-05   3.456142e+01   1.205237e+00   4.825242e+01   5.492593e+04   4.089199e+04   1.305632e+05   2.974292e+09   4.969220e+09  -2.807581e+09   1.474305e+05   3.208036e-27   0.000000e+00   0.000000e+00
     4152000   4.151999e-05   3.456583e+01   1.208525e+00   4.826286e+01   5.516386e+04   4.128933e+04   1.303376e+05   2.973976e+09   4.964182e+09  -2.831288e+09   1.474305e+05   3.214368e-27   0.000000e+00   0.000000e+00
     4160000   4.159999e-05   3.457025e+01   1.211844e+00   4.827328e+01   5.540178e+04   4.168626e+04   1.301101e+05   2.973929e+09   4.959005e+09  -2.855142e+09   1.474305e+05   3.220872e-27   0.000000e+00   0.000000e+00
     4168000   4.167999e-05   3.457469e+01   1.215195e+00   4.828368e+01   5.563970e+04   4.208277e+04   1.298808e+05   2.974149e+09   4.953688e+09  -2.879142e+09   1.474305e+05   3.227551e-27   0.000000e+00   0.000000e+00
     4176000   4.175999e-05   3.457915e+01   1.218577e+00   4.829406e+01   5.587765e+04   4.247884e+04   1.296495e+05   2.974634e+09   4.948233e+09  -2.903293e+09   1.474305e+05   3.234406e-27   0.000000e+00   0.000000e+00
     4184000   4.183999e-05   3.458363e+01   1.221991e+00   4.830442e+01   5.611529e+04   4.287505e+04   1.294162e+05   2.964117e+09   4.959939e+09  -2.928455e+09   1.474305e+05   3.249915e-27   0.000000e+00   0.000000e+00
     4192000   4.191999e-05   3.458813e+01   1.225437e+00   4.831476e+01   5.635229e+04   4.327173e+04   1.291810e+05   2.960860e+09   4.957061e+09  -2.952071e+09   1.474305e+05   3.256967e-27   0.000000e+00   0.000000e+00
     4200000   4.199999e-05   3.459265e+01   1.228915e+00   4.832509e+01   5.658904e+04   4.366818e+04   1.289439e+05   2.957804e+09   4.954080e+09  -2.975826e+09   1.474305e+05   3.264183e-27   0.000000e+00   0.000000e+00
     4208000   4.207999e-05   3.459718e+01   1.232424e+00   4.833540e+01   5.682554e+04   4.406438e+04   1.287048e+05   2.954946e+09   4.950994e+09  -2.999720e+09   1.474305e+05   3.271565e-27   0.000000e+00   0.000000e+00
     4216000   4.215999e-05   3.460174e+01   1.235965e+00   4.834568e+01   5.706203e+04   4.445987e+04   1.284640e+05   2.958851e+09   4.932293e+09  -3.021288e+09   1.474305e+05   3.269097e-27   0.000000e+00   0.000000e+00
     4224000   4.223999e-05   3.460631e+01   1.239537e+00   4.835595e+01   5.729865e+04   4.485424e+04   1.282213e+05   2.956674e+09   4.926856e+09  -3.044761e+09   1.474305e+05   3.274976e-27   0.000000e+00   0.000000e+00
     4232000   4.231999e-05   3.461091e+01   1.243142e+00   4.836620e+01   5.753511e+04   4.524817e+04   1.279768e+05   2.954723e+09   4.921299e+09  -3.068365e+09   1.474305e+05   3.281019e-27   0.000000e+00   0.000000e+00
     4240000   4.239999e-05   3.461552e+01   1.246777e+00   4.837643e+01   5.777141e+04   4.564164e+04   1.277304e+05   2.952995e+09   4.915621e+09  -3.092101e+09   1.474305e+05   3.287228e-27   0.000000e+00   0.000000e+00
     4248000   4.247999e-05   3.462015e+01   1.250444e+00   4.838663e+01   5.800759e+04   4.603466e+04   1.274821e+05   2.951488e+09   4.909824e+09  -3.115970e+09   1.474305e+05   3.293604e-27   0.000000e+00   0.000000e+00
     4256000   4.255999e-05   3.462480e+01   1.254143e+00   4.839682e+01   5.824366e+04   4.642721e+04   1.272318e+05   2.950199e+09   4.903908e+09  -3.139974e+09   1.474305e+05   3.300148e-27   0.000000e+00   0.000000e+00
     4264000   4.263999e-05   3.462947e+01   1.257873e+00   4.840699e+01   5.847914e+04   4.682012e+04   1.269796e+05   2.939814e+09   4.913405e+09  -3.165576e+09   1.474305e+05   3.315134e-27   0.000000e+00   0.000000e+00
     4272000   4.271999e-05   3.463416e+01   1.261634e+00   4.841714e+01   5.871423e+04   4.721299e+04   1.267254e+05   2.937488e+09   4.908268e+09  -3.189621e+09   1.474305e+05   3.322003e-27   0.000000e+00   0.000000e+00
     4280000   4.279999e-05   3.463886e+01   1.265427e+00   4.842727e+01   5.894915e+04   4.760544e+04   1.264692e+05   2.935353e+09   4.903030e+09  -3.213801e+09   1.474305e+05   3.329043e-27   0.000000e+00   0.000000e+00
     4288000   4.287999e-05   3.464359e+01   1.269251e+00   4.843737e+01   5.918390e+04   4.799747e+04   1.262112e+05   2.933408e+09   4.897690e+09  -3.238119e+09   1.474305e+05   3.336257e-27   0.000000e+00   0.000000e+00
