     timestep     time              x             y              z              vx             vy             vz             ax             ay             az         v_magnitude      ELoss        Electronic      Nuclear
           0   0.000000e+00   4.249431e+01   1.000000e-01   3.722025e+01   1.215881e+05  -1.053850e+04   8.271029e+04   0.000000e+00   0.000000e+00   0.000000e+00   1.474304e+05   0.000000e+00   0.000000e+00   0.000000e+00
        8000   7.999000e-08   4.250404e+01   9.922104e-02   3.722687e+01   1.217410e+05  -8.933678e+03   8.267427e+04   1.778198e+09   2.011287e+10  -4.450436e+08   1.474304e+05   3.158983e-26   0.000000e+00   0.000000e+00
       16000   1.599900e-07   4.251378e+01   9.857069e-02   3.723348e+01   1.218726e+05  -7.325497e+03   8.263852e+04   1.511935e+09   2.009114e+10  -4.487232e+08   1.474304e+05   3.145459e-26   0.000000e+00   0.000000e+00
       24000   2.399900e-07   4.252354e+01   9.804891e-02   3.724009e+01   1.219829e+05  -5.719181e+03   8.260247e+04   1.247288e+09   2.006622e+10  -4.525460e+08   1.474304e+05   3.132081e-26   0.000000e+00   0.000000e+00
       32000   3.199900e-07   4.253330e+01   9.765556e-02   3.724670e+01   1.220722e+05  -4.114985e+03   8.256611e+04   9.842871e+08   2.003816e+10  -4.565229e+08   1.474304e+05   3.118847e-26   0.000000e+00   0.000000e+00
       40000   3.999900e-07   4.254307e+01   9.739045e-02   3.725330e+01   1.221405e+05  -2.513158e+03   8.252942e+04   7.229638e+08   2.000700e+10  -4.606645e+08   1.474304e+05   3.105757e-26   0.000000e+00   0.000000e+00
       48000   4.799900e-07   4.255284e+01   9.725339e-02   3.725990e+01   1.221879e+05  -9.139470e+02   8.249240e+04   4.633474e+08   1.997279e+10  -4.649809e+08   1.474304e+05   3.092810e-26   0.000000e+00   0.000000e+00
       56000   5.599900e-07   4.256262e+01   9.724414e-02   3.726650e+01   1.222146e+05   6.824072e+02   8.245502e+04   2.054659e+08   1.993557e+10  -4.694820e+08   1.474304e+05   3.080005e-26   0.000000e+00   0.000000e+00
       64000   6.399900e-07   4.257240e+01   9.736249e-02   3.727309e+01   1.222208e+05   2.275666e+03   8.241728e+04  -5.065378e+07   1.989541e+10  -4.741772e+08   1.474304e+05   3.067341e-26   0.000000e+00   0.000000e+00
       72000   7.199900e-07   4.258217e+01   9.760816e-02   3.727969e+01   1.222066e+05   3.865594e+03   8.237915e+04  -3.049859e+08   1.985233e+10  -4.790756e+08   1.474304e+05   3.054818e-26   0.000000e+00   0.000000e+00
       80000   7.999900e-07   4.259195e+01   9.798089e-02   3.728627e+01   1.221721e+05   5.451962e+03   8.234062e+04  -5.575058e+08   1.980640e+10  -4.841858e+08   1.474304e+05   3.042434e-26   0.000000e+00   0.000000e+00
       88000   8.799900e-07   4.260172e+01   9.848037e-02   3.729286e+01   1.221175e+05   7.034637e+03   8.230153e+04  -8.018089e+08   1.976525e+10  -4.996568e+08   1.474304e+05   3.032513e-26   0.000000e+00   0.000000e+00
       96000   9.599900e-07   4.261149e+01   9.910635e-02   3.729944e+01   1.220434e+05   8.614211e+03   8.226129e+04  -1.050823e+09   1.972365e+10  -5.063595e+08   1.474304e+05   3.023417e-26   0.000000e+00   0.000000e+00
      104000   1.039990e-06   4.262125e+01   9.985834e-02   3.730602e+01   1.219493e+05   1.018417e+04   8.222142e+04  -1.298990e+09   1.958615e+10  -4.993086e+08   1.474304e+05   2.986018e-26   0.000000e+00   0.000000e+00
      112000   1.119990e-06   4.263100e+01   1.007358e-01   3.731260e+01   1.218354e+05   1.175210e+04   8.218117e+04  -1.547848e+09   1.958480e+10  -5.059084e+08   1.474304e+05   2.991146e-26   0.000000e+00   0.000000e+00
      120000   1.199990e-06   4.264074e+01   1.017386e-01   3.731917e+01   1.217017e+05   1.331706e+04   8.214050e+04  -1.793184e+09   1.953875e+10  -5.108474e+08   1.474304e+05   2.983578e-26   0.000000e+00   0.000000e+00
      128000   1.279990e-06   4.265047e+01   1.028664e-01   3.732574e+01   1.215485e+05   1.487823e+04   8.209942e+04  -2.037113e+09   1.949011e+10  -5.160372e+08   1.474304e+05   2.976152e-26   0.000000e+00   0.000000e+00
      136000   1.359990e-06   4.266019e+01   1.041190e-01   3.733231e+01   1.213758e+05   1.643541e+04   8.205793e+04  -2.279618e+09   1.943890e+10  -5.214848e+08   1.474304e+05   2.968867e-26   0.000000e+00   0.000000e+00
      144000   1.439990e-06   4.266989e+01   1.054960e-01   3.733887e+01   1.211838e+05   1.798839e+04   8.201598e+04  -2.520681e+09   1.938518e+10  -5.271970e+08   1.474304e+05   2.961720e-26   0.000000e+00   0.000000e+00
      152000   1.519990e-06   4.267958e+01   1.069970e-01   3.734543e+01   1.209726e+05   1.953697e+04   8.197357e+04  -2.760284e+09   1.932895e+10  -5.331802e+08   1.474304e+05   2.954711e-26   0.000000e+00   0.000000e+00
      160000   1.599990e-06   4.268925e+01   1.086218e-01   3.735199e+01   1.207422e+05   2.108095e+04   8.193066e+04  -2.998412e+09   1.927026e+10  -5.394403e+08   1.474304e+05   2.947837e-26   0.000000e+00   0.000000e+00
      168000   1.679990e-06   4.269889e+01   1.103698e-01   3.735854e+01   1.204929e+05   2.262015e+04   8.188725e+04  -3.235050e+09   1.920912e+10  -5.459829e+08   1.474304e+05   2.941098e-26   0.000000e+00   0.000000e+00
      176000   1.759990e-06   4.270852e+01   1.122406e-01   3.736509e+01   1.202265e+05   2.414608e+04   8.184298e+04  -3.439500e+09   1.901576e+10  -5.575704e+08   1.474304e+05   2.894523e-26   0.000000e+00   0.000000e+00
      184000   1.839990e-06   4.271813e+01   1.142330e-01   3.737163e+01   1.199424e+05   2.566355e+04   8.179807e+04  -3.662814e+09   1.892065e+10  -5.653012e+08   1.474304e+05   2.878929e-26   0.000000e+00   0.000000e+00
      192000   1.919990e-06   4.272771e+01   1.163465e-01   3.737818e+01   1.196405e+05   2.717333e+04   8.175253e+04  -3.883507e+09   1.882354e+10  -5.733101e+08   1.474304e+05   2.863510e-26   0.000000e+00   0.000000e+00
      200000   1.999990e-06   4.273727e+01   1.185805e-01   3.738471e+01   1.193211e+05   2.867526e+04   8.170633e+04  -4.101582e+09   1.872448e+10  -5.816007e+08   1.474304e+05   2.848265e-26   0.000000e+00   0.000000e+00
      208000   2.079990e-06   4.274680e+01   1.209344e-01   3.739125e+01   1.189843e+05   3.016919e+04   8.165946e+04  -4.317039e+09   1.862354e+10  -5.901761e+08   1.474304e+05   2.833193e-26   0.000000e+00   0.000000e+00
      216000   2.159990e-06   4.275631e+01   1.234074e-01   3.739778e+01   1.186304e+05   3.165498e+04   8.161190e+04  -4.529881e+09   1.852076e+10  -5.990391e+08   1.474304e+05   2.818291e-26   0.000000e+00   0.000000e+00
      224000   2.239990e-06   4.276579e+01   1.259992e-01   3.740431e+01   1.182572e+05   3.314136e+04   8.156354e+04  -4.791475e+09   1.859807e+10  -6.097744e+08   1.474304e+05   2.859500e-26   0.000000e+00   0.000000e+00
      232000   2.319990e-06   4.277523e+01   1.287099e-01   3.741083e+01   1.178649e+05   3.462658e+04   8.151435e+04  -5.015581e+09   1.853196e+10  -6.199353e+08   1.474304e+05   2.857607e-26   0.000000e+00   0.000000e+00
      240000   2.399990e-06   4.278464e+01   1.315393e-01   3.741735e+01   1.174547e+05   3.610641e+04   8.146434e+04  -5.238609e+09   1.846365e+10  -6.303778e+08   1.474304e+05   2.855850e-26   0.000000e+00   0.000000e+00
      248000   2.479990e-06   4.279402e+01   1.344868e-01   3.742386e+01   1.170267e+05   3.758070e+04   8.141348e+04  -5.460548e+09   1.839317e+10  -6.411032e+08   1.474304e+05   2.854227e-26   0.000000e+00   0.000000e+00
      256000   2.559990e-06   4.280337e+01   1.375520e-01   3.743037e+01   1.165824e+05   3.904516e+04   8.136175e+04  -5.631173e+09   1.817266e+10  -6.520860e+08   1.474304e+05   2.806547e-26   0.000000e+00   0.000000e+00
      264000   2.639990e-06   4.281268e+01   1.407336e-01   3.743688e+01   1.161237e+05   4.049473e+04   8.130920e+04  -5.836790e+09   1.806622e+10  -6.615893e+08   1.474304e+05   2.795032e-26   0.000000e+00   0.000000e+00
      272000   2.719990e-06   4.282195e+01   1.440309e-01   3.744338e+01   1.156486e+05   4.193571e+04   8.125588e+04  -6.040025e+09   1.795795e+10  -6.714004e+08   1.474304e+05   2.783622e-26   0.000000e+00   0.000000e+00
      280000   2.799990e-06   4.283118e+01   1.474431e-01   3.744988e+01   1.151574e+05   4.336795e+04   8.120177e+04  -6.240875e+09   1.784790e+10  -6.815194e+08   1.474304e+05   2.772313e-26   0.000000e+00   0.000000e+00
      288000   2.879990e-06   4.284037e+01   1.509695e-01   3.745638e+01   1.146501e+05   4.479132e+04   8.114683e+04  -6.439338e+09   1.773611e+10  -6.919462e+08   1.474304e+05   2.761106e-26   0.000000e+00   0.000000e+00
      296000   2.959990e-06   4.284952e+01   1.546095e-01   3.746287e+01   1.141271e+05   4.620568e+04   8.109105e+04  -6.635413e+09   1.762262e+10  -7.026802e+08   1.474304e+05   2.749998e-26   0.000000e+00   0.000000e+00
      304000   3.039990e-06   4.285863e+01   1.583622e-01   3.746935e+01   1.135885e+05   4.761090e+04   8.103440e+04  -6.829099e+09   1.750748e+10  -7.137206e+08   1.474304e+05   2.738990e-26   0.000000e+00   0.000000e+00
      312000   3.119990e-06   4.286770e+01   1.622270e-01   3.747583e+01   1.130345e+05   4.900684e+04   8.097685e+04  -7.020396e+09   1.739072e+10  -7.250662e+08   1.474304e+05   2.728078e-26   0.000000e+00   0.000000e+00
      320000   3.199990e-06   4.287672e+01   1.662031e-01   3.748231e+01   1.124653e+05   5.039337e+04   8.091838e+04  -7.209305e+09   1.727239e+10  -7.367154e+08   1.474304e+05   2.717263e-26   0.000000e+00   0.000000e+00
      328000   3.279990e-06   4.288569e+01   1.702897e-01   3.748878e+01   1.118811e+05   5.177038e+04   8.085896e+04  -7.395827e+09   1.715253e+10  -7.486663e+08   1.474304e+05   2.706543e-26   0.000000e+00   0.000000e+00
      336000   3.359990e-06   4.289462e+01   1.744861e-01   3.749524e+01   1.112821e+05   5.313774e+04   8.079858e+04  -7.579965e+09   1.703119e+10  -7.609168e+08   1.474304e+05   2.695916e-26   0.000000e+00   0.000000e+00
      344000   3.439990e-06   4.290349e+01   1.787915e-01   3.750171e+01   1.106674e+05   5.449821e+04   8.073665e+04  -7.802359e+09   1.700919e+10  -7.865127e+08   1.474304e+05   2.716917e-26   0.000000e+00   0.000000e+00
      352000   3.519990e-06   4.291232e+01   1.832057e-01   3.750816e+01   1.100356e+05   5.585467e+04   8.067316e+04  -7.992433e+09   1.690194e+10  -8.007237e+08   1.474304e+05   2.712176e-26   0.000000e+00   0.000000e+00
      360000   3.599990e-06   4.292110e+01   1.877280e-01   3.751461e+01   1.093886e+05   5.720247e+04   8.060853e+04  -8.180711e+09   1.679285e+10  -8.152065e+08   1.474304e+05   2.707474e-26   0.000000e+00   0.000000e+00
      368000   3.679990e-06   4.292982e+01   1.923578e-01   3.752106e+01   1.087267e+05   5.854148e+04   8.054272e+04  -8.367183e+09   1.668196e+10  -8.299572e+08   1.474304e+05   2.702810e-26   0.000000e+00   0.000000e+00
      376000   3.759990e-06   4.293850e+01   1.970944e-01   3.752750e+01   1.080499e+05   5.987154e+04   8.047573e+04  -8.551838e+09   1.656928e+10  -8.449712e+08   1.474304e+05   2.698184e-26   0.000000e+00   0.000000e+00
      384000   3.839990e-06   4.294711e+01   2.019370e-01   3.753394e+01   1.073591e+05   6.119114e+04   8.040763e+04  -8.712021e+09   1.641067e+10  -8.564987e+08   1.474304e+05   2.679240e-26   0.000000e+00   0.000000e+00
      392000   3.919990e-06   4.295567e+01   2.068847e-01   3.754037e+01   1.066551e+05   6.249918e+04   8.033854e+04  -8.889778e+09   1.628997e+10  -8.708916e+08   1.474304e+05   2.673096e-26   0.000000e+00   0.000000e+00
      400000   3.999990e-06   4.296418e+01   2.119366e-01   3.754679e+01   1.059368e+05   6.379749e+04   8.026828e+04  -9.065592e+09   1.616778e+10  -8.855369e+08   1.474304e+05   2.667029e-26   0.000000e+00   0.000000e+00
      408000   4.079990e-06   4.297262e+01   2.170920e-01   3.755321e+01   1.052046e+05   6.508598e+04   8.019685e+04  -9.239460e+09   1.604415e+10  -9.004297e+08   1.474304e+05   2.661040e-26   0.000000e+00   0.000000e+00
      416000   4.159990e-06   4.298101e+01   2.223501e-01   3.755962e+01   1.044586e+05   6.636452e+04   8.012421e+04  -9.411385e+09   1.591908e+10  -9.155648e+08   1.474304e+05   2.655128e-26   0.000000e+00   0.000000e+00
      424000   4.239990e-06   4.298934e+01   2.277101e-01   3.756603e+01   1.036988e+05   6.763299e+04   8.005035e+04  -9.581365e+09   1.579261e+10  -9.309365e+08   1.474304e+05   2.649290e-26   0.000000e+00   0.000000e+00
      432000   4.319990e-06   4.299760e+01   2.331711e-01   3.757243e+01   1.029256e+05   6.889130e+04   7.997525e+04  -9.749401e+09   1.566477e+10  -9.465393e+08   1.474304e+05   2.643527e-26   0.000000e+00   0.000000e+00
      440000   4.399990e-06   4.300580e+01   2.387323e-01   3.757882e+01   1.021424e+05   7.013485e+04   7.989848e+04  -9.851470e+09   1.545257e+10  -9.700742e+08   1.474304e+05   2.608232e-26   0.000000e+00   0.000000e+00
      448000   4.479990e-06   4.301394e+01   2.443924e-01   3.758521e+01   1.013482e+05   7.136538e+04   7.982020e+04  -1.000393e+10   1.531068e+10  -9.868292e+08   1.474304e+05   2.598126e-26   0.000000e+00   0.000000e+00
      456000   4.559990e-06   4.302202e+01   2.501504e-01   3.759160e+01   1.005418e+05   7.258452e+04   7.974058e+04  -1.015392e+10   1.516765e+10  -1.003757e+09   1.474304e+05   2.588041e-26   0.000000e+00   0.000000e+00
      464000   4.639990e-06   4.303003e+01   2.560056e-01   3.759797e+01   9.972359e+04   7.379218e+04   7.965959e+04  -1.030143e+10   1.502353e+10  -1.020850e+09   1.474304e+05   2.577979e-26   0.000000e+00   0.000000e+00
      472000   4.719990e-06   4.303797e+01   2.619570e-01   3.760434e+01   9.888991e+04   7.499270e+04   7.957770e+04  -1.051917e+10   1.496342e+10  -1.029236e+09   1.474304e+05   2.599263e-26   0.000000e+00   0.000000e+00
      480000   4.799990e-06   4.304585e+01   2.680042e-01   3.761070e+01   9.804218e+04   7.618435e+04   7.949471e+04  -1.067386e+10   1.482754e+10  -1.045786e+09   1.474304e+05   2.593567e-26   0.000000e+00   0.000000e+00
      488000   4.879990e-06   4.305366e+01   2.741462e-01   3.761706e+01   9.718215e+04   7.736508e+04   7.941037e+04  -1.082658e+10   1.469045e+10  -1.062504e+09   1.474304e+05   2.587930e-26   0.000000e+00   0.000000e+00
      496000   4.959990e-06   4.306140e+01   2.803823e-01   3.762341e+01   9.630998e+04   7.853479e+04   7.932470e+04  -1.097733e+10   1.455217e+10  -1.079384e+09   1.474304e+05   2.582350e-26   0.000000e+00   0.000000e+00
      504000   5.039990e-06   4.306907e+01   2.867115e-01   3.762975e+01   9.542582e+04   7.969339e+04   7.923767e+04  -1.112612e+10   1.441273e+10  -1.096416e+09   1.474304e+05   2.576829e-26   0.000000e+00   0.000000e+00
      512000   5.119990e-06   4.307667e+01   2.931329e-01   3.763609e+01   9.452985e+04   8.084079e+04   7.914927e+04  -1.127294e+10   1.427216e+10  -1.113595e+09   1.474304e+05   2.571364e-26   0.000000e+00   0.000000e+00
      520000   5.199990e-06   4.308419e+01   2.996457e-01   3.764242e+01   9.362220e+04   8.197691e+04   7.905949e+04  -1.141780e+10   1.413047e+10  -1.130911e+09   1.474304e+05   2.565955e-26   0.000000e+00   0.000000e+00
      528000   5.279990e-06   4.309165e+01   3.062489e-01   3.764874e+01   9.270285e+04   8.310130e+04   7.896892e+04  -1.156258e+10   1.398157e+10  -1.139679e+09   1.474304e+05   2.559458e-26   0.000000e+00   0.000000e+00
      536000   5.359990e-06   4.309903e+01   3.129416e-01   3.765505e+01   9.177226e+04   8.421394e+04   7.887711e+04  -1.170169e+10   1.383432e+10  -1.155581e+09   1.474304e+05   2.553081e-26   0.000000e+00   0.000000e+00
      544000   5.439990e-06   4.310633e+01   3.197229e-01   3.766136e+01   9.082974e+04   8.531602e+04   7.878368e+04  -1.185063e+10   1.370334e+10  -1.176912e+09   1.474304e+05   2.552699e-26   0.000000e+00   0.000000e+00
      552000   5.519990e-06   4.311356e+01   3.265918e-01   3.766766e+01   8.987636e+04   8.640625e+04   7.868885e+04  -1.198358e+10   1.355212e+10  -1.193866e+09   1.474304e+05   2.545634e-26   0.000000e+00   0.000000e+00
      560000   5.599990e-06   4.312071e+01   3.335475e-01   3.767395e+01   8.891242e+04   8.748434e+04   7.859266e+04  -1.211450e+10   1.340012e+10  -1.210897e+09   1.474304e+05   2.538657e-26   0.000000e+00   0.000000e+00
      568000   5.679990e-06   4.312778e+01   3.405890e-01   3.768023e+01   8.793809e+04   8.855024e+04   7.849510e+04  -1.224340e+10   1.324735e+10  -1.227996e+09   1.474304e+05   2.531766e-26   0.000000e+00   0.000000e+00
      576000   5.759990e-06   4.313478e+01   3.477153e-01   3.768651e+01   8.695353e+04   8.960390e+04   7.839618e+04  -1.237028e+10   1.309383e+10  -1.245155e+09   1.474304e+05   2.524961e-26   0.000000e+00   0.000000e+00
      584000   5.839990e-06   4.314170e+01   3.549253e-01   3.769277e+01   8.595890e+04   9.064524e+04   7.829587e+04  -1.249515e+10   1.293957e+10  -1.262363e+09   1.474304e+05   2.518242e-26   0.000000e+00   0.000000e+00
      592000   5.919990e-06   4.314853e+01   3.622182e-01   3.769903e+01   8.495436e+04   9.167421e+04   7.819420e+04  -1.261803e+10   1.278460e+10  -1.279612e+09   1.474304e+05   2.511608e-26   0.000000e+00   0.000000e+00
      600000   5.999990e-06   4.315529e+01   3.695930e-01   3.770529e+01   8.393463e+04   9.269501e+04   7.809192e+04  -1.282851e+10   1.269806e+10  -1.284227e+09   1.474304e+05   2.536099e-26   0.000000e+00   0.000000e+00
      608000   6.079990e-06   4.316196e+01   3.770491e-01   3.771153e+01   8.290270e+04   9.370517e+04   7.798859e+04  -1.296945e+10   1.255554e+10  -1.299075e+09   1.474304e+05   2.536683e-26   0.000000e+00   0.000000e+00
      616000   6.159990e-06   4.316855e+01   3.845855e-01   3.771776e+01   8.185956e+04   9.470386e+04   7.788407e+04  -1.310876e+10   1.241149e+10  -1.313940e+09   1.474304e+05   2.537265e-26   0.000000e+00   0.000000e+00
      624000   6.239990e-06   4.317506e+01   3.922014e-01   3.772399e+01   8.080534e+04   9.569096e+04   7.777836e+04  -1.324642e+10   1.226592e+10  -1.328814e+09   1.474304e+05   2.537845e-26   0.000000e+00   0.000000e+00
      632000   6.319990e-06   4.318148e+01   3.998957e-01   3.773021e+01   7.974018e+04   9.666636e+04   7.767146e+04  -1.338240e+10   1.211884e+10  -1.343686e+09   1.474304e+05   2.538421e-26   0.000000e+00   0.000000e+00
      640000   6.399990e-06   4.318782e+01   4.076674e-01   3.773642e+01   7.867351e+04   9.762299e+04   7.756267e+04  -1.340151e+10   1.188716e+10  -1.368094e+09   1.474304e+05   2.499824e-26   0.000000e+00   0.000000e+00
      648000   6.479990e-06   4.319407e+01   4.155151e-01   3.774262e+01   7.759583e+04   9.856837e+04   7.745257e+04  -1.354015e+10   1.174699e+10  -1.384322e+09   1.474304e+05   2.503440e-26   0.000000e+00   0.000000e+00
      656000   6.559990e-06   4.320023e+01   4.234380e-01   3.774881e+01   7.650744e+04   9.950222e+04   7.734117e+04  -1.356844e+10   1.152252e+10  -1.401928e+09   1.474304e+05   2.469308e-26   0.000000e+00   0.000000e+00
      664000   6.639990e-06   4.320631e+01   4.314349e-01   3.775499e+01   7.541757e+04   1.004177e+05   7.722836e+04  -1.367812e+10   1.136363e+10  -1.418330e+09   1.474305e+05   2.464648e-26   0.000000e+00   0.000000e+00
      672000   6.719990e-06   4.321230e+01   4.395045e-01   3.776117e+01   7.431899e+04   1.013204e+05   7.711424e+04  -1.378582e+10   1.120394e+10  -1.434696e+09   1.474305e+05   2.460006e-26   0.000000e+00   0.000000e+00
      680000   6.799990e-06   4.321820e+01   4.476458e-01   3.776733e+01   7.321189e+04   1.022103e+05   7.699881e+04  -1.389154e+10   1.104346e+10  -1.451014e+09   1.474305e+05   2.455383e-26   0.000000e+00   0.000000e+00
      688000   6.879990e-06   4.322401e+01   4.558578e-01   3.777349e+01   7.209640e+04   1.030873e+05   7.688208e+04  -1.399528e+10   1.088223e+10  -1.467275e+09   1.474305e+05   2.450778e-26   0.000000e+00   0.000000e+00
      696000   6.959990e-06   4.322974e+01   4.641395e-01   3.777963e+01   7.097269e+04   1.039514e+05   7.676405e+04  -1.409705e+10   1.072026e+10  -1.483469e+09   1.474305e+05   2.446191e-26   0.000000e+00   0.000000e+00
      704000   7.039990e-06   4.323537e+01   4.724897e-01   3.778577e+01   6.984092e+04   1.048025e+05   7.664473e+04  -1.419685e+10   1.055757e+10  -1.499584e+09   1.474305e+05   2.441622e-26   0.000000e+00   0.000000e+00
      712000   7.119990e-06   4.324091e+01   4.809075e-01   3.779189e+01   6.870125e+04   1.056406e+05   7.652412e+04  -1.429469e+10   1.039417e+10  -1.515610e+09   1.474305e+05   2.437071e-26   0.000000e+00   0.000000e+00
      720000   7.199990e-06   4.324636e+01   4.893919e-01   3.779801e+01   6.755382e+04   1.064656e+05   7.640223e+04  -1.439055e+10   1.023010e+10  -1.531538e+09   1.474305e+05   2.432537e-26   0.000000e+00   0.000000e+00
      728000   7.279990e-06   4.325172e+01   4.979417e-01   3.780412e+01   6.639711e+04   1.072785e+05   7.627896e+04  -1.451498e+10   1.008587e+10  -1.550115e+09   1.474305e+05   2.438143e-26   0.000000e+00   0.000000e+00
      736000   7.359990e-06   4.325698e+01   5.065561e-01   3.781022e+01   6.523180e+04   1.080788e+05   7.615468e+04  -1.460979e+10   9.916840e+09  -1.559638e+09   1.474305e+05   2.433572e-26   0.000000e+00   0.000000e+00
      744000   7.439990e-06   4.326216e+01   5.152339e-01   3.781630e+01   6.405984e+04   1.088652e+05   7.602931e+04  -1.468910e+10   9.743248e+09  -1.574603e+09   1.474305e+05   2.425500e-26   0.000000e+00   0.000000e+00
      752000   7.519990e-06   4.326723e+01   5.239741e-01   3.782238e+01   6.288160e+04   1.096377e+05   7.590274e+04  -1.476644e+10   9.569540e+09  -1.589422e+09   1.474305e+05   2.417525e-26   0.000000e+00   0.000000e+00
      760000   7.599990e-06   4.327222e+01   5.327756e-01   3.782845e+01   6.169726e+04   1.103963e+05   7.577500e+04  -1.484183e+10   9.395726e+09  -1.604086e+09   1.474305e+05   2.409646e-26   0.000000e+00   0.000000e+00
      768000   7.679990e-06   4.327711e+01   5.416372e-01   3.783451e+01   6.050696e+04   1.111410e+05   7.564609e+04  -1.491530e+10   9.221818e+09  -1.618585e+09   1.474305e+05   2.401863e-26   0.000000e+00   0.000000e+00
      776000   7.759990e-06   4.328190e+01   5.505578e-01   3.784055e+01   5.931086e+04   1.118718e+05   7.551603e+04  -1.498685e+10   9.047829e+09  -1.632908e+09   1.474305e+05   2.394175e-26   0.000000e+00   0.000000e+00
      784000   7.839990e-06   4.328659e+01   5.595363e-01   3.784659e+01   5.810911e+04   1.125886e+05   7.538483e+04  -1.505650e+10   8.873768e+09  -1.647048e+09   1.474305e+05   2.386582e-26   0.000000e+00   0.000000e+00
      792000   7.919990e-06   4.329120e+01   5.685716e-01   3.785261e+01   5.690187e+04   1.132916e+05   7.525251e+04  -1.512428e+10   8.699647e+09  -1.660993e+09   1.474305e+05   2.379083e-26   0.000000e+00   0.000000e+00
      800000   7.999990e-06   4.329570e+01   5.776625e-01   3.785863e+01   5.568928e+04   1.139806e+05   7.511908e+04  -1.519019e+10   8.525474e+09  -1.674735e+09   1.474305e+05   2.371678e-26   0.000000e+00   0.000000e+00
      808000   8.079990e-06   4.330011e+01   5.868081e-01   3.786463e+01   5.447100e+04   1.146559e+05   7.498454e+04  -1.550507e+10   8.478427e+09  -1.700642e+09   1.474305e+05   2.441013e-26   0.000000e+00   0.000000e+00
      816000   8.159990e-06   4.330441e+01   5.960075e-01   3.787063e+01   5.322682e+04   1.153275e+05   7.484788e+04  -1.559921e+10   8.312908e+09  -1.715580e+09   1.474305e+05   2.442563e-26   0.000000e+00   0.000000e+00
      824000   8.239990e-06   4.330862e+01   6.052601e-01   3.787661e+01   5.198079e+04   1.159831e+05   7.471052e+04  -1.555611e+10   8.079339e+09  -1.719233e+09   1.474305e+05   2.402608e-26   0.000000e+00   0.000000e+00
      832000   8.319990e-06   4.331273e+01   6.145644e-01   3.788258e+01   5.073434e+04   1.166221e+05   7.457250e+04  -1.560487e+10   7.895641e+09  -1.731207e+09   1.474305e+05   2.391968e-26   0.000000e+00   0.000000e+00
      840000   8.399990e-06   4.331674e+01   6.239192e-01   3.788854e+01   4.948407e+04   1.172464e+05   7.443353e+04  -1.565160e+10   7.712329e+09  -1.742967e+09   1.474305e+05   2.381437e-26   0.000000e+00   0.000000e+00
      848000   8.479990e-06   4.332065e+01   6.333234e-01   3.789449e+01   4.823014e+04   1.178561e+05   7.429363e+04  -1.569632e+10   7.529414e+09  -1.754504e+09   1.474305e+05   2.371016e-26   0.000000e+00   0.000000e+00
      856000   8.559990e-06   4.332446e+01   6.427758e-01   3.790043e+01   4.697190e+04   1.184515e+05   7.415278e+04  -1.588190e+10   7.407001e+09  -1.771531e+09   1.474305e+05   2.402706e-26   0.000000e+00   0.000000e+00
      864000   8.639990e-06   4.332816e+01   6.522754e-01   3.790635e+01   4.569778e+04   1.190373e+05   7.401059e+04  -1.597064e+10   7.239784e+09  -1.783244e+09   1.474305e+05   2.405949e-26   0.000000e+00   0.000000e+00
      872000   8.719990e-06   4.333177e+01   6.618214e-01   3.791227e+01   4.441663e+04   1.196098e+05   7.386747e+04  -1.605783e+10   7.071370e+09  -1.794662e+09   1.474305e+05   2.409228e-26   0.000000e+00   0.000000e+00
      880000   8.799990e-06   4.333527e+01   6.714127e-01   3.791817e+01   4.312857e+04   1.201687e+05   7.372345e+04  -1.614348e+10   6.901763e+09  -1.805774e+09   1.474305e+05   2.412543e-26   0.000000e+00   0.000000e+00
      888000   8.879990e-06   4.333867e+01   6.810481e-01   3.792406e+01   4.183372e+04   1.207140e+05   7.357856e+04  -1.622755e+10   6.730969e+09  -1.816567e+09   1.474305e+05   2.415892e-26   0.000000e+00   0.000000e+00
      896000   8.959990e-06   4.334196e+01   6.907265e-01   3.792994e+01   4.053220e+04   1.212457e+05   7.343281e+04  -1.631005e+10   6.558994e+09  -1.827031e+09   1.474305e+05   2.419275e-26   0.000000e+00   0.000000e+00
      904000   9.039990e-06   4.334515e+01   7.004470e-01   3.793581e+01   3.922481e+04   1.217632e+05   7.328627e+04  -1.620954e+10   6.322340e+09  -1.828574e+09   1.474305e+05   2.370396e-26   0.000000e+00   0.000000e+00
      912000   9.119990e-06   4.334824e+01   7.102081e-01   3.794167e+01   3.792683e+04   1.222616e+05   7.313967e+04  -1.623973e+10   6.136387e+09  -1.836480e+09   1.474305e+05   2.360267e-26   0.000000e+00   0.000000e+00
      920000   9.199990e-06   4.335122e+01   7.200084e-01   3.794752e+01   3.662651e+04   1.227451e+05   7.299244e+04  -1.626798e+10   5.950903e+09  -1.844048e+09   1.474305e+05   2.350229e-26   0.000000e+00   0.000000e+00
      928000   9.279990e-06   4.335410e+01   7.298469e-01   3.795335e+01   3.532401e+04   1.232137e+05   7.284463e+04  -1.629429e+10   5.765897e+09  -1.851270e+09   1.474305e+05   2.340284e-26   0.000000e+00   0.000000e+00
      936000   9.359990e-06   4.335687e+01   7.397222e-01   3.795917e+01   3.401947e+04   1.236676e+05   7.269625e+04  -1.631869e+10   5.581381e+09  -1.858138e+09   1.474305e+05   2.330429e-26   0.000000e+00   0.000000e+00
      944000   9.439990e-06   4.335954e+01   7.496333e-01   3.796498e+01   3.271306e+04   1.241068e+05   7.254734e+04  -1.634122e+10   5.397364e+09  -1.864645e+09   1.474305e+05   2.320667e-26   0.000000e+00   0.000000e+00
      952000   9.519990e-06   4.336211e+01   7.595789e-01   3.797078e+01   3.140493e+04   1.245312e+05   7.239792e+04  -1.636188e+10   5.213853e+09  -1.870784e+09   1.474305e+05   2.310997e-26   0.000000e+00   0.000000e+00
      960000   9.599990e-06   4.336457e+01   7.695579e-01   3.797656e+01   3.009521e+04   1.249410e+05   7.224802e+04  -1.638070e+10   5.030859e+09  -1.876546e+09   1.474305e+05   2.301419e-26   0.000000e+00   0.000000e+00
      968000   9.679990e-06   4.336692e+01   7.795691e-01   3.798234e+01   2.878406e+04   1.253361e+05   7.209768e+04  -1.639772e+10   4.848387e+09  -1.881924e+09   1.474305e+05   2.291933e-26   0.000000e+00   0.000000e+00
      976000   9.759990e-06   4.336917e+01   7.896113e-01   3.798810e+01   2.747163e+04   1.257167e+05   7.194692e+04  -1.641294e+10   4.666447e+09  -1.886911e+09   1.474305e+05   2.282539e-26   0.000000e+00   0.000000e+00
      984000   9.839990e-06   4.337132e+01   7.996834e-01   3.799385e+01   2.615804e+04   1.260828e+05   7.179578e+04  -1.642639e+10   4.485044e+09  -1.891501e+09   1.474305e+05   2.273238e-26   0.000000e+00   0.000000e+00
      992000   9.919990e-06   4.337336e+01   8.097843e-01   3.799959e+01   2.482696e+04   1.264380e+05   7.164350e+04  -1.666037e+10   4.351609e+09  -1.906378e+09   1.474305e+05   2.324499e-26   0.000000e+00   0.000000e+00
     1000000   9.999990e-06   4.337529e+01   8.199131e-01   3.800531e+01   2.348731e+04   1.267799e+05   7.149089e+04  -1.677615e+10   4.184818e+09  -1.909630e+09   1.474305e+05   2.343550e-26   0.000000e+00   0.000000e+00
     1008000   1.007999e-05   4.337711e+01   8.300687e-01   3.801103e+01   2.214320e+04   1.271075e+05   7.133797e+04  -1.682640e+10   4.005161e+09  -1.913327e+09   1.474305e+05   2.345341e-26   0.000000e+00   0.000000e+00
     1016000   1.015999e-05   4.337883e+01   8.402499e-01   3.801673e+01   2.079514e+04   1.274207e+05   7.118477e+04  -1.687480e+10   3.824697e+09  -1.916543e+09   1.474305e+05   2.347128e-26   0.000000e+00   0.000000e+00
     1024000   1.023999e-05   4.338044e+01   8.504557e-01   3.802241e+01   1.944328e+04   1.277194e+05   7.103133e+04  -1.692136e+10   3.643440e+09  -1.919271e+09   1.474305e+05   2.348910e-26   0.000000e+00   0.000000e+00
     1032000   1.031999e-05   4.338194e+01   8.606847e-01   3.802809e+01   1.808777e+04   1.280036e+05   7.087770e+04  -1.696605e+10   3.461404e+09  -1.921499e+09   1.474305e+05   2.350688e-26   0.000000e+00   0.000000e+00
     1040000   1.039999e-05   4.338334e+01   8.709358e-01   3.803376e+01   1.672876e+04   1.282733e+05   7.072391e+04  -1.700885e+10   3.278607e+09  -1.923218e+09   1.474305e+05   2.352461e-26   0.000000e+00   0.000000e+00
     1048000   1.047999e-05   4.338462e+01   8.812080e-01   3.803941e+01   1.536640e+04   1.285282e+05   7.057000e+04  -1.704977e+10   3.095064e+09  -1.924421e+09   1.474305e+05   2.354228e-26   0.000000e+00   0.000000e+00
     1056000   1.055999e-05   4.338579e+01   8.915000e-01   3.804505e+01   1.400085e+04   1.287684e+05   7.041601e+04  -1.708877e+10   2.910791e+09  -1.925097e+09   1.474305e+05   2.355990e-26   0.000000e+00   0.000000e+00
     1064000   1.063999e-05   4.338686e+01   9.018106e-01   3.805067e+01   1.263521e+04   1.289935e+05   7.026217e+04  -1.691446e+10   2.698940e+09  -1.913194e+09   1.474305e+05   2.300527e-26   0.000000e+00   0.000000e+00
     1072000   1.071999e-05   4.338782e+01   9.121385e-01   3.805629e+01   1.128093e+04   1.292022e+05   7.010914e+04  -1.694226e+10   2.516953e+09  -1.912281e+09   1.474305e+05   2.300439e-26   0.000000e+00   0.000000e+00
     1080000   1.079999e-05   4.338866e+01   9.224825e-01   3.806189e+01   9.924492e+03   1.293962e+05   6.995621e+04  -1.696835e+10   2.334559e+09  -1.910880e+09   1.474305e+05   2.300396e-26   0.000000e+00   0.000000e+00
     1088000   1.087999e-05   4.338940e+01   9.328415e-01   3.806748e+01   8.566038e+03   1.295757e+05   6.980342e+04  -1.699271e+10   2.151768e+09  -1.908985e+09   1.474305e+05   2.300398e-26   0.000000e+00   0.000000e+00
     1096000   1.095999e-05   4.339003e+01   9.432142e-01   3.807306e+01   7.205704e+03   1.297405e+05   6.965079e+04  -1.701535e+10   1.968590e+09  -1.906587e+09   1.474305e+05   2.300444e-26   0.000000e+00   0.000000e+00
     1104000   1.103999e-05   4.339056e+01   9.535996e-01   3.807863e+01   5.843628e+03   1.298906e+05   6.949838e+04  -1.703626e+10   1.785033e+09  -1.903678e+09   1.474305e+05   2.300534e-26   0.000000e+00   0.000000e+00
     1112000   1.111999e-05   4.339097e+01   9.639963e-01   3.808418e+01   4.479949e+03   1.300261e+05   6.934621e+04  -1.705541e+10   1.601106e+09  -1.900251e+09   1.474305e+05   2.300669e-26   0.000000e+00   0.000000e+00
     1120000   1.119999e-05   4.339127e+01   9.744034e-01   3.808972e+01   3.114808e+03   1.301468e+05   6.919435e+04  -1.707282e+10   1.416821e+09  -1.896299e+09   1.474305e+05   2.300846e-26   0.000000e+00   0.000000e+00
     1128000   1.127999e-05   4.339147e+01   9.848194e-01   3.809525e+01   1.748345e+03   1.302528e+05   6.904282e+04  -1.708847e+10   1.232186e+09  -1.891814e+09   1.474305e+05   2.301067e-26   0.000000e+00   0.000000e+00
     1136000   1.135999e-05   4.339155e+01   9.952434e-01   3.810077e+01   3.782129e+02   1.303441e+05   6.889142e+04  -1.732687e+10   1.059609e+09  -1.909636e+09   1.474305e+05   2.362070e-26   0.000000e+00   0.000000e+00
     1144000   1.143999e-05   4.339153e+01   1.005674e+00   3.810627e+01  -9.975909e+02   1.304210e+05   6.873953e+04  -1.709004e+10   8.644444e+08  -1.888107e+09   1.474305e+05   2.295402e-26   0.000000e+00   0.000000e+00
     1152000   1.151999e-05   4.339139e+01   1.016110e+00   3.811177e+01  -2.365779e+03   1.304827e+05   6.858880e+04  -1.711439e+10   6.779811e+08  -1.880055e+09   1.474305e+05   2.299390e-26   0.000000e+00   0.000000e+00
     1160000   1.159999e-05   4.339115e+01   1.026551e+00   3.811725e+01  -3.735848e+03   1.305294e+05   6.843873e+04  -1.713705e+10   4.907636e+08  -1.871419e+09   1.474305e+05   2.303457e-26   0.000000e+00   0.000000e+00
     1168000   1.167999e-05   4.339080e+01   1.036995e+00   3.812272e+01  -5.107663e+03   1.305612e+05   6.828939e+04  -1.715802e+10   3.027981e+08  -1.862194e+09   1.474305e+05   2.307602e-26   0.000000e+00   0.000000e+00
     1176000   1.175999e-05   4.339033e+01   1.047440e+00   3.812817e+01  -6.481085e+03   1.305779e+05   6.814080e+04  -1.717726e+10   1.140911e+08  -1.852371e+09   1.474305e+05   2.311826e-26   0.000000e+00   0.000000e+00
     1184000   1.183999e-05   4.338976e+01   1.057887e+00   3.813362e+01  -7.855977e+03   1.305794e+05   6.799302e+04  -1.719475e+10  -7.535044e+07  -1.841945e+09   1.474305e+05   2.316129e-26   0.000000e+00   0.000000e+00
     1192000   1.191999e-05   4.338908e+01   1.068333e+00   3.813905e+01  -9.232199e+03   1.305658e+05   6.784610e+04  -1.721049e+10  -2.655190e+08  -1.830908e+09   1.474305e+05   2.320510e-26   0.000000e+00   0.000000e+00
     1200000   1.199999e-05   4.338828e+01   1.078777e+00   3.814447e+01  -1.060961e+04   1.305369e+05   6.770009e+04  -1.722444e+10  -4.564067e+08  -1.819253e+09   1.474305e+05   2.324969e-26   0.000000e+00   0.000000e+00
     1208000   1.207999e-05   4.338738e+01   1.089218e+00   3.814988e+01  -1.198806e+04   1.304927e+05   6.755504e+04  -1.723659e+10  -6.480049e+08  -1.806976e+09   1.474305e+05   2.329505e-26   0.000000e+00   0.000000e+00
     1216000   1.215999e-05   4.338636e+01   1.099655e+00   3.815528e+01  -1.336741e+04   1.304332e+05   6.741099e+04  -1.724692e+10  -8.403048e+08  -1.794069e+09   1.474305e+05   2.334120e-26   0.000000e+00   0.000000e+00
     1224000   1.223999e-05   4.338524e+01   1.110087e+00   3.816067e+01  -1.473813e+04   1.303602e+05   6.726638e+04  -1.711447e+10  -1.004812e+09  -1.802458e+09   1.474305e+05   2.301458e-26   0.000000e+00   0.000000e+00
     1232000   1.231999e-05   4.338401e+01   1.120513e+00   3.816605e+01  -1.610595e+04   1.302724e+05   6.712267e+04  -1.708075e+10  -1.189276e+09  -1.790288e+09   1.474305e+05   2.295325e-26   0.000000e+00   0.000000e+00
     1240000   1.239999e-05   4.338266e+01   1.130930e+00   3.817141e+01  -1.747101e+04   1.301699e+05   6.697996e+04  -1.704544e+10  -1.373137e+09  -1.777502e+09   1.474305e+05   2.289288e-26   0.000000e+00   0.000000e+00
     1248000   1.247999e-05   4.338121e+01   1.141339e+00   3.817676e+01  -1.883318e+04   1.300527e+05   6.683829e+04  -1.700854e+10  -1.556391e+09  -1.764095e+09   1.474305e+05   2.283347e-26   0.000000e+00   0.000000e+00
     1256000   1.255999e-05   4.337965e+01   1.151738e+00   3.818210e+01  -2.019234e+04   1.299209e+05   6.669772e+04  -1.697007e+10  -1.739036e+09  -1.750065e+09   1.474305e+05   2.277503e-26   0.000000e+00   0.000000e+00
     1264000   1.263999e-05   4.337798e+01   1.162126e+00   3.818743e+01  -2.154835e+04   1.297745e+05   6.655829e+04  -1.693004e+10  -1.921067e+09  -1.735410e+09   1.474305e+05   2.271755e-26   0.000000e+00   0.000000e+00
     1272000   1.271999e-05   4.337620e+01   1.172502e+00   3.819275e+01  -2.290110e+04   1.296135e+05   6.642007e+04  -1.688844e+10  -2.102480e+09  -1.720128e+09   1.474305e+05   2.266105e-26   0.000000e+00   0.000000e+00
     1280000   1.279999e-05   4.337432e+01   1.182864e+00   3.819806e+01  -2.425046e+04   1.294381e+05   6.628309e+04  -1.684530e+10  -2.283273e+09  -1.704215e+09   1.474305e+05   2.260552e-26   0.000000e+00   0.000000e+00
     1288000   1.287999e-05   4.337232e+01   1.193212e+00   3.820336e+01  -2.560347e+04   1.292464e+05   6.614831e+04  -1.694561e+10  -2.502566e+09  -1.669217e+09   1.474305e+05   2.294018e-26   0.000000e+00   0.000000e+00
     1296000   1.295999e-05   4.337022e+01   1.203543e+00   3.820865e+01  -2.695967e+04   1.290385e+05   6.601521e+04  -1.697909e+10  -2.696961e+09  -1.662285e+09   1.474305e+05   2.310465e-26   0.000000e+00   0.000000e+00
     1304000   1.303999e-05   4.336801e+01   1.213857e+00   3.821392e+01  -2.831610e+04   1.288153e+05   6.588297e+04  -1.693125e+10  -2.881136e+09  -1.643662e+09   1.474305e+05   2.305379e-26   0.000000e+00   0.000000e+00
     1312000   1.311999e-05   4.336569e+01   1.224153e+00   3.821919e+01  -2.966862e+04   1.285775e+05   6.575224e+04  -1.688159e+10  -3.064606e+09  -1.624450e+09   1.474305e+05   2.300338e-26   0.000000e+00   0.000000e+00
     1320000   1.319999e-05   4.336326e+01   1.234429e+00   3.822444e+01  -3.101710e+04   1.283250e+05   6.562307e+04  -1.683014e+10  -3.247358e+09  -1.604647e+09   1.474305e+05   2.295342e-26   0.000000e+00   0.000000e+00
     1328000   1.327999e-05   4.336073e+01   1.244685e+00   3.822969e+01  -3.236140e+04   1.280579e+05   6.549551e+04  -1.677689e+10  -3.429379e+09  -1.584251e+09   1.474305e+05   2.290392e-26   0.000000e+00   0.000000e+00
     1336000   1.335999e-05   4.335808e+01   1.254918e+00   3.823492e+01  -3.370136e+04   1.277763e+05   6.536961e+04  -1.672186e+10  -3.610658e+09  -1.563262e+09   1.474305e+05   2.285487e-26   0.000000e+00   0.000000e+00
     1344000   1.343999e-05   4.335533e+01   1.265129e+00   3.824015e+01  -3.503685e+04   1.274803e+05   6.524541e+04  -1.666506e+10  -3.791182e+09  -1.541677e+09   1.474305e+05   2.280630e-26   0.000000e+00   0.000000e+00
     1352000   1.351999e-05   4.335248e+01   1.275315e+00   3.824536e+01  -3.636772e+04   1.271698e+05   6.512296e+04  -1.660650e+10  -3.970939e+09  -1.519496e+09   1.474305e+05   2.275819e-26   0.000000e+00   0.000000e+00
     1360000   1.359999e-05   4.334952e+01   1.285475e+00   3.825057e+01  -3.769384e+04   1.268449e+05   6.500230e+04  -1.654618e+10  -4.149917e+09  -1.496717e+09   1.474305e+05   2.271056e-26   0.000000e+00   0.000000e+00
     1368000   1.367999e-05   4.334645e+01   1.295609e+00   3.825576e+01  -3.901506e+04   1.265058e+05   6.488350e+04  -1.648411e+10  -4.328103e+09  -1.473341e+09   1.474305e+05   2.266341e-26   0.000000e+00   0.000000e+00
     1376000   1.375999e-05   4.334327e+01   1.305716e+00   3.826095e+01  -4.033169e+04   1.261520e+05   6.476717e+04  -1.643257e+10  -4.516205e+09  -1.436252e+09   1.474305e+05   2.265249e-26   0.000000e+00   0.000000e+00
     1384000   1.383999e-05   4.333999e+01   1.315793e+00   3.826612e+01  -4.164403e+04   1.257835e+05   6.465327e+04  -1.637562e+10  -4.696175e+09  -1.411261e+09   1.474305e+05   2.263069e-26   0.000000e+00   0.000000e+00
     1392000   1.391999e-05   4.333661e+01   1.325841e+00   3.827129e+01  -4.295174e+04   1.254006e+05   6.454139e+04  -1.631682e+10  -4.875561e+09  -1.385691e+09   1.474305e+05   2.260925e-26   0.000000e+00   0.000000e+00
     1400000   1.399999e-05   4.333312e+01   1.335857e+00   3.827645e+01  -4.425467e+04   1.250034e+05   6.443157e+04  -1.625616e+10  -5.054346e+09  -1.359543e+09   1.474305e+05   2.258816e-26   0.000000e+00   0.000000e+00
     1408000   1.407999e-05   4.332953e+01   1.345841e+00   3.828160e+01  -4.555268e+04   1.245919e+05   6.432388e+04  -1.619365e+10  -5.232514e+09  -1.332818e+09   1.474305e+05   2.256743e-26   0.000000e+00   0.000000e+00
     1416000   1.415999e-05   4.332583e+01   1.355791e+00   3.828674e+01  -4.684561e+04   1.241662e+05   6.421834e+04  -1.612928e+10  -5.410046e+09  -1.305516e+09   1.474305e+05   2.254706e-26   0.000000e+00   0.000000e+00
     1424000   1.423999e-05   4.332203e+01   1.365707e+00   3.829188e+01  -4.813331e+04   1.237264e+05   6.411501e+04  -1.606307e+10  -5.586927e+09  -1.277640e+09   1.474305e+05   2.252705e-26   0.000000e+00   0.000000e+00
     1432000   1.431999e-05   4.331813e+01   1.375587e+00   3.829700e+01  -4.941565e+04   1.232723e+05   6.401393e+04  -1.599502e+10  -5.763138e+09  -1.249191e+09   1.474305e+05   2.250741e-26   0.000000e+00   0.000000e+00
     1440000   1.439999e-05   4.331413e+01   1.385430e+00   3.830212e+01  -5.069635e+04   1.228028e+05   6.391493e+04  -1.604497e+10  -5.985180e+09  -1.226966e+09   1.474305e+05   2.282911e-26   0.000000e+00   0.000000e+00
     1448000   1.447999e-05   4.331002e+01   1.395235e+00   3.830723e+01  -5.197758e+04   1.223166e+05   6.381796e+04  -1.598538e+10  -6.168199e+09  -1.197232e+09   1.474305e+05   2.284798e-26   0.000000e+00   0.000000e+00
     1456000   1.455999e-05   4.330581e+01   1.405001e+00   3.831233e+01  -5.325293e+04   1.218163e+05   6.372353e+04  -1.589618e+10  -6.340860e+09  -1.162768e+09   1.474305e+05   2.278873e-26   0.000000e+00   0.000000e+00
     1464000   1.463999e-05   4.330150e+01   1.414726e+00   3.831742e+01  -5.452169e+04   1.213018e+05   6.363185e+04  -1.582243e+10  -6.519357e+09  -1.129190e+09   1.474305e+05   2.277936e-26   0.000000e+00   0.000000e+00
     1472000   1.471999e-05   4.329709e+01   1.424409e+00   3.832251e+01  -5.578720e+04   1.207722e+05   6.354228e+04  -1.580413e+10  -6.717615e+09  -1.107354e+09   1.474305e+05   2.293400e-26   0.000000e+00   0.000000e+00
     1480000   1.479999e-05   4.329257e+01   1.434049e+00   3.832759e+01  -5.704910e+04   1.202274e+05   6.345496e+04  -1.574301e+10  -6.902487e+09  -1.075615e+09   1.474305e+05   2.297431e-26   0.000000e+00   0.000000e+00
     1488000   1.487999e-05   4.328796e+01   1.443645e+00   3.833266e+01  -5.830602e+04   1.196678e+05   6.337020e+04  -1.567965e+10  -7.087160e+09  -1.043232e+09   1.474305e+05   2.301489e-26   0.000000e+00   0.000000e+00
     1496000   1.495999e-05   4.328325e+01   1.453195e+00   3.833773e+01  -5.955778e+04   1.190935e+05   6.328806e+04  -1.561404e+10  -7.271605e+09  -1.010205e+09   1.474305e+05   2.305574e-26   0.000000e+00   0.000000e+00
     1504000   1.503999e-05   4.327843e+01   1.462699e+00   3.834279e+01  -6.080420e+04   1.185044e+05   6.320858e+04  -1.554617e+10  -7.455793e+09  -9.765386e+08   1.474305e+05   2.309687e-26   0.000000e+00   0.000000e+00
     1512000   1.511999e-05   4.327352e+01   1.472155e+00   3.834784e+01  -6.204511e+04   1.179006e+05   6.313183e+04  -1.547604e+10  -7.639695e+09  -9.422348e+08   1.474305e+05   2.313826e-26   0.000000e+00   0.000000e+00
     1520000   1.519999e-05   4.326850e+01   1.481563e+00   3.835289e+01  -6.328031e+04   1.172820e+05   6.305784e+04  -1.540362e+10  -7.823283e+09  -9.072973e+08   1.474305e+05   2.317992e-26   0.000000e+00   0.000000e+00
     1528000   1.527999e-05   4.326339e+01   1.490920e+00   3.835793e+01  -6.450962e+04   1.166488e+05   6.298668e+04  -1.532891e+10  -8.006524e+09  -8.717298e+08   1.474305e+05   2.322185e-26   0.000000e+00   0.000000e+00
     1536000   1.535999e-05   4.325818e+01   1.500226e+00   3.836297e+01  -6.573268e+04   1.160011e+05   6.291844e+04  -1.515624e+10  -8.151850e+09  -8.047607e+08   1.474305e+05   2.298736e-26   0.000000e+00   0.000000e+00
     1544000   1.543999e-05   4.325288e+01   1.509480e+00   3.836800e+01  -6.694177e+04   1.153418e+05   6.285559e+04  -1.507065e+10  -8.328890e+09  -7.665806e+08   1.474305e+05   2.300832e-26   0.000000e+00   0.000000e+00
     1552000   1.551999e-05   4.324747e+01   1.518681e+00   3.837303e+01  -6.814394e+04   1.146685e+05   6.279580e+04  -1.498310e+10  -8.505374e+09  -7.278544e+08   1.474305e+05   2.303015e-26   0.000000e+00   0.000000e+00
     1560000   1.559999e-05   4.324197e+01   1.527827e+00   3.837805e+01  -6.933902e+04   1.139810e+05   6.273914e+04  -1.489357e+10  -8.681284e+09  -6.885875e+08   1.474305e+05   2.305283e-26   0.000000e+00   0.000000e+00
     1568000   1.567999e-05   4.323638e+01   1.536917e+00   3.838306e+01  -7.052685e+04   1.132795e+05   6.268565e+04  -1.480207e+10  -8.856598e+09  -6.487855e+08   1.474305e+05   2.307638e-26   0.000000e+00   0.000000e+00
     1576000   1.575999e-05   4.323069e+01   1.545951e+00   3.838808e+01  -7.170729e+04   1.125639e+05   6.263535e+04  -1.470858e+10  -9.031297e+09  -6.084543e+08   1.474305e+05   2.310080e-26   0.000000e+00   0.000000e+00
     1584000   1.583999e-05   4.322491e+01   1.554927e+00   3.839309e+01  -7.288017e+04   1.118345e+05   6.258831e+04  -1.461309e+10  -9.205359e+09  -5.676002e+08   1.474305e+05   2.312609e-26   0.000000e+00   0.000000e+00
     1592000   1.591999e-05   4.321903e+01   1.563844e+00   3.839809e+01  -7.404533e+04   1.110911e+05   6.254455e+04  -1.451561e+10  -9.378762e+09  -5.262295e+08   1.474305e+05   2.315224e-26   0.000000e+00   0.000000e+00
     1600000   1.599999e-05   4.321306e+01   1.572701e+00   3.840309e+01  -7.520160e+04   1.103348e+05   6.250368e+04  -1.439452e+10  -9.531168e+09  -4.938614e+08   1.474305e+05   2.310178e-26   0.000000e+00   0.000000e+00
     1608000   1.607999e-05   4.320700e+01   1.581497e+00   3.840809e+01  -7.634897e+04   1.095656e+05   6.246580e+04  -1.428932e+10  -9.699044e+09  -4.528837e+08   1.474305e+05   2.311508e-26   0.000000e+00   0.000000e+00
     1616000   1.615999e-05   4.320084e+01   1.590231e+00   3.841309e+01  -7.748784e+04   1.087830e+05   6.243123e+04  -1.418223e+10  -9.866098e+09  -4.113905e+08   1.474305e+05   2.312931e-26   0.000000e+00   0.000000e+00
     1624000   1.623999e-05   4.319460e+01   1.598902e+00   3.841808e+01  -7.861311e+04   1.079903e+05   6.240057e+04  -1.399589e+10  -9.979951e+09  -3.608829e+08   1.474305e+05   2.289464e-26   0.000000e+00   0.000000e+00
     1632000   1.631999e-05   4.318826e+01   1.607509e+00   3.842307e+01  -7.973346e+04   1.071820e+05   6.237278e+04  -1.395449e+10  -1.019024e+10  -3.274939e+08   1.474305e+05   2.313172e-26   0.000000e+00   0.000000e+00
     1640000   1.639999e-05   4.318184e+01   1.616051e+00   3.842806e+01  -8.084498e+04   1.063605e+05   6.234828e+04  -1.383315e+10  -1.034755e+10  -2.849669e+08   1.474306e+05   2.311880e-26   0.000000e+00   0.000000e+00
     1648000   1.647999e-05   4.317533e+01   1.624527e+00   3.843305e+01  -8.194671e+04   1.055264e+05   6.232719e+04  -1.370993e+10  -1.050351e+10  -2.420052e+08   1.474306e+05   2.310606e-26   0.000000e+00   0.000000e+00
     1656000   1.655999e-05   4.316873e+01   1.632935e+00   3.843803e+01  -8.303852e+04   1.046799e+05   6.230957e+04  -1.358485e+10  -1.065808e+10  -1.986179e+08   1.474306e+05   2.309348e-26   0.000000e+00   0.000000e+00
     1664000   1.663999e-05   4.316204e+01   1.641275e+00   3.844302e+01  -8.412024e+04   1.038212e+05   6.229543e+04  -1.345791e+10  -1.081124e+10  -1.548147e+08   1.474306e+05   2.308109e-26   0.000000e+00   0.000000e+00
     1672000   1.671999e-05   4.315527e+01   1.649546e+00   3.844800e+01  -8.519173e+04   1.029502e+05   6.228481e+04  -1.332913e+10  -1.096297e+10  -1.106054e+08   1.474306e+05   2.306889e-26   0.000000e+00   0.000000e+00
     1680000   1.679999e-05   4.314841e+01   1.657747e+00   3.845298e+01  -8.625285e+04   1.020671e+05   6.227774e+04  -1.319852e+10  -1.111324e+10  -6.599985e+07   1.474306e+05   2.305687e-26   0.000000e+00   0.000000e+00
     1688000   1.687999e-05   4.314147e+01   1.665877e+00   3.845796e+01  -8.730344e+04   1.011721e+05   6.227426e+04  -1.306609e+10  -1.126203e+10  -2.100847e+07   1.474306e+05   2.304503e-26   0.000000e+00   0.000000e+00
     1696000   1.695999e-05   4.313445e+01   1.673934e+00   3.846295e+01  -8.834337e+04   1.002652e+05   6.227439e+04  -1.293186e+10  -1.140932e+10   2.435825e+07   1.474306e+05   2.303339e-26   0.000000e+00   0.000000e+00
     1704000   1.703999e-05   4.312734e+01   1.681919e+00   3.846793e+01  -8.937249e+04   9.934665e+04   6.227817e+04  -1.279585e+10  -1.155508e+10   7.008956e+07   1.474306e+05   2.302195e-26   0.000000e+00   0.000000e+00
     1712000   1.711999e-05   4.312015e+01   1.689829e+00   3.847291e+01  -9.039066e+04   9.841646e+04   6.228561e+04  -1.265806e+10  -1.169929e+10   1.161745e+08   1.474306e+05   2.301071e-26   0.000000e+00   0.000000e+00
     1720000   1.719999e-05   4.311287e+01   1.697665e+00   3.847789e+01  -9.139773e+04   9.747480e+04   6.229676e+04  -1.251851e+10  -1.184193e+10   1.626018e+08   1.474306e+05   2.299966e-26   0.000000e+00   0.000000e+00
     1728000   1.727999e-05   4.310552e+01   1.705425e+00   3.848288e+01  -9.239019e+04   9.652450e+04   6.231245e+04  -1.231800e+10  -1.193525e+10   2.244270e+08   1.474306e+05   2.278768e-26   0.000000e+00   0.000000e+00
     1736000   1.735999e-05   4.309809e+01   1.713109e+00   3.848786e+01  -9.337243e+04   9.556186e+04   6.233209e+04  -1.229628e+10  -1.218438e+10   2.604028e+08   1.474306e+05   2.321302e-26   0.000000e+00   0.000000e+00
     1744000   1.743999e-05   4.309058e+01   1.720714e+00   3.849285e+01  -9.435101e+04   9.458080e+04   6.235487e+04  -1.216764e+10  -1.234188e+10   3.091850e+08   1.474306e+05   2.327058e-26   0.000000e+00   0.000000e+00
     1752000   1.751999e-05   4.308300e+01   1.728241e+00   3.849784e+01  -9.531919e+04   9.358719e+04   6.238157e+04  -1.203659e+10  -1.249818e+10   3.583486e+08   1.474306e+05   2.332817e-26   0.000000e+00   0.000000e+00
     1760000   1.759999e-05   4.307533e+01   1.735688e+00   3.850283e+01  -9.627272e+04   9.258507e+04   6.241266e+04  -1.181485e+10  -1.256667e+10   4.172444e+08   1.474306e+05   2.305504e-26   0.000000e+00   0.000000e+00
     1768000   1.767999e-05   4.306759e+01   1.743055e+00   3.850783e+01  -9.721271e+04   9.157353e+04   6.244798e+04  -1.168458e+10  -1.272161e+10   4.656013e+08   1.474306e+05   2.312473e-26   0.000000e+00   0.000000e+00
     1776000   1.775999e-05   4.305978e+01   1.750340e+00   3.851282e+01  -9.814218e+04   9.054964e+04   6.248717e+04  -1.155196e+10  -1.287544e+10   5.142565e+08   1.474306e+05   2.319471e-26   0.000000e+00   0.000000e+00
     1784000   1.783999e-05   4.305189e+01   1.757542e+00   3.851783e+01  -9.906096e+04   8.951349e+04   6.253026e+04  -1.141699e+10  -1.302811e+10   5.631978e+08   1.474306e+05   2.326496e-26   0.000000e+00   0.000000e+00
     1792000   1.791999e-05   4.304393e+01   1.764661e+00   3.852283e+01  -9.996884e+04   8.846517e+04   6.257729e+04  -1.127965e+10  -1.317958e+10   6.124130e+08   1.474306e+05   2.333547e-26   0.000000e+00   0.000000e+00
     1800000   1.799999e-05   4.303590e+01   1.771696e+00   3.852784e+01  -1.008656e+05   8.740479e+04   6.262826e+04  -1.113996e+10  -1.332980e+10   6.618894e+08   1.474306e+05   2.340623e-26   0.000000e+00   0.000000e+00
     1808000   1.807999e-05   4.302779e+01   1.778646e+00   3.853285e+01  -1.017512e+05   8.633243e+04   6.268320e+04  -1.099791e+10  -1.347875e+10   7.116142e+08   1.474306e+05   2.347722e-26   0.000000e+00   0.000000e+00
     1816000   1.815999e-05   4.301962e+01   1.785509e+00   3.853787e+01  -1.026252e+05   8.524822e+04   6.274212e+04  -1.085351e+10  -1.362637e+10   7.615742e+08   1.474306e+05   2.354843e-26   0.000000e+00   0.000000e+00
     1824000   1.823999e-05   4.301137e+01   1.792285e+00   3.854289e+01  -1.034877e+05   8.415225e+04   6.280506e+04  -1.070676e+10  -1.377262e+10   8.117559e+08   1.474306e+05   2.361985e-26   0.000000e+00   0.000000e+00
     1832000   1.831999e-05   4.300306e+01   1.798973e+00   3.854792e+01  -1.043383e+05   8.304464e+04   6.287201e+04  -1.055767e+10  -1.391746e+10   8.621458e+08   1.474306e+05   2.369146e-26   0.000000e+00   0.000000e+00
     1840000   1.839999e-05   4.299468e+01   1.805572e+00   3.855295e+01  -1.051747e+05   8.192803e+04   6.294324e+04  -1.036017e+10  -1.400340e+10   9.158374e+08   1.474306e+05   2.356476e-26   0.000000e+00   0.000000e+00
     1848000   1.847999e-05   4.298623e+01   1.812081e+00   3.855799e+01  -1.059964e+05   8.080336e+04   6.301862e+04  -1.018284e+10  -1.411300e+10   9.685418e+08   1.474306e+05   2.352897e-26   0.000000e+00   0.000000e+00
     1856000   1.855999e-05   4.297772e+01   1.818500e+00   3.856303e+01  -1.068039e+05   7.967001e+04   6.309821e+04  -1.000448e+10  -1.422065e+10   1.021336e+09   1.474306e+05   2.349449e-26   0.000000e+00   0.000000e+00
     1864000   1.863999e-05   4.296914e+01   1.824828e+00   3.856808e+01  -1.075971e+05   7.852811e+04   6.318203e+04  -9.825120e+09  -1.432636e+10   1.074206e+09   1.474306e+05   2.346132e-26   0.000000e+00   0.000000e+00
     1872000   1.871999e-05   4.296050e+01   1.831065e+00   3.857314e+01  -1.083759e+05   7.737784e+04   6.327009e+04  -9.644763e+09  -1.443011e+10   1.127136e+09   1.474306e+05   2.342946e-26   0.000000e+00   0.000000e+00
     1880000   1.879999e-05   4.295180e+01   1.837209e+00   3.857821e+01  -1.091403e+05   7.621934e+04   6.336238e+04  -9.463425e+09  -1.453191e+10   1.180112e+09   1.474306e+05   2.339889e-26   0.000000e+00   0.000000e+00
     1888000   1.887999e-05   4.294304e+01   1.843260e+00   3.858328e+01  -1.098900e+05   7.505279e+04   6.345890e+04  -9.281121e+09  -1.463173e+10   1.233118e+09   1.474306e+05   2.336961e-26   0.000000e+00   0.000000e+00
     1896000   1.895999e-05   4.293422e+01   1.849217e+00   3.858836e+01  -1.106252e+05   7.387832e+04   6.355968e+04  -9.097863e+09  -1.472958e+10   1.286139e+09   1.474306e+05   2.334160e-26   0.000000e+00   0.000000e+00
     1904000   1.903999e-05   4.292534e+01   1.855080e+00   3.859345e+01  -1.113457e+05   7.269610e+04   6.366469e+04  -8.913664e+09  -1.482545e+10   1.339160e+09   1.474306e+05   2.331488e-26   0.000000e+00   0.000000e+00
     1912000   1.911999e-05   4.291641e+01   1.860848e+00   3.859855e+01  -1.120514e+05   7.150630e+04   6.377394e+04  -8.728540e+09  -1.491933e+10   1.392167e+09   1.474306e+05   2.328941e-26   0.000000e+00   0.000000e+00
     1920000   1.919999e-05   4.290741e+01   1.866521e+00   3.860365e+01  -1.127455e+05   7.030391e+04   6.388725e+04  -8.603396e+09  -1.510726e+10   1.441726e+09   1.474306e+05   2.356934e-26   0.000000e+00   0.000000e+00
     1928000   1.927999e-05   4.289837e+01   1.872096e+00   3.860877e+01  -1.134274e+05   6.908980e+04   6.400466e+04  -8.477466e+09  -1.530017e+10   1.492266e+09   1.474306e+05   2.386855e-26   0.000000e+00   0.000000e+00
     1936000   1.935999e-05   4.288927e+01   1.877575e+00   3.861389e+01  -1.140981e+05   6.786192e+04   6.412616e+04  -8.288771e+09  -1.539639e+10   1.545367e+09   1.474306e+05   2.386475e-26   0.000000e+00   0.000000e+00
     1944000   1.943999e-05   4.288011e+01   1.882954e+00   3.861903e+01  -1.147536e+05   6.662644e+04   6.425191e+04  -8.098778e+09  -1.549027e+10   1.598412e+09   1.474306e+05   2.386112e-26   0.000000e+00   0.000000e+00
     1952000   1.951999e-05   4.287091e+01   1.888235e+00   3.862417e+01  -1.153938e+05   6.538354e+04   6.438191e+04  -7.907514e+09  -1.558182e+10   1.651382e+09   1.474306e+05   2.385765e-26   0.000000e+00   0.000000e+00
     1960000   1.959999e-05   4.286165e+01   1.893415e+00   3.862933e+01  -1.160188e+05   6.413341e+04   6.451613e+04  -7.715007e+09  -1.567100e+10   1.704262e+09   1.474306e+05   2.385434e-26   0.000000e+00   0.000000e+00
     1968000   1.967999e-05   4.285234e+01   1.898496e+00   3.863450e+01  -1.166282e+05   6.287624e+04   6.465459e+04  -7.521288e+09  -1.575780e+10   1.757033e+09   1.474306e+05   2.385118e-26   0.000000e+00   0.000000e+00
     1976000   1.975999e-05   4.284299e+01   1.903475e+00   3.863967e+01  -1.172196e+05   6.161703e+04   6.479731e+04  -7.283383e+09  -1.575968e+10   1.810458e+09   1.474306e+05   2.359774e-26   0.000000e+00   0.000000e+00
     1984000   1.983999e-05   4.283359e+01   1.908354e+00   3.864486e+01  -1.177947e+05   6.035258e+04   6.494422e+04  -7.094729e+09  -1.585111e+10   1.862168e+09   1.474306e+05   2.362621e-26   0.000000e+00   0.000000e+00
     1992000   1.991999e-05   4.282414e+01   1.913132e+00   3.865007e+01  -1.183547e+05   5.908090e+04   6.509526e+04  -6.904680e+09  -1.594039e+10   1.913724e+09   1.474306e+05   2.365504e-26   0.000000e+00   0.000000e+00
     2000000   1.999999e-05   4.281465e+01   1.917807e+00   3.865528e+01  -1.188994e+05   5.780217e+04   6.525041e+04  -6.713257e+09  -1.602748e+10   1.965108e+09   1.474306e+05   2.368423e-26   0.000000e+00   0.000000e+00
     2008000   2.007999e-05   4.280512e+01   1.922380e+00   3.866051e+01  -1.194288e+05   5.651657e+04   6.540967e+04  -6.520484e+09  -1.611238e+10   2.016304e+09   1.474306e+05   2.371374e-26   0.000000e+00   0.000000e+00
     2016000   2.015999e-05   4.279554e+01   1.926849e+00   3.866575e+01  -1.199445e+05   5.522013e+04   6.557314e+04  -6.375335e+09  -1.630683e+10   2.070692e+09   1.474306e+05   2.407421e-26   0.000000e+00   0.000000e+00
     2024000   2.023999e-05   4.278593e+01   1.931215e+00   3.867100e+01  -1.204467e+05   5.391220e+04   6.574083e+04  -6.178800e+09  -1.639108e+10   2.121457e+09   1.474306e+05   2.411297e-26   0.000000e+00   0.000000e+00
     2032000   2.031999e-05   4.277627e+01   1.935475e+00   3.867626e+01  -1.209331e+05   5.259762e+04   6.591257e+04  -5.980873e+09  -1.647306e+10   2.171993e+09   1.474306e+05   2.415204e-26   0.000000e+00   0.000000e+00
     2040000   2.039999e-05   4.276658e+01   1.939630e+00   3.868154e+01  -1.214036e+05   5.127657e+04   6.608834e+04  -5.781579e+09  -1.655275e+10   2.222282e+09   1.474306e+05   2.419142e-26   0.000000e+00   0.000000e+00
     2048000   2.047999e-05   4.275685e+01   1.943679e+00   3.868684e+01  -1.218581e+05   4.994924e+04   6.626813e+04  -5.580944e+09  -1.663011e+10   2.272308e+09   1.474306e+05   2.423111e-26   0.000000e+00   0.000000e+00
     2056000   2.055999e-05   4.274708e+01   1.947622e+00   3.869215e+01  -1.222965e+05   4.861581e+04   6.645191e+04  -5.378994e+09  -1.670514e+10   2.322054e+09   1.474306e+05   2.427108e-26   0.000000e+00   0.000000e+00
     2064000   2.063999e-05   4.273728e+01   1.951458e+00   3.869747e+01  -1.227187e+05   4.727648e+04   6.663965e+04  -5.175756e+09  -1.677779e+10   2.371502e+09   1.474306e+05   2.431132e-26   0.000000e+00   0.000000e+00
     2072000   2.071999e-05   4.272745e+01   1.955186e+00   3.870281e+01  -1.231244e+05   4.593233e+04   6.683100e+04  -4.968938e+09  -1.682973e+10   2.412571e+09   1.474306e+05   2.429924e-26   0.000000e+00   0.000000e+00
     2080000   2.079999e-05   4.271758e+01   1.958807e+00   3.870816e+01  -1.235139e+05   4.458274e+04   6.702595e+04  -4.768126e+09  -1.690971e+10   2.461055e+09   1.474306e+05   2.437509e-26   0.000000e+00   0.000000e+00
     2088000   2.087999e-05   4.270769e+01   1.962319e+00   3.871353e+01  -1.238873e+05   4.322684e+04   6.722476e+04  -4.565672e+09  -1.698734e+10   2.509249e+09   1.474306e+05   2.445109e-26   0.000000e+00   0.000000e+00
     2096000   2.095999e-05   4.269776e+01   1.965723e+00   3.871892e+01  -1.242433e+05   4.186723e+04   6.742789e+04  -4.301792e+09  -1.692626e+10   2.583355e+09   1.474306e+05   2.413869e-26   0.000000e+00   0.000000e+00
     2104000   2.103999e-05   4.268781e+01   1.969018e+00   3.872432e+01  -1.245790e+05   4.051121e+04   6.763649e+04  -4.090998e+09  -1.697400e+10   2.631536e+09   1.474306e+05   2.414646e-26   0.000000e+00   0.000000e+00
     2112000   2.111999e-05   4.267783e+01   1.972205e+00   3.872974e+01  -1.248978e+05   3.915146e+04   6.784893e+04  -3.879551e+09  -1.701929e+10   2.679270e+09   1.474306e+05   2.415480e-26   0.000000e+00   0.000000e+00
     2120000   2.119999e-05   4.266782e+01   1.975282e+00   3.873518e+01  -1.251997e+05   3.778819e+04   6.806516e+04  -3.667478e+09  -1.706212e+10   2.726543e+09   1.474306e+05   2.416369e-26   0.000000e+00   0.000000e+00
     2128000   2.127999e-05   4.265780e+01   1.978251e+00   3.874063e+01  -1.254846e+05   3.642158e+04   6.828516e+04  -3.454807e+09  -1.710249e+10   2.773337e+09   1.474306e+05   2.417312e-26   0.000000e+00   0.000000e+00
     2136000   2.135999e-05   4.264775e+01   1.981109e+00   3.874610e+01  -1.257525e+05   3.505185e+04   6.850889e+04  -3.241567e+09  -1.714038e+10   2.819636e+09   1.474306e+05   2.418308e-26   0.000000e+00   0.000000e+00
     2144000   2.143999e-05   4.263768e+01   1.983859e+00   3.875159e+01  -1.260032e+05   3.367919e+04   6.873629e+04  -3.027786e+09  -1.717578e+10   2.865426e+09   1.474306e+05   2.419353e-26   0.000000e+00   0.000000e+00
     2152000   2.151999e-05   4.262759e+01   1.986498e+00   3.875710e+01  -1.262369e+05   3.230379e+04   6.896734e+04  -2.813494e+09  -1.720869e+10   2.910689e+09   1.474306e+05   2.420447e-26   0.000000e+00   0.000000e+00
     2160000   2.159999e-05   4.261748e+01   1.989027e+00   3.876263e+01  -1.264534e+05   3.092587e+04   6.920199e+04  -2.598720e+09  -1.723910e+10   2.955411e+09   1.474306e+05   2.421588e-26   0.000000e+00   0.000000e+00
     2168000   2.167999e-05   4.260736e+01   1.991446e+00   3.876817e+01  -1.266527e+05   2.954560e+04   6.944019e+04  -2.383493e+09  -1.726699e+10   2.999575e+09   1.474306e+05   2.422774e-26   0.000000e+00   0.000000e+00
     2176000   2.175999e-05   4.259722e+01   1.993755e+00   3.877374e+01  -1.268360e+05   2.815997e+04   6.968089e+04  -2.225380e+09  -1.743934e+10   2.997034e+09   1.474306e+05   2.463338e-26   0.000000e+00   0.000000e+00
     2184000   2.183999e-05   4.258706e+01   1.995951e+00   3.877932e+01  -1.270052e+05   2.676417e+04   6.992241e+04  -2.004314e+09  -1.745519e+10   3.040777e+09   1.474306e+05   2.462425e-26   0.000000e+00   0.000000e+00
     2192000   2.191999e-05   4.257690e+01   1.998037e+00   3.878493e+01  -1.271567e+05   2.536721e+04   7.016740e+04  -1.783090e+09  -1.746829e+10   3.083956e+09   1.474306e+05   2.461529e-26   0.000000e+00   0.000000e+00
     2200000   2.199999e-05   4.256672e+01   2.000010e+00   3.879055e+01  -1.272905e+05   2.396935e+04   7.041584e+04  -1.524125e+09  -1.738890e+10   3.164021e+09   1.474306e+05   2.437338e-26   0.000000e+00   0.000000e+00
     2208000   2.207999e-05   4.255653e+01   2.001872e+00   3.879619e+01  -1.274037e+05   2.257753e+04   7.067060e+04  -1.306935e+09  -1.740619e+10   3.204778e+09   1.474306e+05   2.439246e-26   0.000000e+00   0.000000e+00
     2216000   2.215999e-05   4.254633e+01   2.003623e+00   3.880186e+01  -1.275000e+05   2.118303e+04   7.092825e+04  -1.104827e+09  -1.747254e+10   3.232269e+09   1.474306e+05   2.454765e-26   0.000000e+00   0.000000e+00
     2224000   2.223999e-05   4.253613e+01   2.005261e+00   3.880754e+01  -1.275795e+05   1.978517e+04   7.118849e+04  -8.832111e+08  -1.747343e+10   3.273541e+09   1.474306e+05   2.453673e-26   0.000000e+00   0.000000e+00
     2232000   2.231999e-05   4.252592e+01   2.006788e+00   3.881325e+01  -1.276413e+05   1.838736e+04   7.145200e+04  -6.616504e+08  -1.747149e+10   3.314165e+09   1.474306e+05   2.452568e-26   0.000000e+00   0.000000e+00
     2240000   2.239999e-05   4.251571e+01   2.008203e+00   3.881897e+01  -1.276854e+05   1.698981e+04   7.171874e+04  -4.401865e+08  -1.746671e+10   3.354128e+09   1.474306e+05   2.451449e-26   0.000000e+00   0.000000e+00
     2248000   2.247999e-05   4.250549e+01   2.009507e+00   3.882472e+01  -1.277117e+05   1.559276e+04   7.198864e+04  -2.188616e+08  -1.745910e+10   3.393417e+09   1.474306e+05   2.450314e-26   0.000000e+00   0.000000e+00
     2256000   2.255999e-05   4.249527e+01   2.010698e+00   3.883049e+01  -1.277205e+05   1.419514e+04   7.226170e+04  -1.545013e+06  -1.748678e+10   3.432430e+09   1.474306e+05   2.459497e-26   0.000000e+00   0.000000e+00
     2264000   2.263999e-05   4.248506e+01   2.011778e+00   3.883628e+01  -1.277119e+05   1.279613e+04   7.253773e+04   2.176797e+08  -1.748797e+10   3.468290e+09   1.474306e+05   2.462103e-26   0.000000e+00   0.000000e+00
     2272000   2.271999e-05   4.247484e+01   2.012745e+00   3.884210e+01  -1.276857e+05   1.139714e+04   7.281660e+04   4.370989e+08  -1.748637e+10   3.503446e+09   1.474306e+05   2.464679e-26   0.000000e+00   0.000000e+00
     2280000   2.279999e-05   4.246463e+01   2.013601e+00   3.884794e+01  -1.276419e+05   9.998390e+03   7.309826e+04   6.566702e+08  -1.748196e+10   3.537886e+09   1.474306e+05   2.467224e-26   0.000000e+00   0.000000e+00
     2288000   2.287999e-05   4.245442e+01   2.014345e+00   3.885379e+01  -1.275806e+05   8.600102e+03   7.338265e+04   8.763506e+08  -1.747475e+10   3.571596e+09   1.474306e+05   2.469737e-26   0.000000e+00   0.000000e+00
     2296000   2.295999e-05   4.244421e+01   2.014977e+00   3.885968e+01  -1.275017e+05   7.202504e+03   7.366970e+04   1.096097e+09  -1.746474e+10   3.604566e+09   1.474306e+05   2.472216e-26   0.000000e+00   0.000000e+00
     2304000   2.303999e-05   4.243402e+01   2.015498e+00   3.886558e+01  -1.274052e+05   5.805820e+03   7.395936e+04   1.315867e+09  -1.745191e+10   3.636783e+09   1.474306e+05   2.474660e-26   0.000000e+00   0.000000e+00
     2312000   2.311999e-05   4.242383e+01   2.015906e+00   3.887151e+01  -1.272912e+05   4.410274e+03   7.425156e+04   1.535615e+09  -1.743627e+10   3.668235e+09   1.474306e+05   2.477067e-26   0.000000e+00   0.000000e+00
     2320000   2.319999e-05   4.241365e+01   2.016203e+00   3.887746e+01  -1.271595e+05   3.016091e+03   7.454626e+04   1.755300e+09  -1.741782e+10   3.698913e+09   1.474306e+05   2.479435e-26   0.000000e+00   0.000000e+00
     2328000   2.327999e-05   4.240349e+01   2.016389e+00   3.888344e+01  -1.270103e+05   1.623498e+03   7.484337e+04   1.974877e+09  -1.739655e+10   3.728803e+09   1.474306e+05   2.481764e-26   0.000000e+00   0.000000e+00
     2336000   2.335999e-05   4.239333e+01   2.016463e+00   3.888944e+01  -1.268437e+05   2.353247e+02   7.514265e+04   2.192108e+09  -1.732410e+10   3.754658e+09   1.474306e+05   2.470790e-26   0.000000e+00   0.000000e+00
     2344000   2.343999e-05   4.238319e+01   2.016427e+00   3.889546e+01  -1.266595e+05  -1.149693e+03   7.544422e+04   2.411183e+09  -1.730088e+10   3.784410e+09   1.474306e+05   2.474110e-26   0.000000e+00   0.000000e+00
     2352000   2.351999e-05   4.237307e+01   2.016279e+00   3.890151e+01  -1.264578e+05  -2.533527e+03   7.574817e+04   2.632014e+09  -1.731334e+10   3.814987e+09   1.474306e+05   2.487878e-26   0.000000e+00   0.000000e+00
     2360000   2.359999e-05   4.236296e+01   2.016021e+00   3.890758e+01  -1.262385e+05  -3.917122e+03   7.605450e+04   2.851415e+09  -1.727605e+10   3.843155e+09   1.474306e+05   2.488875e-26   0.000000e+00   0.000000e+00
     2368000   2.367999e-05   4.235287e+01   2.015653e+00   3.891368e+01  -1.260016e+05  -5.297620e+03   7.636305e+04   3.070346e+09  -1.723595e+10   3.870489e+09   1.474306e+05   2.489832e-26   0.000000e+00   0.000000e+00
     2376000   2.375999e-05   4.234280e+01   2.015174e+00   3.891980e+01  -1.257473e+05  -6.674799e+03   7.667375e+04   3.288764e+09  -1.719306e+10   3.896979e+09   1.474306e+05   2.490746e-26   0.000000e+00   0.000000e+00
     2384000   2.383999e-05   4.233275e+01   2.014585e+00   3.892594e+01  -1.254754e+05  -8.048435e+03   7.698654e+04   3.506624e+09  -1.714739e+10   3.922618e+09   1.474306e+05   2.491616e-26   0.000000e+00   0.000000e+00
     2392000   2.391999e-05   4.232272e+01   2.013886e+00   3.893212e+01  -1.251862e+05  -9.418306e+03   7.730135e+04   3.723883e+09  -1.709893e+10   3.947397e+09   1.474306e+05   2.492442e-26   0.000000e+00   0.000000e+00
     2400000   2.399999e-05   4.231272e+01   2.013078e+00   3.893831e+01  -1.248796e+05  -1.078419e+04   7.761810e+04   3.940498e+09  -1.704771e+10   3.971308e+09   1.474306e+05   2.493220e-26   0.000000e+00   0.000000e+00
     2408000   2.407999e-05   4.230274e+01   2.012161e+00   3.894454e+01  -1.245557e+05  -1.214587e+04   7.793674e+04   4.156425e+09  -1.699373e+10   3.994346e+09   1.474306e+05   2.493950e-26   0.000000e+00   0.000000e+00
     2416000   2.415999e-05   4.229279e+01   2.011135e+00   3.895078e+01  -1.242142e+05  -1.350368e+04   7.825774e+04   4.379251e+09  -1.694873e+10   4.026413e+09   1.474306e+05   2.498844e-26   0.000000e+00   0.000000e+00
     2424000   2.423999e-05   4.228287e+01   2.010000e+00   3.895706e+01  -1.238552e+05  -1.485743e+04   7.858072e+04   4.594809e+09  -1.689433e+10   4.047915e+09   1.474306e+05   2.500912e-26   0.000000e+00   0.000000e+00
     2432000   2.431999e-05   4.227298e+01   2.008758e+00   3.896336e+01  -1.234790e+05  -1.620670e+04   7.890539e+04   4.809720e+09  -1.683706e+10   4.068538e+09   1.474306e+05   2.502900e-26   0.000000e+00   0.000000e+00
     2440000   2.439999e-05   4.226311e+01   2.007407e+00   3.896968e+01  -1.230857e+05  -1.755128e+04   7.923167e+04   5.023934e+09  -1.677693e+10   4.088278e+09   1.474306e+05   2.504807e-26   0.000000e+00   0.000000e+00
     2448000   2.447999e-05   4.225328e+01   2.005950e+00   3.897603e+01  -1.226752e+05  -1.889093e+04   7.955949e+04   5.237404e+09  -1.671394e+10   4.107128e+09   1.474306e+05   2.506631e-26   0.000000e+00   0.000000e+00
     2456000   2.455999e-05   4.224348e+01   2.004385e+00   3.898241e+01  -1.222477e+05  -2.022543e+04   7.988878e+04   5.450081e+09  -1.664812e+10   4.125082e+09   1.474306e+05   2.508370e-26   0.000000e+00   0.000000e+00
     2464000   2.463999e-05   4.223372e+01   2.002714e+00   3.898882e+01  -1.218032e+05  -2.155456e+04   8.021948e+04   5.661916e+09  -1.657946e+10   4.142137e+09   1.474306e+05   2.510024e-26   0.000000e+00   0.000000e+00
     2472000   2.471999e-05   4.222400e+01   2.000936e+00   3.899525e+01  -1.213418e+05  -2.287807e+04   8.055150e+04   5.872861e+09  -1.650798e+10   4.158288e+09   1.474306e+05   2.511589e-26   0.000000e+00   0.000000e+00
     2480000   2.479999e-05   4.221431e+01   1.999053e+00   3.900170e+01  -1.208638e+05  -2.419554e+04   8.088460e+04   6.082776e+09  -1.643186e+10   4.174004e+09   1.474306e+05   2.512623e-26   0.000000e+00   0.000000e+00
     2488000   2.487999e-05   4.220466e+01   1.997065e+00   3.900819e+01  -1.203688e+05  -2.550715e+04   8.121909e+04   6.292289e+09  -1.635794e+10   4.188102e+09   1.474306e+05   2.514844e-26   0.000000e+00   0.000000e+00
     2496000   2.495999e-05   4.219505e+01   1.994972e+00   3.901470e+01  -1.198571e+05  -2.681287e+04   8.155446e+04   6.498174e+09  -1.628499e+10   4.196072e+09   1.474306e+05   2.517315e-26   0.000000e+00   0.000000e+00
     2504000   2.503999e-05   4.218548e+01   1.992775e+00   3.902124e+01  -1.193290e+05  -2.811260e+04   8.189063e+04   6.706135e+09  -1.620784e+10   4.207990e+09   1.474306e+05   2.519940e-26   0.000000e+00   0.000000e+00
     2512000   2.511999e-05   4.217596e+01   1.990474e+00   3.902780e+01  -1.187842e+05  -2.940604e+04   8.222772e+04   6.913154e+09  -1.612791e+10   4.219000e+09   1.474306e+05   2.522478e-26   0.000000e+00   0.000000e+00
     2520000   2.519999e-05   4.216648e+01   1.988070e+00   3.903439e+01  -1.182229e+05  -3.069299e+04   8.256565e+04   7.119185e+09  -1.604521e+10   4.229099e+09   1.474306e+05   2.524925e-26   0.000000e+00   0.000000e+00
     2528000   2.527999e-05   4.215704e+01   1.985564e+00   3.904101e+01  -1.176451e+05  -3.197320e+04   8.290435e+04   7.324181e+09  -1.595978e+10   4.238285e+09   1.474306e+05   2.527281e-26   0.000000e+00   0.000000e+00
     2536000   2.535999e-05   4.214765e+01   1.982955e+00   3.904766e+01  -1.170510e+05  -3.324648e+04   8.324375e+04   7.528093e+09  -1.587161e+10   4.246556e+09   1.474306e+05   2.529544e-26   0.000000e+00   0.000000e+00
     2544000   2.543999e-05   4.213831e+01   1.980245e+00   3.905433e+01  -1.164407e+05  -3.451259e+04   8.358377e+04   7.730874e+09  -1.578072e+10   4.253911e+09   1.474306e+05   2.531712e-26   0.000000e+00   0.000000e+00
     2552000   2.551999e-05   4.212902e+01   1.977433e+00   3.906103e+01  -1.158141e+05  -3.577132e+04   8.392435e+04   7.932478e+09  -1.568713e+10   4.260349e+09   1.474306e+05   2.533783e-26   0.000000e+00   0.000000e+00
     2560000   2.559999e-05   4.211979e+01   1.974521e+00   3.906776e+01  -1.151715e+05  -3.702246e+04   8.426541e+04   8.132857e+09  -1.559085e+10   4.265869e+09   1.474306e+05   2.535757e-26   0.000000e+00   0.000000e+00
     2568000   2.567999e-05   4.211060e+01   1.971510e+00   3.907451e+01  -1.145129e+05  -3.826578e+04   8.460687e+04   8.331966e+09  -1.549190e+10   4.270471e+09   1.474306e+05   2.537631e-26   0.000000e+00   0.000000e+00
     2576000   2.575999e-05   4.210146e+01   1.968399e+00   3.908130e+01  -1.138384e+05  -3.950109e+04   8.494866e+04   8.529757e+09  -1.539030e+10   4.274154e+09   1.474306e+05   2.539405e-26   0.000000e+00   0.000000e+00
     2584000   2.583999e-05   4.209238e+01   1.965190e+00   3.908811e+01  -1.131488e+05  -4.072356e+04   8.529204e+04   8.716161e+09  -1.521874e+10   4.296598e+09   1.474307e+05   2.525120e-26   0.000000e+00   0.000000e+00
     2592000   2.591999e-05   4.208336e+01   1.961883e+00   3.909494e+01  -1.124437e+05  -4.193692e+04   8.563583e+04   8.910433e+09  -1.511497e+10   4.297859e+09   1.474307e+05   2.527346e-26   0.000000e+00   0.000000e+00
     2600000   2.599999e-05   4.207439e+01   1.958480e+00   3.910181e+01  -1.117236e+05  -4.314123e+04   8.597944e+04   9.082709e+09  -1.497734e+10   4.287251e+09   1.474307e+05   2.518574e-26   0.000000e+00   0.000000e+00
     2608000   2.607999e-05   4.206548e+01   1.954981e+00   3.910870e+01  -1.109894e+05  -4.433498e+04   8.632247e+04   9.273514e+09  -1.486616e+10   4.288264e+09   1.474307e+05   2.520070e-26   0.000000e+00   0.000000e+00
     2616000   2.615999e-05   4.205664e+01   1.951387e+00   3.911562e+01  -1.102399e+05  -4.551975e+04   8.666554e+04   9.462853e+09  -1.475258e+10   4.288363e+09   1.474307e+05   2.521497e-26   0.000000e+00   0.000000e+00
     2624000   2.623999e-05   4.204785e+01   1.947698e+00   3.912257e+01  -1.094753e+05  -4.669533e+04   8.700858e+04   9.650687e+09  -1.463662e+10   4.287552e+09   1.474307e+05   2.522854e-26   0.000000e+00   0.000000e+00
     2632000   2.631999e-05   4.203912e+01   1.943916e+00   3.912954e+01  -1.086958e+05  -4.786154e+04   8.735152e+04   9.836979e+09  -1.451829e+10   4.285831e+09   1.474307e+05   2.524138e-26   0.000000e+00   0.000000e+00
     2640000   2.639999e-05   4.203046e+01   1.940041e+00   3.913654e+01  -1.079015e+05  -4.901820e+04   8.769429e+04   1.002169e+10  -1.439762e+10   4.283205e+09   1.474307e+05   2.525350e-26   0.000000e+00   0.000000e+00
     2648000   2.647999e-05   4.202186e+01   1.936073e+00   3.914357e+01  -1.070924e+05  -5.016510e+04   8.803681e+04   1.020478e+10  -1.427463e+10   4.279676e+09   1.474307e+05   2.526485e-26   0.000000e+00   0.000000e+00
     2656000   2.655999e-05   4.201332e+01   1.932015e+00   3.915063e+01  -1.062687e+05  -5.130208e+04   8.837901e+04   1.038621e+10  -1.414934e+10   4.275249e+09   1.474307e+05   2.527544e-26   0.000000e+00   0.000000e+00
     2664000   2.663999e-05   4.200485e+01   1.927865e+00   3.915771e+01  -1.054306e+05  -5.242893e+04   8.872083e+04   1.056595e+10  -1.402177e+10   4.269927e+09   1.474307e+05   2.528525e-26   0.000000e+00   0.000000e+00
     2672000   2.671999e-05   4.199645e+01   1.923626e+00   3.916482e+01  -1.045773e+05  -5.354734e+04   8.906219e+04   1.077156e+10  -1.394451e+10   4.264124e+09   1.474307e+05   2.545386e-26   0.000000e+00   0.000000e+00
     2680000   2.679999e-05   4.198812e+01   1.919298e+00   3.917196e+01  -1.037086e+05  -5.465727e+04   8.940308e+04   1.094524e+10  -1.380323e+10   4.257935e+09   1.474307e+05   2.543828e-26   0.000000e+00   0.000000e+00
     2688000   2.687999e-05   4.197986e+01   1.914881e+00   3.917913e+01  -1.028261e+05  -5.575581e+04   8.974343e+04   1.111689e+10  -1.365998e+10   4.250854e+09   1.474307e+05   2.542220e-26   0.000000e+00   0.000000e+00
     2696000   2.695999e-05   4.197167e+01   1.910377e+00   3.918632e+01  -1.019299e+05  -5.684281e+04   9.008319e+04   1.128646e+10  -1.351479e+10   4.242890e+09   1.474307e+05   2.540563e-26   0.000000e+00   0.000000e+00
     2704000   2.703999e-05   4.196355e+01   1.905787e+00   3.919354e+01  -1.010203e+05  -5.791812e+04   9.042227e+04   1.145394e+10  -1.336770e+10   4.234048e+09   1.474307e+05   2.538855e-26   0.000000e+00   0.000000e+00
     2712000   2.711999e-05   4.195551e+01   1.901111e+00   3.920079e+01  -1.000976e+05  -5.898123e+04   9.076060e+04   1.159429e+10  -1.317767e+10   4.223507e+09   1.474307e+05   2.524149e-26   0.000000e+00   0.000000e+00
     2720000   2.719999e-05   4.194754e+01   1.896350e+00   3.920806e+01  -9.916401e+04  -6.002757e+04   9.109879e+04   1.175131e+10  -1.300138e+10   4.224738e+09   1.474307e+05   2.516876e-26   0.000000e+00   0.000000e+00
     2728000   2.727999e-05   4.193964e+01   1.891507e+00   3.921536e+01  -9.821722e+04  -6.106208e+04   9.143632e+04   1.191814e+10  -1.286098e+10   4.213335e+09   1.474307e+05   2.518591e-26   0.000000e+00   0.000000e+00
     2736000   2.735999e-05   4.193182e+01   1.886581e+00   3.922269e+01  -9.725716e+04  -6.208527e+04   9.177290e+04   1.208310e+10  -1.271839e+10   4.201092e+09   1.474307e+05   2.520210e-26   0.000000e+00   0.000000e+00
     2744000   2.743999e-05   4.192408e+01   1.881573e+00   3.923005e+01  -9.628398e+04  -6.309697e+04   9.210847e+04   1.224615e+10  -1.257365e+10   4.188017e+09   1.474307e+05   2.521730e-26   0.000000e+00   0.000000e+00
     2752000   2.751999e-05   4.191642e+01   1.876485e+00   3.923743e+01  -9.529783e+04  -6.409700e+04   9.244296e+04   1.240725e+10  -1.242678e+10   4.174116e+09   1.474307e+05   2.523152e-26   0.000000e+00   0.000000e+00
     2760000   2.759999e-05   4.190883e+01   1.871318e+00   3.924484e+01  -9.429887e+04  -6.508519e+04   9.277631e+04   1.256636e+10  -1.227781e+10   4.159398e+09   1.474307e+05   2.524473e-26   0.000000e+00   0.000000e+00
     2768000   2.767999e-05   4.190133e+01   1.866072e+00   3.925227e+01  -9.328726e+04  -6.606139e+04   9.310845e+04   1.272345e+10  -1.212676e+10   4.143869e+09   1.474307e+05   2.525694e-26   0.000000e+00   0.000000e+00
     2776000   2.775999e-05   4.189391e+01   1.860749e+00   3.925974e+01  -9.226975e+04  -6.701859e+04   9.343770e+04   1.277464e+10  -1.186724e+10   4.103174e+09   1.474307e+05   2.484978e-26   0.000000e+00   0.000000e+00
     2784000   2.783999e-05   4.188657e+01   1.855349e+00   3.926722e+01  -9.124201e+04  -6.796154e+04   9.376528e+04   1.291850e+10  -1.170619e+10   4.086193e+09   1.474307e+05   2.483125e-26   0.000000e+00   0.000000e+00
     2792000   2.791999e-05   4.187931e+01   1.849875e+00   3.927474e+01  -9.020285e+04  -6.889153e+04   9.409147e+04   1.306002e+10  -1.154349e+10   4.068437e+09   1.474307e+05   2.481181e-26   0.000000e+00   0.000000e+00
     2800000   2.799999e-05   4.187213e+01   1.844327e+00   3.928228e+01  -8.915247e+04  -6.980845e+04   9.441621e+04   1.319917e+10  -1.137919e+10   4.049918e+09   1.474307e+05   2.479145e-26   0.000000e+00   0.000000e+00
     2808000   2.807999e-05   4.186504e+01   1.838706e+00   3.928984e+01  -8.809105e+04  -7.071216e+04   9.473944e+04   1.333592e+10  -1.121330e+10   4.030646e+09   1.474307e+05   2.477017e-26   0.000000e+00   0.000000e+00
     2816000   2.815999e-05   4.185804e+01   1.833014e+00   3.929744e+01  -8.701879e+04  -7.160254e+04   9.506109e+04   1.347025e+10  -1.104588e+10   4.010630e+09   1.474307e+05   2.474796e-26   0.000000e+00   0.000000e+00
     2824000   2.823999e-05   4.185112e+01   1.827250e+00   3.930505e+01  -8.593089e+04  -7.248387e+04   9.538226e+04   1.369568e+10  -1.095852e+10   4.010904e+09   1.474307e+05   2.507354e-26   0.000000e+00   0.000000e+00
     2832000   2.831999e-05   4.184429e+01   1.821416e+00   3.931270e+01  -8.483009e+04  -7.335356e+04   9.570222e+04   1.382376e+10  -1.078336e+10   3.988169e+09   1.474307e+05   2.503751e-26   0.000000e+00   0.000000e+00
     2840000   2.839999e-05   4.183755e+01   1.815514e+00   3.932037e+01  -8.371915e+04  -7.420917e+04   9.602035e+04   1.394932e+10  -1.060694e+10   3.964745e+09   1.474307e+05   2.500090e-26   0.000000e+00   0.000000e+00
     2848000   2.847999e-05   4.183090e+01   1.809543e+00   3.932806e+01  -8.259827e+04  -7.505063e+04   9.633657e+04   1.407234e+10  -1.042931e+10   3.940645e+09   1.474307e+05   2.496371e-26   0.000000e+00   0.000000e+00
     2856000   2.855999e-05   4.182433e+01   1.803506e+00   3.933578e+01  -8.146765e+04  -7.587783e+04   9.665083e+04   1.419280e+10  -1.025049e+10   3.915879e+09   1.474307e+05   2.492595e-26   0.000000e+00   0.000000e+00
     2864000   2.863999e-05   4.181786e+01   1.797403e+00   3.934353e+01  -8.032942e+04  -7.668922e+04   9.696264e+04   1.425598e+10  -1.003021e+10   3.877463e+09   1.474307e+05   2.469597e-26   0.000000e+00   0.000000e+00
     2872000   2.871999e-05   4.181148e+01   1.791236e+00   3.935129e+01  -7.918388e+04  -7.748489e+04   9.727184e+04   1.438221e+10  -9.861318e+09   3.852495e+09   1.474307e+05   2.470081e-26   0.000000e+00   0.000000e+00
     2880000   2.879999e-05   4.180519e+01   1.785006e+00   3.935909e+01  -7.802833e+04  -7.826699e+04   9.757902e+04   1.450611e+10  -9.690827e+09   3.826838e+09   1.474307e+05   2.470459e-26   0.000000e+00   0.000000e+00
     2888000   2.887999e-05   4.179900e+01   1.778714e+00   3.936691e+01  -7.686245e+04  -7.903540e+04   9.788450e+04   1.466596e+10  -9.519864e+09   3.829602e+09   1.474307e+05   2.481301e-26   0.000000e+00   0.000000e+00
     2896000   2.895999e-05   4.179289e+01   1.772361e+00   3.937475e+01  -7.568466e+04  -7.978983e+04   9.818972e+04   1.477842e+10  -9.340673e+09   3.800928e+09   1.474307e+05   2.479077e-26   0.000000e+00   0.000000e+00
     2904000   2.903999e-05   4.178689e+01   1.765948e+00   3.938262e+01  -7.449798e+04  -8.052987e+04   9.849263e+04   1.488832e+10  -9.160240e+09   3.771652e+09   1.474307e+05   2.476758e-26   0.000000e+00   0.000000e+00
     2912000   2.911999e-05   4.178098e+01   1.759476e+00   3.939051e+01  -7.330260e+04  -8.125543e+04   9.879317e+04   1.499565e+10  -8.978601e+09   3.741786e+09   1.474307e+05   2.474343e-26   0.000000e+00   0.000000e+00
     2920000   2.919999e-05   4.177516e+01   1.752947e+00   3.939842e+01  -7.209874e+04  -8.196642e+04   9.909130e+04   1.510038e+10  -8.795792e+09   3.711345e+09   1.474307e+05   2.471833e-26   0.000000e+00   0.000000e+00
     2928000   2.927999e-05   4.176944e+01   1.746362e+00   3.940636e+01  -7.088612e+04  -8.266487e+04   9.938554e+04   1.520899e+10  -8.643157e+09   3.658723e+09   1.474307e+05   2.473710e-26   0.000000e+00   0.000000e+00
     2936000   2.935999e-05   4.176382e+01   1.739722e+00   3.941433e+01  -6.966552e+04  -8.334872e+04   9.967705e+04   1.530570e+10  -8.453028e+09   3.629053e+09   1.474307e+05   2.469715e-26   0.000000e+00   0.000000e+00
     2944000   2.943999e-05   4.175829e+01   1.733027e+00   3.942231e+01  -6.843728e+04  -8.401733e+04   9.996617e+04   1.539961e+10  -8.261987e+09   3.598827e+09   1.474307e+05   2.465627e-26   0.000000e+00   0.000000e+00
     2952000   2.951999e-05   4.175287e+01   1.726279e+00   3.943032e+01  -6.720165e+04  -8.467061e+04   1.002529e+05   1.549074e+10  -8.070076e+09   3.568060e+09   1.474307e+05   2.461445e-26   0.000000e+00   0.000000e+00
     2960000   2.959999e-05   4.174754e+01   1.719480e+00   3.943835e+01  -6.595884e+04  -8.530851e+04   1.005370e+05   1.557906e+10  -7.877337e+09   3.536766e+09   1.474307e+05   2.457171e-26   0.000000e+00   0.000000e+00
     2968000   2.967999e-05   4.174231e+01   1.712630e+00   3.944641e+01  -6.470908e+04  -8.593096e+04   1.008187e+05   1.566457e+10  -7.683813e+09   3.504958e+09   1.474307e+05   2.452804e-26   0.000000e+00   0.000000e+00
     2976000   2.975999e-05   4.173719e+01   1.705731e+00   3.945448e+01  -6.345258e+04  -8.653790e+04   1.010978e+05   1.574725e+10  -7.489545e+09   3.472652e+09   1.474307e+05   2.448345e-26   0.000000e+00   0.000000e+00
     2984000   2.983999e-05   4.173216e+01   1.698785e+00   3.946258e+01  -6.219044e+04  -8.712854e+04   1.013744e+05   1.576672e+10  -7.242982e+09   3.447339e+09   1.474307e+05   2.423607e-26   0.000000e+00   0.000000e+00
     2992000   2.991999e-05   4.172724e+01   1.691791e+00   3.947070e+01  -6.092585e+04  -8.770042e+04   1.016488e+05   1.584753e+10  -7.053874e+09   3.412724e+09   1.474307e+05   2.420613e-26   0.000000e+00   0.000000e+00
     3000000   2.999999e-05   4.172241e+01   1.684753e+00   3.947885e+01  -5.965491e+04  -8.825714e+04   1.019205e+05   1.592553e+10  -6.863849e+09   3.377686e+09   1.474307e+05   2.417482e-26   0.000000e+00   0.000000e+00
     3008000   3.007999e-05   4.171769e+01   1.677671e+00   3.948701e+01  -5.837784e+04  -8.879861e+04   1.021893e+05   1.600071e+10  -6.672953e+09   3.342239e+09   1.474307e+05   2.414213e-26   0.000000e+00   0.000000e+00
     3016000   3.015999e-05   4.171307e+01   1.670546e+00   3.949520e+01  -5.709487e+04  -8.932479e+04   1.024552e+05   1.607306e+10  -6.481230e+09   3.306399e+09   1.474307e+05   2.410807e-26   0.000000e+00   0.000000e+00
     3024000   3.023999e-05   4.170856e+01   1.663379e+00   3.950340e+01  -5.580513e+04  -8.983640e+04   1.027182e+05   1.617616e+10  -6.313088e+09   3.266911e+09   1.474307e+05   2.417888e-26   0.000000e+00   0.000000e+00
     3032000   3.031999e-05   4.170415e+01   1.656172e+00   3.951163e+01  -5.450821e+04  -9.033369e+04   1.029781e+05   1.624635e+10  -6.118936e+09   3.231913e+09   1.474307e+05   2.415056e-26   0.000000e+00   0.000000e+00
     3040000   3.039999e-05   4.169984e+01   1.648926e+00   3.951988e+01  -5.320596e+04  -9.081532e+04   1.032352e+05   1.625731e+10  -5.896109e+09   3.192051e+09   1.474307e+05   2.395099e-26   0.000000e+00   0.000000e+00
     3048000   3.047999e-05   4.169563e+01   1.641642e+00   3.952815e+01  -5.190268e+04  -9.127930e+04   1.034892e+05   1.632442e+10  -5.703212e+09   3.156841e+09   1.474307e+05   2.392972e-26   0.000000e+00   0.000000e+00
     3056000   3.055999e-05   4.169153e+01   1.634322e+00   3.953644e+01  -5.059413e+04  -9.172782e+04   1.037403e+05   1.638881e+10  -5.509554e+09   3.121266e+09   1.474307e+05   2.390738e-26   0.000000e+00   0.000000e+00
     3064000   3.063999e-05   4.168754e+01   1.626966e+00   3.954475e+01  -4.928054e+04  -9.216081e+04   1.039886e+05   1.645046e+10  -5.315172e+09   3.085341e+09   1.474307e+05   2.388397e-26   0.000000e+00   0.000000e+00
     3072000   3.071999e-05   4.168365e+01   1.619576e+00   3.955308e+01  -4.796213e+04  -9.257822e+04   1.042340e+05   1.650938e+10  -5.120108e+09   3.049080e+09   1.474307e+05   2.385949e-26   0.000000e+00   0.000000e+00
     3080000   3.079999e-05   4.167986e+01   1.612154e+00   3.956142e+01  -4.663911e+04  -9.298001e+04   1.044764e+05   1.656555e+10  -4.924400e+09   3.012495e+09   1.474307e+05   2.383394e-26   0.000000e+00   0.000000e+00
     3088000   3.087999e-05   4.167619e+01   1.604700e+00   3.956979e+01  -4.531171e+04  -9.336611e+04   1.047160e+05   1.661895e+10  -4.728090e+09   2.975600e+09   1.474307e+05   2.380733e-26   0.000000e+00   0.000000e+00
     3096000   3.095999e-05   4.167261e+01   1.597216e+00   3.957818e+01  -4.397844e+04  -9.373665e+04   1.049531e+05   1.672441e+10  -4.535464e+09   2.957296e+09   1.474307e+05   2.393306e-26   0.000000e+00   0.000000e+00
     3104000   3.103999e-05   4.166915e+01   1.589703e+00   3.958658e+01  -4.263914e+04  -9.409130e+04   1.051881e+05   1.675766e+10  -4.330630e+09   2.919157e+09   1.474307e+05   2.386127e-26   0.000000e+00   0.000000e+00
     3112000   3.111999e-05   4.166579e+01   1.582162e+00   3.959501e+01  -4.129730e+04  -9.442955e+04   1.054201e+05   1.678794e+10  -4.125911e+09   2.880776e+09   1.474307e+05   2.378862e-26   0.000000e+00   0.000000e+00
     3120000   3.119999e-05   4.166254e+01   1.574594e+00   3.960345e+01  -3.995309e+04  -9.475230e+04   1.056483e+05   1.681612e+10  -3.947373e+09   2.819129e+09   1.474307e+05   2.372311e-26   0.000000e+00   0.000000e+00
     3128000   3.127999e-05   4.165940e+01   1.567002e+00   3.961191e+01  -3.860698e+04  -9.505990e+04   1.058722e+05   1.683613e+10  -3.742725e+09   2.778936e+09   1.474307e+05   2.363596e-26   0.000000e+00   0.000000e+00
     3136000   3.135999e-05   4.165636e+01   1.559385e+00   3.962039e+01  -3.725939e+04  -9.535114e+04   1.060929e+05   1.685320e+10  -3.538500e+09   2.738569e+09   1.474307e+05   2.354808e-26   0.000000e+00   0.000000e+00
     3144000   3.143999e-05   4.165344e+01   1.551746e+00   3.962889e+01  -3.591055e+04  -9.562607e+04   1.063104e+05   1.686734e+10  -3.334740e+09   2.698046e+09   1.474307e+05   2.345948e-26   0.000000e+00   0.000000e+00
     3152000   3.151999e-05   4.165062e+01   1.544085e+00   3.963740e+01  -3.456069e+04  -9.588471e+04   1.065246e+05   1.687858e+10  -3.131485e+09   2.657384e+09   1.474307e+05   2.337020e-26   0.000000e+00   0.000000e+00
     3160000   3.159999e-05   4.164791e+01   1.536405e+00   3.964593e+01  -3.321005e+04  -9.612712e+04   1.067356e+05   1.688693e+10  -2.928774e+09   2.616598e+09   1.474307e+05   2.328023e-26   0.000000e+00   0.000000e+00
     3168000   3.167999e-05   4.164531e+01   1.528705e+00   3.965448e+01  -3.185886e+04  -9.635333e+04   1.069433e+05   1.689241e+10  -2.726647e+09   2.575705e+09   1.474307e+05   2.318959e-26   0.000000e+00   0.000000e+00
     3176000   3.175999e-05   4.164281e+01   1.520989e+00   3.966304e+01  -3.050734e+04  -9.656339e+04   1.071477e+05   1.689504e+10  -2.525142e+09   2.534721e+09   1.474307e+05   2.309831e-26   0.000000e+00   0.000000e+00
     3184000   3.183999e-05   4.164042e+01   1.513256e+00   3.967162e+01  -2.915573e+04  -9.675737e+04   1.073488e+05   1.689486e+10  -2.324299e+09   2.493662e+09   1.474307e+05   2.300639e-26   0.000000e+00   0.000000e+00
     3192000   3.191999e-05   4.163815e+01   1.505508e+00   3.968022e+01  -2.780424e+04  -9.693530e+04   1.075467e+05   1.689186e+10  -2.124154e+09   2.452544e+09   1.474307e+05   2.291386e-26   0.000000e+00   0.000000e+00
     3200000   3.199999e-05   4.163598e+01   1.497747e+00   3.968883e+01  -2.645187e+04  -9.709733e+04   1.077415e+05   1.694124e+10  -1.928735e+09   2.421124e+09   1.474307e+05   2.297004e-26   0.000000e+00   0.000000e+00
     3208000   3.207999e-05   4.163391e+01   1.489973e+00   3.969746e+01  -2.509634e+04  -9.724379e+04   1.079335e+05   1.694667e+10  -1.732790e+09   2.379235e+09   1.474307e+05   2.291314e-26   0.000000e+00   0.000000e+00
     3216000   3.215999e-05   4.163196e+01   1.482188e+00   3.970610e+01  -2.374712e+04  -9.737321e+04   1.081219e+05   1.683169e+10  -1.513696e+09   2.333604e+09   1.474307e+05   2.254062e-26   0.000000e+00   0.000000e+00
     3224000   3.223999e-05   4.163011e+01   1.474394e+00   3.971476e+01  -2.240056e+04  -9.748659e+04   1.083070e+05   1.683172e+10  -1.320674e+09   2.292511e+09   1.474307e+05   2.248359e-26   0.000000e+00   0.000000e+00
     3232000   3.231999e-05   4.162838e+01   1.466591e+00   3.972343e+01  -2.105412e+04  -9.758453e+04   1.084887e+05   1.682895e+10  -1.127931e+09   2.251414e+09   1.474307e+05   2.242536e-26   0.000000e+00   0.000000e+00
     3240000   3.239999e-05   4.162675e+01   1.458780e+00   3.973211e+01  -1.970801e+04  -9.766706e+04   1.086672e+05   1.682340e+10  -9.355121e+08   2.210325e+09   1.474307e+05   2.236594e-26   0.000000e+00   0.000000e+00
     3248000   3.247999e-05   4.162522e+01   1.450964e+00   3.974081e+01  -1.836245e+04  -9.773422e+04   1.088424e+05   1.681506e+10  -7.434607e+08   2.169257e+09   1.474307e+05   2.230533e-26   0.000000e+00   0.000000e+00
     3256000   3.255999e-05   4.162381e+01   1.443143e+00   3.974953e+01  -1.701767e+04  -9.778602e+04   1.090143e+05   1.680397e+10  -5.518209e+08   2.128225e+09   1.474307e+05   2.224356e-26   0.000000e+00   0.000000e+00
     3264000   3.263999e-05   4.162250e+01   1.435319e+00   3.975826e+01  -1.567389e+04  -9.782252e+04   1.091829e+05   1.679012e+10  -3.606363e+08   2.087241e+09   1.474307e+05   2.218065e-26   0.000000e+00   0.000000e+00
     3272000   3.271999e-05   4.162130e+01   1.427492e+00   3.976700e+01  -1.433132e+04  -9.784374e+04   1.093482e+05   1.677354e+10  -1.699501e+08   2.046319e+09   1.474307e+05   2.211660e-26   0.000000e+00   0.000000e+00
     3280000   3.279999e-05   4.162021e+01   1.419664e+00   3.977575e+01  -1.299019e+04  -9.784972e+04   1.095103e+05   1.675423e+10   2.019476e+07   2.005470e+09   1.474307e+05   2.205143e-26   0.000000e+00   0.000000e+00
     3288000   3.287999e-05   4.161922e+01   1.411837e+00   3.978452e+01  -1.165072e+04  -9.784052e+04   1.096691e+05   1.673221e+10   2.097555e+08   1.964707e+09   1.474307e+05   2.198517e-26   0.000000e+00   0.000000e+00
     3296000   3.295999e-05   4.161834e+01   1.404010e+00   3.979330e+01  -1.031311e+04  -9.781618e+04   1.098247e+05   1.670750e+10   3.986900e+08   1.924044e+09   1.474307e+05   2.191782e-26   0.000000e+00   0.000000e+00
     3304000   3.303999e-05   4.161757e+01   1.396186e+00   3.980209e+01  -8.975373e+03  -9.777705e+04   1.099769e+05   1.669645e+10   5.850944e+08   1.882837e+09   1.474307e+05   2.189132e-26   0.000000e+00   0.000000e+00
     3312000   3.311999e-05   4.161691e+01   1.388366e+00   3.981089e+01  -7.641215e+03  -9.772268e+04   1.101259e+05   1.665706e+10   7.741719e+08   1.842774e+09   1.474307e+05   2.179790e-26   0.000000e+00   0.000000e+00
     3320000   3.319999e-05   4.161635e+01   1.380551e+00   3.981971e+01  -6.310310e+03  -9.765322e+04   1.102717e+05   1.661515e+10   9.621258e+08   1.802858e+09   1.474307e+05   2.170392e-26   0.000000e+00   0.000000e+00
     3328000   3.327999e-05   4.161590e+01   1.372742e+00   3.982854e+01  -4.982858e+03  -9.756876e+04   1.104143e+05   1.657076e+10   1.148922e+09   1.763100e+09   1.474307e+05   2.160939e-26   0.000000e+00   0.000000e+00
     3336000   3.335999e-05   4.161555e+01   1.364941e+00   3.983738e+01  -3.659054e+03  -9.746942e+04   1.105538e+05   1.652392e+10   1.334529e+09   1.723509e+09   1.474307e+05   2.151433e-26   0.000000e+00   0.000000e+00
     3344000   3.343999e-05   4.161531e+01   1.357147e+00   3.984623e+01  -2.339095e+03  -9.735527e+04   1.106901e+05   1.647465e+10   1.518913e+09   1.684096e+09   1.474307e+05   2.141877e-26   0.000000e+00   0.000000e+00
     3352000   3.351999e-05   4.161518e+01   1.349364e+00   3.985509e+01  -1.023174e+03  -9.722642e+04   1.108233e+05   1.642300e+10   1.702043e+09   1.644870e+09   1.474307e+05   2.132272e-26   0.000000e+00   0.000000e+00
     3360000   3.359999e-05   4.161515e+01   1.341592e+00   3.986396e+01   2.885205e+02  -9.708298e+04   1.109533e+05   1.636898e+10   1.883889e+09   1.605843e+09   1.474307e+05   2.122621e-26   0.000000e+00   0.000000e+00
     3368000   3.367999e-05   4.161522e+01   1.333831e+00   3.987284e+01   1.595800e+03  -9.692503e+04   1.110802e+05   1.631263e+10   2.064420e+09   1.567021e+09   1.474307e+05   2.112924e-26   0.000000e+00   0.000000e+00
     3376000   3.375999e-05   4.161540e+01   1.326084e+00   3.988173e+01   2.898479e+03  -9.675270e+04   1.112040e+05   1.625398e+10   2.243607e+09   1.528416e+09   1.474307e+05   2.103185e-26   0.000000e+00   0.000000e+00
     3384000   3.383999e-05   4.161569e+01   1.318351e+00   3.989063e+01   4.196375e+03  -9.656609e+04   1.113248e+05   1.619306e+10   2.421421e+09   1.490035e+09   1.474307e+05   2.093404e-26   0.000000e+00   0.000000e+00
     3392000   3.391999e-05   4.161607e+01   1.310634e+00   3.989954e+01   5.489308e+03  -9.636531e+04   1.114424e+05   1.612991e+10   2.597835e+09   1.451887e+09   1.474307e+05   2.083585e-26   0.000000e+00   0.000000e+00
     3400000   3.399999e-05   4.161656e+01   1.302933e+00   3.990846e+01   6.778101e+03  -9.615037e+04   1.115571e+05   1.607924e+10   2.774829e+09   1.414673e+09   1.474307e+05   2.077484e-26   0.000000e+00   0.000000e+00
     3408000   3.407999e-05   4.161716e+01   1.295250e+00   3.991739e+01   8.061189e+03  -9.592140e+04   1.116688e+05   1.600243e+10   2.949177e+09   1.378122e+09   1.474307e+05   2.065337e-26   0.000000e+00   0.000000e+00
     3416000   3.415999e-05   4.161785e+01   1.287586e+00   3.992633e+01   9.338933e+03  -9.567851e+04   1.117776e+05   1.594082e+10   3.122873e+09   1.341273e+09   1.474307e+05   2.057486e-26   0.000000e+00   0.000000e+00
     3424000   3.423999e-05   4.161865e+01   1.279942e+00   3.993528e+01   1.061166e+04  -9.542178e+04   1.118834e+05   1.587701e+10   3.295368e+09   1.304671e+09   1.474307e+05   2.049588e-26   0.000000e+00   0.000000e+00
     3432000   3.431999e-05   4.161955e+01   1.272319e+00   3.994423e+01   1.187920e+04  -9.515129e+04   1.119863e+05   1.581105e+10   3.466637e+09   1.268325e+09   1.474307e+05   2.041644e-26   0.000000e+00   0.000000e+00
     3440000   3.439999e-05   4.162055e+01   1.264718e+00   3.995319e+01   1.314137e+04  -9.486714e+04   1.120864e+05   1.574295e+10   3.636652e+09   1.232242e+09   1.474307e+05   2.033656e-26   0.000000e+00   0.000000e+00
     3448000   3.447999e-05   4.162165e+01   1.257141e+00   3.996216e+01   1.439801e+04  -9.456945e+04   1.121835e+05   1.567274e+10   3.805386e+09   1.196428e+09   1.474307e+05   2.025626e-26   0.000000e+00   0.000000e+00
     3456000   3.455999e-05   4.162286e+01   1.249587e+00   3.997114e+01   1.564895e+04  -9.425832e+04   1.122778e+05   1.560046e+10   3.972812e+09   1.160892e+09   1.474307e+05   2.017555e-26   0.000000e+00   0.000000e+00
     3464000   3.463999e-05   4.162416e+01   1.242060e+00   3.998013e+01   1.689403e+04  -9.393384e+04   1.123693e+05   1.552612e+10   4.138907e+09   1.125639e+09   1.474307e+05   2.009446e-26   0.000000e+00   0.000000e+00
     3472000   3.471999e-05   4.162556e+01   1.234558e+00   3.998912e+01   1.813308e+04  -9.359613e+04   1.124579e+05   1.544976e+10   4.303643e+09   1.090676e+09   1.474307e+05   2.001299e-26   0.000000e+00   0.000000e+00
     3480000   3.479999e-05   4.162706e+01   1.227085e+00   3.999812e+01   1.936594e+04  -9.324529e+04   1.125438e+05   1.537141e+10   4.466998e+09   1.056009e+09   1.474307e+05   1.993116e-26   0.000000e+00   0.000000e+00
     3488000   3.487999e-05   4.162866e+01   1.219639e+00   4.000713e+01   2.059400e+04  -9.288121e+04   1.126268e+05   1.531433e+10   4.632657e+09   1.020236e+09   1.474307e+05   1.990651e-26   0.000000e+00   0.000000e+00
     3496000   3.495999e-05   4.163035e+01   1.212224e+00   4.001614e+01   2.181575e+04  -9.250416e+04   1.127070e+05   1.522901e+10   4.793182e+09   9.862706e+08   1.474307e+05   1.981657e-26   0.000000e+00   0.000000e+00
     3504000   3.503999e-05   4.163215e+01   1.204839e+00   4.002516e+01   2.303059e+04  -9.211434e+04   1.127846e+05   1.514185e+10   4.952163e+09   9.526305e+08   1.474307e+05   1.972650e-26   0.000000e+00   0.000000e+00
     3512000   3.511999e-05   4.163404e+01   1.197486e+00   4.003419e+01   2.423903e+04  -9.171169e+04   1.128595e+05   1.507601e+10   5.115811e+09   9.193226e+08   1.474307e+05   1.969520e-26   0.000000e+00   0.000000e+00
     3520000   3.519999e-05   4.163603e+01   1.190166e+00   4.004322e+01   2.544146e+04  -9.129617e+04   1.129317e+05   1.498458e+10   5.271952e+09   8.862169e+08   1.474307e+05   1.960331e-26   0.000000e+00   0.000000e+00
     3528000   3.527999e-05   4.163811e+01   1.182879e+00   4.005226e+01   2.663652e+04  -9.086822e+04   1.130013e+05   1.489148e+10   5.426462e+09   8.534261e+08   1.474307e+05   1.951151e-26   0.000000e+00   0.000000e+00
     3536000   3.535999e-05   4.164029e+01   1.175627e+00   4.006130e+01   2.782406e+04  -9.042798e+04   1.130682e+05   1.479676e+10   5.579328e+09   8.209543e+08   1.474307e+05   1.941981e-26   0.000000e+00   0.000000e+00
     3544000   3.543999e-05   4.164256e+01   1.168411e+00   4.007035e+01   2.900396e+04  -8.997557e+04   1.131326e+05   1.470045e+10   5.730538e+09   7.888052e+08   1.474307e+05   1.932824e-26   0.000000e+00   0.000000e+00
     3552000   3.551999e-05   4.164493e+01   1.161231e+00   4.007940e+01   3.017609e+04  -8.951113e+04   1.131945e+05   1.460259e+10   5.880081e+09   7.569823e+08   1.474307e+05   1.923679e-26   0.000000e+00   0.000000e+00
     3560000   3.559999e-05   4.164739e+01   1.154089e+00   4.008846e+01   3.134033e+04  -8.903480e+04   1.132538e+05   1.450320e+10   6.027944e+09   7.254889e+08   1.474307e+05   1.914550e-26   0.000000e+00   0.000000e+00
     3568000   3.567999e-05   4.164994e+01   1.146986e+00   4.009752e+01   3.249656e+04  -8.854671e+04   1.133106e+05   1.440231e+10   6.174117e+09   6.943278e+08   1.474308e+05   1.905436e-26   0.000000e+00   0.000000e+00
     3576000   3.575999e-05   4.165259e+01   1.139922e+00   4.010659e+01   3.364331e+04  -8.804750e+04   1.133649e+05   1.427657e+10   6.308858e+09   6.630839e+08   1.474308e+05   1.890206e-26   0.000000e+00   0.000000e+00
     3584000   3.583999e-05   4.165533e+01   1.132899e+00   4.011566e+01   3.478127e+04  -8.753716e+04   1.134166e+05   1.417206e+10   6.449368e+09   6.316487e+08   1.474308e+05   1.880748e-26   0.000000e+00   0.000000e+00
     3592000   3.591999e-05   4.165815e+01   1.125916e+00   4.012474e+01   3.591081e+04  -8.701565e+04   1.134659e+05   1.406617e+10   6.588104e+09   6.005609e+08   1.474308e+05   1.871301e-26   0.000000e+00   0.000000e+00
     3600000   3.599999e-05   4.166107e+01   1.118976e+00   4.013381e+01   3.703182e+04  -8.648311e+04   1.135127e+05   1.395892e+10   6.725058e+09   5.698231e+08   1.474308e+05   1.861865e-26   0.000000e+00   0.000000e+00
     3608000   3.607999e-05   4.166408e+01   1.112079e+00   4.014290e+01   3.814420e+04  -8.593969e+04   1.135571e+05   1.385035e+10   6.860221e+09   5.394378e+08   1.474308e+05   1.852443e-26   0.000000e+00   0.000000e+00
     3616000   3.615999e-05   4.166717e+01   1.105226e+00   4.015198e+01   3.924784e+04  -8.538552e+04   1.135991e+05   1.374051e+10   6.993586e+09   5.094071e+08   1.474308e+05   1.843036e-26   0.000000e+00   0.000000e+00
     3624000   3.623999e-05   4.167036e+01   1.098418e+00   4.016107e+01   4.034048e+04  -8.482188e+04   1.136386e+05   1.351330e+10   7.064480e+09   4.759989e+08   1.474308e+05   1.802542e-26   0.000000e+00   0.000000e+00
     3632000   3.631999e-05   4.167363e+01   1.091655e+00   4.017017e+01   4.141703e+04  -8.425170e+04   1.136755e+05   1.340011e+10   7.189679e+09   4.464663e+08   1.474308e+05   1.792560e-26   0.000000e+00   0.000000e+00
     3640000   3.639999e-05   4.167698e+01   1.084938e+00   4.017926e+01   4.248447e+04  -8.367158e+04   1.137100e+05   1.328572e+10   7.312883e+09   4.172559e+08   1.474308e+05   1.782560e-26   0.000000e+00   0.000000e+00
     3648000   3.647999e-05   4.168042e+01   1.078268e+00   4.018836e+01   4.354271e+04  -8.308169e+04   1.137422e+05   1.317016e+10   7.434082e+09   3.883698e+08   1.474308e+05   1.772545e-26   0.000000e+00   0.000000e+00
     3656000   3.655999e-05   4.168395e+01   1.071645e+00   4.019746e+01   4.459166e+04  -8.248218e+04   1.137721e+05   1.305347e+10   7.553268e+09   3.598094e+08   1.474308e+05   1.762515e-26   0.000000e+00   0.000000e+00
     3664000   3.663999e-05   4.168756e+01   1.065071e+00   4.020656e+01   4.563838e+04  -8.186891e+04   1.138000e+05   1.306295e+10   7.749229e+09   3.361292e+08   1.474308e+05   1.787527e-26   0.000000e+00   0.000000e+00
     3672000   3.671999e-05   4.169125e+01   1.058546e+00   4.021567e+01   4.667903e+04  -8.124389e+04   1.138259e+05   1.295317e+10   7.875964e+09   3.095516e+08   1.474308e+05   1.780612e-26   0.000000e+00   0.000000e+00
     3680000   3.679999e-05   4.169503e+01   1.052072e+00   4.022477e+01   4.771085e+04  -8.060880e+04   1.138496e+05   1.284214e+10   8.001144e+09   2.833156e+08   1.474308e+05   1.773703e-26   0.000000e+00   0.000000e+00
     3688000   3.687999e-05   4.169889e+01   1.045649e+00   4.023388e+01   4.873374e+04  -7.996375e+04   1.138712e+05   1.272990e+10   8.124759e+09   2.574219e+08   1.474308e+05   1.766804e-26   0.000000e+00   0.000000e+00
     3696000   3.695999e-05   4.170282e+01   1.039278e+00   4.024299e+01   4.974642e+04  -7.930927e+04   1.138910e+05   1.259123e+10   8.237009e+09   2.362327e+08   1.474308e+05   1.753754e-26   0.000000e+00   0.000000e+00
     3704000   3.703999e-05   4.170684e+01   1.032960e+00   4.025211e+01   5.074864e+04  -7.864582e+04   1.139089e+05   1.246417e+10   8.348934e+09   2.113227e+08   1.474308e+05   1.743388e-26   0.000000e+00   0.000000e+00
     3712000   3.711999e-05   4.171094e+01   1.026695e+00   4.026122e+01   5.174066e+04  -7.797349e+04   1.139248e+05   1.233629e+10   8.458857e+09   1.867991e+08   1.474308e+05   1.733060e-26   0.000000e+00   0.000000e+00
     3720000   3.719999e-05   4.171512e+01   1.020485e+00   4.027033e+01   5.272243e+04  -7.729245e+04   1.139388e+05   1.220764e+10   8.566780e+09   1.626609e+08   1.474308e+05   1.722770e-26   0.000000e+00   0.000000e+00
     3728000   3.727999e-05   4.171938e+01   1.014329e+00   4.027945e+01   5.369387e+04  -7.660286e+04   1.139509e+05   1.207825e+10   8.672705e+09   1.389070e+08   1.474308e+05   1.712520e-26   0.000000e+00   0.000000e+00
     3736000   3.735999e-05   4.172371e+01   1.008228e+00   4.028857e+01   5.465492e+04  -7.590487e+04   1.139610e+05   1.194815e+10   8.776637e+09   1.155361e+08   1.474308e+05   1.702311e-26   0.000000e+00   0.000000e+00
     3744000   3.743999e-05   4.172812e+01   1.002184e+00   4.029768e+01   5.560555e+04  -7.519865e+04   1.139694e+05   1.181738e+10   8.878580e+09   9.254680e+07   1.474308e+05   1.692144e-26   0.000000e+00   0.000000e+00
     3752000   3.751999e-05   4.173261e+01   9.961967e-01   4.030680e+01   5.654567e+04  -7.448460e+04   1.139757e+05   1.168619e+10   8.974505e+09   6.721562e+07   1.474308e+05   1.681496e-26   0.000000e+00   0.000000e+00
     3760000   3.759999e-05   4.173717e+01   9.902668e-01   4.031592e+01   5.747550e+04  -7.376258e+04   1.139802e+05   1.155938e+10   9.075862e+09   4.457008e+07   1.474308e+05   1.672815e-26   0.000000e+00   0.000000e+00
     3768000   3.767999e-05   4.174181e+01   9.843949e-01   4.032504e+01   5.839515e+04  -7.303251e+04   1.139828e+05   1.143183e+10   9.175329e+09   2.224711e+07   1.474308e+05   1.664153e-26   0.000000e+00   0.000000e+00
     3776000   3.775999e-05   4.174651e+01   9.785818e-01   4.033416e+01   5.930458e+04  -7.229457e+04   1.139837e+05   1.130360e+10   9.272906e+09   2.446018e+05   1.474308e+05   1.655510e-26   0.000000e+00   0.000000e+00
     3784000   3.783999e-05   4.175129e+01   9.728280e-01   4.034328e+01   6.020371e+04  -7.154890e+04   1.139829e+05   1.117470e+10   9.368592e+09  -2.143972e+07   1.474308e+05   1.646889e-26   0.000000e+00   0.000000e+00
     3792000   3.791999e-05   4.175615e+01   9.671342e-01   4.035239e+01   6.109251e+04  -7.079565e+04   1.139803e+05   1.104517e+10   9.462388e+09  -4.280827e+07   1.474308e+05   1.638289e-26   0.000000e+00   0.000000e+00
     3800000   3.799999e-05   4.176107e+01   9.615009e-01   4.036151e+01   6.197092e+04  -7.003497e+04   1.139760e+05   1.091505e+10   9.554294e+09  -6.386357e+07   1.474308e+05   1.629711e-26   0.000000e+00   0.000000e+00
     3808000   3.807999e-05   4.176606e+01   9.559288e-01   4.037063e+01   6.283890e+04  -6.926701e+04   1.139701e+05   1.078437e+10   9.644313e+09  -8.460828e+07   1.474308e+05   1.621157e-26   0.000000e+00   0.000000e+00
     3816000   3.815999e-05   4.177112e+01   9.504184e-01   4.037975e+01   6.369640e+04  -6.849193e+04   1.139625e+05   1.065315e+10   9.732447e+09  -1.050452e+08   1.474308e+05   1.612628e-26   0.000000e+00   0.000000e+00
     3824000   3.823999e-05   4.177625e+01   9.449703e-01   4.038886e+01   6.454339e+04  -6.770987e+04   1.139533e+05   1.052143e+10   9.818697e+09  -1.251772e+08   1.474308e+05   1.604124e-26   0.000000e+00   0.000000e+00
     3832000   3.831999e-05   4.178145e+01   9.395850e-01   4.039798e+01   6.537982e+04  -6.692098e+04   1.139425e+05   1.038925e+10   9.903067e+09  -1.450074e+08   1.474308e+05   1.595645e-26   0.000000e+00   0.000000e+00
     3840000   3.839999e-05   4.178671e+01   9.342631e-01   4.040709e+01   6.620745e+04  -6.612380e+04   1.139300e+05   1.028652e+10   1.001301e+10  -1.662794e+08   1.474308e+05   1.596204e-26   0.000000e+00   0.000000e+00
     3848000   3.847999e-05   4.179204e+01   9.290054e-01   4.041621e+01   6.702516e+04  -6.531938e+04   1.139159e+05   1.015615e+10   1.009696e+10  -1.859991e+08   1.474308e+05   1.588693e-26   0.000000e+00   0.000000e+00
     3856000   3.855999e-05   4.179744e+01   9.238122e-01   4.042532e+01   6.783242e+04  -6.450833e+04   1.139003e+05   1.002534e+10   1.017918e+10  -2.054390e+08   1.474308e+05   1.581217e-26   0.000000e+00   0.000000e+00
     3864000   3.863999e-05   4.180290e+01   9.186842e-01   4.043443e+01   6.862922e+04  -6.369062e+04   1.138831e+05   9.895214e+09   1.026389e+10  -2.229077e+08   1.474308e+05   1.574610e-26   0.000000e+00   0.000000e+00
     3872000   3.871999e-05   4.180842e+01   9.136219e-01   4.044354e+01   6.941569e+04  -6.286622e+04   1.138645e+05   9.766687e+09   1.034586e+10  -2.419895e+08   1.474308e+05   1.568192e-26   0.000000e+00   0.000000e+00
     3880000   3.879999e-05   4.181400e+01   9.086258e-01   4.045265e+01   7.019187e+04  -6.203532e+04   1.138444e+05   9.637731e+09   1.042629e+10  -2.607967e+08   1.474308e+05   1.561824e-26   0.000000e+00   0.000000e+00
     3888000   3.887999e-05   4.181965e+01   9.036964e-01   4.046176e+01   7.095772e+04  -6.119805e+04   1.138228e+05   9.508369e+09   1.050517e+10  -2.793325e+08   1.474308e+05   1.555506e-26   0.000000e+00   0.000000e+00
     3896000   3.895999e-05   4.182535e+01   8.988343e-01   4.047086e+01   7.171249e+04  -6.035527e+04   1.137998e+05   9.341464e+09   1.054431e+10  -2.943177e+08   1.474308e+05   1.537587e-26   0.000000e+00   0.000000e+00
     3904000   3.903999e-05   4.183112e+01   8.940397e-01   4.047997e+01   7.245457e+04  -5.950874e+04   1.137756e+05   9.210465e+09   1.061860e+10  -3.114781e+08   1.474308e+05   1.531023e-26   0.000000e+00   0.000000e+00
     3912000   3.911999e-05   4.183695e+01   8.893130e-01   4.048907e+01   7.318615e+04  -5.865633e+04   1.137500e+05   9.079041e+09   1.069123e+10  -3.283512e+08   1.474308e+05   1.524477e-26   0.000000e+00   0.000000e+00
     3920000   3.919999e-05   4.184283e+01   8.846548e-01   4.049817e+01   7.390720e+04  -5.779819e+04   1.137230e+05   8.947221e+09   1.076218e+10  -3.449401e+08   1.474308e+05   1.517949e-26   0.000000e+00   0.000000e+00
     3928000   3.927999e-05   4.184877e+01   8.800654e-01   4.050726e+01   7.461798e+04  -5.693490e+04   1.136944e+05   8.818363e+09   1.082181e+10  -3.682470e+08   1.474308e+05   1.510317e-26   0.000000e+00   0.000000e+00
     3936000   3.935999e-05   4.185477e+01   8.755454e-01   4.051636e+01   7.531803e+04  -5.606667e+04   1.136642e+05   8.682875e+09   1.088348e+10  -3.851233e+08   1.474308e+05   1.502417e-26   0.000000e+00   0.000000e+00
     3944000   3.943999e-05   4.186082e+01   8.710949e-01   4.052545e+01   7.600724e+04  -5.519359e+04   1.136327e+05   8.547275e+09   1.094331e+10  -4.017513e+08   1.474308e+05   1.494538e-26   0.000000e+00   0.000000e+00
     3952000   3.951999e-05   4.186693e+01   8.667145e-01   4.053454e+01   7.668559e+04  -5.431579e+04   1.136000e+05   8.411591e+09   1.100133e+10  -4.181348e+08   1.474308e+05   1.486681e-26   0.000000e+00   0.000000e+00
     3960000   3.959999e-05   4.187309e+01   8.624045e-01   4.054362e+01   7.735309e+04  -5.343342e+04   1.135659e+05   8.275852e+09   1.105753e+10  -4.342777e+08   1.474308e+05   1.478846e-26   0.000000e+00   0.000000e+00
     3968000   3.967999e-05   4.187931e+01   8.581653e-01   4.055271e+01   7.800973e+04  -5.254663e+04   1.135305e+05   8.140086e+09   1.111193e+10  -4.501839e+08   1.474308e+05   1.471034e-26   0.000000e+00   0.000000e+00
     3976000   3.975999e-05   4.188557e+01   8.539972e-01   4.056179e+01   7.865550e+04  -5.165556e+04   1.134938e+05   8.004323e+09   1.116453e+10  -4.658573e+08   1.474308e+05   1.463246e-26   0.000000e+00   0.000000e+00
     3984000   3.983999e-05   4.189189e+01   8.499005e-01   4.057087e+01   7.929042e+04  -5.076035e+04   1.134559e+05   7.868590e+09   1.121535e+10  -4.813019e+08   1.474308e+05   1.455482e-26   0.000000e+00   0.000000e+00
     3992000   3.991999e-05   4.189826e+01   8.458756e-01   4.057994e+01   7.991448e+04  -4.986115e+04   1.134168e+05   7.732914e+09   1.126440e+10  -4.965217e+08   1.474308e+05   1.447742e-26   0.000000e+00   0.000000e+00
     4000000   3.999999e-05   4.190468e+01   8.419230e-01   4.058901e+01   8.053168e+04  -4.895169e+04   1.133764e+05   7.667069e+09   1.142554e+10  -5.128083e+08   1.474308e+05   1.468334e-26   0.000000e+00   0.000000e+00
     4008000   4.007999e-05   4.191114e+01   8.380435e-01   4.059808e+01   8.113975e+04  -4.803538e+04   1.133348e+05   7.534461e+09   1.148184e+10  -5.277093e+08   1.474308e+05   1.462829e-26   0.000000e+00   0.000000e+00
     4016000   4.015999e-05   4.191766e+01   8.342374e-01   4.060715e+01   8.173561e+04  -4.711676e+04   1.132923e+05   7.372253e+09   1.149574e+10  -5.378283e+08   1.474308e+05   1.446660e-26   0.000000e+00   0.000000e+00
     4024000   4.023999e-05   4.192422e+01   8.305049e-01   4.061621e+01   8.231964e+04  -4.619570e+04   1.132487e+05   7.228585e+09   1.153046e+10  -5.509556e+08   1.474308e+05   1.436716e-26   0.000000e+00   0.000000e+00
     4032000   4.031999e-05   4.193083e+01   8.268462e-01   4.062527e+01   8.289220e+04  -4.527194e+04   1.132041e+05   7.085396e+09   1.156329e+10  -5.638469e+08   1.474308e+05   1.426825e-26   0.000000e+00   0.000000e+00
     4040000   4.039999e-05   4.193748e+01   8.232614e-01   4.063432e+01   8.345332e+04  -4.434562e+04   1.131585e+05   6.942714e+09   1.159424e+10  -5.765072e+08   1.474308e+05   1.416988e-26   0.000000e+00   0.000000e+00
     4048000   4.047999e-05   4.194418e+01   8.197509e-01   4.064337e+01   8.400305e+04  -4.341691e+04   1.131119e+05   6.800563e+09   1.162335e+10  -5.889417e+08   1.474308e+05   1.407203e-26   0.000000e+00   0.000000e+00
     4056000   4.055999e-05   4.195092e+01   8.163148e-01   4.065242e+01   8.454142e+04  -4.248594e+04   1.130643e+05   6.658970e+09   1.165063e+10  -6.011554e+08   1.474308e+05   1.397472e-26   0.000000e+00   0.000000e+00
     4064000   4.063999e-05   4.195771e+01   8.129532e-01   4.066146e+01   8.506850e+04  -4.155285e+04   1.130157e+05   6.517957e+09   1.167609e+10  -6.131536e+08   1.474308e+05   1.387796e-26   0.000000e+00   0.000000e+00
     4072000   4.071999e-05   4.196454e+01   8.096664e-01   4.067050e+01   8.558431e+04  -4.061781e+04   1.129662e+05   6.377550e+09   1.169978e+10  -6.249415e+08   1.474308e+05   1.378173e-26   0.000000e+00   0.000000e+00
     4080000   4.079999e-05   4.197140e+01   8.064544e-01   4.067954e+01   8.608892e+04  -3.968094e+04   1.129157e+05   6.237772e+09   1.172169e+10  -6.365240e+08   1.474308e+05   1.368605e-26   0.000000e+00   0.000000e+00
     4088000   4.087999e-05   4.197831e+01   8.033175e-01   4.068857e+01   8.658237e+04  -3.874238e+04   1.128643e+05   6.098645e+09   1.174186e+10  -6.479065e+08   1.474308e+05   1.359091e-26   0.000000e+00   0.000000e+00
     4096000   4.095999e-05   4.198525e+01   8.002557e-01   4.069760e+01   8.706472e+04  -3.780228e+04   1.128121e+05   5.960191e+09   1.176032e+10  -6.590941e+08   1.474308e+05   1.349633e-26   0.000000e+00   0.000000e+00
     4104000   4.103999e-05   4.199224e+01   7.972694e-01   4.070662e+01   8.753953e+04  -3.685441e+04   1.127582e+05   5.857987e+09   1.184633e+10  -6.759078e+08   1.474308e+05   1.356177e-26   0.000000e+00   0.000000e+00
     4112000   4.111999e-05   4.199926e+01   7.943590e-01   4.071564e+01   8.800280e+04  -3.590564e+04   1.127037e+05   5.723896e+09   1.187273e+10  -6.869271e+08   1.474308e+05   1.349115e-26   0.000000e+00   0.000000e+00
     4120000   4.119999e-05   4.200632e+01   7.915247e-01   4.072465e+01   8.845638e+04  -3.495260e+04   1.126482e+05   5.604744e+09   1.192908e+10  -6.997138e+08   1.474308e+05   1.349185e-26   0.000000e+00   0.000000e+00
     4128000   4.127999e-05   4.201341e+01   7.887667e-01   4.073366e+01   8.889945e+04  -3.399728e+04   1.125918e+05   5.472059e+09   1.195350e+10  -7.111969e+08   1.474308e+05   1.342445e-26   0.000000e+00   0.000000e+00
     4136000   4.135999e-05   4.202054e+01   7.860851e-01   4.074267e+01   8.933192e+04  -3.304008e+04   1.125344e+05   5.339768e+09   1.197643e+10  -7.225147e+08   1.474308e+05   1.335744e-26   0.000000e+00   0.000000e+00
     4144000   4.143999e-05   4.202771e+01   7.834803e-01   4.075167e+01   8.975382e+04  -3.208109e+04   1.124762e+05   5.207887e+09   1.199789e+10  -7.336717e+08   1.474308e+05   1.329081e-26   0.000000e+00   0.000000e+00
     4152000   4.151999e-05   4.203490e+01   7.809522e-01   4.076066e+01   9.016519e+04  -3.112045e+04   1.124171e+05   5.076435e+09   1.201789e+10  -7.446722e+08   1.474308e+05   1.322457e-26   0.000000e+00   0.000000e+00
     4160000   4.159999e-05   4.204213e+01   7.785011e-01   4.076965e+01   9.056606e+04  -3.015827e+04   1.123570e+05   4.945430e+09   1.203645e+10  -7.555205e+08   1.474308e+05   1.315871e-26   0.000000e+00   0.000000e+00
     4168000   4.167999e-05   4.204939e+01   7.761269e-01   4.077864e+01   9.095647e+04  -2.919466e+04   1.122962e+05   4.814888e+09   1.205357e+10  -7.662209e+08   1.474308e+05   1.309324e-26   0.000000e+00   0.000000e+00
     4176000   4.175999e-05   4.205669e+01   7.738299e-01   4.078762e+01   9.133646e+04  -2.822973e+04   1.122345e+05   4.684826e+09   1.206928e+10  -7.767778e+08   1.474308e+05   1.302816e-26   0.000000e+00   0.000000e+00
     4184000   4.183999e-05   4.206401e+01   7.716102e-01   4.079660e+01   9.170606e+04  -2.726361e+04   1.121719e+05   4.555261e+09   1.208358e+10  -7.871954e+08   1.474308e+05   1.296346e-26   0.000000e+00   0.000000e+00
     4192000   4.191999e-05   4.207136e+01   7.694679e-01   4.080557e+01   9.206601e+04  -2.629417e+04   1.121085e+05   4.440570e+09   1.214422e+10  -7.983504e+08   1.474308e+05   1.299869e-26   0.000000e+00   0.000000e+00
     4200000   4.199999e-05   4.207874e+01   7.674032e-01   4.081453e+01   9.241615e+04  -2.532180e+04   1.120442e+05   4.313128e+09   1.216478e+10  -8.083130e+08   1.474308e+05   1.295226e-26   0.000000e+00   0.000000e+00
     4208000   4.207999e-05   4.208614e+01   7.654164e-01   4.082349e+01   9.275611e+04  -2.434784e+04   1.119791e+05   4.185962e+09   1.218409e+10  -8.181502e+08   1.474308e+05   1.290619e-26   0.000000e+00   0.000000e+00
     4216000   4.215999e-05   4.209358e+01   7.635076e-01   4.083245e+01   9.308591e+04  -2.337238e+04   1.119133e+05   4.059086e+09   1.220213e+10  -8.278661e+08   1.474308e+05   1.286049e-26   0.000000e+00   0.000000e+00
     4224000   4.223999e-05   4.210104e+01   7.616769e-01   4.084140e+01   9.340541e+04  -2.239587e+04   1.118467e+05   3.917851e+09   1.218763e+10  -8.314448e+08   1.474308e+05   1.274630e-26   0.000000e+00   0.000000e+00
     4232000   4.231999e-05   4.210852e+01   7.599242e-01   4.085035e+01   9.371377e+04  -2.142041e+04   1.117798e+05   3.791268e+09   1.219870e+10  -8.408602e+08   1.474308e+05   1.269286e-26   0.000000e+00   0.000000e+00
     4240000   4.239999e-05   4.211603e+01   7.582496e-01   4.085929e+01   9.401202e+04  -2.044411e+04   1.117122e+05   3.665123e+09   1.220851e+10  -8.501479e+08   1.474308e+05   1.263977e-26   0.000000e+00   0.000000e+00
     4248000   4.247999e-05   4.212356e+01   7.566532e-01   4.086822e+01   9.430020e+04  -1.946708e+04   1.116438e+05   3.539430e+09   1.221706e+10  -8.593121e+08   1.474308e+05   1.258702e-26   0.000000e+00   0.000000e+00
     4256000   4.255999e-05   4.213112e+01   7.551349e-01   4.087715e+01   9.457834e+04  -1.848942e+04   1.115747e+05   3.414202e+09   1.222436e+10  -8.683566e+08   1.474308e+05   1.253461e-26   0.000000e+00   0.000000e+00
     4264000   4.263999e-05   4.213870e+01   7.536949e-01   4.088607e+01   9.484649e+04  -1.751122e+04   1.115049e+05   3.289452e+09   1.223043e+10  -8.772855e+08   1.474308e+05   1.248255e-26   0.000000e+00   0.000000e+00
     4272000   4.271999e-05   4.214629e+01   7.523331e-01   4.089499e+01   9.510467e+04  -1.653258e+04   1.114344e+05   3.165193e+09   1.223528e+10  -8.861027e+08   1.474308e+05   1.243082e-26   0.000000e+00   0.000000e+00
     4280000   4.279999e-05   4.215391e+01   7.510497e-01   4.090390e+01   9.535325e+04  -1.555044e+04   1.113633e+05   3.050323e+09   1.233077e+10  -8.899494e+08   1.474308e+05   1.255773e-26   0.000000e+00   0.000000e+00
     4288000   4.287999e-05   4.216155e+01   7.498452e-01   4.091281e+01   9.559229e+04  -1.456359e+04   1.112918e+05   2.925705e+09   1.234051e+10  -8.980992e+08   1.474308e+05   1.251980e-26   0.000000e+00   0.000000e+00
