     timestep     time              x             y              z              vx             vy             vz             ax             ay             az         v_magnitude      ELoss        Electronic      Nuclear
           0   0.000000e+00   3.882830e+01   1.000000e-01   4.132493e+01   9.456404e+04  -5.619754e+03   1.129680e+05   0.000000e+00   0.000000e+00   0.000000e+00   1.474304e+05   0.000000e+00   0.000000e+00   0.000000e+00
        8000   7.999000e-08   3.883587e+01   9.959987e-02   4.133397e+01   9.466107e+04  -4.383762e+03   1.129415e+05   1.112875e+09   1.543995e+10  -3.334334e+08   1.474304e+05   1.856738e-26   0.000000e+00   0.000000e+00
       16000   1.599900e-07   3.884344e+01   9.929855e-02   4.134300e+01   9.474213e+04  -3.149427e+03   1.129147e+05   9.139091e+08   1.541801e+10  -3.367623e+08   1.474304e+05   1.848389e-26   0.000000e+00   0.000000e+00
       24000   2.399900e-07   3.885103e+01   9.909591e-02   4.135204e+01   9.480733e+04  -1.916945e+03   1.128876e+05   7.163344e+08   1.539364e+10  -3.401846e+08   1.474304e+05   1.840096e-26   0.000000e+00   0.000000e+00
       32000   3.199900e-07   3.885861e+01   9.899179e-02   4.136107e+01   9.485678e+04  -6.865089e+02   1.128602e+05   5.201787e+08   1.536687e+10  -3.437049e+08   1.474304e+05   1.831860e-26   0.000000e+00   0.000000e+00
       40000   3.999900e-07   3.886620e+01   9.898601e-02   4.137009e+01   9.489060e+04   5.416912e+02   1.128326e+05   3.254684e+08   1.533775e+10  -3.473275e+08   1.474304e+05   1.823678e-26   0.000000e+00   0.000000e+00
       48000   4.799900e-07   3.887379e+01   9.907839e-02   4.137912e+01   9.490890e+04   1.767469e+03   1.128047e+05   1.322295e+08   1.530630e+10  -3.510566e+08   1.474304e+05   1.815551e-26   0.000000e+00   0.000000e+00
       56000   5.599900e-07   3.888139e+01   9.926874e-02   4.138814e+01   9.491179e+04   2.990639e+03   1.127764e+05  -5.951320e+07   1.527258e+10  -3.548963e+08   1.474304e+05   1.807478e-26   0.000000e+00   0.000000e+00
       64000   6.399900e-07   3.888898e+01   9.955682e-02   4.139716e+01   9.489941e+04   4.211021e+03   1.127479e+05  -2.497357e+08   1.523661e+10  -3.588503e+08   1.474304e+05   1.799457e-26   0.000000e+00   0.000000e+00
       72000   7.199900e-07   3.889657e+01   9.994259e-02   4.140618e+01   9.487080e+04   5.434695e+03   1.127196e+05  -4.593185e+08   1.531598e+10  -3.518412e+08   1.474304e+05   1.819347e-26   0.000000e+00   0.000000e+00
       80000   7.999900e-07   3.890416e+01   1.004264e-01   4.141520e+01   9.482583e+04   6.658989e+03   1.126918e+05  -6.581749e+08   1.528718e+10  -3.494740e+08   1.474304e+05   1.814231e-26   0.000000e+00   0.000000e+00
       88000   8.799900e-07   3.891174e+01   1.010079e-01   4.142421e+01   9.476560e+04   7.880393e+03   1.126636e+05  -8.474479e+08   1.524755e+10  -3.536675e+08   1.474304e+05   1.807090e-26   0.000000e+00   0.000000e+00
       96000   9.599900e-07   3.891932e+01   1.016871e-01   4.143322e+01   9.469028e+04   9.098538e+03   1.126352e+05  -1.035235e+09   1.520570e+10  -3.579752e+08   1.474304e+05   1.799980e-26   0.000000e+00   0.000000e+00
      104000   1.039990e-06   3.892689e+01   1.024636e-01   4.144223e+01   9.460000e+04   1.031325e+04   1.126064e+05  -1.221512e+09   1.516166e+10  -3.623996e+08   1.474304e+05   1.792902e-26   0.000000e+00   0.000000e+00
      112000   1.119990e-06   3.893446e+01   1.033372e-01   4.145124e+01   9.449488e+04   1.152434e+04   1.125772e+05  -1.406256e+09   1.511546e+10  -3.669431e+08   1.474304e+05   1.785855e-26   0.000000e+00   0.000000e+00
      120000   1.199990e-06   3.894201e+01   1.043074e-01   4.146025e+01   9.437504e+04   1.273166e+04   1.125477e+05  -1.589444e+09   1.506714e+10  -3.716079e+08   1.474304e+05   1.778837e-26   0.000000e+00   0.000000e+00
      128000   1.279990e-06   3.894956e+01   1.053741e-01   4.146925e+01   9.424061e+04   1.393503e+04   1.125177e+05  -1.771055e+09   1.501674e+10  -3.763960e+08   1.474304e+05   1.771850e-26   0.000000e+00   0.000000e+00
      136000   1.359990e-06   3.895709e+01   1.065369e-01   4.147825e+01   9.409171e+04   1.513429e+04   1.124874e+05  -1.951067e+09   1.496430e+10  -3.813091e+08   1.474304e+05   1.764890e-26   0.000000e+00   0.000000e+00
      144000   1.439990e-06   3.896461e+01   1.077955e-01   4.148725e+01   9.392848e+04   1.632927e+04   1.124567e+05  -2.129461e+09   1.490985e+10  -3.863489e+08   1.474304e+05   1.757959e-26   0.000000e+00   0.000000e+00
      152000   1.519990e-06   3.897212e+01   1.091495e-01   4.149624e+01   9.375104e+04   1.751981e+04   1.124256e+05  -2.306218e+09   1.485342e+10  -3.915169e+08   1.474304e+05   1.751055e-26   0.000000e+00   0.000000e+00
      160000   1.599990e-06   3.897961e+01   1.105985e-01   4.150524e+01   9.355877e+04   1.870612e+04   1.123946e+05  -2.498232e+09   1.480294e+10  -3.841097e+08   1.474304e+05   1.746562e-26   0.000000e+00   0.000000e+00
      168000   1.679990e-06   3.898709e+01   1.121423e-01   4.151423e+01   9.335187e+04   1.988798e+04   1.123638e+05  -2.673964e+09   1.474313e+10  -3.879290e+08   1.474304e+05   1.739936e-26   0.000000e+00   0.000000e+00
      176000   1.759990e-06   3.899455e+01   1.137805e-01   4.152321e+01   9.313098e+04   2.106497e+04   1.123326e+05  -2.848033e+09   1.468142e+10  -3.918844e+08   1.474304e+05   1.733343e-26   0.000000e+00   0.000000e+00
      184000   1.839990e-06   3.900199e+01   1.155126e-01   4.153220e+01   9.289644e+04   2.223707e+04   1.123009e+05  -3.009866e+09   1.462312e+10  -4.057603e+08   1.474304e+05   1.727538e-26   0.000000e+00   0.000000e+00
      192000   1.919990e-06   3.900941e+01   1.173383e-01   4.154118e+01   9.264901e+04   2.340421e+04   1.122681e+05  -3.175568e+09   1.455502e+10  -4.135920e+08   1.474304e+05   1.720137e-26   0.000000e+00   0.000000e+00
      200000   1.999990e-06   3.901681e+01   1.192571e-01   4.155016e+01   9.238839e+04   2.456583e+04   1.122347e+05  -3.339424e+09   1.448528e+10  -4.215864e+08   1.474304e+05   1.712771e-26   0.000000e+00   0.000000e+00
      208000   2.079990e-06   3.902419e+01   1.212687e-01   4.155914e+01   9.211475e+04   2.572181e+04   1.122006e+05  -3.501424e+09   1.441393e+10  -4.297429e+08   1.474304e+05   1.705439e-26   0.000000e+00   0.000000e+00
      216000   2.159990e-06   3.903155e+01   1.233725e-01   4.156811e+01   9.182821e+04   2.687202e+04   1.121659e+05  -3.661560e+09   1.434102e+10  -4.380605e+08   1.474304e+05   1.698142e-26   0.000000e+00   0.000000e+00
      224000   2.239990e-06   3.903888e+01   1.255680e-01   4.157709e+01   9.152895e+04   2.801633e+04   1.121305e+05  -3.819824e+09   1.426658e+10  -4.465381e+08   1.474304e+05   1.690877e-26   0.000000e+00   0.000000e+00
      232000   2.319990e-06   3.904619e+01   1.278549e-01   4.158605e+01   9.121709e+04   2.915463e+04   1.120945e+05  -3.976211e+09   1.419065e+10  -4.551745e+08   1.474304e+05   1.683645e-26   0.000000e+00   0.000000e+00
      240000   2.399990e-06   3.905348e+01   1.302326e-01   4.159502e+01   9.089280e+04   3.028680e+04   1.120577e+05  -4.130713e+09   1.411326e+10  -4.639683e+08   1.474304e+05   1.676444e-26   0.000000e+00   0.000000e+00
      248000   2.479990e-06   3.906074e+01   1.327006e-01   4.160398e+01   9.055562e+04   3.141310e+04   1.120206e+05  -4.301499e+09   1.404539e+10  -4.613618e+08   1.474304e+05   1.672777e-26   0.000000e+00   0.000000e+00
      256000   2.559990e-06   3.906797e+01   1.352586e-01   4.161294e+01   9.020524e+04   3.253356e+04   1.119835e+05  -4.457828e+09   1.396596e+10  -4.665042e+08   1.474304e+05   1.666187e-26   0.000000e+00   0.000000e+00
      264000   2.639990e-06   3.907517e+01   1.379058e-01   4.162190e+01   8.984242e+04   3.364761e+04   1.119460e+05  -4.612338e+09   1.388513e+10  -4.717955e+08   1.474304e+05   1.659644e-26   0.000000e+00   0.000000e+00
      272000   2.719990e-06   3.908234e+01   1.406420e-01   4.163086e+01   8.946731e+04   3.475514e+04   1.119080e+05  -4.765025e+09   1.380292e+10  -4.772353e+08   1.474304e+05   1.653146e-26   0.000000e+00   0.000000e+00
      280000   2.799990e-06   3.908948e+01   1.434665e-01   4.163981e+01   8.908006e+04   3.585604e+04   1.118696e+05  -4.915887e+09   1.371939e+10  -4.828232e+08   1.474304e+05   1.646692e-26   0.000000e+00   0.000000e+00
      288000   2.879990e-06   3.909659e+01   1.463788e-01   4.164875e+01   8.868082e+04   3.695021e+04   1.118307e+05  -5.064921e+09   1.363455e+10  -4.885585e+08   1.474304e+05   1.640282e-26   0.000000e+00   0.000000e+00
      296000   2.959990e-06   3.910367e+01   1.493784e-01   4.165770e+01   8.826982e+04   3.803831e+04   1.117911e+05  -5.209925e+09   1.356826e+10  -5.030130e+08   1.474304e+05   1.637967e-26   0.000000e+00   0.000000e+00
      304000   3.039990e-06   3.911072e+01   1.524647e-01   4.166664e+01   8.784716e+04   3.912047e+04   1.117506e+05  -5.356179e+09   1.348555e+10  -5.103664e+08   1.474304e+05   1.632663e-26   0.000000e+00   0.000000e+00
      312000   3.119990e-06   3.911773e+01   1.556375e-01   4.167558e+01   8.741287e+04   4.019596e+04   1.117094e+05  -5.500765e+09   1.340159e+10  -5.178623e+08   1.474304e+05   1.627398e-26   0.000000e+00   0.000000e+00
      320000   3.199990e-06   3.912470e+01   1.588959e-01   4.168451e+01   8.696708e+04   4.126469e+04   1.116677e+05  -5.643683e+09   1.331642e+10  -5.254987e+08   1.474304e+05   1.622171e-26   0.000000e+00   0.000000e+00
      328000   3.279990e-06   3.913164e+01   1.622396e-01   4.169345e+01   8.650993e+04   4.232656e+04   1.116253e+05  -5.784931e+09   1.323006e+10  -5.332735e+08   1.474304e+05   1.616981e-26   0.000000e+00   0.000000e+00
      336000   3.359990e-06   3.913854e+01   1.656680e-01   4.170237e+01   8.604158e+04   4.338123e+04   1.115824e+05  -5.922511e+09   1.313138e+10  -5.383557e+08   1.474304e+05   1.609350e-26   0.000000e+00   0.000000e+00
      344000   3.439990e-06   3.914541e+01   1.691804e-01   4.171130e+01   8.556226e+04   4.442823e+04   1.115390e+05  -6.060289e+09   1.304338e+10  -5.465381e+08   1.474304e+05   1.604368e-26   0.000000e+00   0.000000e+00
      352000   3.519990e-06   3.915223e+01   1.727763e-01   4.172022e+01   8.507198e+04   4.546814e+04   1.114950e+05  -6.196399e+09   1.295427e+10  -5.548631e+08   1.474304e+05   1.599416e-26   0.000000e+00   0.000000e+00
      360000   3.599990e-06   3.915902e+01   1.764551e-01   4.172914e+01   8.457088e+04   4.650088e+04   1.114502e+05  -6.330839e+09   1.286405e+10  -5.633279e+08   1.474304e+05   1.594493e-26   0.000000e+00   0.000000e+00
      368000   3.679990e-06   3.916576e+01   1.802163e-01   4.173805e+01   8.405909e+04   4.752636e+04   1.114048e+05  -6.463610e+09   1.277276e+10  -5.719295e+08   1.474304e+05   1.589600e-26   0.000000e+00   0.000000e+00
      376000   3.759990e-06   3.917247e+01   1.840591e-01   4.174696e+01   8.353674e+04   4.854449e+04   1.113587e+05  -6.594712e+09   1.268043e+10  -5.806649e+08   1.474304e+05   1.584734e-26   0.000000e+00   0.000000e+00
      384000   3.839990e-06   3.917913e+01   1.879832e-01   4.175587e+01   8.300398e+04   4.955520e+04   1.113119e+05  -6.724146e+09   1.258707e+10  -5.895309e+08   1.474304e+05   1.579897e-26   0.000000e+00   0.000000e+00
      392000   3.919990e-06   3.918575e+01   1.919878e-01   4.176477e+01   8.246092e+04   5.055840e+04   1.112644e+05  -6.851912e+09   1.249271e+10  -5.985242e+08   1.474304e+05   1.575086e-26   0.000000e+00   0.000000e+00
      400000   3.999990e-06   3.919232e+01   1.960723e-01   4.177367e+01   8.190771e+04   5.155401e+04   1.112162e+05  -6.978012e+09   1.239738e+10  -6.076413e+08   1.474304e+05   1.570300e-26   0.000000e+00   0.000000e+00
      408000   4.079990e-06   3.919885e+01   2.002362e-01   4.178257e+01   8.134443e+04   5.254188e+04   1.111673e+05  -7.113803e+09   1.228473e+10  -6.008306e+08   1.474304e+05   1.563524e-26   0.000000e+00   0.000000e+00
      416000   4.159990e-06   3.920534e+01   2.044787e-01   4.179146e+01   8.077257e+04   5.351811e+04   1.111185e+05  -7.203689e+09   1.214679e+10  -6.138556e+08   1.474304e+05   1.547512e-26   0.000000e+00   0.000000e+00
      424000   4.239990e-06   3.921178e+01   2.087989e-01   4.180035e+01   8.019142e+04   5.448590e+04   1.110691e+05  -7.325261e+09   1.204821e+10  -6.215292e+08   1.474304e+05   1.542793e-26   0.000000e+00   0.000000e+00
      432000   4.319990e-06   3.921817e+01   2.131962e-01   4.180923e+01   7.960048e+04   5.544601e+04   1.110190e+05  -7.447827e+09   1.195433e+10  -6.302269e+08   1.474304e+05   1.539448e-26   0.000000e+00   0.000000e+00
      440000   4.399990e-06   3.922451e+01   2.176701e-01   4.181811e+01   7.899980e+04   5.639856e+04   1.109683e+05  -7.568932e+09   1.185949e+10  -6.390281e+08   1.474304e+05   1.536127e-26   0.000000e+00   0.000000e+00
      448000   4.479990e-06   3.923081e+01   2.222198e-01   4.182699e+01   7.838949e+04   5.734350e+04   1.109168e+05  -7.688576e+09   1.176370e+10  -6.479291e+08   1.474304e+05   1.532829e-26   0.000000e+00   0.000000e+00
      456000   4.559990e-06   3.923705e+01   2.268448e-01   4.183586e+01   7.776967e+04   5.828073e+04   1.108646e+05  -7.806759e+09   1.166699e+10  -6.569265e+08   1.474304e+05   1.529554e-26   0.000000e+00   0.000000e+00
      464000   4.639990e-06   3.924325e+01   2.315445e-01   4.184472e+01   7.714045e+04   5.921019e+04   1.108117e+05  -7.923482e+09   1.156938e+10  -6.660164e+08   1.474304e+05   1.526301e-26   0.000000e+00   0.000000e+00
      472000   4.719990e-06   3.924940e+01   2.363182e-01   4.185359e+01   7.650195e+04   6.013181e+04   1.107580e+05  -8.038745e+09   1.147088e+10  -6.751951e+08   1.474304e+05   1.523069e-26   0.000000e+00   0.000000e+00
      480000   4.799990e-06   3.925549e+01   2.411654e-01   4.186244e+01   7.585429e+04   6.104551e+04   1.107036e+05  -8.152549e+09   1.137151e+10  -6.844587e+08   1.474304e+05   1.519859e-26   0.000000e+00   0.000000e+00
      488000   4.879990e-06   3.926153e+01   2.460853e-01   4.187130e+01   7.519758e+04   6.195123e+04   1.106485e+05  -8.264896e+09   1.127129e+10  -6.938030e+08   1.474304e+05   1.516668e-26   0.000000e+00   0.000000e+00
      496000   4.959990e-06   3.926752e+01   2.510774e-01   4.188015e+01   7.453194e+04   6.284889e+04   1.105926e+05  -8.375785e+09   1.117023e+10  -7.032240e+08   1.474304e+05   1.513497e-26   0.000000e+00   0.000000e+00
      504000   5.039990e-06   3.927346e+01   2.561409e-01   4.188899e+01   7.385749e+04   6.373844e+04   1.105360e+05  -8.485219e+09   1.106836e+10  -7.127174e+08   1.474304e+05   1.510345e-26   0.000000e+00   0.000000e+00
      512000   5.119990e-06   3.927934e+01   2.612753e-01   4.189783e+01   7.317434e+04   6.461981e+04   1.104786e+05  -8.593199e+09   1.096568e+10  -7.222788e+08   1.474304e+05   1.507211e-26   0.000000e+00   0.000000e+00
      520000   5.199990e-06   3.928517e+01   2.664799e-01   4.190667e+01   7.248273e+04   6.549318e+04   1.104202e+05  -8.696744e+09   1.086519e+10  -7.356459e+08   1.474304e+05   1.504238e-26   0.000000e+00   0.000000e+00
      528000   5.279990e-06   3.929094e+01   2.717540e-01   4.191550e+01   7.178290e+04   6.635811e+04   1.103610e+05  -8.798632e+09   1.075800e+10  -7.456176e+08   1.474304e+05   1.500206e-26   0.000000e+00   0.000000e+00
      536000   5.359990e-06   3.929665e+01   2.770969e-01   4.192433e+01   7.107499e+04   6.721444e+04   1.103009e+05  -8.898958e+09   1.065017e+10  -7.556564e+08   1.474304e+05   1.496196e-26   0.000000e+00   0.000000e+00
      544000   5.439990e-06   3.930231e+01   2.825080e-01   4.193315e+01   7.035917e+04   6.806217e+04   1.102400e+05  -8.996544e+09   1.054414e+10  -7.680100e+08   1.474304e+05   1.492462e-26   0.000000e+00   0.000000e+00
      552000   5.519990e-06   3.930791e+01   2.879867e-01   4.194197e+01   6.963541e+04   6.890151e+04   1.101781e+05  -9.097147e+09   1.043920e+10  -7.786583e+08   1.474304e+05   1.489634e-26   0.000000e+00   0.000000e+00
      560000   5.599990e-06   3.931345e+01   2.935321e-01   4.195078e+01   6.890366e+04   6.973242e+04   1.101154e+05  -9.196318e+09   1.033351e+10  -7.893443e+08   1.474304e+05   1.486811e-26   0.000000e+00   0.000000e+00
      568000   5.679990e-06   3.931893e+01   2.991436e-01   4.195958e+01   6.816404e+04   7.055485e+04   1.100518e+05  -9.294055e+09   1.022709e+10  -8.000625e+08   1.474304e+05   1.483993e-26   0.000000e+00   0.000000e+00
      576000   5.759990e-06   3.932436e+01   3.048205e-01   4.196839e+01   6.741864e+04   7.136650e+04   1.099876e+05  -9.356187e+09   1.008300e+10  -8.074109e+08   1.474304e+05   1.470395e-26   0.000000e+00   0.000000e+00
      584000   5.839990e-06   3.932972e+01   3.105620e-01   4.197718e+01   6.666681e+04   7.216846e+04   1.099226e+05  -9.439396e+09   9.965905e+09  -8.181004e+08   1.474304e+05   1.464460e-26   0.000000e+00   0.000000e+00
      592000   5.919990e-06   3.933502e+01   3.163672e-01   4.198597e+01   6.590838e+04   7.296103e+04   1.098567e+05  -9.520878e+09   9.848478e+09  -8.287849e+08   1.474304e+05   1.458541e-26   0.000000e+00   0.000000e+00
      600000   5.999990e-06   3.934026e+01   3.222355e-01   4.199476e+01   6.514351e+04   7.374420e+04   1.097900e+05  -9.600642e+09   9.730739e+09  -8.394589e+08   1.474304e+05   1.452638e-26   0.000000e+00   0.000000e+00
      608000   6.079990e-06   3.934544e+01   3.281661e-01   4.200354e+01   6.437073e+04   7.451946e+04   1.097223e+05  -9.730184e+09   9.661141e+09  -8.530812e+08   1.474304e+05   1.461758e-26   0.000000e+00   0.000000e+00
      616000   6.159990e-06   3.935056e+01   3.341584e-01   4.201232e+01   6.358883e+04   7.528790e+04   1.096536e+05  -9.817071e+09   9.549659e+09  -8.637727e+08   1.474304e+05   1.458467e-26   0.000000e+00   0.000000e+00
      624000   6.239990e-06   3.935562e+01   3.402119e-01   4.202108e+01   6.280004e+04   7.604739e+04   1.095841e+05  -9.902419e+09   9.437565e+09  -8.744693e+08   1.474304e+05   1.455162e-26   0.000000e+00   0.000000e+00
      632000   6.319990e-06   3.936061e+01   3.463258e-01   4.202985e+01   6.200448e+04   7.679789e+04   1.095137e+05  -9.986231e+09   9.324875e+09  -8.851654e+08   1.474304e+05   1.451842e-26   0.000000e+00   0.000000e+00
      640000   6.399990e-06   3.936554e+01   3.524993e-01   4.203861e+01   6.120228e+04   7.753935e+04   1.094425e+05  -1.006851e+10   9.211608e+09  -8.958549e+08   1.474304e+05   1.448508e-26   0.000000e+00   0.000000e+00
      648000   6.479990e-06   3.937040e+01   3.587318e-01   4.204736e+01   6.039356e+04   7.827173e+04   1.093704e+05  -1.014925e+10   9.097780e+09  -9.065319e+08   1.474304e+05   1.445159e-26   0.000000e+00   0.000000e+00
      656000   6.559990e-06   3.937520e+01   3.650226e-01   4.205611e+01   5.957844e+04   7.899498e+04   1.092974e+05  -1.022846e+10   8.983409e+09  -9.171905e+08   1.474304e+05   1.441795e-26   0.000000e+00   0.000000e+00
      664000   6.639990e-06   3.937994e+01   3.713708e-01   4.206485e+01   5.875705e+04   7.970906e+04   1.092236e+05  -1.030614e+10   8.868512e+09  -9.278246e+08   1.474304e+05   1.438415e-26   0.000000e+00   0.000000e+00
      672000   6.719990e-06   3.938460e+01   3.777758e-01   4.207358e+01   5.792950e+04   8.041393e+04   1.091490e+05  -1.038229e+10   8.753104e+09  -9.384280e+08   1.474304e+05   1.435020e-26   0.000000e+00   0.000000e+00
      680000   6.799990e-06   3.938920e+01   3.842368e-01   4.208231e+01   5.709592e+04   8.110954e+04   1.090735e+05  -1.045692e+10   8.637204e+09  -9.489949e+08   1.474304e+05   1.431609e-26   0.000000e+00   0.000000e+00
      688000   6.879990e-06   3.939374e+01   3.907531e-01   4.209103e+01   5.625643e+04   8.179587e+04   1.089971e+05  -1.053003e+10   8.520826e+09  -9.595190e+08   1.474304e+05   1.428182e-26   0.000000e+00   0.000000e+00
      696000   6.959990e-06   3.939820e+01   3.973239e-01   4.209975e+01   5.541116e+04   8.247286e+04   1.089200e+05  -1.060161e+10   8.403989e+09  -9.699942e+08   1.474304e+05   1.424739e-26   0.000000e+00   0.000000e+00
      704000   7.039990e-06   3.940260e+01   4.039482e-01   4.210846e+01   5.456882e+04   8.313400e+04   1.088426e+05  -1.058743e+10   8.212400e+09  -9.645541e+08   1.474304e+05   1.397675e-26   0.000000e+00   0.000000e+00
      712000   7.119990e-06   3.940694e+01   4.106251e-01   4.211717e+01   5.371926e+04   8.378632e+04   1.087650e+05  -1.065134e+10   8.095510e+09  -9.755805e+08   1.474304e+05   1.393591e-26   0.000000e+00   0.000000e+00
      720000   7.199990e-06   3.941120e+01   4.173538e-01   4.212586e+01   5.286465e+04   8.442928e+04   1.086865e+05  -1.071387e+10   7.978329e+09  -9.864897e+08   1.474304e+05   1.389514e-26   0.000000e+00   0.000000e+00
      728000   7.279990e-06   3.941539e+01   4.241335e-01   4.213455e+01   5.200508e+04   8.506285e+04   1.086071e+05  -1.077500e+10   7.860869e+09  -9.972755e+08   1.474304e+05   1.385446e-26   0.000000e+00   0.000000e+00
      736000   7.359990e-06   3.941952e+01   4.309636e-01   4.214324e+01   5.114068e+04   8.568701e+04   1.085269e+05  -1.083476e+10   7.743140e+09  -1.007932e+09   1.474304e+05   1.381385e-26   0.000000e+00   0.000000e+00
      744000   7.439990e-06   3.942358e+01   4.378432e-01   4.215192e+01   5.027156e+04   8.630174e+04   1.084459e+05  -1.089314e+10   7.625153e+09  -1.018452e+09   1.474304e+05   1.377332e-26   0.000000e+00   0.000000e+00
      752000   7.519990e-06   3.942756e+01   4.447716e-01   4.216059e+01   4.939781e+04   8.690702e+04   1.083640e+05  -1.095016e+10   7.506918e+09  -1.028830e+09   1.474304e+05   1.373285e-26   0.000000e+00   0.000000e+00
      760000   7.599990e-06   3.943148e+01   4.517480e-01   4.216926e+01   4.851957e+04   8.750284e+04   1.082813e+05  -1.100582e+10   7.388446e+09  -1.039060e+09   1.474304e+05   1.369246e-26   0.000000e+00   0.000000e+00
      768000   7.679990e-06   3.943533e+01   4.587718e-01   4.217792e+01   4.763692e+04   8.808917e+04   1.081977e+05  -1.106012e+10   7.269748e+09  -1.049136e+09   1.474304e+05   1.365215e-26   0.000000e+00   0.000000e+00
      776000   7.759990e-06   3.943910e+01   4.658421e-01   4.218657e+01   4.674998e+04   8.866599e+04   1.081134e+05  -1.111308e+10   7.150833e+09  -1.059052e+09   1.474304e+05   1.361190e-26   0.000000e+00   0.000000e+00
      784000   7.839990e-06   3.944281e+01   4.729581e-01   4.219521e+01   4.585886e+04   8.923329e+04   1.080283e+05  -1.116469e+10   7.031711e+09  -1.068801e+09   1.474304e+05   1.357172e-26   0.000000e+00   0.000000e+00
      792000   7.919990e-06   3.944644e+01   4.801191e-01   4.220385e+01   4.496277e+04   8.979099e+04   1.079428e+05  -1.124061e+10   6.910440e+09  -1.066162e+09   1.474304e+05   1.357206e-26   0.000000e+00   0.000000e+00
      800000   7.999990e-06   3.945000e+01   4.873244e-01   4.221249e+01   4.406144e+04   9.033906e+04   1.078572e+05  -1.129247e+10   6.791350e+09  -1.075126e+09   1.474304e+05   1.353767e-26   0.000000e+00   0.000000e+00
      808000   8.079990e-06   3.945349e+01   4.945731e-01   4.222111e+01   4.315602e+04   9.087759e+04   1.077708e+05  -1.134293e+10   6.671994e+09  -1.083943e+09   1.474304e+05   1.350316e-26   0.000000e+00   0.000000e+00
      816000   8.159990e-06   3.945690e+01   5.018646e-01   4.222973e+01   4.224628e+04   9.140669e+04   1.076838e+05  -1.140901e+10   6.558587e+09  -1.091239e+09   1.474304e+05   1.350462e-26   0.000000e+00   0.000000e+00
      824000   8.239990e-06   3.946025e+01   5.091979e-01   4.223834e+01   4.133137e+04   9.192665e+04   1.075962e+05  -1.146347e+10   6.440244e+09  -1.098808e+09   1.474304e+05   1.348323e-26   0.000000e+00   0.000000e+00
      832000   8.319990e-06   3.946352e+01   5.165726e-01   4.224694e+01   4.041216e+04   9.243712e+04   1.075080e+05  -1.151662e+10   6.321481e+09  -1.106208e+09   1.474304e+05   1.346171e-26   0.000000e+00   0.000000e+00
      840000   8.399990e-06   3.946671e+01   5.239876e-01   4.225554e+01   3.948875e+04   9.293807e+04   1.074192e+05  -1.156847e+10   6.202306e+09  -1.113434e+09   1.474304e+05   1.344007e-26   0.000000e+00   0.000000e+00
      848000   8.479990e-06   3.946984e+01   5.314424e-01   4.226413e+01   3.856124e+04   9.342948e+04   1.073298e+05  -1.161902e+10   6.082732e+09  -1.120479e+09   1.474304e+05   1.341829e-26   0.000000e+00   0.000000e+00
      856000   8.559990e-06   3.947288e+01   5.389361e-01   4.227271e+01   3.762974e+04   9.391130e+04   1.072399e+05  -1.166827e+10   5.962768e+09  -1.127339e+09   1.474304e+05   1.339639e-26   0.000000e+00   0.000000e+00
      864000   8.639990e-06   3.947586e+01   5.464680e-01   4.228129e+01   3.669435e+04   9.438351e+04   1.071495e+05  -1.171621e+10   5.842425e+09  -1.134006e+09   1.474304e+05   1.337436e-26   0.000000e+00   0.000000e+00
      872000   8.719990e-06   3.947875e+01   5.540372e-01   4.228986e+01   3.575518e+04   9.484608e+04   1.070585e+05  -1.176285e+10   5.721714e+09  -1.140477e+09   1.474304e+05   1.335219e-26   0.000000e+00   0.000000e+00
      880000   8.799990e-06   3.948158e+01   5.616431e-01   4.229842e+01   3.481233e+04   9.529897e+04   1.069670e+05  -1.180818e+10   5.600646e+09  -1.146744e+09   1.474304e+05   1.332990e-26   0.000000e+00   0.000000e+00
      888000   8.879990e-06   3.948432e+01   5.692847e-01   4.230697e+01   3.387787e+04   9.573855e+04   1.068745e+05  -1.165794e+10   5.422305e+09  -1.161886e+09   1.474304e+05   1.290731e-26   0.000000e+00   0.000000e+00
      896000   8.959990e-06   3.948700e+01   5.769610e-01   4.231552e+01   3.294458e+04   9.616734e+04   1.067812e+05  -1.167412e+10   5.297428e+09  -1.169109e+09   1.474304e+05   1.283419e-26   0.000000e+00   0.000000e+00
      904000   9.039990e-06   3.948960e+01   5.846712e-01   4.232406e+01   3.201005e+04   9.658615e+04   1.066874e+05  -1.168880e+10   5.172985e+09  -1.176126e+09   1.474304e+05   1.276111e-26   0.000000e+00   0.000000e+00
      912000   9.119990e-06   3.949212e+01   5.924145e-01   4.233259e+01   3.107441e+04   9.699503e+04   1.065930e+05  -1.170199e+10   5.048987e+09  -1.182934e+09   1.474304e+05   1.268808e-26   0.000000e+00   0.000000e+00
      920000   9.199990e-06   3.949457e+01   6.001901e-01   4.234111e+01   3.013723e+04   9.739415e+04   1.064982e+05  -1.199207e+10   5.000487e+09  -1.179444e+09   1.474304e+05   1.318200e-26   0.000000e+00   0.000000e+00
      928000   9.279990e-06   3.949694e+01   6.079975e-01   4.234963e+01   2.917614e+04   9.778935e+04   1.064036e+05  -1.203496e+10   4.879509e+09  -1.184438e+09   1.474304e+05   1.317016e-26   0.000000e+00   0.000000e+00
      936000   9.359990e-06   3.949924e+01   6.158361e-01   4.235814e+01   2.821167e+04   9.817486e+04   1.063087e+05  -1.207650e+10   4.758061e+09  -1.189198e+09   1.474304e+05   1.315794e-26   0.000000e+00   0.000000e+00
      944000   9.439990e-06   3.950145e+01   6.237052e-01   4.236664e+01   2.725356e+04   9.854810e+04   1.062132e+05  -1.192107e+10   4.586154e+09  -1.196306e+09   1.474304e+05   1.274599e-26   0.000000e+00   0.000000e+00
      952000   9.519990e-06   3.950360e+01   6.316036e-01   4.237513e+01   2.629991e+04   9.890988e+04   1.061173e+05  -1.191994e+10   4.458619e+09  -1.201562e+09   1.474304e+05   1.265554e-26   0.000000e+00   0.000000e+00
      960000   9.599990e-06   3.950566e+01   6.395305e-01   4.238362e+01   2.534641e+04   9.926149e+04   1.060210e+05  -1.191733e+10   4.331879e+09  -1.206606e+09   1.474304e+05   1.256538e-26   0.000000e+00   0.000000e+00
      968000   9.679990e-06   3.950765e+01   6.474851e-01   4.239209e+01   2.439318e+04   9.960300e+04   1.059243e+05  -1.191327e+10   4.205941e+09  -1.211433e+09   1.474304e+05   1.247552e-26   0.000000e+00   0.000000e+00
      976000   9.759990e-06   3.950956e+01   6.554667e-01   4.240056e+01   2.343992e+04   9.993454e+04   1.058272e+05  -1.198451e+10   4.095235e+09  -1.212713e+09   1.474304e+05   1.253642e-26   0.000000e+00   0.000000e+00
      984000   9.839990e-06   3.951140e+01   6.634744e-01   4.240903e+01   2.248006e+04   1.002574e+05   1.057300e+05  -1.201190e+10   3.976431e+09  -1.216654e+09   1.474304e+05   1.251381e-26   0.000000e+00   0.000000e+00
      992000   9.919990e-06   3.951316e+01   6.715076e-01   4.241748e+01   2.151805e+04   1.005708e+05   1.056325e+05  -1.203803e+10   3.857401e+09  -1.220318e+09   1.474304e+05   1.249095e-26   0.000000e+00   0.000000e+00
     1000000   9.999990e-06   3.951484e+01   6.795655e-01   4.242593e+01   2.055401e+04   1.008746e+05   1.055348e+05  -1.206290e+10   3.738158e+09  -1.223698e+09   1.474304e+05   1.246786e-26   0.000000e+00   0.000000e+00
     1008000   1.007999e-05   3.951645e+01   6.876473e-01   4.243437e+01   1.958802e+04   1.011689e+05   1.054367e+05  -1.208650e+10   3.618712e+09  -1.226791e+09   1.474304e+05   1.244453e-26   0.000000e+00   0.000000e+00
     1016000   1.015999e-05   3.951798e+01   6.957523e-01   4.244280e+01   1.862020e+04   1.014536e+05   1.053385e+05  -1.210883e+10   3.499076e+09  -1.229592e+09   1.474304e+05   1.242097e-26   0.000000e+00   0.000000e+00
     1024000   1.023999e-05   3.951943e+01   7.038796e-01   4.245122e+01   1.765325e+04   1.017282e+05   1.052400e+05  -1.206146e+10   3.367039e+09  -1.231445e+09   1.474304e+05   1.226243e-26   0.000000e+00   0.000000e+00
     1032000   1.031999e-05   3.952080e+01   7.120285e-01   4.245964e+01   1.668754e+04   1.019929e+05   1.051414e+05  -1.208127e+10   3.249195e+09  -1.234400e+09   1.474304e+05   1.223965e-26   0.000000e+00   0.000000e+00
     1040000   1.039999e-05   3.952210e+01   7.201982e-01   4.246804e+01   1.572028e+04   1.022481e+05   1.050425e+05  -1.209998e+10   3.131246e+09  -1.237092e+09   1.474304e+05   1.221692e-26   0.000000e+00   0.000000e+00
     1048000   1.047999e-05   3.952332e+01   7.283880e-01   4.247644e+01   1.475157e+04   1.024939e+05   1.049435e+05  -1.211758e+10   3.013195e+09  -1.239517e+09   1.474304e+05   1.219422e-26   0.000000e+00   0.000000e+00
     1056000   1.055999e-05   3.952446e+01   7.365970e-01   4.248483e+01   1.378150e+04   1.027302e+05   1.048442e+05  -1.213407e+10   2.895050e+09  -1.241669e+09   1.474304e+05   1.217155e-26   0.000000e+00   0.000000e+00
     1064000   1.063999e-05   3.952552e+01   7.448245e-01   4.249322e+01   1.281015e+04   1.029571e+05   1.047448e+05  -1.214946e+10   2.776814e+09  -1.243543e+09   1.474304e+05   1.214892e-26   0.000000e+00   0.000000e+00
     1072000   1.071999e-05   3.952651e+01   7.530699e-01   4.250159e+01   1.183741e+04   1.031744e+05   1.046454e+05  -1.217667e+10   2.653826e+09  -1.239091e+09   1.474304e+05   1.214760e-26   0.000000e+00   0.000000e+00
     1080000   1.079999e-05   3.952742e+01   7.613322e-01   4.250996e+01   1.086294e+04   1.033819e+05   1.045462e+05  -1.218471e+10   2.533773e+09  -1.239480e+09   1.474304e+05   1.211460e-26   0.000000e+00   0.000000e+00
     1088000   1.087999e-05   3.952825e+01   7.696107e-01   4.251832e+01   9.887885e+03   1.035798e+05   1.044470e+05  -1.219155e+10   2.413797e+09  -1.239580e+09   1.474304e+05   1.208157e-26   0.000000e+00   0.000000e+00
     1096000   1.095999e-05   3.952900e+01   7.779047e-01   4.252667e+01   8.912326e+03   1.037681e+05   1.043479e+05  -1.219720e+10   2.293906e+09  -1.239386e+09   1.474304e+05   1.204849e-26   0.000000e+00   0.000000e+00
     1104000   1.103999e-05   3.952967e+01   7.862134e-01   4.253502e+01   7.936364e+03   1.039468e+05   1.042488e+05  -1.220167e+10   2.174108e+09  -1.238895e+09   1.474304e+05   1.201538e-26   0.000000e+00   0.000000e+00
     1112000   1.111999e-05   3.953027e+01   7.945359e-01   4.254335e+01   6.960092e+03   1.041160e+05   1.041497e+05  -1.220494e+10   2.054412e+09  -1.238103e+09   1.474304e+05   1.198222e-26   0.000000e+00   0.000000e+00
     1120000   1.119999e-05   3.953079e+01   8.028717e-01   4.255168e+01   5.984682e+03   1.042756e+05   1.040506e+05  -1.216704e+10   1.935677e+09  -1.240036e+09   1.474304e+05   1.187435e-26   0.000000e+00   0.000000e+00
     1128000   1.127999e-05   3.953123e+01   8.112198e-01   4.256000e+01   5.011474e+03   1.044257e+05   1.039514e+05  -1.216299e+10   1.817533e+09  -1.239436e+09   1.474304e+05   1.183227e-26   0.000000e+00   0.000000e+00
     1136000   1.135999e-05   3.953159e+01   8.195795e-01   4.256831e+01   4.038632e+03   1.045664e+05   1.038523e+05  -1.215788e+10   1.699669e+09  -1.238543e+09   1.474304e+05   1.179036e-26   0.000000e+00   0.000000e+00
     1144000   1.143999e-05   3.953187e+01   8.279501e-01   4.257662e+01   3.066242e+03   1.046977e+05   1.037532e+05  -1.215170e+10   1.582088e+09  -1.237353e+09   1.474304e+05   1.174862e-26   0.000000e+00   0.000000e+00
     1152000   1.151999e-05   3.953208e+01   8.363309e-01   4.258491e+01   2.094389e+03   1.048195e+05   1.036543e+05  -1.214447e+10   1.464796e+09  -1.235863e+09   1.474304e+05   1.170704e-26   0.000000e+00   0.000000e+00
     1160000   1.159999e-05   3.953221e+01   8.447210e-01   4.259320e+01   1.123156e+03   1.049320e+05   1.035555e+05  -1.213619e+10   1.347796e+09  -1.234069e+09   1.474304e+05   1.166564e-26   0.000000e+00   0.000000e+00
     1168000   1.167999e-05   3.953226e+01   8.531198e-01   4.260148e+01   1.521353e+02   1.050351e+05   1.034570e+05  -1.216148e+10   1.224979e+09  -1.225766e+09   1.474304e+05   1.168719e-26   0.000000e+00   0.000000e+00
     1176000   1.175999e-05   3.953223e+01   8.615264e-01   4.260976e+01  -8.205032e+02   1.051284e+05   1.033590e+05  -1.215430e+10   1.106782e+09  -1.222199e+09   1.474304e+05   1.165165e-26   0.000000e+00   0.000000e+00
     1184000   1.183999e-05   3.953213e+01   8.699400e-01   4.261802e+01  -1.792524e+03   1.052122e+05   1.032614e+05  -1.214603e+10   9.887629e+08  -1.218271e+09   1.474304e+05   1.161618e-26   0.000000e+00   0.000000e+00
     1192000   1.191999e-05   3.953195e+01   8.783601e-01   4.262628e+01  -2.763839e+03   1.052866e+05   1.031641e+05  -1.213667e+10   8.709287e+08  -1.213982e+09   1.474304e+05   1.158080e-26   0.000000e+00   0.000000e+00
     1200000   1.199999e-05   3.953169e+01   8.867856e-01   4.263453e+01  -3.734361e+03   1.053515e+05   1.030672e+05  -1.212622e+10   7.532857e+08  -1.209328e+09   1.474304e+05   1.154550e-26   0.000000e+00   0.000000e+00
     1208000   1.207999e-05   3.953135e+01   8.952161e-01   4.264277e+01  -4.704005e+03   1.054071e+05   1.029706e+05  -1.211469e+10   6.358404e+08  -1.204306e+09   1.474304e+05   1.151028e-26   0.000000e+00   0.000000e+00
     1216000   1.215999e-05   3.953093e+01   9.036505e-01   4.265100e+01  -5.672418e+03   1.054535e+05   1.028743e+05  -1.209136e+10   5.241875e+08  -1.204024e+09   1.474304e+05   1.145645e-26   0.000000e+00   0.000000e+00
     1224000   1.223999e-05   3.953044e+01   9.120884e-01   4.265923e+01  -6.638618e+03   1.054908e+05   1.027782e+05  -1.206346e+10   4.092673e+08  -1.199254e+09   1.474304e+05   1.139507e-26   0.000000e+00   0.000000e+00
     1232000   1.231999e-05   3.952987e+01   9.205288e-01   4.266745e+01  -7.602543e+03   1.055190e+05   1.026825e+05  -1.203448e+10   2.949879e+08  -1.194147e+09   1.474304e+05   1.133381e-26   0.000000e+00   0.000000e+00
     1240000   1.239999e-05   3.952922e+01   9.289712e-01   4.267566e+01  -8.564106e+03   1.055380e+05   1.025872e+05  -1.200444e+10   1.813552e+08  -1.188703e+09   1.474305e+05   1.127267e-26   0.000000e+00   0.000000e+00
     1248000   1.247999e-05   3.952850e+01   9.374147e-01   4.268386e+01  -9.523224e+03   1.055480e+05   1.024923e+05  -1.197334e+10   6.837484e+07  -1.182920e+09   1.474305e+05   1.121168e-26   0.000000e+00   0.000000e+00
     1256000   1.255999e-05   3.952770e+01   9.458586e-01   4.269206e+01  -1.047981e+04   1.055490e+05   1.023979e+05  -1.194120e+10  -4.394775e+07  -1.176796e+09   1.474305e+05   1.115082e-26   0.000000e+00   0.000000e+00
     1264000   1.263999e-05   3.952682e+01   9.543023e-01   4.270024e+01  -1.143388e+04   1.055410e+05   1.023040e+05  -1.194771e+10  -1.625246e+08  -1.167640e+09   1.474305e+05   1.116309e-26   0.000000e+00   0.000000e+00
     1272000   1.271999e-05   3.952587e+01   9.627449e-01   4.270842e+01  -1.238859e+04   1.055234e+05   1.022109e+05  -1.191983e+10  -2.757665e+08  -1.160039e+09   1.474305e+05   1.111403e-26   0.000000e+00   0.000000e+00
     1280000   1.279999e-05   3.952484e+01   9.711858e-01   4.271660e+01  -1.334103e+04   1.054968e+05   1.021184e+05  -1.189088e+10  -3.885219e+08  -1.152067e+09   1.474305e+05   1.106501e-26   0.000000e+00   0.000000e+00
     1288000   1.287999e-05   3.952374e+01   9.796241e-01   4.272476e+01  -1.429110e+04   1.054613e+05   1.020266e+05  -1.186087e+10  -5.007830e+08  -1.143724e+09   1.474305e+05   1.101606e-26   0.000000e+00   0.000000e+00
     1296000   1.295999e-05   3.952256e+01   9.880593e-01   4.273292e+01  -1.523874e+04   1.054167e+05   1.019354e+05  -1.182980e+10  -6.125423e+08  -1.135009e+09   1.474305e+05   1.096717e-26   0.000000e+00   0.000000e+00
     1304000   1.303999e-05   3.952130e+01   9.964906e-01   4.274107e+01  -1.618384e+04   1.053633e+05   1.018450e+05  -1.179770e+10  -7.237921e+08  -1.125923e+09   1.474305e+05   1.091834e-26   0.000000e+00   0.000000e+00
     1312000   1.311999e-05   3.951997e+01   1.004917e+00   4.274922e+01  -1.712581e+04   1.053012e+05   1.017551e+05  -1.175026e+10  -8.273475e+08  -1.121425e+09   1.474305e+05   1.084349e-26   0.000000e+00   0.000000e+00
     1320000   1.319999e-05   3.951856e+01   1.013339e+00   4.275735e+01  -1.806407e+04   1.052307e+05   1.016657e+05  -1.170609e+10  -9.346178e+08  -1.112545e+09   1.474305e+05   1.077634e-26   0.000000e+00   0.000000e+00
     1328000   1.327999e-05   3.951708e+01   1.021754e+00   4.276548e+01  -1.899876e+04   1.051517e+05   1.015771e+05  -1.166092e+10  -1.041058e+09  -1.103324e+09   1.474305e+05   1.070930e-26   0.000000e+00   0.000000e+00
     1336000   1.335999e-05   3.951552e+01   1.030163e+00   4.277361e+01  -1.992979e+04   1.050642e+05   1.014892e+05  -1.161475e+10  -1.146663e+09  -1.093761e+09   1.474305e+05   1.064235e-26   0.000000e+00   0.000000e+00
     1344000   1.343999e-05   3.951389e+01   1.038564e+00   4.278172e+01  -2.085709e+04   1.049683e+05   1.014021e+05  -1.156762e+10  -1.251427e+09  -1.083858e+09   1.474305e+05   1.057551e-26   0.000000e+00   0.000000e+00
     1352000   1.351999e-05   3.951218e+01   1.046957e+00   4.278983e+01  -2.178058e+04   1.048640e+05   1.013158e+05  -1.151953e+10  -1.355343e+09  -1.073614e+09   1.474305e+05   1.050879e-26   0.000000e+00   0.000000e+00
     1360000   1.359999e-05   3.951040e+01   1.055342e+00   4.279793e+01  -2.270019e+04   1.047514e+05   1.012303e+05  -1.147050e+10  -1.458406e+09  -1.063031e+09   1.474305e+05   1.044219e-26   0.000000e+00   0.000000e+00
     1368000   1.367999e-05   3.950855e+01   1.063717e+00   4.280603e+01  -2.361706e+04   1.046299e+05   1.011462e+05  -1.144296e+10  -1.574175e+09  -1.043459e+09   1.474305e+05   1.041732e-26   0.000000e+00   0.000000e+00
     1376000   1.375999e-05   3.950662e+01   1.072083e+00   4.281412e+01  -2.453067e+04   1.044998e+05   1.010632e+05  -1.139712e+10  -1.679125e+09  -1.030141e+09   1.474305e+05   1.036054e-26   0.000000e+00   0.000000e+00
     1384000   1.383999e-05   3.950462e+01   1.080437e+00   4.282220e+01  -2.544057e+04   1.043613e+05   1.009814e+05  -1.135027e+10  -1.783330e+09  -1.016479e+09   1.474305e+05   1.030379e-26   0.000000e+00   0.000000e+00
     1392000   1.391999e-05   3.950255e+01   1.088780e+00   4.283027e+01  -2.634669e+04   1.042145e+05   1.009006e+05  -1.130243e+10  -1.886781e+09  -1.002475e+09   1.474305e+05   1.024707e-26   0.000000e+00   0.000000e+00
     1400000   1.399999e-05   3.950041e+01   1.097111e+00   4.283834e+01  -2.724893e+04   1.040594e+05   1.008210e+05  -1.125360e+10  -1.989470e+09  -9.881306e+08   1.474305e+05   1.019039e-26   0.000000e+00   0.000000e+00
     1408000   1.407999e-05   3.949819e+01   1.105429e+00   4.284640e+01  -2.814934e+04   1.038960e+05   1.007422e+05  -1.122368e+10  -2.092732e+09  -9.778582e+08   1.474305e+05   1.016938e-26   0.000000e+00   0.000000e+00
     1416000   1.415999e-05   3.949591e+01   1.113734e+00   4.285446e+01  -2.904595e+04   1.037243e+05   1.006645e+05  -1.119142e+10  -2.198426e+09  -9.639341e+08   1.474305e+05   1.014641e-26   0.000000e+00   0.000000e+00
     1424000   1.423999e-05   3.949355e+01   1.122025e+00   4.286251e+01  -2.993994e+04   1.035442e+05   1.005879e+05  -1.115815e+10  -2.303871e+09  -9.496220e+08   1.474305e+05   1.012346e-26   0.000000e+00   0.000000e+00
     1432000   1.431999e-05   3.949112e+01   1.130301e+00   4.287055e+01  -3.083123e+04   1.033557e+05   1.005126e+05  -1.112386e+10  -2.409056e+09  -9.349219e+08   1.474305e+05   1.010054e-26   0.000000e+00   0.000000e+00
     1440000   1.439999e-05   3.948861e+01   1.138562e+00   4.287859e+01  -3.171973e+04   1.031588e+05   1.004384e+05  -1.108856e+10  -2.513972e+09  -9.198343e+08   1.474305e+05   1.007765e-26   0.000000e+00   0.000000e+00
     1448000   1.447999e-05   3.948604e+01   1.146806e+00   4.288662e+01  -3.260537e+04   1.029535e+05   1.003654e+05  -1.105225e+10  -2.618611e+09  -9.043596e+08   1.474305e+05   1.005479e-26   0.000000e+00   0.000000e+00
     1456000   1.455999e-05   3.948340e+01   1.155034e+00   4.289465e+01  -3.348807e+04   1.027398e+05   1.002937e+05  -1.101493e+10  -2.722961e+09  -8.884985e+08   1.474305e+05   1.003197e-26   0.000000e+00   0.000000e+00
     1464000   1.463999e-05   3.948068e+01   1.163244e+00   4.290267e+01  -3.436670e+04   1.025181e+05   1.002233e+05  -1.093665e+10  -2.817364e+09  -8.683078e+08   1.474305e+05   9.936660e-27   0.000000e+00   0.000000e+00
     1472000   1.471999e-05   3.947790e+01   1.171437e+00   4.291069e+01  -3.523978e+04   1.022886e+05   1.001546e+05  -1.089010e+10  -2.918331e+09  -8.511985e+08   1.474305e+05   9.900541e-27   0.000000e+00   0.000000e+00
     1480000   1.479999e-05   3.947504e+01   1.179610e+00   4.291870e+01  -3.610909e+04   1.020511e+05   1.000872e+05  -1.084263e+10  -3.018770e+09  -8.337481e+08   1.474305e+05   9.864554e-27   0.000000e+00   0.000000e+00
     1488000   1.487999e-05   3.947212e+01   1.187765e+00   4.292670e+01  -3.697457e+04   1.018056e+05   1.000212e+05  -1.079426e+10  -3.118676e+09  -8.159578e+08   1.474305e+05   9.828702e-27   0.000000e+00   0.000000e+00
     1496000   1.495999e-05   3.946913e+01   1.195899e+00   4.293470e+01  -3.783615e+04   1.015522e+05   9.995662e+04  -1.074497e+10  -3.218039e+09  -7.978294e+08   1.474305e+05   9.792988e-27   0.000000e+00   0.000000e+00
     1504000   1.503999e-05   3.946607e+01   1.204013e+00   4.294269e+01  -3.869201e+04   1.012917e+05   9.989326e+04  -1.065140e+10  -3.293105e+09  -7.864268e+08   1.474305e+05   9.674383e-27   0.000000e+00   0.000000e+00
     1512000   1.511999e-05   3.946294e+01   1.212106e+00   4.295068e+01  -3.954214e+04   1.010244e+05   9.983105e+04  -1.060171e+10  -3.389834e+09  -7.688733e+08   1.474305e+05   9.640548e-27   0.000000e+00   0.000000e+00
     1520000   1.519999e-05   3.945974e+01   1.220177e+00   4.295867e+01  -4.038827e+04   1.007493e+05   9.977025e+04  -1.055121e+10  -3.486084e+09  -7.509566e+08   1.474305e+05   9.606951e-27   0.000000e+00   0.000000e+00
     1528000   1.527999e-05   3.945648e+01   1.228225e+00   4.296665e+01  -4.123032e+04   1.004666e+05   9.971090e+04  -1.049988e+10  -3.581849e+09  -7.326783e+08   1.474305e+05   9.573594e-27   0.000000e+00   0.000000e+00
     1536000   1.535999e-05   3.945314e+01   1.236251e+00   4.297462e+01  -4.206823e+04   1.001762e+05   9.965303e+04  -1.044774e+10  -3.677124e+09  -7.140404e+08   1.474305e+05   9.540480e-27   0.000000e+00   0.000000e+00
     1544000   1.543999e-05   3.944974e+01   1.244253e+00   4.298259e+01  -4.290193e+04   9.987827e+04   9.959667e+04  -1.039479e+10  -3.771903e+09  -6.950447e+08   1.474305e+05   9.507611e-27   0.000000e+00   0.000000e+00
     1552000   1.551999e-05   3.944628e+01   1.252231e+00   4.299056e+01  -4.373137e+04   9.957275e+04   9.954184e+04  -1.034103e+10  -3.866182e+09  -6.756934e+08   1.474305e+05   9.474991e-27   0.000000e+00   0.000000e+00
     1560000   1.559999e-05   3.944275e+01   1.260185e+00   4.299852e+01  -4.455647e+04   9.925970e+04   9.948857e+04  -1.028646e+10  -3.959954e+09  -6.559885e+08   1.474305e+05   9.442621e-27   0.000000e+00   0.000000e+00
     1568000   1.567999e-05   3.943915e+01   1.268113e+00   4.300647e+01  -4.537288e+04   9.894093e+04   9.943710e+04  -1.016069e+10  -4.024178e+09  -6.321857e+08   1.474305e+05   9.280796e-27   0.000000e+00   0.000000e+00
     1576000   1.575999e-05   3.943549e+01   1.276015e+00   4.301443e+01  -4.618307e+04   9.861548e+04   9.938739e+04  -1.009415e+10  -4.111959e+09  -6.104906e+08   1.474305e+05   9.229644e-27   0.000000e+00   0.000000e+00
     1584000   1.583999e-05   3.943176e+01   1.283891e+00   4.302238e+01  -4.698792e+04   9.828304e+04   9.933943e+04  -1.002696e+10  -4.198972e+09  -5.884559e+08   1.474305e+05   9.178887e-27   0.000000e+00   0.000000e+00
     1592000   1.591999e-05   3.942797e+01   1.291740e+00   4.303032e+01  -4.778737e+04   9.794366e+04   9.929324e+04  -9.959102e+09  -4.285215e+09  -5.660852e+08   1.474305e+05   9.128527e-27   0.000000e+00   0.000000e+00
     1600000   1.599999e-05   3.942412e+01   1.299562e+00   4.303826e+01  -4.858136e+04   9.759742e+04   9.924886e+04  -9.890601e+09  -4.370686e+09  -5.433821e+08   1.474305e+05   9.078566e-27   0.000000e+00   0.000000e+00
     1608000   1.607999e-05   3.942020e+01   1.307355e+00   4.304620e+01  -4.937718e+04   9.724082e+04   9.920615e+04  -9.926152e+09  -4.507056e+09  -5.226936e+08   1.474305e+05   9.225179e-27   0.000000e+00   0.000000e+00
     1616000   1.615999e-05   3.941622e+01   1.315120e+00   4.305414e+01  -5.016912e+04   9.687649e+04   9.916525e+04  -9.872089e+09  -4.600935e+09  -4.996747e+08   1.474305e+05   9.206682e-27   0.000000e+00   0.000000e+00
     1624000   1.623999e-05   3.941217e+01   1.322855e+00   4.306207e+01  -5.095669e+04   9.650468e+04   9.912621e+04  -9.816978e+09  -4.694329e+09  -4.763091e+08   1.474305e+05   9.188112e-27   0.000000e+00   0.000000e+00
     1632000   1.631999e-05   3.940806e+01   1.330561e+00   4.307000e+01  -5.173981e+04   9.612541e+04   9.908905e+04  -9.760820e+09  -4.787226e+09  -4.526000e+08   1.474305e+05   9.169474e-27   0.000000e+00   0.000000e+00
     1640000   1.639999e-05   3.940389e+01   1.338235e+00   4.307792e+01  -5.251839e+04   9.573874e+04   9.905380e+04  -9.703620e+09  -4.879610e+09  -4.285507e+08   1.474305e+05   9.150770e-27   0.000000e+00   0.000000e+00
     1648000   1.647999e-05   3.939966e+01   1.345879e+00   4.308585e+01  -5.329218e+04   9.534472e+04   9.902056e+04  -9.617943e+09  -4.967072e+09  -3.936143e+08   1.474305e+05   9.087036e-27   0.000000e+00   0.000000e+00
     1656000   1.655999e-05   3.939537e+01   1.353490e+00   4.309377e+01  -5.405932e+04   9.494364e+04   9.899009e+04  -9.560409e+09  -5.059862e+09  -3.679800e+08   1.474305e+05   9.072125e-27   0.000000e+00   0.000000e+00
     1664000   1.663999e-05   3.939101e+01   1.361070e+00   4.310168e+01  -5.482130e+04   9.453572e+04   9.896144e+04  -9.469674e+09  -5.117531e+09  -3.572008e+08   1.474305e+05   8.983250e-27   0.000000e+00   0.000000e+00
     1672000   1.671999e-05   3.938659e+01   1.368616e+00   4.310960e+01  -5.557593e+04   9.412308e+04   9.893384e+04  -9.396090e+09  -5.198331e+09  -3.326704e+08   1.474305e+05   8.938980e-27   0.000000e+00   0.000000e+00
     1680000   1.679999e-05   3.938212e+01   1.376129e+00   4.311751e+01  -5.632465e+04   9.370401e+04   9.890822e+04  -9.321821e+09  -5.278273e+09  -3.078801e+08   1.474305e+05   8.894950e-27   0.000000e+00   0.000000e+00
     1688000   1.687999e-05   3.937758e+01   1.383608e+00   4.312542e+01  -5.706740e+04   9.327858e+04   9.888459e+04  -9.246875e+09  -5.357351e+09  -2.828342e+08   1.474305e+05   8.851162e-27   0.000000e+00   0.000000e+00
     1696000   1.695999e-05   3.937299e+01   1.391053e+00   4.313333e+01  -5.780413e+04   9.284686e+04   9.886297e+04  -9.171261e+09  -5.435561e+09  -2.575371e+08   1.474305e+05   8.807619e-27   0.000000e+00   0.000000e+00
     1704000   1.703999e-05   3.936833e+01   1.398464e+00   4.314124e+01  -5.853479e+04   9.240891e+04   9.884339e+04  -9.094987e+09  -5.512899e+09  -2.319933e+08   1.474305e+05   8.764324e-27   0.000000e+00   0.000000e+00
     1712000   1.711999e-05   3.936362e+01   1.405839e+00   4.314915e+01  -5.926249e+04   9.196231e+04   9.882628e+04  -9.067407e+09  -5.629072e+09  -1.992730e+08   1.474305e+05   8.824684e-27   0.000000e+00   0.000000e+00
     1720000   1.719999e-05   3.935885e+01   1.413178e+00   4.315706e+01  -5.998471e+04   9.150894e+04   9.881140e+04  -8.988026e+09  -5.705226e+09  -1.726905e+08   1.474305e+05   8.779765e-27   0.000000e+00   0.000000e+00
     1728000   1.727999e-05   3.935402e+01   1.420480e+00   4.316496e+01  -6.070055e+04   9.104950e+04   9.879866e+04  -8.908008e+09  -5.780461e+09  -1.458703e+08   1.474305e+05   8.735123e-27   0.000000e+00   0.000000e+00
     1736000   1.735999e-05   3.934914e+01   1.427745e+00   4.317286e+01  -6.140997e+04   9.058409e+04   9.878807e+04  -8.827363e+09  -5.854773e+09  -1.188175e+08   1.474305e+05   8.690761e-27   0.000000e+00   0.000000e+00
     1744000   1.743999e-05   3.934420e+01   1.434973e+00   4.318077e+01  -6.211291e+04   9.011276e+04   9.877965e+04  -8.746100e+09  -5.928157e+09  -9.153746e+07   1.474305e+05   8.646682e-27   0.000000e+00   0.000000e+00
     1752000   1.751999e-05   3.933920e+01   1.442163e+00   4.318867e+01  -6.280933e+04   8.963561e+04   9.877343e+04  -8.664228e+09  -6.000609e+09  -6.403555e+07   1.474305e+05   8.602891e-27   0.000000e+00   0.000000e+00
     1760000   1.759999e-05   3.933415e+01   1.449315e+00   4.319657e+01  -6.349917e+04   8.915269e+04   9.876941e+04  -8.581757e+09  -6.072125e+09  -3.631722e+07   1.474305e+05   8.559391e-27   0.000000e+00   0.000000e+00
     1768000   1.767999e-05   3.932904e+01   1.456427e+00   4.320447e+01  -6.418161e+04   8.866489e+04   9.876742e+04  -8.480511e+09  -6.123995e+09  -1.324683e+07   1.474305e+05   8.474509e-27   0.000000e+00   0.000000e+00
     1776000   1.775999e-05   3.932388e+01   1.463501e+00   4.321237e+01  -6.485659e+04   8.817232e+04   9.876745e+04  -8.394059e+09  -6.190148e+09   1.408049e+07   1.474305e+05   8.424617e-27   0.000000e+00   0.000000e+00
     1784000   1.783999e-05   3.931867e+01   1.470535e+00   4.322027e+01  -6.552464e+04   8.767449e+04   9.876967e+04  -8.307121e+09  -6.255297e+09   4.161136e+07   1.474305e+05   8.375079e-27   0.000000e+00   0.000000e+00
     1792000   1.791999e-05   3.931340e+01   1.477529e+00   4.322818e+01  -6.618572e+04   8.717150e+04   9.877411e+04  -8.219706e+09  -6.319441e+09   6.934006e+07   1.474305e+05   8.325899e-27   0.000000e+00   0.000000e+00
     1800000   1.799999e-05   3.930808e+01   1.484482e+00   4.323608e+01  -6.683978e+04   8.666341e+04   9.878077e+04  -8.131826e+09  -6.382577e+09   9.726081e+07   1.474305e+05   8.277078e-27   0.000000e+00   0.000000e+00
     1808000   1.807999e-05   3.930270e+01   1.491395e+00   4.324398e+01  -6.748680e+04   8.615031e+04   9.878968e+04  -8.043490e+09  -6.444705e+09   1.253678e+08   1.474305e+05   8.228621e-27   0.000000e+00   0.000000e+00
     1816000   1.815999e-05   3.929728e+01   1.498266e+00   4.325188e+01  -6.813411e+04   8.562617e+04   9.880105e+04  -8.141210e+09  -6.661737e+09   1.591683e+08   1.474305e+05   8.572152e-27   0.000000e+00   0.000000e+00
     1824000   1.823999e-05   3.929180e+01   1.505095e+00   4.325979e+01  -6.877026e+04   8.510006e+04   9.881485e+04  -7.859016e+09  -6.568188e+09   1.870943e+08   1.474305e+05   8.127362e-27   0.000000e+00   0.000000e+00
     1832000   1.831999e-05   3.928628e+01   1.511882e+00   4.326769e+01  -6.939553e+04   8.457205e+04   9.883103e+04  -7.772593e+09  -6.631845e+09   2.174070e+08   1.474305e+05   8.088763e-27   0.000000e+00   0.000000e+00
     1840000   1.839999e-05   3.928070e+01   1.518626e+00   4.327560e+01  -7.001386e+04   8.403899e+04   9.884964e+04  -7.685699e+09  -6.694637e+09   2.479128e+08   1.474305e+05   8.050639e-27   0.000000e+00   0.000000e+00
     1848000   1.847999e-05   3.927507e+01   1.525328e+00   4.328351e+01  -7.062523e+04   8.350094e+04   9.887070e+04  -7.598338e+09  -6.756561e+09   2.786053e+08   1.474305e+05   8.012991e-27   0.000000e+00   0.000000e+00
     1856000   1.855999e-05   3.926940e+01   1.531986e+00   4.329142e+01  -7.122958e+04   8.295796e+04   9.889423e+04  -7.510517e+09  -6.817616e+09   3.094778e+08   1.474305e+05   7.975820e-27   0.000000e+00   0.000000e+00
     1864000   1.863999e-05   3.926368e+01   1.538601e+00   4.329933e+01  -7.182690e+04   8.241014e+04   9.892022e+04  -7.422242e+09  -6.877798e+09   3.405239e+08   1.474305e+05   7.939126e-27   0.000000e+00   0.000000e+00
     1872000   1.871999e-05   3.925791e+01   1.545172e+00   4.330725e+01  -7.242027e+04   8.185475e+04   9.894872e+04  -7.376578e+09  -6.975827e+09   3.718276e+08   1.474305e+05   7.993695e-27   0.000000e+00   0.000000e+00
     1880000   1.879999e-05   3.925209e+01   1.551698e+00   4.331517e+01  -7.300685e+04   8.129428e+04   9.897972e+04  -7.287807e+09  -7.035851e+09   4.032711e+08   1.474305e+05   7.959899e-27   0.000000e+00   0.000000e+00
     1888000   1.887999e-05   3.924623e+01   1.558179e+00   4.332309e+01  -7.358631e+04   8.072904e+04   9.901325e+04  -7.198538e+09  -7.094975e+09   4.348686e+08   1.474305e+05   7.926502e-27   0.000000e+00   0.000000e+00
     1896000   1.895999e-05   3.924032e+01   1.564614e+00   4.333101e+01  -7.415860e+04   8.015911e+04   9.904931e+04  -7.108780e+09  -7.153197e+09   4.666134e+08   1.474305e+05   7.893507e-27   0.000000e+00   0.000000e+00
     1904000   1.903999e-05   3.923436e+01   1.571004e+00   4.333893e+01  -7.472370e+04   7.958455e+04   9.908791e+04  -7.018538e+09  -7.210511e+09   4.984988e+08   1.474305e+05   7.860913e-27   0.000000e+00   0.000000e+00
     1912000   1.911999e-05   3.922836e+01   1.577348e+00   4.334686e+01  -7.528155e+04   7.900545e+04   9.912907e+04  -6.927821e+09  -7.266915e+09   5.305182e+08   1.474305e+05   7.828723e-27   0.000000e+00   0.000000e+00
     1920000   1.919999e-05   3.922232e+01   1.583645e+00   4.335479e+01  -7.583213e+04   7.842187e+04   9.917280e+04  -6.836635e+09  -7.322405e+09   5.626649e+08   1.474305e+05   7.796937e-27   0.000000e+00   0.000000e+00
     1928000   1.927999e-05   3.921623e+01   1.589895e+00   4.336273e+01  -7.637540e+04   7.783389e+04   9.921910e+04  -6.744988e+09  -7.376977e+09   5.949320e+08   1.474305e+05   7.765556e-27   0.000000e+00   0.000000e+00
     1936000   1.935999e-05   3.921010e+01   1.596098e+00   4.337067e+01  -7.691132e+04   7.724158e+04   9.926799e+04  -6.652887e+09  -7.430627e+09   6.273127e+08   1.474305e+05   7.734581e-27   0.000000e+00   0.000000e+00
     1944000   1.943999e-05   3.920392e+01   1.602254e+00   4.337861e+01  -7.743995e+04   7.664532e+04   9.931916e+04  -6.564957e+09  -7.473600e+09   6.486917e+08   1.474305e+05   7.696281e-27   0.000000e+00   0.000000e+00
     1952000   1.951999e-05   3.919771e+01   1.608361e+00   4.338656e+01  -7.796167e+04   7.604523e+04   9.937227e+04  -6.476732e+09  -7.527325e+09   6.790758e+08   1.474305e+05   7.672713e-27   0.000000e+00   0.000000e+00
     1960000   1.959999e-05   3.919145e+01   1.614421e+00   4.339451e+01  -7.847614e+04   7.544099e+04   9.942786e+04  -6.384915e+09  -7.578475e+09   7.107180e+08   1.474305e+05   7.644501e-27   0.000000e+00   0.000000e+00
     1968000   1.967999e-05   3.918515e+01   1.620432e+00   4.340247e+01  -7.898312e+04   7.483282e+04   9.948599e+04  -6.287443e+09  -7.623479e+09   7.426732e+08   1.474305e+05   7.605421e-27   0.000000e+00   0.000000e+00
     1976000   1.975999e-05   3.917881e+01   1.626394e+00   4.341043e+01  -7.948236e+04   7.422105e+04   9.954665e+04  -6.193544e+09  -7.670496e+09   7.738656e+08   1.474305e+05   7.574010e-27   0.000000e+00   0.000000e+00
     1984000   1.983999e-05   3.917243e+01   1.632307e+00   4.341840e+01  -7.997408e+04   7.360556e+04   9.960981e+04  -6.099282e+09  -7.716554e+09   8.051205e+08   1.474305e+05   7.542977e-27   0.000000e+00   0.000000e+00
     1992000   1.991999e-05   3.916602e+01   1.638171e+00   4.342637e+01  -8.045824e+04   7.298643e+04   9.967547e+04  -6.004663e+09  -7.761653e+09   8.364314e+08   1.474305e+05   7.512322e-27   0.000000e+00   0.000000e+00
     2000000   1.999999e-05   3.915956e+01   1.643985e+00   4.343434e+01  -8.093481e+04   7.236373e+04   9.974364e+04  -5.909697e+09  -7.805788e+09   8.677916e+08   1.474305e+05   7.482045e-27   0.000000e+00   0.000000e+00
     2008000   2.007999e-05   3.915307e+01   1.649749e+00   4.344233e+01  -8.140378e+04   7.173753e+04   9.981432e+04  -5.814390e+09  -7.848958e+09   8.991947e+08   1.474305e+05   7.452144e-27   0.000000e+00   0.000000e+00
     2016000   2.015999e-05   3.914654e+01   1.655463e+00   4.345031e+01  -8.186510e+04   7.110792e+04   9.988751e+04  -5.718752e+09  -7.891160e+09   9.306339e+08   1.474305e+05   7.422620e-27   0.000000e+00   0.000000e+00
     2024000   2.023999e-05   3.913997e+01   1.661126e+00   4.345831e+01  -8.231877e+04   7.047497e+04   9.996322e+04  -5.622790e+09  -7.932392e+09   9.621027e+08   1.474305e+05   7.393470e-27   0.000000e+00   0.000000e+00
     2032000   2.031999e-05   3.913336e+01   1.666739e+00   4.346631e+01  -8.276474e+04   6.983876e+04   1.000415e+05  -5.526512e+09  -7.972650e+09   9.935943e+08   1.474305e+05   7.364696e-27   0.000000e+00   0.000000e+00
     2040000   2.039999e-05   3.912673e+01   1.672300e+00   4.347432e+01  -8.320300e+04   6.919937e+04   1.001222e+05  -5.429926e+09  -8.011933e+09   1.025102e+09   1.474305e+05   7.336295e-27   0.000000e+00   0.000000e+00
     2048000   2.047999e-05   3.912005e+01   1.677810e+00   4.348233e+01  -8.363352e+04   6.855688e+04   1.002055e+05  -5.333041e+09  -8.050237e+09   1.056620e+09   1.474305e+05   7.308267e-27   0.000000e+00   0.000000e+00
     2056000   2.055999e-05   3.911334e+01   1.683269e+00   4.349035e+01  -8.405628e+04   6.791136e+04   1.002913e+05  -5.235865e+09  -8.087562e+09   1.088140e+09   1.474305e+05   7.280610e-27   0.000000e+00   0.000000e+00
     2064000   2.063999e-05   3.910660e+01   1.688676e+00   4.349838e+01  -8.447125e+04   6.726289e+04   1.003796e+05  -5.138406e+09  -8.123904e+09   1.119656e+09   1.474305e+05   7.253323e-27   0.000000e+00   0.000000e+00
     2072000   2.071999e-05   3.909983e+01   1.694031e+00   4.350641e+01  -8.487810e+04   6.661078e+04   1.004712e+05  -4.987719e+09  -8.098307e+09   1.155429e+09   1.474305e+05   7.109291e-27   0.000000e+00   0.000000e+00
     2080000   2.079999e-05   3.909302e+01   1.699334e+00   4.351445e+01  -8.527316e+04   6.596165e+04   1.005649e+05  -4.888691e+09  -8.129923e+09   1.187193e+09   1.474305e+05   7.079043e-27   0.000000e+00   0.000000e+00
     2088000   2.087999e-05   3.908619e+01   1.704585e+00   4.352250e+01  -8.566472e+04   6.530331e+04   1.006617e+05  -4.857121e+09  -8.263136e+09   1.227151e+09   1.474305e+05   7.231812e-27   0.000000e+00   0.000000e+00
     2096000   2.095999e-05   3.907932e+01   1.709782e+00   4.353056e+01  -8.604969e+04   6.464046e+04   1.007612e+05  -4.766897e+09  -8.307936e+09   1.258816e+09   1.474305e+05   7.228155e-27   0.000000e+00   0.000000e+00
     2104000   2.103999e-05   3.907242e+01   1.714927e+00   4.353862e+01  -8.642741e+04   6.397406e+04   1.008631e+05  -4.676051e+09  -8.351835e+09   1.290489e+09   1.474305e+05   7.224610e-27   0.000000e+00   0.000000e+00
     2112000   2.111999e-05   3.906549e+01   1.720018e+00   4.354669e+01  -8.679784e+04   6.330419e+04   1.009676e+05  -4.584592e+09  -8.394821e+09   1.322162e+09   1.474305e+05   7.221176e-27   0.000000e+00   0.000000e+00
     2120000   2.119999e-05   3.905853e+01   1.725056e+00   4.355478e+01  -8.716093e+04   6.263092e+04   1.010747e+05  -4.492530e+09  -8.436887e+09   1.353829e+09   1.474305e+05   7.217855e-27   0.000000e+00   0.000000e+00
     2128000   2.127999e-05   3.905154e+01   1.730039e+00   4.356287e+01  -8.751663e+04   6.195431e+04   1.011842e+05  -4.399874e+09  -8.478022e+09   1.385481e+09   1.474305e+05   7.214646e-27   0.000000e+00   0.000000e+00
     2136000   2.135999e-05   3.904453e+01   1.734968e+00   4.357097e+01  -8.786489e+04   6.127446e+04   1.012963e+05  -4.306633e+09  -8.518217e+09   1.417112e+09   1.474305e+05   7.211549e-27   0.000000e+00   0.000000e+00
     2144000   2.143999e-05   3.903749e+01   1.739843e+00   4.357907e+01  -8.820567e+04   6.059142e+04   1.014110e+05  -4.212817e+09  -8.557463e+09   1.448714e+09   1.474305e+05   7.208564e-27   0.000000e+00   0.000000e+00
     2152000   2.151999e-05   3.903042e+01   1.744663e+00   4.358719e+01  -8.853892e+04   5.990529e+04   1.015281e+05  -4.118436e+09  -8.595751e+09   1.480279e+09   1.474305e+05   7.205690e-27   0.000000e+00   0.000000e+00
     2160000   2.159999e-05   3.902332e+01   1.749428e+00   4.359532e+01  -8.886460e+04   5.921613e+04   1.016478e+05  -4.023500e+09  -8.633071e+09   1.511801e+09   1.474305e+05   7.202928e-27   0.000000e+00   0.000000e+00
     2168000   2.167999e-05   3.901620e+01   1.754137e+00   4.360346e+01  -8.918140e+04   5.852611e+04   1.017699e+05  -3.888604e+09  -8.604819e+09   1.540890e+09   1.474305e+05   7.089431e-27   0.000000e+00   0.000000e+00
     2176000   2.175999e-05   3.900905e+01   1.758792e+00   4.361160e+01  -8.948828e+04   5.783689e+04   1.018945e+05  -3.783466e+09  -8.625547e+09   1.573194e+09   1.474305e+05   7.062411e-27   0.000000e+00   0.000000e+00
     2184000   2.183999e-05   3.900188e+01   1.763391e+00   4.361976e+01  -8.978675e+04   5.714606e+04   1.020216e+05  -3.678187e+09  -8.645148e+09   1.605390e+09   1.474305e+05   7.035716e-27   0.000000e+00   0.000000e+00
     2192000   2.191999e-05   3.899469e+01   1.767935e+00   4.362793e+01  -9.007813e+04   5.645118e+04   1.021516e+05  -3.596867e+09  -8.708960e+09   1.641022e+09   1.474305e+05   7.084619e-27   0.000000e+00   0.000000e+00
     2200000   2.199999e-05   3.898747e+01   1.772423e+00   4.363610e+01  -9.036180e+04   5.575346e+04   1.022841e+05  -3.494865e+09  -8.733854e+09   1.673194e+09   1.474305e+05   7.070483e-27   0.000000e+00   0.000000e+00
     2208000   2.207999e-05   3.898023e+01   1.776856e+00   4.364429e+01  -9.063730e+04   5.505379e+04   1.024193e+05  -3.392571e+09  -8.757688e+09   1.705259e+09   1.474305e+05   7.056596e-27   0.000000e+00   0.000000e+00
     2216000   2.215999e-05   3.897297e+01   1.781232e+00   4.365249e+01  -9.090460e+04   5.435226e+04   1.025570e+05  -3.289994e+09  -8.780459e+09   1.737211e+09   1.474305e+05   7.042956e-27   0.000000e+00   0.000000e+00
     2224000   2.223999e-05   3.896568e+01   1.785552e+00   4.366070e+01  -9.116369e+04   5.364895e+04   1.026972e+05  -3.187147e+09  -8.802163e+09   1.769041e+09   1.474305e+05   7.029563e-27   0.000000e+00   0.000000e+00
     2232000   2.231999e-05   3.895838e+01   1.789816e+00   4.366892e+01  -9.141454e+04   5.294394e+04   1.028400e+05  -3.084042e+09  -8.822798e+09   1.800742e+09   1.474305e+05   7.016416e-27   0.000000e+00   0.000000e+00
     2240000   2.239999e-05   3.895106e+01   1.794023e+00   4.367716e+01  -9.165713e+04   5.223733e+04   1.029853e+05  -2.980689e+09  -8.842360e+09   1.832307e+09   1.474305e+05   7.003516e-27   0.000000e+00   0.000000e+00
     2248000   2.247999e-05   3.894371e+01   1.798174e+00   4.368540e+01  -9.189144e+04   5.152919e+04   1.031332e+05  -2.877100e+09  -8.860846e+09   1.863728e+09   1.474305e+05   6.990861e-27   0.000000e+00   0.000000e+00
     2256000   2.255999e-05   3.893635e+01   1.802268e+00   4.369366e+01  -9.211695e+04   5.082113e+04   1.032833e+05  -2.761219e+09  -8.843096e+09   1.888611e+09   1.474305e+05   6.923154e-27   0.000000e+00   0.000000e+00
     2264000   2.263999e-05   3.892898e+01   1.806305e+00   4.370193e+01  -9.233322e+04   5.011380e+04   1.034356e+05  -2.634034e+09  -8.821268e+09   1.922542e+09   1.474305e+05   6.850164e-27   0.000000e+00   0.000000e+00
     2272000   2.271999e-05   3.892158e+01   1.810286e+00   4.371021e+01  -9.253951e+04   4.940810e+04   1.035907e+05  -2.523186e+09  -8.821250e+09   1.953339e+09   1.474305e+05   6.815111e-27   0.000000e+00   0.000000e+00
     2280000   2.279999e-05   3.891417e+01   1.814210e+00   4.371850e+01  -9.273694e+04   4.870244e+04   1.037482e+05  -2.412563e+09  -8.820093e+09   1.983911e+09   1.474305e+05   6.780564e-27   0.000000e+00   0.000000e+00
     2288000   2.287999e-05   3.890674e+01   1.818078e+00   4.372681e+01  -9.292552e+04   4.799691e+04   1.039081e+05  -2.302175e+09  -8.817799e+09   2.014253e+09   1.474305e+05   6.746519e-27   0.000000e+00   0.000000e+00
     2296000   2.295999e-05   3.889930e+01   1.821890e+00   4.373513e+01  -9.310555e+04   4.729104e+04   1.040705e+05  -2.226467e+09  -8.891469e+09   2.048528e+09   1.474305e+05   6.831790e-27   0.000000e+00   0.000000e+00
     2304000   2.303999e-05   3.889185e+01   1.825645e+00   4.374346e+01  -9.327931e+04   4.657962e+04   1.042356e+05  -2.117673e+09  -8.893935e+09   2.079346e+09   1.474305e+05   6.808436e-27   0.000000e+00   0.000000e+00
     2312000   2.311999e-05   3.888438e+01   1.829342e+00   4.375180e+01  -9.344437e+04   4.586805e+04   1.044032e+05  -2.008939e+09  -8.895193e+09   2.109916e+09   1.474305e+05   6.785337e-27   0.000000e+00   0.000000e+00
     2320000   2.319999e-05   3.887690e+01   1.832983e+00   4.376016e+01  -9.360074e+04   4.515642e+04   1.045732e+05  -1.900279e+09  -8.895246e+09   2.140232e+09   1.474305e+05   6.762490e-27   0.000000e+00   0.000000e+00
     2328000   2.327999e-05   3.886940e+01   1.836568e+00   4.376853e+01  -9.374842e+04   4.444484e+04   1.047456e+05  -1.791707e+09  -8.894097e+09   2.170286e+09   1.474305e+05   6.739896e-27   0.000000e+00   0.000000e+00
     2336000   2.335999e-05   3.886190e+01   1.840095e+00   4.377692e+01  -9.388742e+04   4.373340e+04   1.049204e+05  -1.683238e+09  -8.891749e+09   2.200072e+09   1.474305e+05   6.717552e-27   0.000000e+00   0.000000e+00
     2344000   2.343999e-05   3.885438e+01   1.843565e+00   4.378532e+01  -9.401774e+04   4.302219e+04   1.050976e+05  -1.574886e+09  -8.888207e+09   2.229582e+09   1.474305e+05   6.695458e-27   0.000000e+00   0.000000e+00
     2352000   2.351999e-05   3.884685e+01   1.846978e+00   4.379374e+01  -9.413940e+04   4.231131e+04   1.052771e+05  -1.466666e+09  -8.883473e+09   2.258811e+09   1.474305e+05   6.673610e-27   0.000000e+00   0.000000e+00
     2360000   2.359999e-05   3.883932e+01   1.850335e+00   4.380217e+01  -9.425180e+04   4.160269e+04   1.054588e+05  -1.329348e+09  -8.788685e+09   2.278997e+09   1.474305e+05   6.521235e-27   0.000000e+00   0.000000e+00
     2368000   2.367999e-05   3.883177e+01   1.853635e+00   4.381061e+01  -9.435396e+04   4.089983e+04   1.056422e+05  -1.224597e+09  -8.782621e+09   2.306492e+09   1.474305e+05   6.502028e-27   0.000000e+00   0.000000e+00
     2376000   2.375999e-05   3.882422e+01   1.856879e+00   4.381907e+01  -9.444774e+04   4.019750e+04   1.058279e+05  -1.119993e+09  -8.775476e+09   2.333717e+09   1.474305e+05   6.483102e-27   0.000000e+00   0.000000e+00
     2384000   2.383999e-05   3.881666e+01   1.860066e+00   4.382754e+01  -9.453316e+04   3.949579e+04   1.060156e+05  -1.015549e+09  -8.767253e+09   2.360664e+09   1.474305e+05   6.464454e-27   0.000000e+00   0.000000e+00
     2392000   2.391999e-05   3.880910e+01   1.863198e+00   4.383603e+01  -9.461023e+04   3.879477e+04   1.062056e+05  -9.112765e+08  -8.757956e+09   2.387329e+09   1.474305e+05   6.446079e-27   0.000000e+00   0.000000e+00
     2400000   2.399999e-05   3.880153e+01   1.866274e+00   4.384454e+01  -9.467897e+04   3.809454e+04   1.063976e+05  -8.071872e+08  -8.747587e+09   2.413706e+09   1.474305e+05   6.427975e-27   0.000000e+00   0.000000e+00
     2408000   2.407999e-05   3.879395e+01   1.869293e+00   4.385306e+01  -9.474147e+04   3.738972e+04   1.065918e+05  -7.363923e+08  -8.824821e+09   2.441009e+09   1.474305e+05   6.534887e-27   0.000000e+00   0.000000e+00
     2416000   2.415999e-05   3.878637e+01   1.872256e+00   4.386159e+01  -9.479627e+04   3.668392e+04   1.067881e+05  -6.337922e+08  -8.820104e+09   2.467274e+09   1.474305e+05   6.527538e-27   0.000000e+00   0.000000e+00
     2424000   2.423999e-05   3.877878e+01   1.875162e+00   4.387014e+01  -9.484287e+04   3.597853e+04   1.069866e+05  -5.312067e+08  -8.814293e+09   2.493257e+09   1.474305e+05   6.520328e-27   0.000000e+00   0.000000e+00
     2432000   2.431999e-05   3.877119e+01   1.878013e+00   4.387871e+01  -9.488127e+04   3.527366e+04   1.071871e+05  -4.286494e+08  -8.807390e+09   2.518951e+09   1.474305e+05   6.513257e-27   0.000000e+00   0.000000e+00
     2440000   2.439999e-05   3.876360e+01   1.880806e+00   4.388729e+01  -9.491146e+04   3.456938e+04   1.073896e+05  -3.261338e+08  -8.799394e+09   2.544349e+09   1.474305e+05   6.506320e-27   0.000000e+00   0.000000e+00
     2448000   2.447999e-05   3.875601e+01   1.883544e+00   4.389589e+01  -9.493345e+04   3.386578e+04   1.075941e+05  -2.236735e+08  -8.790305e+09   2.569446e+09   1.474305e+05   6.499515e-27   0.000000e+00   0.000000e+00
     2456000   2.455999e-05   3.874841e+01   1.886225e+00   4.390451e+01  -9.494587e+04   3.316716e+04   1.078006e+05  -8.823444e+07  -8.678596e+09   2.592450e+09   1.474305e+05   6.354308e-27   0.000000e+00   0.000000e+00
     2464000   2.463999e-05   3.874082e+01   1.888851e+00   4.391314e+01  -9.494881e+04   3.247348e+04   1.080090e+05   1.461371e+07  -8.663236e+09   2.617502e+09   1.474305e+05   6.343199e-27   0.000000e+00   0.000000e+00
     2472000   2.471999e-05   3.873322e+01   1.891421e+00   4.392179e+01  -9.494354e+04   3.178107e+04   1.082194e+05   1.172484e+08  -8.646829e+09   2.642209e+09   1.474305e+05   6.332317e-27   0.000000e+00   0.000000e+00
     2480000   2.479999e-05   3.872562e+01   1.893936e+00   4.393045e+01  -9.493006e+04   3.109002e+04   1.084318e+05   2.196577e+08  -8.629381e+09   2.666567e+09   1.474305e+05   6.321658e-27   0.000000e+00   0.000000e+00
     2488000   2.487999e-05   3.871803e+01   1.896395e+00   4.393914e+01  -9.490840e+04   3.040040e+04   1.086460e+05   3.218297e+08  -8.610893e+09   2.690570e+09   1.474305e+05   6.311216e-27   0.000000e+00   0.000000e+00
     2496000   2.495999e-05   3.871044e+01   1.898800e+00   4.394784e+01  -9.487857e+04   2.971230e+04   1.088622e+05   4.237527e+08  -8.591371e+09   2.714213e+09   1.474305e+05   6.300989e-27   0.000000e+00   0.000000e+00
     2504000   2.503999e-05   3.870285e+01   1.901149e+00   4.395656e+01  -9.484109e+04   2.902398e+04   1.090804e+05   5.131671e+08  -8.617481e+09   2.739115e+09   1.474305e+05   6.352793e-27   0.000000e+00   0.000000e+00
     2512000   2.511999e-05   3.869527e+01   1.903444e+00   4.396529e+01  -9.479525e+04   2.833769e+04   1.093004e+05   6.293261e+08  -8.550551e+09   2.762667e+09   1.474305e+05   6.284116e-27   0.000000e+00   0.000000e+00
     2520000   2.519999e-05   3.868768e+01   1.905683e+00   4.397404e+01  -9.474082e+04   2.765456e+04   1.095224e+05   7.313290e+08  -8.527423e+09   2.785820e+09   1.474305e+05   6.274223e-27   0.000000e+00   0.000000e+00
     2528000   2.527999e-05   3.868011e+01   1.907868e+00   4.398281e+01  -9.467825e+04   2.697333e+04   1.097462e+05   8.330276e+08  -8.503275e+09   2.808591e+09   1.474305e+05   6.264561e-27   0.000000e+00   0.000000e+00
     2536000   2.535999e-05   3.867254e+01   1.909999e+00   4.399160e+01  -9.460755e+04   2.629407e+04   1.099718e+05   9.344104e+08  -8.478113e+09   2.830974e+09   1.474305e+05   6.255123e-27   0.000000e+00   0.000000e+00
     2544000   2.543999e-05   3.866497e+01   1.912075e+00   4.400041e+01  -9.452879e+04   2.561672e+04   1.101991e+05   1.024526e+09  -8.489779e+09   2.852367e+09   1.474305e+05   6.293541e-27   0.000000e+00   0.000000e+00
     2552000   2.551999e-05   3.865741e+01   1.914098e+00   4.400923e+01  -9.444277e+04   2.493873e+04   1.104281e+05   1.125945e+09  -8.459709e+09   2.873476e+09   1.474305e+05   6.280321e-27   0.000000e+00   0.000000e+00
     2560000   2.559999e-05   3.864986e+01   1.916066e+00   4.401808e+01  -9.434865e+04   2.426319e+04   1.106589e+05   1.226913e+09  -8.428708e+09   2.894172e+09   1.474305e+05   6.267416e-27   0.000000e+00   0.000000e+00
     2568000   2.567999e-05   3.864232e+01   1.917980e+00   4.402694e+01  -9.424647e+04   2.359016e+04   1.108912e+05   1.327420e+09  -8.396782e+09   2.914451e+09   1.474305e+05   6.254819e-27   0.000000e+00   0.000000e+00
     2576000   2.575999e-05   3.863478e+01   1.919840e+00   4.403582e+01  -9.413627e+04   2.291973e+04   1.111252e+05   1.427458e+09  -8.363939e+09   2.934309e+09   1.474305e+05   6.242525e-27   0.000000e+00   0.000000e+00
     2584000   2.583999e-05   3.862725e+01   1.921647e+00   4.404472e+01  -9.401809e+04   2.225196e+04   1.113607e+05   1.527017e+09  -8.330185e+09   2.953744e+09   1.474305e+05   6.230527e-27   0.000000e+00   0.000000e+00
     2592000   2.591999e-05   3.861974e+01   1.923401e+00   4.405364e+01  -9.389196e+04   2.158692e+04   1.115977e+05   1.626088e+09  -8.295528e+09   2.972751e+09   1.474305e+05   6.218820e-27   0.000000e+00   0.000000e+00
     2600000   2.599999e-05   3.861223e+01   1.925101e+00   4.406258e+01  -9.375793e+04   2.092470e+04   1.118363e+05   1.724661e+09  -8.259976e+09   2.991327e+09   1.474305e+05   6.207396e-27   0.000000e+00   0.000000e+00
     2608000   2.607999e-05   3.860474e+01   1.926749e+00   4.407153e+01  -9.361603e+04   2.026535e+04   1.120763e+05   1.822729e+09  -8.223536e+09   3.009469e+09   1.474305e+05   6.196250e-27   0.000000e+00   0.000000e+00
     2616000   2.615999e-05   3.859725e+01   1.928344e+00   4.408051e+01  -9.346641e+04   1.960895e+04   1.123177e+05   1.916688e+09  -8.186438e+09   3.024226e+09   1.474305e+05   6.183210e-27   0.000000e+00   0.000000e+00
     2624000   2.623999e-05   3.858978e+01   1.929886e+00   4.408950e+01  -9.330922e+04   1.895555e+04   1.125603e+05   2.012940e+09  -8.148536e+09   3.040916e+09   1.474305e+05   6.172394e-27   0.000000e+00   0.000000e+00
     2632000   2.631999e-05   3.858232e+01   1.931377e+00   4.409852e+01  -9.314435e+04   1.830521e+04   1.128043e+05   2.108668e+09  -8.109754e+09   3.057172e+09   1.474305e+05   6.161794e-27   0.000000e+00   0.000000e+00
     2640000   2.639999e-05   3.857488e+01   1.932815e+00   4.410755e+01  -9.297162e+04   1.765762e+04   1.130497e+05   2.207640e+09  -8.073361e+09   3.076566e+09   1.474305e+05   6.158481e-27   0.000000e+00   0.000000e+00
     2648000   2.647999e-05   3.856745e+01   1.934202e+00   4.411661e+01  -9.279118e+04   1.701361e+04   1.132965e+05   2.303183e+09  -8.026720e+09   3.091706e+09   1.474305e+05   6.140934e-27   0.000000e+00   0.000000e+00
     2656000   2.655999e-05   3.856003e+01   1.935537e+00   4.412568e+01  -9.260313e+04   1.637337e+04   1.135444e+05   2.398036e+09  -7.979228e+09   3.106391e+09   1.474305e+05   6.123647e-27   0.000000e+00   0.000000e+00
     2664000   2.663999e-05   3.855263e+01   1.936822e+00   4.413477e+01  -9.240751e+04   1.573696e+04   1.137935e+05   2.492192e+09  -7.930896e+09   3.120621e+09   1.474305e+05   6.106615e-27   0.000000e+00   0.000000e+00
     2672000   2.671999e-05   3.854525e+01   1.938055e+00   4.414389e+01  -9.220439e+04   1.510445e+04   1.140437e+05   2.585643e+09  -7.881734e+09   3.134393e+09   1.474305e+05   6.089832e-27   0.000000e+00   0.000000e+00
     2680000   2.679999e-05   3.853788e+01   1.939238e+00   4.415302e+01  -9.199383e+04   1.447590e+04   1.142950e+05   2.678379e+09  -7.831754e+09   3.147705e+09   1.474305e+05   6.073292e-27   0.000000e+00   0.000000e+00
     2688000   2.687999e-05   3.853053e+01   1.940372e+00   4.416217e+01  -9.177587e+04   1.385139e+04   1.145473e+05   2.770394e+09  -7.780966e+09   3.160557e+09   1.474305e+05   6.056989e-27   0.000000e+00   0.000000e+00
     2696000   2.695999e-05   3.852320e+01   1.941455e+00   4.417135e+01  -9.155058e+04   1.323097e+04   1.148006e+05   2.861679e+09  -7.729382e+09   3.172947e+09   1.474305e+05   6.040920e-27   0.000000e+00   0.000000e+00
     2704000   2.703999e-05   3.851588e+01   1.942489e+00   4.418054e+01  -9.131802e+04   1.261471e+04   1.150549e+05   2.952227e+09  -7.677012e+09   3.184875e+09   1.474305e+05   6.025077e-27   0.000000e+00   0.000000e+00
     2712000   2.711999e-05   3.850858e+01   1.943473e+00   4.418976e+01  -9.107825e+04   1.200267e+04   1.153102e+05   3.042031e+09  -7.623867e+09   3.196338e+09   1.474305e+05   6.009456e-27   0.000000e+00   0.000000e+00
     2720000   2.719999e-05   3.850131e+01   1.944409e+00   4.419899e+01  -9.083132e+04   1.139491e+04   1.155663e+05   3.131083e+09  -7.569960e+09   3.207336e+09   1.474305e+05   5.994051e-27   0.000000e+00   0.000000e+00
     2728000   2.727999e-05   3.849405e+01   1.945297e+00   4.420825e+01  -9.057731e+04   1.079213e+04   1.158233e+05   3.219239e+09  -7.505660e+09   3.216907e+09   1.474305e+05   5.967094e-27   0.000000e+00   0.000000e+00
     2736000   2.735999e-05   3.848682e+01   1.946136e+00   4.421752e+01  -9.031630e+04   1.019384e+04   1.160810e+05   3.305738e+09  -7.451356e+09   3.226374e+09   1.474305e+05   5.952625e-27   0.000000e+00   0.000000e+00
     2744000   2.743999e-05   3.847960e+01   1.946928e+00   4.422682e+01  -9.004841e+04   9.599929e+03   1.163395e+05   3.391476e+09  -7.396351e+09   3.235378e+09   1.474305e+05   5.938352e-27   0.000000e+00   0.000000e+00
     2752000   2.751999e-05   3.847241e+01   1.947672e+00   4.423614e+01  -8.977369e+04   9.010444e+03   1.165987e+05   3.476447e+09  -7.340657e+09   3.243921e+09   1.474305e+05   5.924269e-27   0.000000e+00   0.000000e+00
     2760000   2.759999e-05   3.846524e+01   1.948370e+00   4.424548e+01  -8.949220e+04   8.425442e+03   1.168585e+05   3.560644e+09  -7.284285e+09   3.252001e+09   1.474305e+05   5.910371e-27   0.000000e+00   0.000000e+00
     2768000   2.767999e-05   3.845809e+01   1.949020e+00   4.425483e+01  -8.920400e+04   7.844977e+03   1.171190e+05   3.644062e+09  -7.227245e+09   3.259619e+09   1.474305e+05   5.896652e-27   0.000000e+00   0.000000e+00
     2776000   2.775999e-05   3.845097e+01   1.949625e+00   4.426421e+01  -8.890917e+04   7.269101e+03   1.173800e+05   3.726693e+09  -7.169549e+09   3.266775e+09   1.474305e+05   5.883108e-27   0.000000e+00   0.000000e+00
     2784000   2.783999e-05   3.844386e+01   1.950183e+00   4.427362e+01  -8.860775e+04   6.697867e+03   1.176417e+05   3.808533e+09  -7.111208e+09   3.273469e+09   1.474305e+05   5.869734e-27   0.000000e+00   0.000000e+00
     2792000   2.791999e-05   3.843679e+01   1.950697e+00   4.428304e+01  -8.829982e+04   6.131325e+03   1.179038e+05   3.889576e+09  -7.052233e+09   3.279701e+09   1.474305e+05   5.856524e-27   0.000000e+00   0.000000e+00
     2800000   2.799999e-05   3.842974e+01   1.951165e+00   4.429248e+01  -8.798544e+04   5.569527e+03   1.181664e+05   3.969817e+09  -6.992635e+09   3.285473e+09   1.474305e+05   5.843473e-27   0.000000e+00   0.000000e+00
     2808000   2.807999e-05   3.842271e+01   1.951588e+00   4.430194e+01  -8.766458e+04   5.012256e+03   1.184295e+05   4.054935e+09  -6.948227e+09   3.295641e+09   1.474305e+05   5.853610e-27   0.000000e+00   0.000000e+00
     2816000   2.815999e-05   3.841571e+01   1.951967e+00   4.431143e+01  -8.733694e+04   4.458949e+03   1.186934e+05   4.135895e+09  -6.884364e+09   3.301903e+09   1.474305e+05   5.839751e-27   0.000000e+00   0.000000e+00
     2824000   2.823999e-05   3.840874e+01   1.952301e+00   4.432094e+01  -8.700286e+04   3.910775e+03   1.189578e+05   4.216000e+09  -6.819900e+09   3.307693e+09   1.474305e+05   5.826109e-27   0.000000e+00   0.000000e+00
     2832000   2.831999e-05   3.840179e+01   1.952593e+00   4.433046e+01  -8.666240e+04   3.367781e+03   1.192226e+05   4.295245e+09  -6.754847e+09   3.313010e+09   1.474305e+05   5.812680e-27   0.000000e+00   0.000000e+00
     2840000   2.839999e-05   3.839487e+01   1.952840e+00   4.434001e+01  -8.631633e+04   2.829363e+03   1.194874e+05   4.361904e+09  -6.701777e+09   3.309688e+09   1.474305e+05   5.800360e-27   0.000000e+00   0.000000e+00
     2848000   2.847999e-05   3.838798e+01   1.953045e+00   4.434958e+01  -8.596429e+04   2.295697e+03   1.197523e+05   4.438918e+09  -6.639777e+09   3.313773e+09   1.474305e+05   5.790886e-27   0.000000e+00   0.000000e+00
     2856000   2.855999e-05   3.838112e+01   1.953208e+00   4.435917e+01  -8.560612e+04   1.767016e+03   1.200176e+05   4.515131e+09  -6.577161e+09   3.317393e+09   1.474305e+05   5.781501e-27   0.000000e+00   0.000000e+00
     2864000   2.863999e-05   3.837428e+01   1.953328e+00   4.436878e+01  -8.524189e+04   1.243368e+03   1.202831e+05   4.590538e+09  -6.513939e+09   3.320550e+09   1.474305e+05   5.772202e-27   0.000000e+00   0.000000e+00
     2872000   2.871999e-05   3.836748e+01   1.953407e+00   4.437842e+01  -8.487166e+04   7.248022e+02   1.205489e+05   4.665131e+09  -6.450123e+09   3.323243e+09   1.474305e+05   5.762985e-27   0.000000e+00   0.000000e+00
     2880000   2.879999e-05   3.836070e+01   1.953444e+00   4.438807e+01  -8.449549e+04   2.113649e+02   1.208148e+05   4.738905e+09  -6.385724e+09   3.325474e+09   1.474305e+05   5.753846e-27   0.000000e+00   0.000000e+00
     2888000   2.887999e-05   3.835396e+01   1.953441e+00   4.439775e+01  -8.411345e+04  -2.968977e+02   1.210809e+05   4.811855e+09  -6.320753e+09   3.327244e+09   1.474305e+05   5.744782e-27   0.000000e+00   0.000000e+00
     2896000   2.895999e-05   3.834725e+01   1.953397e+00   4.440744e+01  -8.372427e+04  -8.027223e+02   1.213481e+05   4.906238e+09  -6.301913e+09   3.343384e+09   1.474305e+05   5.805737e-27   0.000000e+00   0.000000e+00
     2904000   2.903999e-05   3.834056e+01   1.953313e+00   4.441716e+01  -8.332887e+04  -1.304378e+03   1.216156e+05   4.978581e+09  -6.239380e+09   3.344323e+09   1.474305e+05   5.800869e-27   0.000000e+00   0.000000e+00
     2912000   2.911999e-05   3.833391e+01   1.953188e+00   4.442690e+01  -8.292772e+04  -1.801007e+03   1.218832e+05   5.050142e+09  -6.176276e+09   3.344793e+09   1.474305e+05   5.796015e-27   0.000000e+00   0.000000e+00
     2920000   2.919999e-05   3.832730e+01   1.953025e+00   4.443666e+01  -8.252087e+04  -2.292566e+03   1.221507e+05   5.120913e+09  -6.112610e+09   3.344796e+09   1.474305e+05   5.791171e-27   0.000000e+00   0.000000e+00
     2928000   2.927999e-05   3.832071e+01   1.952822e+00   4.444645e+01  -8.210839e+04  -2.779010e+03   1.224183e+05   5.190889e+09  -6.048395e+09   3.344334e+09   1.474305e+05   5.786336e-27   0.000000e+00   0.000000e+00
     2936000   2.935999e-05   3.831416e+01   1.952580e+00   4.445625e+01  -8.169035e+04  -3.260294e+03   1.226858e+05   5.260064e+09  -5.983640e+09   3.343408e+09   1.474305e+05   5.781505e-27   0.000000e+00   0.000000e+00
     2944000   2.943999e-05   3.830764e+01   1.952300e+00   4.446608e+01  -8.126680e+04  -3.736377e+03   1.229532e+05   5.328433e+09  -5.918358e+09   3.342020e+09   1.474305e+05   5.776676e-27   0.000000e+00   0.000000e+00
     2952000   2.951999e-05   3.830116e+01   1.951982e+00   4.447592e+01  -8.083782e+04  -4.207217e+03   1.232205e+05   5.395990e+09  -5.852559e+09   3.340172e+09   1.474305e+05   5.771847e-27   0.000000e+00   0.000000e+00
     2960000   2.959999e-05   3.829471e+01   1.951627e+00   4.448579e+01  -8.040477e+04  -4.672922e+03   1.234868e+05   5.443198e+09  -5.788771e+09   3.325127e+09   1.474305e+05   5.746200e-27   0.000000e+00   0.000000e+00
     2968000   2.967999e-05   3.828829e+01   1.951235e+00   4.449568e+01  -7.996664e+04  -5.133377e+03   1.237527e+05   5.509808e+09  -5.722531e+09   3.322962e+09   1.474305e+05   5.742534e-27   0.000000e+00   0.000000e+00
     2976000   2.975999e-05   3.828191e+01   1.950806e+00   4.450559e+01  -7.952252e+04  -5.589557e+03   1.240189e+05   5.590585e+09  -5.678226e+09   3.328843e+09   1.474305e+05   5.775889e-27   0.000000e+00   0.000000e+00
     2984000   2.983999e-05   3.827557e+01   1.950341e+00   4.451552e+01  -7.907275e+04  -6.041028e+03   1.242850e+05   5.653518e+09  -5.608474e+09   3.324287e+09   1.474305e+05   5.767373e-27   0.000000e+00   0.000000e+00
     2992000   2.991999e-05   3.826926e+01   1.949839e+00   4.452548e+01  -7.861798e+04  -6.486900e+03   1.245507e+05   5.715555e+09  -5.538263e+09   3.319289e+09   1.474305e+05   5.758814e-27   0.000000e+00   0.000000e+00
     3000000   2.999999e-05   3.826299e+01   1.949303e+00   4.453545e+01  -7.815828e+04  -6.927137e+03   1.248161e+05   5.776692e+09  -5.467607e+09   3.313853e+09   1.474305e+05   5.750210e-27   0.000000e+00   0.000000e+00
     3008000   3.007999e-05   3.825675e+01   1.948731e+00   4.454545e+01  -7.769373e+04  -7.361705e+03   1.250810e+05   5.836924e+09  -5.396518e+09   3.307982e+09   1.474305e+05   5.741561e-27   0.000000e+00   0.000000e+00
     3016000   3.015999e-05   3.825056e+01   1.948125e+00   4.455547e+01  -7.722440e+04  -7.790568e+03   1.253453e+05   5.896248e+09  -5.325009e+09   3.301679e+09   1.474305e+05   5.732864e-27   0.000000e+00   0.000000e+00
     3024000   3.023999e-05   3.824440e+01   1.947485e+00   4.456550e+01  -7.675035e+04  -8.213695e+03   1.256092e+05   5.954660e+09  -5.253093e+09   3.294947e+09   1.474305e+05   5.724119e-27   0.000000e+00   0.000000e+00
     3032000   3.031999e-05   3.823828e+01   1.946811e+00   4.457556e+01  -7.627168e+04  -8.631052e+03   1.258725e+05   6.012155e+09  -5.180784e+09   3.287789e+09   1.474305e+05   5.715325e-27   0.000000e+00   0.000000e+00
     3040000   3.039999e-05   3.823220e+01   1.946104e+00   4.458564e+01  -7.578843e+04  -9.042609e+03   1.261352e+05   6.068730e+09  -5.108094e+09   3.280208e+09   1.474305e+05   5.706480e-27   0.000000e+00   0.000000e+00
     3048000   3.047999e-05   3.822615e+01   1.945364e+00   4.459574e+01  -7.530070e+04  -9.448336e+03   1.263973e+05   6.124383e+09  -5.035036e+09   3.272208e+09   1.474305e+05   5.697583e-27   0.000000e+00   0.000000e+00
     3056000   3.055999e-05   3.822015e+01   1.944593e+00   4.460587e+01  -7.480830e+04  -9.848229e+03   1.266589e+05   6.185094e+09  -4.962360e+09   3.267252e+09   1.474305e+05   5.696679e-27   0.000000e+00   0.000000e+00
     3064000   3.063999e-05   3.821418e+01   1.943789e+00   4.461601e+01  -7.431127e+04  -1.024230e+04   1.269200e+05   6.240614e+09  -4.889325e+09   3.259303e+09   1.474305e+05   5.690366e-27   0.000000e+00   0.000000e+00
     3072000   3.071999e-05   3.820826e+01   1.942954e+00   4.462617e+01  -7.380983e+04  -1.063051e+04   1.271804e+05   6.295246e+09  -4.815914e+09   3.250942e+09   1.474305e+05   5.684011e-27   0.000000e+00   0.000000e+00
     3080000   3.079999e-05   3.820237e+01   1.942088e+00   4.463636e+01  -7.330405e+04  -1.101283e+04   1.274401e+05   6.348986e+09  -4.742139e+09   3.242171e+09   1.474305e+05   5.677615e-27   0.000000e+00   0.000000e+00
     3088000   3.087999e-05   3.819653e+01   1.941192e+00   4.464656e+01  -7.279435e+04  -1.138760e+04   1.276991e+05   6.394820e+09  -4.632323e+09   3.232258e+09   1.474305e+05   5.638152e-27   0.000000e+00   0.000000e+00
     3096000   3.095999e-05   3.819073e+01   1.940266e+00   4.465679e+01  -7.228068e+04  -1.175506e+04   1.279573e+05   6.446811e+09  -4.554089e+09   3.223317e+09   1.474305e+05   5.629730e-27   0.000000e+00   0.000000e+00
     3104000   3.103999e-05   3.818496e+01   1.939311e+00   4.466704e+01  -7.176288e+04  -1.211624e+04   1.282148e+05   6.497838e+09  -4.475576e+09   3.213958e+09   1.474305e+05   5.621313e-27   0.000000e+00   0.000000e+00
     3112000   3.111999e-05   3.817924e+01   1.938328e+00   4.467730e+01  -7.124105e+04  -1.247114e+04   1.284716e+05   6.547898e+09  -4.396797e+09   3.204186e+09   1.474305e+05   5.612901e-27   0.000000e+00   0.000000e+00
     3120000   3.119999e-05   3.817357e+01   1.937316e+00   4.468759e+01  -7.071524e+04  -1.281972e+04   1.287275e+05   6.596991e+09  -4.317765e+09   3.194003e+09   1.474305e+05   5.604494e-27   0.000000e+00   0.000000e+00
     3128000   3.127999e-05   3.816793e+01   1.936277e+00   4.469790e+01  -7.018555e+04  -1.316198e+04   1.289826e+05   6.645116e+09  -4.238494e+09   3.183413e+09   1.474305e+05   5.596089e-27   0.000000e+00   0.000000e+00
     3136000   3.135999e-05   3.816234e+01   1.935210e+00   4.470823e+01  -6.965156e+04  -1.350060e+04   1.292368e+05   6.700125e+09  -4.202732e+09   3.171972e+09   1.474305e+05   5.623933e-27   0.000000e+00   0.000000e+00
     3144000   3.143999e-05   3.815679e+01   1.934117e+00   4.471858e+01  -6.911368e+04  -1.383373e+04   1.294901e+05   6.746801e+09  -4.125346e+09   3.160304e+09   1.474305e+05   5.616908e-27   0.000000e+00   0.000000e+00
     3152000   3.151999e-05   3.815128e+01   1.932997e+00   4.472895e+01  -6.857210e+04  -1.416065e+04   1.297424e+05   6.792550e+09  -4.047729e+09   3.148250e+09   1.474305e+05   5.609861e-27   0.000000e+00   0.000000e+00
     3160000   3.159999e-05   3.814581e+01   1.931851e+00   4.473934e+01  -6.802689e+04  -1.448136e+04   1.299938e+05   6.837372e+09  -3.969895e+09   3.135814e+09   1.474305e+05   5.602792e-27   0.000000e+00   0.000000e+00
     3168000   3.167999e-05   3.814039e+01   1.930680e+00   4.474975e+01  -6.747814e+04  -1.479583e+04   1.302442e+05   6.881265e+09  -3.891854e+09   3.123000e+09   1.474305e+05   5.595699e-27   0.000000e+00   0.000000e+00
     3176000   3.175999e-05   3.813502e+01   1.929484e+00   4.476018e+01  -6.692592e+04  -1.510405e+04   1.304935e+05   6.924230e+09  -3.813620e+09   3.109811e+09   1.474305e+05   5.588583e-27   0.000000e+00   0.000000e+00
     3184000   3.183999e-05   3.812969e+01   1.928264e+00   4.477063e+01  -6.637029e+04  -1.540600e+04   1.307417e+05   6.966266e+09  -3.735204e+09   3.096252e+09   1.474305e+05   5.581442e-27   0.000000e+00   0.000000e+00
     3192000   3.191999e-05   3.812440e+01   1.927019e+00   4.478110e+01  -6.581134e+04  -1.570168e+04   1.309889e+05   7.007374e+09  -3.656618e+09   3.082326e+09   1.474305e+05   5.574277e-27   0.000000e+00   0.000000e+00
     3200000   3.199999e-05   3.811916e+01   1.925752e+00   4.479158e+01  -6.524914e+04  -1.599106e+04   1.312349e+05   7.047553e+09  -3.577874e+09   3.068037e+09   1.474305e+05   5.567088e-27   0.000000e+00   0.000000e+00
     3208000   3.207999e-05   3.811396e+01   1.924461e+00   4.480209e+01  -6.468377e+04  -1.627395e+04   1.314798e+05   7.085751e+09  -3.487341e+09   3.054318e+09   1.474305e+05   5.552856e-27   0.000000e+00   0.000000e+00
     3216000   3.215999e-05   3.810881e+01   1.923148e+00   4.481262e+01  -6.411546e+04  -1.654970e+04   1.317235e+05   7.121882e+09  -3.406480e+09   3.038541e+09   1.474305e+05   5.541995e-27   0.000000e+00   0.000000e+00
     3224000   3.223999e-05   3.810370e+01   1.921813e+00   4.482317e+01  -6.354429e+04  -1.681898e+04   1.319659e+05   7.157042e+09  -3.325547e+09   3.022429e+09   1.474305e+05   5.531117e-27   0.000000e+00   0.000000e+00
     3232000   3.231999e-05   3.809864e+01   1.920457e+00   4.483374e+01  -6.297016e+04  -1.708248e+04   1.322071e+05   7.200600e+09  -3.276993e+09   3.006228e+09   1.474305e+05   5.547160e-27   0.000000e+00   0.000000e+00
     3240000   3.239999e-05   3.809363e+01   1.919080e+00   4.484432e+01  -6.239270e+04  -1.734152e+04   1.324469e+05   7.235624e+09  -3.199170e+09   2.989669e+09   1.474305e+05   5.539596e-27   0.000000e+00   0.000000e+00
     3248000   3.247999e-05   3.808866e+01   1.917683e+00   4.485493e+01  -6.181248e+04  -1.759434e+04   1.326854e+05   7.269739e+09  -3.121260e+09   2.972782e+09   1.474305e+05   5.531985e-27   0.000000e+00   0.000000e+00
     3256000   3.255999e-05   3.808374e+01   1.916265e+00   4.486555e+01  -6.122957e+04  -1.784092e+04   1.329225e+05   7.302945e+09  -3.043274e+09   2.955572e+09   1.474305e+05   5.524328e-27   0.000000e+00   0.000000e+00
     3264000   3.263999e-05   3.807886e+01   1.914828e+00   4.487619e+01  -6.064403e+04  -1.808126e+04   1.331583e+05   7.335246e+09  -2.965222e+09   2.938042e+09   1.474305e+05   5.516625e-27   0.000000e+00   0.000000e+00
     3272000   3.271999e-05   3.807403e+01   1.913372e+00   4.488686e+01  -6.005595e+04  -1.831536e+04   1.333926e+05   7.366642e+09  -2.887118e+09   2.920198e+09   1.474305e+05   5.508877e-27   0.000000e+00   0.000000e+00
     3280000   3.279999e-05   3.806925e+01   1.911898e+00   4.489754e+01  -5.946540e+04  -1.854320e+04   1.336255e+05   7.397136e+09  -2.808970e+09   2.902044e+09   1.474305e+05   5.501083e-27   0.000000e+00   0.000000e+00
     3288000   3.287999e-05   3.806452e+01   1.910406e+00   4.490824e+01  -5.887333e+04  -1.876182e+04   1.338569e+05   7.411506e+09  -2.681930e+09   2.883846e+09   1.474305e+05   5.455385e-27   0.000000e+00   0.000000e+00
     3296000   3.295999e-05   3.805983e+01   1.908896e+00   4.491895e+01  -5.827932e+04  -1.897319e+04   1.340869e+05   7.438582e+09  -2.602327e+09   2.864872e+09   1.474305e+05   5.445500e-27   0.000000e+00   0.000000e+00
     3304000   3.303999e-05   3.805519e+01   1.907370e+00   4.492969e+01  -5.768319e+04  -1.917819e+04   1.343153e+05   7.464721e+09  -2.522779e+09   2.845597e+09   1.474305e+05   5.435570e-27   0.000000e+00   0.000000e+00
     3312000   3.311999e-05   3.805060e+01   1.905828e+00   4.494044e+01  -5.708499e+04  -1.937683e+04   1.345422e+05   7.489926e+09  -2.443298e+09   2.826026e+09   1.474305e+05   5.425598e-27   0.000000e+00   0.000000e+00
     3320000   3.319999e-05   3.804606e+01   1.904270e+00   4.495122e+01  -5.648482e+04  -1.956912e+04   1.347675e+05   7.514203e+09  -2.363897e+09   2.806165e+09   1.474305e+05   5.415584e-27   0.000000e+00   0.000000e+00
     3328000   3.327999e-05   3.804157e+01   1.902697e+00   4.496201e+01  -5.588275e+04  -1.975506e+04   1.349912e+05   7.537556e+09  -2.284587e+09   2.786018e+09   1.474305e+05   5.405528e-27   0.000000e+00   0.000000e+00
     3336000   3.335999e-05   3.803712e+01   1.901110e+00   4.497282e+01  -5.527884e+04  -1.993465e+04   1.352132e+05   7.559988e+09  -2.205379e+09   2.765592e+09   1.474305e+05   5.395432e-27   0.000000e+00   0.000000e+00
     3344000   3.343999e-05   3.803272e+01   1.899508e+00   4.498364e+01  -5.467313e+04  -2.010785e+04   1.354337e+05   7.583241e+09  -2.123998e+09   2.745929e+09   1.474305e+05   5.387022e-27   0.000000e+00   0.000000e+00
     3352000   3.351999e-05   3.802837e+01   1.897892e+00   4.499449e+01  -5.406559e+04  -2.027471e+04   1.356525e+05   7.605182e+09  -2.047462e+09   2.725107e+09   1.474305e+05   5.379282e-27   0.000000e+00   0.000000e+00
     3360000   3.359999e-05   3.802407e+01   1.896264e+00   4.500535e+01  -5.345650e+04  -2.043531e+04   1.358696e+05   7.621866e+09  -1.967299e+09   2.702860e+09   1.474305e+05   5.364681e-27   0.000000e+00   0.000000e+00
     3368000   3.367999e-05   3.801982e+01   1.894623e+00   4.501622e+01  -5.284593e+04  -2.058961e+04   1.360850e+05   7.642262e+09  -1.890379e+09   2.681713e+09   1.474305e+05   5.356992e-27   0.000000e+00   0.000000e+00
     3376000   3.375999e-05   3.801562e+01   1.892970e+00   4.502712e+01  -5.223376e+04  -2.073777e+04   1.362987e+05   7.661802e+09  -1.813514e+09   2.660313e+09   1.474305e+05   5.349249e-27   0.000000e+00   0.000000e+00
     3384000   3.383999e-05   3.801146e+01   1.891305e+00   4.503803e+01  -5.162007e+04  -2.087978e+04   1.365107e+05   7.680490e+09  -1.736715e+09   2.638665e+09   1.474305e+05   5.341453e-27   0.000000e+00   0.000000e+00
     3392000   3.391999e-05   3.800736e+01   1.889629e+00   4.504896e+01  -5.100491e+04  -2.101564e+04   1.367209e+05   7.698329e+09  -1.659992e+09   2.616772e+09   1.474305e+05   5.333606e-27   0.000000e+00   0.000000e+00
     3400000   3.399999e-05   3.800330e+01   1.887943e+00   4.505991e+01  -5.038836e+04  -2.114538e+04   1.369293e+05   7.715322e+09  -1.583355e+09   2.594641e+09   1.474305e+05   5.325709e-27   0.000000e+00   0.000000e+00
     3408000   3.407999e-05   3.799929e+01   1.886246e+00   4.507087e+01  -4.977089e+04  -2.126739e+04   1.371361e+05   7.702029e+09  -1.394304e+09   2.579075e+09   1.474305e+05   5.260002e-27   0.000000e+00   0.000000e+00
     3416000   3.415999e-05   3.799534e+01   1.884540e+00   4.508185e+01  -4.915419e+04  -2.137590e+04   1.373415e+05   7.715389e+09  -1.318557e+09   2.556103e+09   1.474305e+05   5.250904e-27   0.000000e+00   0.000000e+00
     3424000   3.423999e-05   3.799143e+01   1.882826e+00   4.509284e+01  -4.853645e+04  -2.147836e+04   1.375451e+05   7.727927e+09  -1.242922e+09   2.532922e+09   1.474305e+05   5.241760e-27   0.000000e+00   0.000000e+00
     3432000   3.431999e-05   3.798757e+01   1.881104e+00   4.510386e+01  -4.791697e+04  -2.157646e+04   1.377468e+05   7.768091e+09  -1.228124e+09   2.509862e+09   1.474305e+05   5.278122e-27   0.000000e+00   0.000000e+00
     3440000   3.439999e-05   3.798376e+01   1.879374e+00   4.511488e+01  -4.729491e+04  -2.167178e+04   1.379467e+05   7.783316e+09  -1.154797e+09   2.487087e+09   1.474305e+05   5.274114e-27   0.000000e+00   0.000000e+00
     3448000   3.447999e-05   3.798000e+01   1.877637e+00   4.512593e+01  -4.667166e+04  -2.176123e+04   1.381447e+05   7.797777e+09  -1.081496e+09   2.464091e+09   1.474305e+05   5.270050e-27   0.000000e+00   0.000000e+00
     3456000   3.455999e-05   3.797630e+01   1.875892e+00   4.513699e+01  -4.604728e+04  -2.184482e+04   1.383409e+05   7.811474e+09  -1.008230e+09   2.440877e+09   1.474305e+05   5.265932e-27   0.000000e+00   0.000000e+00
     3464000   3.463999e-05   3.797264e+01   1.874142e+00   4.514806e+01  -4.542184e+04  -2.192255e+04   1.385353e+05   7.824410e+09  -9.350085e+08   2.417450e+09   1.474305e+05   5.261762e-27   0.000000e+00   0.000000e+00
     3472000   3.471999e-05   3.796903e+01   1.872385e+00   4.515915e+01  -4.479540e+04  -2.199442e+04   1.387277e+05   7.836587e+09  -8.618388e+08   2.393812e+09   1.474305e+05   5.257542e-27   0.000000e+00   0.000000e+00
     3480000   3.479999e-05   3.796547e+01   1.870623e+00   4.517026e+01  -4.416801e+04  -2.206044e+04   1.389183e+05   7.848008e+09  -7.887294e+08   2.369968e+09   1.474305e+05   5.253273e-27   0.000000e+00   0.000000e+00
     3488000   3.487999e-05   3.796196e+01   1.868855e+00   4.518138e+01  -4.353974e+04  -2.212062e+04   1.391069e+05   7.858677e+09  -7.156888e+08   2.345922e+09   1.474305e+05   5.248958e-27   0.000000e+00   0.000000e+00
     3496000   3.495999e-05   3.795850e+01   1.867084e+00   4.519252e+01  -4.291064e+04  -2.217495e+04   1.392936e+05   7.868595e+09  -6.427250e+08   2.321677e+09   1.474305e+05   5.244598e-27   0.000000e+00   0.000000e+00
     3504000   3.503999e-05   3.795510e+01   1.865308e+00   4.520367e+01  -4.228201e+04  -2.222329e+04   1.394780e+05   7.830359e+09  -5.633161e+08   2.283982e+09   1.474305e+05   5.177247e-27   0.000000e+00   0.000000e+00
     3512000   3.511999e-05   3.795174e+01   1.863528e+00   4.521483e+01  -4.165541e+04  -2.226536e+04   1.396597e+05   7.834513e+09  -4.883465e+08   2.258899e+09   1.474305e+05   5.167355e-27   0.000000e+00   0.000000e+00
     3520000   3.519999e-05   3.794843e+01   1.861745e+00   4.522601e+01  -4.102851e+04  -2.230143e+04   1.398394e+05   7.837873e+09  -4.135961e+08   2.233656e+09   1.474305e+05   5.157429e-27   0.000000e+00   0.000000e+00
     3528000   3.527999e-05   3.794517e+01   1.859960e+00   4.523721e+01  -4.040137e+04  -2.233154e+04   1.400171e+05   7.840447e+09  -3.390736e+08   2.208255e+09   1.474305e+05   5.147472e-27   0.000000e+00   0.000000e+00
     3536000   3.535999e-05   3.794197e+01   1.858172e+00   4.524841e+01  -3.977406e+04  -2.235569e+04   1.401927e+05   7.842240e+09  -2.647876e+08   2.182701e+09   1.474305e+05   5.137485e-27   0.000000e+00   0.000000e+00
     3544000   3.543999e-05   3.793881e+01   1.856383e+00   4.525964e+01  -3.914663e+04  -2.237391e+04   1.403663e+05   7.843257e+09  -1.907465e+08   2.156999e+09   1.474305e+05   5.127471e-27   0.000000e+00   0.000000e+00
     3552000   3.551999e-05   3.793570e+01   1.854593e+00   4.527087e+01  -3.851916e+04  -2.238622e+04   1.405379e+05   7.843506e+09  -1.169586e+08   2.131153e+09   1.474305e+05   5.117431e-27   0.000000e+00   0.000000e+00
     3560000   3.559999e-05   3.793265e+01   1.852801e+00   4.528212e+01  -3.789169e+04  -2.239263e+04   1.407073e+05   7.842992e+09  -4.343224e+07   2.105166e+09   1.474305e+05   5.107367e-27   0.000000e+00   0.000000e+00
     3568000   3.567999e-05   3.792964e+01   1.851010e+00   4.529339e+01  -3.726430e+04  -2.239317e+04   1.408747e+05   7.841722e+09   2.982443e+07   2.079045e+09   1.474305e+05   5.097282e-27   0.000000e+00   0.000000e+00
     3576000   3.575999e-05   3.792668e+01   1.849219e+00   4.530466e+01  -3.663650e+04  -2.238846e+04   1.410400e+05   7.856583e+09   8.437412e+07   2.054221e+09   1.474305e+05   5.107886e-27   0.000000e+00   0.000000e+00
     3584000   3.583999e-05   3.792378e+01   1.847428e+00   4.531595e+01  -3.600796e+04  -2.237890e+04   1.412033e+05   7.856622e+09   1.543779e+08   2.027973e+09   1.474305e+05   5.100929e-27   0.000000e+00   0.000000e+00
     3592000   3.591999e-05   3.792092e+01   1.845638e+00   4.532726e+01  -3.537946e+04  -2.236376e+04   1.413645e+05   7.855961e+09   2.241773e+08   2.001590e+09   1.474305e+05   5.093937e-27   0.000000e+00   0.000000e+00
     3600000   3.599999e-05   3.791812e+01   1.843850e+00   4.533857e+01  -3.475103e+04  -2.234304e+04   1.415235e+05   7.854605e+09   2.937649e+08   1.975077e+09   1.474305e+05   5.086913e-27   0.000000e+00   0.000000e+00
     3608000   3.607999e-05   3.791536e+01   1.842064e+00   4.534990e+01  -3.412274e+04  -2.231676e+04   1.416805e+05   7.852558e+09   3.631337e+08   1.948436e+09   1.474305e+05   5.079858e-27   0.000000e+00   0.000000e+00
     3616000   3.615999e-05   3.791266e+01   1.840279e+00   4.536124e+01  -3.349464e+04  -2.228494e+04   1.418353e+05   7.849828e+09   4.322765e+08   1.921673e+09   1.474305e+05   5.072775e-27   0.000000e+00   0.000000e+00
     3624000   3.623999e-05   3.791000e+01   1.838498e+00   4.537259e+01  -3.286678e+04  -2.224760e+04   1.419880e+05   7.846417e+09   5.011861e+08   1.894790e+09   1.474305e+05   5.065665e-27   0.000000e+00   0.000000e+00
     3632000   3.631999e-05   3.790740e+01   1.836720e+00   4.538396e+01  -3.223923e+04  -2.220476e+04   1.421385e+05   7.842332e+09   5.698557e+08   1.867791e+09   1.474305e+05   5.058530e-27   0.000000e+00   0.000000e+00
     3640000   3.639999e-05   3.790485e+01   1.834945e+00   4.539533e+01  -3.161203e+04  -2.215643e+04   1.422868e+05   7.837579e+09   6.382783e+08   1.840680e+09   1.474305e+05   5.051373e-27   0.000000e+00   0.000000e+00
     3648000   3.647999e-05   3.790234e+01   1.833175e+00   4.540672e+01  -3.098530e+04  -2.210219e+04   1.424330e+05   7.830139e+09   7.160861e+08   1.814516e+09   1.474305e+05   5.043101e-27   0.000000e+00   0.000000e+00
     3656000   3.655999e-05   3.789989e+01   1.831409e+00   4.541812e+01  -3.035918e+04  -2.204219e+04   1.425771e+05   7.832915e+09   7.789733e+08   1.788308e+09   1.474305e+05   5.046437e-27   0.000000e+00   0.000000e+00
     3664000   3.663999e-05   3.789748e+01   1.829648e+00   4.542954e+01  -2.973285e+04  -2.197709e+04   1.427190e+05   7.825095e+09   8.484130e+08   1.760863e+09   1.474305e+05   5.038161e-27   0.000000e+00   0.000000e+00
     3672000   3.671999e-05   3.789513e+01   1.827893e+00   4.544096e+01  -2.910718e+04  -2.190646e+04   1.428588e+05   7.816651e+09   9.174314e+08   1.733313e+09   1.474305e+05   5.029916e-27   0.000000e+00   0.000000e+00
     3680000   3.679999e-05   3.789283e+01   1.826144e+00   4.545239e+01  -2.848220e+04  -2.183031e+04   1.429964e+05   7.807593e+09   9.860243e+08   1.705661e+09   1.474305e+05   5.021703e-27   0.000000e+00   0.000000e+00
     3688000   3.687999e-05   3.789057e+01   1.824400e+00   4.546384e+01  -2.785798e+04  -2.174870e+04   1.431317e+05   7.797930e+09   1.054187e+09   1.677912e+09   1.474305e+05   5.013522e-27   0.000000e+00   0.000000e+00
     3696000   3.695999e-05   3.788837e+01   1.822664e+00   4.547529e+01  -2.723455e+04  -2.166165e+04   1.432648e+05   7.787669e+09   1.121917e+09   1.650069e+09   1.474305e+05   5.005375e-27   0.000000e+00   0.000000e+00
     3704000   3.703999e-05   3.788622e+01   1.820935e+00   4.548676e+01  -2.661197e+04  -2.156921e+04   1.433957e+05   7.776821e+09   1.189209e+09   1.622137e+09   1.474305e+05   4.997264e-27   0.000000e+00   0.000000e+00
     3712000   3.711999e-05   3.788411e+01   1.819213e+00   4.549824e+01  -2.599028e+04  -2.147139e+04   1.435244e+05   7.765392e+09   1.256059e+09   1.594117e+09   1.474305e+05   4.989188e-27   0.000000e+00   0.000000e+00
     3720000   3.719999e-05   3.788206e+01   1.817499e+00   4.550972e+01  -2.537131e+04  -2.136806e+04   1.436505e+05   7.726280e+09   1.325229e+09   1.561736e+09   1.474305e+05   4.948176e-27   0.000000e+00   0.000000e+00
     3728000   3.727999e-05   3.788005e+01   1.815794e+00   4.552122e+01  -2.475377e+04  -2.125940e+04   1.437743e+05   7.712182e+09   1.391011e+09   1.533503e+09   1.474305e+05   4.938389e-27   0.000000e+00   0.000000e+00
     3736000   3.735999e-05   3.787810e+01   1.814098e+00   4.553273e+01  -2.413738e+04  -2.114550e+04   1.438958e+05   7.697506e+09   1.456372e+09   1.505213e+09   1.474305e+05   4.928630e-27   0.000000e+00   0.000000e+00
     3744000   3.743999e-05   3.787619e+01   1.812411e+00   4.554424e+01  -2.352219e+04  -2.102639e+04   1.440151e+05   7.682259e+09   1.521308e+09   1.476871e+09   1.474305e+05   4.918898e-27   0.000000e+00   0.000000e+00
     3752000   3.751999e-05   3.787433e+01   1.810734e+00   4.555577e+01  -2.290823e+04  -2.090211e+04   1.441321e+05   7.666449e+09   1.585816e+09   1.448479e+09   1.474305e+05   4.909195e-27   0.000000e+00   0.000000e+00
     3760000   3.759999e-05   3.787252e+01   1.809067e+00   4.556731e+01  -2.229557e+04  -2.077267e+04   1.442469e+05   7.650086e+09   1.649892e+09   1.420040e+09   1.474305e+05   4.899524e-27   0.000000e+00   0.000000e+00
     3768000   3.767999e-05   3.787077e+01   1.807410e+00   4.557885e+01  -2.168423e+04  -2.063813e+04   1.443593e+05   7.633176e+09   1.713533e+09   1.391558e+09   1.474305e+05   4.889885e-27   0.000000e+00   0.000000e+00
     3776000   3.775999e-05   3.786906e+01   1.805765e+00   4.559040e+01  -2.107427e+04  -2.049852e+04   1.444695e+05   7.615729e+09   1.776736e+09   1.363035e+09   1.474305e+05   4.880280e-27   0.000000e+00   0.000000e+00
     3784000   3.783999e-05   3.786739e+01   1.804131e+00   4.560197e+01  -2.046542e+04  -2.035402e+04   1.445775e+05   7.620894e+09   1.828226e+09   1.336150e+09   1.474305e+05   4.895129e-27   0.000000e+00   0.000000e+00
     3792000   3.791999e-05   3.786578e+01   1.802508e+00   4.561354e+01  -1.985647e+04  -2.020517e+04   1.446832e+05   7.602834e+09   1.893014e+09   1.307786e+09   1.474305e+05   4.886700e-27   0.000000e+00   0.000000e+00
     3800000   3.799999e-05   3.786422e+01   1.800898e+00   4.562511e+01  -1.924898e+04  -2.005115e+04   1.447867e+05   7.584276e+09   1.957298e+09   1.279374e+09   1.474305e+05   4.878349e-27   0.000000e+00   0.000000e+00
     3808000   3.807999e-05   3.786270e+01   1.799300e+00   4.563670e+01  -1.864285e+04  -1.989166e+04   1.448880e+05   7.569274e+09   2.031446e+09   1.252846e+09   1.474305e+05   4.878446e-27   0.000000e+00   0.000000e+00
     3816000   3.815999e-05   3.786123e+01   1.797716e+00   4.564830e+01  -1.803809e+04  -1.972658e+04   1.449871e+05   7.549619e+09   2.095351e+09   1.224354e+09   1.474305e+05   4.870390e-27   0.000000e+00   0.000000e+00
     3824000   3.823999e-05   3.785981e+01   1.796144e+00   4.565990e+01  -1.743492e+04  -1.955641e+04   1.450839e+05   7.529520e+09   2.158689e+09   1.195815e+09   1.474305e+05   4.862435e-27   0.000000e+00   0.000000e+00
     3832000   3.831999e-05   3.785844e+01   1.794587e+00   4.567151e+01  -1.683338e+04  -1.938120e+04   1.451784e+05   7.508988e+09   2.221456e+09   1.167231e+09   1.474305e+05   4.854583e-27   0.000000e+00   0.000000e+00
     3840000   3.839999e-05   3.785712e+01   1.793043e+00   4.568313e+01  -1.623350e+04  -1.920100e+04   1.452706e+05   7.488034e+09   2.283650e+09   1.138606e+09   1.474305e+05   4.846833e-27   0.000000e+00   0.000000e+00
     3848000   3.847999e-05   3.785585e+01   1.791515e+00   4.569475e+01  -1.563531e+04  -1.901584e+04   1.453606e+05   7.466668e+09   2.345270e+09   1.109940e+09   1.474305e+05   4.839186e-27   0.000000e+00   0.000000e+00
     3856000   3.855999e-05   3.785462e+01   1.790001e+00   4.570639e+01  -1.503919e+04  -1.882615e+04   1.454481e+05   7.437549e+09   2.396376e+09   1.079215e+09   1.474305e+05   4.819132e-27   0.000000e+00   0.000000e+00
     3864000   3.863999e-05   3.785344e+01   1.788503e+00   4.571802e+01  -1.444499e+04  -1.863220e+04   1.455333e+05   7.417307e+09   2.452360e+09   1.050182e+09   1.474305e+05   4.812080e-27   0.000000e+00   0.000000e+00
     3872000   3.871999e-05   3.785231e+01   1.787020e+00   4.572967e+01  -1.385243e+04  -1.843378e+04   1.456162e+05   7.396650e+09   2.507948e+09   1.021131e+09   1.474305e+05   4.805074e-27   0.000000e+00   0.000000e+00
     3880000   3.879999e-05   3.785122e+01   1.785553e+00   4.574132e+01  -1.326154e+04  -1.823093e+04   1.456967e+05   7.375582e+09   2.563139e+09   9.920651e+08   1.474305e+05   4.798116e-27   0.000000e+00   0.000000e+00
     3888000   3.887999e-05   3.785019e+01   1.784103e+00   4.575298e+01  -1.267235e+04  -1.802369e+04   1.457749e+05   7.354112e+09   2.617930e+09   9.629865e+08   1.474305e+05   4.791206e-27   0.000000e+00   0.000000e+00
     3896000   3.895999e-05   3.784920e+01   1.782670e+00   4.576465e+01  -1.208489e+04  -1.781208e+04   1.458508e+05   7.332246e+09   2.672322e+09   9.338971e+08   1.474305e+05   4.784346e-27   0.000000e+00   0.000000e+00
     3904000   3.903999e-05   3.784825e+01   1.781253e+00   4.577632e+01  -1.149920e+04  -1.759613e+04   1.459243e+05   7.309990e+09   2.726312e+09   9.047990e+08   1.474305e+05   4.777538e-27   0.000000e+00   0.000000e+00
     3912000   3.911999e-05   3.784736e+01   1.779854e+00   4.578800e+01  -1.091530e+04  -1.737588e+04   1.459955e+05   7.287352e+09   2.779899e+09   8.756942e+08   1.474305e+05   4.770783e-27   0.000000e+00   0.000000e+00
     3920000   3.919999e-05   3.784651e+01   1.778473e+00   4.579968e+01  -1.033323e+04  -1.715135e+04   1.460644e+05   7.264337e+09   2.833081e+09   8.465845e+08   1.474305e+05   4.764082e-27   0.000000e+00   0.000000e+00
     3928000   3.927999e-05   3.784570e+01   1.777110e+00   4.581137e+01  -9.754570e+03  -1.692142e+04   1.461310e+05   7.219055e+09   2.902093e+09   8.179436e+08   1.474305e+05   4.740250e-27   0.000000e+00   0.000000e+00
     3936000   3.935999e-05   3.784495e+01   1.775766e+00   4.582306e+01  -9.178153e+03  -1.668707e+04   1.461953e+05   7.191319e+09   2.956708e+09   7.889612e+08   1.474305e+05   4.730470e-27   0.000000e+00   0.000000e+00
     3944000   3.943999e-05   3.784423e+01   1.774441e+00   4.583476e+01  -8.603968e+03  -1.644836e+04   1.462573e+05   7.163279e+09   3.010718e+09   7.599939e+08   1.474305e+05   4.720784e-27   0.000000e+00   0.000000e+00
     3952000   3.951999e-05   3.784357e+01   1.773134e+00   4.584646e+01  -8.032037e+03  -1.620537e+04   1.463169e+05   7.134945e+09   3.064123e+09   7.310432e+08   1.474305e+05   4.711191e-27   0.000000e+00   0.000000e+00
     3960000   3.959999e-05   3.784295e+01   1.771848e+00   4.585817e+01  -7.462384e+03  -1.595812e+04   1.463742e+05   7.106328e+09   3.116922e+09   7.021111e+08   1.474305e+05   4.701692e-27   0.000000e+00   0.000000e+00
     3968000   3.967999e-05   3.784237e+01   1.770581e+00   4.586988e+01  -6.895032e+03  -1.570667e+04   1.464292e+05   7.077439e+09   3.169116e+09   6.731992e+08   1.474305e+05   4.692287e-27   0.000000e+00   0.000000e+00
     3976000   3.975999e-05   3.784185e+01   1.769335e+00   4.588160e+01  -6.330001e+03  -1.545108e+04   1.464819e+05   7.048287e+09   3.220705e+09   6.443091e+08   1.474305e+05   4.682978e-27   0.000000e+00   0.000000e+00
     3984000   3.983999e-05   3.784136e+01   1.768109e+00   4.589332e+01  -5.767313e+03  -1.519138e+04   1.465323e+05   7.018884e+09   3.271690e+09   6.154423e+08   1.474305e+05   4.673764e-27   0.000000e+00   0.000000e+00
     3992000   3.991999e-05   3.784092e+01   1.766904e+00   4.590504e+01  -5.206322e+03  -1.492803e+04   1.465804e+05   7.009204e+09   3.309813e+09   5.860385e+08   1.474305e+05   4.679943e-27   0.000000e+00   0.000000e+00
     4000000   3.999999e-05   3.784053e+01   1.765721e+00   4.591677e+01  -4.646664e+03  -1.466133e+04   1.466261e+05   6.982205e+09   3.357595e+09   5.570042e+08   1.474305e+05   4.672790e-27   0.000000e+00   0.000000e+00
     4008000   4.007999e-05   3.784018e+01   1.764559e+00   4.592850e+01  -4.089177e+03  -1.439082e+04   1.466695e+05   6.954919e+09   3.404969e+09   5.279952e+08   1.474305e+05   4.665711e-27   0.000000e+00   0.000000e+00
     4016000   4.015999e-05   3.783987e+01   1.763418e+00   4.594024e+01  -3.533884e+03  -1.411654e+04   1.467106e+05   6.927350e+09   3.451935e+09   4.990127e+08   1.474305e+05   4.658707e-27   0.000000e+00   0.000000e+00
     4024000   4.023999e-05   3.783961e+01   1.762300e+00   4.595197e+01  -2.980808e+03  -1.383852e+04   1.467494e+05   6.899506e+09   3.498494e+09   4.700579e+08   1.474305e+05   4.651779e-27   0.000000e+00   0.000000e+00
     4032000   4.031999e-05   3.783940e+01   1.761204e+00   4.596372e+01  -2.429971e+03  -1.355680e+04   1.467858e+05   6.871393e+09   3.544645e+09   4.411319e+08   1.474305e+05   4.644929e-27   0.000000e+00   0.000000e+00
     4040000   4.039999e-05   3.783923e+01   1.760131e+00   4.597546e+01  -1.881393e+03  -1.327139e+04   1.468199e+05   6.843016e+09   3.590388e+09   4.122358e+08   1.474305e+05   4.638156e-27   0.000000e+00   0.000000e+00
     4048000   4.047999e-05   3.783910e+01   1.759081e+00   4.598721e+01  -1.335095e+03  -1.298234e+04   1.468518e+05   6.814383e+09   3.635723e+09   3.833707e+08   1.474305e+05   4.631462e-27   0.000000e+00   0.000000e+00
     4056000   4.055999e-05   3.783901e+01   1.758054e+00   4.599896e+01  -7.910986e+02  -1.268969e+04   1.468813e+05   6.785498e+09   3.680651e+09   3.545374e+08   1.474305e+05   4.624849e-27   0.000000e+00   0.000000e+00
     4064000   4.063999e-05   3.783897e+01   1.757051e+00   4.601071e+01  -2.496679e+02  -1.239207e+04   1.469086e+05   6.752298e+09   3.744956e+09   3.273750e+08   1.474305e+05   4.625586e-27   0.000000e+00   0.000000e+00
     4072000   4.071999e-05   3.783897e+01   1.756071e+00   4.602246e+01   2.892831e+02  -1.209064e+04   1.469336e+05   6.721457e+09   3.790894e+09   2.987097e+08   1.474305e+05   4.618824e-27   0.000000e+00   0.000000e+00
     4080000   4.079999e-05   3.783902e+01   1.755116e+00   4.603422e+01   8.257611e+02  -1.178555e+04   1.469564e+05   6.690475e+09   3.836250e+09   2.700676e+08   1.474305e+05   4.612174e-27   0.000000e+00   0.000000e+00
     4088000   4.087999e-05   3.783910e+01   1.754186e+00   4.604597e+01   1.359755e+03  -1.147685e+04   1.469769e+05   6.659362e+09   3.881027e+09   2.414493e+08   1.474305e+05   4.605634e-27   0.000000e+00   0.000000e+00
     4096000   4.095999e-05   3.783923e+01   1.753280e+00   4.605773e+01   1.891255e+03  -1.116460e+04   1.469950e+05   6.628126e+09   3.925225e+09   2.128553e+08   1.474305e+05   4.599205e-27   0.000000e+00   0.000000e+00
     4104000   4.103999e-05   3.783941e+01   1.752399e+00   4.606949e+01   2.420252e+03  -1.084883e+04   1.470109e+05   6.596777e+09   3.968846e+09   1.842861e+08   1.474305e+05   4.592886e-27   0.000000e+00   0.000000e+00
     4112000   4.111999e-05   3.783962e+01   1.751544e+00   4.608126e+01   2.946737e+03  -1.052960e+04   1.470245e+05   6.565325e+09   4.011893e+09   1.557422e+08   1.474305e+05   4.586679e-27   0.000000e+00   0.000000e+00
     4120000   4.119999e-05   3.783988e+01   1.750715e+00   4.609302e+01   3.470701e+03  -1.020694e+04   1.470358e+05   6.533777e+09   4.054367e+09   1.272240e+08   1.474305e+05   4.580583e-27   0.000000e+00   0.000000e+00
     4128000   4.127999e-05   3.784018e+01   1.749911e+00   4.610478e+01   3.992089e+03  -9.881186e+03   1.470448e+05   6.500639e+09   4.087766e+09   9.821113e+07   1.474305e+05   4.567686e-27   0.000000e+00   0.000000e+00
     4136000   4.135999e-05   3.784052e+01   1.749134e+00   4.611654e+01   4.510875e+03  -9.552515e+03   1.470516e+05   6.468985e+09   4.128934e+09   6.978174e+07   1.474305e+05   4.561718e-27   0.000000e+00   0.000000e+00
     4144000   4.143999e-05   3.784090e+01   1.748383e+00   4.612831e+01   5.027121e+03  -9.220568e+03   1.470560e+05   6.437152e+09   4.169689e+09   4.139340e+07   1.474305e+05   4.555849e-27   0.000000e+00   0.000000e+00
     4152000   4.151999e-05   3.784132e+01   1.747659e+00   4.614007e+01   5.540814e+03  -8.885376e+03   1.470582e+05   6.405146e+09   4.210034e+09   1.304649e+07   1.474305e+05   4.550079e-27   0.000000e+00   0.000000e+00
     4160000   4.159999e-05   3.784178e+01   1.746961e+00   4.615184e+01   6.051940e+03  -8.546973e+03   1.470581e+05   6.372974e+09   4.249968e+09  -1.525867e+07   1.474305e+05   4.544411e-27   0.000000e+00   0.000000e+00
     4168000   4.167999e-05   3.784229e+01   1.746291e+00   4.616360e+01   6.560485e+03  -8.205391e+03   1.470558e+05   6.340641e+09   4.289493e+09  -4.352179e+07   1.474305e+05   4.538843e-27   0.000000e+00   0.000000e+00
     4176000   4.175999e-05   3.784283e+01   1.745649e+00   4.617537e+01   7.066438e+03  -7.860664e+03   1.470511e+05   6.308152e+09   4.328610e+09  -7.174262e+07   1.474305e+05   4.533377e-27   0.000000e+00   0.000000e+00
     4184000   4.183999e-05   3.784342e+01   1.745034e+00   4.618713e+01   7.569785e+03  -7.512824e+03   1.470443e+05   6.275514e+09   4.367320e+09  -9.992095e+07   1.474305e+05   4.528014e-27   0.000000e+00   0.000000e+00
     4192000   4.191999e-05   3.784404e+01   1.744447e+00   4.619889e+01   8.070516e+03  -7.161904e+03   1.470352e+05   6.242732e+09   4.405625e+09  -1.280566e+08   1.474305e+05   4.522754e-27   0.000000e+00   0.000000e+00
     4200000   4.199999e-05   3.784471e+01   1.743888e+00   4.621066e+01   8.567848e+03  -6.808622e+03   1.470238e+05   6.198994e+09   4.433178e+09  -1.559449e+08   1.474305e+05   4.500084e-27   0.000000e+00   0.000000e+00
     4208000   4.207999e-05   3.784542e+01   1.743357e+00   4.622242e+01   9.062432e+03  -6.452545e+03   1.470102e+05   6.165621e+09   4.468661e+09  -1.839377e+08   1.474305e+05   4.493326e-27   0.000000e+00   0.000000e+00
     4216000   4.215999e-05   3.784616e+01   1.742855e+00   4.623418e+01   9.554346e+03  -6.093651e+03   1.469944e+05   6.132232e+09   4.503594e+09  -2.118826e+08   1.474305e+05   4.486655e-27   0.000000e+00   0.000000e+00
     4224000   4.223999e-05   3.784694e+01   1.742382e+00   4.624594e+01   1.004359e+04  -5.731984e+03   1.469763e+05   6.098832e+09   4.537981e+09  -2.397798e+08   1.474305e+05   4.480072e-27   0.000000e+00   0.000000e+00
     4232000   4.231999e-05   3.784777e+01   1.741938e+00   4.625769e+01   1.053016e+04  -5.367588e+03   1.469560e+05   6.065431e+09   4.571825e+09  -2.676291e+08   1.474305e+05   4.473577e-27   0.000000e+00   0.000000e+00
     4240000   4.239999e-05   3.784863e+01   1.741524e+00   4.626945e+01   1.101406e+04  -5.000506e+03   1.469335e+05   6.032035e+09   4.605128e+09  -2.954305e+08   1.474305e+05   4.467170e-27   0.000000e+00   0.000000e+00
     4248000   4.247999e-05   3.784953e+01   1.741138e+00   4.628120e+01   1.149528e+04  -4.630782e+03   1.469087e+05   5.998652e+09   4.637894e+09  -3.231841e+08   1.474305e+05   4.460851e-27   0.000000e+00   0.000000e+00
     4256000   4.255999e-05   3.785047e+01   1.740783e+00   4.629296e+01   1.197384e+04  -4.258457e+03   1.468818e+05   5.965290e+09   4.670126e+09  -3.508899e+08   1.474305e+05   4.454620e-27   0.000000e+00   0.000000e+00
     4264000   4.263999e-05   3.785145e+01   1.740457e+00   4.630470e+01   1.244976e+04  -3.883136e+03   1.468526e+05   5.933248e+09   4.716444e+09  -3.782865e+08   1.474305e+05   4.460312e-27   0.000000e+00   0.000000e+00
     4272000   4.271999e-05   3.785246e+01   1.740162e+00   4.631645e+01   1.292316e+04  -3.504388e+03   1.468212e+05   5.901753e+09   4.752190e+09  -4.060394e+08   1.474305e+05   4.459343e-27   0.000000e+00   0.000000e+00
     4280000   4.279999e-05   3.785351e+01   1.739897e+00   4.632820e+01   1.339404e+04  -3.122795e+03   1.467876e+05   5.870165e+09   4.787557e+09  -4.337836e+08   1.474305e+05   4.458478e-27   0.000000e+00   0.000000e+00
     4288000   4.287999e-05   3.785460e+01   1.739662e+00   4.633994e+01   1.386239e+04  -2.738388e+03   1.467518e+05   5.838488e+09   4.822546e+09  -4.615192e+08   1.474305e+05   4.457718e-27   0.000000e+00   0.000000e+00
