     timestep     time              x             y              z              vx             vy             vz             ax             ay             az         v_magnitude      ELoss        Electronic      Nuclear
           0   0.000000e+00   4.270736e+01   1.000000e-01   3.672608e+01   1.231586e+05   1.777639e+04   7.906748e+04   0.000000e+00   0.000000e+00   0.000000e+00   1.474304e+05   0.000000e+00   0.000000e+00   0.000000e+00
        8000   7.999000e-08   4.271721e+01   1.014896e-01   3.673240e+01   1.229349e+05   1.946219e+04   7.901870e+04  -2.933992e+09   2.102425e+10  -6.135720e+08   1.474304e+05   3.492911e-26   0.000000e+00   0.000000e+00
       16000   1.599900e-07   4.272703e+01   1.031137e-01   3.673872e+01   1.226893e+05   2.114019e+04   7.896930e+04  -3.205432e+09   2.092517e+10  -6.215754e+08   1.474304e+05   3.473703e-26   0.000000e+00   0.000000e+00
       24000   2.399900e-07   4.273684e+01   1.048718e-01   3.674504e+01   1.224221e+05   2.281014e+04   7.891924e+04  -3.473732e+09   2.082323e+10  -6.299457e+08   1.474304e+05   3.454701e-26   0.000000e+00   0.000000e+00
       32000   3.199900e-07   4.274662e+01   1.067631e-01   3.675135e+01   1.221336e+05   2.447183e+04   7.886850e+04  -3.738880e+09   2.071850e+10  -6.386885e+08   1.474304e+05   3.435903e-26   0.000000e+00   0.000000e+00
       40000   3.999900e-07   4.275638e+01   1.087871e-01   3.675766e+01   1.218239e+05   2.612503e+04   7.881704e+04  -4.000869e+09   2.061106e+10  -6.478089e+08   1.474304e+05   3.417309e-26   0.000000e+00   0.000000e+00
       48000   4.799900e-07   4.276611e+01   1.109429e-01   3.676396e+01   1.214935e+05   2.776953e+04   7.876484e+04  -4.259694e+09   2.050098e+10  -6.573114e+08   1.474304e+05   3.398914e-26   0.000000e+00   0.000000e+00
       56000   5.599900e-07   4.277581e+01   1.132300e-01   3.677026e+01   1.211425e+05   2.940512e+04   7.871186e+04  -4.515349e+09   2.038834e+10  -6.672000e+08   1.474304e+05   3.380719e-26   0.000000e+00   0.000000e+00
       64000   6.399900e-07   4.278549e+01   1.156475e-01   3.677655e+01   1.207711e+05   3.103159e+04   7.865808e+04  -4.767831e+09   2.027320e+10  -6.774781e+08   1.474304e+05   3.362721e-26   0.000000e+00   0.000000e+00
       72000   7.199900e-07   4.279514e+01   1.181948e-01   3.678284e+01   1.203797e+05   3.264876e+04   7.860346e+04  -5.017138e+09   2.015564e+10  -6.881483e+08   1.474304e+05   3.344917e-26   0.000000e+00   0.000000e+00
       80000   7.999900e-07   4.280475e+01   1.208712e-01   3.678913e+01   1.199661e+05   3.426543e+04   7.854772e+04  -5.328187e+09   2.027208e+10  -7.056281e+08   1.474304e+05   3.406483e-26   0.000000e+00   0.000000e+00
       88000   8.799900e-07   4.281433e+01   1.236772e-01   3.679541e+01   1.195294e+05   3.588377e+04   7.849077e+04  -5.588362e+09   2.018594e+10  -7.181688e+08   1.474304e+05   3.401626e-26   0.000000e+00   0.000000e+00
       96000   9.599900e-07   4.282388e+01   1.266124e-01   3.680169e+01   1.190723e+05   3.749369e+04   7.843289e+04  -5.827507e+09   2.002738e+10  -7.267504e+08   1.474304e+05   3.373485e-26   0.000000e+00   0.000000e+00
      104000   1.039990e-06   4.283338e+01   1.296759e-01   3.680796e+01   1.185963e+05   3.909098e+04   7.837427e+04  -6.072398e+09   1.990426e+10  -7.388702e+08   1.474304e+05   3.358117e-26   0.000000e+00   0.000000e+00
      112000   1.119990e-06   4.284285e+01   1.328667e-01   3.681423e+01   1.181008e+05   4.067831e+04   7.831466e+04  -6.314238e+09   1.977870e+10  -7.513661e+08   1.474304e+05   3.342873e-26   0.000000e+00   0.000000e+00
      120000   1.199990e-06   4.285228e+01   1.361841e-01   3.682049e+01   1.175861e+05   4.225550e+04   7.825404e+04  -6.553019e+09   1.965077e+10  -7.642383e+08   1.474304e+05   3.327753e-26   0.000000e+00   0.000000e+00
      128000   1.279990e-06   4.286166e+01   1.396273e-01   3.682675e+01   1.170524e+05   4.382237e+04   7.819238e+04  -6.788734e+09   1.952052e+10  -7.774862e+08   1.474304e+05   3.312754e-26   0.000000e+00   0.000000e+00
      136000   1.359990e-06   4.287101e+01   1.431954e-01   3.683300e+01   1.165000e+05   4.537873e+04   7.812963e+04  -7.021379e+09   1.938803e+10  -7.911087e+08   1.474304e+05   3.297877e-26   0.000000e+00   0.000000e+00
      144000   1.439990e-06   4.288030e+01   1.468876e-01   3.683925e+01   1.159291e+05   4.692439e+04   7.806579e+04  -7.250950e+09   1.925334e+10  -8.051044e+08   1.474304e+05   3.283118e-26   0.000000e+00   0.000000e+00
      152000   1.519990e-06   4.288955e+01   1.507030e-01   3.684549e+01   1.153399e+05   4.845920e+04   7.800081e+04  -7.477445e+09   1.911653e+10  -8.194711e+08   1.474304e+05   3.268478e-26   0.000000e+00   0.000000e+00
      160000   1.599990e-06   4.289876e+01   1.546408e-01   3.685173e+01   1.147328e+05   4.998298e+04   7.793466e+04  -7.700862e+09   1.897764e+10  -8.342065e+08   1.474304e+05   3.253955e-26   0.000000e+00   0.000000e+00
      168000   1.679990e-06   4.290791e+01   1.587002e-01   3.685796e+01   1.141053e+05   5.150161e+04   7.786705e+04  -7.961836e+09   1.893092e+10  -8.537706e+08   1.474304e+05   3.272150e-26   0.000000e+00   0.000000e+00
      176000   1.759990e-06   4.291701e+01   1.628808e-01   3.686419e+01   1.134593e+05   5.301101e+04   7.779809e+04  -8.188734e+09   1.880365e+10  -8.703092e+08   1.474304e+05   3.263559e-26   0.000000e+00   0.000000e+00
      184000   1.839990e-06   4.292606e+01   1.671817e-01   3.687041e+01   1.127952e+05   5.451013e+04   7.772779e+04  -8.413151e+09   1.867411e+10  -8.872084e+08   1.474304e+05   3.255042e-26   0.000000e+00   0.000000e+00
      192000   1.919990e-06   4.293506e+01   1.716021e-01   3.687662e+01   1.121133e+05   5.599880e+04   7.765612e+04  -8.635077e+09   1.854232e+10  -9.044635e+08   1.474304e+05   3.246599e-26   0.000000e+00   0.000000e+00
      200000   1.999990e-06   4.294400e+01   1.761412e-01   3.688283e+01   1.114137e+05   5.747684e+04   7.758306e+04  -8.854502e+09   1.840835e+10  -9.220696e+08   1.474304e+05   3.238229e-26   0.000000e+00   0.000000e+00
      208000   2.079990e-06   4.295289e+01   1.807981e-01   3.688904e+01   1.106966e+05   5.894408e+04   7.750858e+04  -9.071417e+09   1.827222e+10  -9.400209e+08   1.474304e+05   3.229931e-26   0.000000e+00   0.000000e+00
      216000   2.159990e-06   4.296171e+01   1.855720e-01   3.689523e+01   1.099623e+05   6.040034e+04   7.743265e+04  -9.285813e+09   1.813397e+10  -9.583117e+08   1.474304e+05   3.221702e-26   0.000000e+00   0.000000e+00
      224000   2.239990e-06   4.297048e+01   1.904619e-01   3.690143e+01   1.092106e+05   6.184601e+04   7.735528e+04  -9.516174e+09   1.802361e+10  -9.749452e+08   1.474304e+05   3.224591e-26   0.000000e+00   0.000000e+00
      232000   2.319990e-06   4.297919e+01   1.954671e-01   3.690761e+01   1.084409e+05   6.328215e+04   7.727655e+04  -9.725782e+09   1.787939e+10  -9.934348e+08   1.474304e+05   3.216007e-26   0.000000e+00   0.000000e+00
      240000   2.399990e-06   4.298783e+01   2.005867e-01   3.691379e+01   1.076547e+05   6.470639e+04   7.719638e+04  -9.919385e+09   1.770374e+10  -1.006175e+09   1.474304e+05   3.197255e-26   0.000000e+00   0.000000e+00
      248000   2.479990e-06   4.299641e+01   2.058197e-01   3.691996e+01   1.068529e+05   6.611680e+04   7.711522e+04  -1.012489e+10   1.755607e+10  -1.022797e+09   1.474304e+05   3.189092e-26   0.000000e+00   0.000000e+00
      256000   2.559990e-06   4.300493e+01   2.111651e-01   3.692613e+01   1.060351e+05   6.751471e+04   7.703280e+04  -1.031907e+10   1.739035e+10  -1.037449e+09   1.474304e+05   3.175221e-26   0.000000e+00   0.000000e+00
      264000   2.639990e-06   4.301338e+01   2.166218e-01   3.693229e+01   1.052018e+05   6.889946e+04   7.694919e+04  -1.051308e+10   1.722821e+10  -1.052858e+09   1.474304e+05   3.163300e-26   0.000000e+00   0.000000e+00
      272000   2.719990e-06   4.302176e+01   2.221887e-01   3.693844e+01   1.043531e+05   7.027118e+04   7.686434e+04  -1.070401e+10   1.706436e+10  -1.068532e+09   1.474304e+05   3.151414e-26   0.000000e+00   0.000000e+00
      280000   2.799990e-06   4.303007e+01   2.278648e-01   3.694459e+01   1.034892e+05   7.162971e+04   7.677822e+04  -1.089188e+10   1.689884e+10  -1.084463e+09   1.474304e+05   3.139563e-26   0.000000e+00   0.000000e+00
      288000   2.879990e-06   4.303832e+01   2.336491e-01   3.695073e+01   1.026104e+05   7.297495e+04   7.669082e+04  -1.107667e+10   1.673171e+10  -1.100645e+09   1.474304e+05   3.127747e-26   0.000000e+00   0.000000e+00
      296000   2.959990e-06   4.304649e+01   2.395404e-01   3.695686e+01   1.017170e+05   7.430674e+04   7.660211e+04  -1.125839e+10   1.656301e+10  -1.117070e+09   1.474304e+05   3.115964e-26   0.000000e+00   0.000000e+00
      304000   3.039990e-06   4.305459e+01   2.455378e-01   3.696298e+01   1.008092e+05   7.562499e+04   7.651208e+04  -1.143704e+10   1.639281e+10  -1.133729e+09   1.474304e+05   3.104215e-26   0.000000e+00   0.000000e+00
      312000   3.119990e-06   4.306262e+01   2.516401e-01   3.696910e+01   9.988717e+04   7.692955e+04   7.642071e+04  -1.161262e+10   1.622116e+10  -1.150616e+09   1.474304e+05   3.092499e-26   0.000000e+00   0.000000e+00
      320000   3.199990e-06   4.307057e+01   2.578461e-01   3.697521e+01   9.895124e+04   7.822033e+04   7.632797e+04  -1.178514e+10   1.604810e+10  -1.167720e+09   1.474304e+05   3.080817e-26   0.000000e+00   0.000000e+00
      328000   3.279990e-06   4.307845e+01   2.641549e-01   3.698131e+01   9.800163e+04   7.949721e+04   7.623386e+04  -1.195459e+10   1.587368e+10  -1.185034e+09   1.474304e+05   3.069168e-26   0.000000e+00   0.000000e+00
      336000   3.359990e-06   4.308625e+01   2.705653e-01   3.698741e+01   9.703858e+04   8.076008e+04   7.613836e+04  -1.212099e+10   1.569795e+10  -1.202549e+09   1.474304e+05   3.057551e-26   0.000000e+00   0.000000e+00
      344000   3.439990e-06   4.309398e+01   2.770762e-01   3.699349e+01   9.606235e+04   8.200885e+04   7.604145e+04  -1.228434e+10   1.552097e+10  -1.220254e+09   1.474304e+05   3.045967e-26   0.000000e+00   0.000000e+00
      352000   3.519990e-06   4.310162e+01   2.836864e-01   3.699957e+01   9.507251e+04   8.324458e+04   7.594266e+04  -1.248334e+10   1.541161e+10  -1.265520e+09   1.474304e+05   3.058812e-26   0.000000e+00   0.000000e+00
      360000   3.599990e-06   4.310919e+01   2.903953e-01   3.700564e+01   9.406074e+04   8.447758e+04   7.584092e+04  -1.274014e+10   1.533578e+10  -1.281352e+09   1.474304e+05   3.091232e-26   0.000000e+00   0.000000e+00
      368000   3.679990e-06   4.311667e+01   2.972024e-01   3.701171e+01   9.303461e+04   8.569775e+04   7.573761e+04  -1.291257e+10   1.516822e+10  -1.301369e+09   1.474304e+05   3.086303e-26   0.000000e+00   0.000000e+00
      376000   3.759990e-06   4.312407e+01   3.041066e-01   3.701776e+01   9.199593e+04   8.690325e+04   7.563269e+04  -1.305576e+10   1.497113e+10  -1.321641e+09   1.474304e+05   3.069510e-26   0.000000e+00   0.000000e+00
      384000   3.839990e-06   4.313139e+01   3.111066e-01   3.702381e+01   9.094513e+04   8.809378e+04   7.552615e+04  -1.321369e+10   1.479195e+10  -1.341966e+09   1.474304e+05   3.060757e-26   0.000000e+00   0.000000e+00
      392000   3.919990e-06   4.313862e+01   3.182012e-01   3.702985e+01   8.988180e+04   8.926993e+04   7.541797e+04  -1.336900e+10   1.461169e+10  -1.362425e+09   1.474304e+05   3.052111e-26   0.000000e+00   0.000000e+00
      400000   3.999990e-06   4.314577e+01   3.253894e-01   3.703588e+01   8.880616e+04   9.043162e+04   7.530816e+04  -1.352169e+10   1.443041e+10  -1.383005e+09   1.474304e+05   3.043573e-26   0.000000e+00   0.000000e+00
      408000   4.079990e-06   4.315283e+01   3.326699e-01   3.704190e+01   8.771840e+04   9.157877e+04   7.519669e+04  -1.367179e+10   1.424811e+10  -1.403695e+09   1.474304e+05   3.035141e-26   0.000000e+00   0.000000e+00
      416000   4.159990e-06   4.315980e+01   3.400416e-01   3.704791e+01   8.661874e+04   9.271129e+04   7.508356e+04  -1.381930e+10   1.406484e+10  -1.424480e+09   1.474304e+05   3.026815e-26   0.000000e+00   0.000000e+00
      424000   4.239990e-06   4.316669e+01   3.475033e-01   3.705391e+01   8.550738e+04   9.382912e+04   7.496877e+04  -1.396424e+10   1.388061e+10  -1.445349e+09   1.474304e+05   3.018595e-26   0.000000e+00   0.000000e+00
      432000   4.319990e-06   4.317349e+01   3.550538e-01   3.705990e+01   8.438453e+04   9.493216e+04   7.485231e+04  -1.410662e+10   1.369546e+10  -1.466288e+09   1.474304e+05   3.010478e-26   0.000000e+00   0.000000e+00
      440000   4.399990e-06   4.318019e+01   3.626920e-01   3.706589e+01   8.325039e+04   9.602036e+04   7.473416e+04  -1.424646e+10   1.350940e+10  -1.487283e+09   1.474304e+05   3.002464e-26   0.000000e+00   0.000000e+00
      448000   4.479990e-06   4.318681e+01   3.704167e-01   3.707186e+01   8.210516e+04   9.709364e+04   7.461434e+04  -1.438376e+10   1.332247e+10  -1.508321e+09   1.474304e+05   2.994553e-26   0.000000e+00   0.000000e+00
      456000   4.559990e-06   4.319333e+01   3.782266e-01   3.707782e+01   8.094905e+04   9.815193e+04   7.449283e+04  -1.451856e+10   1.313469e+10  -1.529389e+09   1.474304e+05   2.986744e-26   0.000000e+00   0.000000e+00
      464000   4.639990e-06   4.319976e+01   3.861206e-01   3.708378e+01   7.978226e+04   9.919517e+04   7.436964e+04  -1.465084e+10   1.294609e+10  -1.550472e+09   1.474304e+05   2.979036e-26   0.000000e+00   0.000000e+00
      472000   4.719990e-06   4.320609e+01   3.940977e-01   3.708972e+01   7.859441e+04   1.002312e+05   7.424520e+04  -1.492493e+10   1.286252e+10  -1.565176e+09   1.474304e+05   3.025468e-26   0.000000e+00   0.000000e+00
      480000   4.799990e-06   4.321233e+01   4.021572e-01   3.709566e+01   7.739826e+04   1.012499e+05   7.411949e+04  -1.489919e+10   1.253934e+10  -1.570865e+09   1.474304e+05   2.956079e-26   0.000000e+00   0.000000e+00
      488000   4.879990e-06   4.321848e+01   4.102971e-01   3.710158e+01   7.620084e+04   1.022458e+05   7.399300e+04  -1.504688e+10   1.236690e+10  -1.593060e+09   1.474304e+05   2.957614e-26   0.000000e+00   0.000000e+00
      496000   4.959990e-06   4.322452e+01   4.185161e-01   3.710750e+01   7.499182e+04   1.032277e+05   7.386473e+04  -1.517820e+10   1.218125e+10  -1.613740e+09   1.474304e+05   2.953574e-26   0.000000e+00   0.000000e+00
      504000   5.039990e-06   4.323047e+01   4.268131e-01   3.711340e+01   7.377239e+04   1.041948e+05   7.373480e+04  -1.530714e+10   1.199442e+10  -1.634341e+09   1.474304e+05   2.949554e-26   0.000000e+00   0.000000e+00
      512000   5.119990e-06   4.323633e+01   4.351869e-01   3.711929e+01   7.254274e+04   1.051468e+05   7.360323e+04  -1.543370e+10   1.180643e+10  -1.654847e+09   1.474304e+05   2.945554e-26   0.000000e+00   0.000000e+00
      520000   5.199990e-06   4.324208e+01   4.436362e-01   3.712518e+01   7.130306e+04   1.060838e+05   7.347003e+04  -1.555787e+10   1.161730e+10  -1.675242e+09   1.474304e+05   2.941574e-26   0.000000e+00   0.000000e+00
      528000   5.279990e-06   4.324774e+01   4.521599e-01   3.713105e+01   7.005354e+04   1.070055e+05   7.333520e+04  -1.567965e+10   1.142707e+10  -1.695512e+09   1.474304e+05   2.937614e-26   0.000000e+00   0.000000e+00
      536000   5.359990e-06   4.325329e+01   4.607567e-01   3.713691e+01   6.879438e+04   1.079121e+05   7.319875e+04  -1.579904e+10   1.123574e+10  -1.715640e+09   1.474304e+05   2.933672e-26   0.000000e+00   0.000000e+00
      544000   5.439990e-06   4.325874e+01   4.694254e-01   3.714276e+01   6.752576e+04   1.088032e+05   7.306070e+04  -1.591605e+10   1.104335e+10  -1.735613e+09   1.474304e+05   2.929750e-26   0.000000e+00   0.000000e+00
      552000   5.519990e-06   4.326409e+01   4.781648e-01   3.714860e+01   6.624787e+04   1.096790e+05   7.292106e+04  -1.603067e+10   1.084992e+10  -1.755413e+09   1.474304e+05   2.925846e-26   0.000000e+00   0.000000e+00
      560000   5.599990e-06   4.326934e+01   4.869736e-01   3.715443e+01   6.496091e+04   1.105392e+05   7.277984e+04  -1.614289e+10   1.065547e+10  -1.775026e+09   1.474304e+05   2.921960e-26   0.000000e+00   0.000000e+00
      568000   5.679990e-06   4.327449e+01   4.958507e-01   3.716024e+01   6.366507e+04   1.113838e+05   7.263706e+04  -1.625273e+10   1.046003e+10  -1.794436e+09   1.474304e+05   2.918092e-26   0.000000e+00   0.000000e+00
      576000   5.759990e-06   4.327953e+01   5.047946e-01   3.716605e+01   6.235769e+04   1.122133e+05   7.249433e+04  -1.643330e+10   1.027911e+10  -1.775394e+09   1.474305e+05   2.934217e-26   0.000000e+00   0.000000e+00
      584000   5.839990e-06   4.328446e+01   5.138044e-01   3.717184e+01   6.103782e+04   1.130281e+05   7.235167e+04  -1.656297e+10   1.009090e+10  -1.791026e+09   1.474305e+05   2.938093e-26   0.000000e+00   0.000000e+00
      592000   5.919990e-06   4.328929e+01   5.228787e-01   3.717763e+01   5.970766e+04   1.138278e+05   7.220778e+04  -1.669079e+10   9.900994e+09  -1.806403e+09   1.474305e+05   2.942038e-26   0.000000e+00   0.000000e+00
      600000   5.999990e-06   4.329402e+01   5.320164e-01   3.718340e+01   5.836734e+04   1.146122e+05   7.206266e+04  -1.681676e+10   9.709401e+09  -1.821512e+09   1.474305e+05   2.946052e-26   0.000000e+00   0.000000e+00
      608000   6.079990e-06   4.329863e+01   5.412163e-01   3.718916e+01   5.701703e+04   1.153813e+05   7.191634e+04  -1.694084e+10   9.516124e+09  -1.836334e+09   1.474305e+05   2.950134e-26   0.000000e+00   0.000000e+00
      616000   6.159990e-06   4.330314e+01   5.504769e-01   3.719490e+01   5.566925e+04   1.161301e+05   7.176677e+04  -1.683297e+10   9.237152e+09  -1.889858e+09   1.474305e+05   2.882948e-26   0.000000e+00   0.000000e+00
      624000   6.239990e-06   4.330754e+01   5.597967e-01   3.720064e+01   5.431791e+04   1.168614e+05   7.161505e+04  -1.702485e+10   9.066357e+09  -1.881576e+09   1.474305e+05   2.908808e-26   0.000000e+00   0.000000e+00
      632000   6.319990e-06   4.331183e+01   5.691744e-01   3.720636e+01   5.295166e+04   1.175787e+05   7.146401e+04  -1.713112e+10   8.866497e+09  -1.894467e+09   1.474305e+05   2.909540e-26   0.000000e+00   0.000000e+00
      640000   6.399990e-06   4.331601e+01   5.786088e-01   3.721207e+01   5.157699e+04   1.182800e+05   7.131194e+04  -1.723538e+10   8.665447e+09  -1.907067e+09   1.474305e+05   2.910360e-26   0.000000e+00   0.000000e+00
      648000   6.479990e-06   4.332008e+01   5.880987e-01   3.721777e+01   5.019405e+04   1.189652e+05   7.115888e+04  -1.733760e+10   8.463214e+09  -1.919364e+09   1.474305e+05   2.911267e-26   0.000000e+00   0.000000e+00
      656000   6.559990e-06   4.332404e+01   5.976428e-01   3.722346e+01   4.880302e+04   1.196341e+05   7.100485e+04  -1.743777e+10   8.259806e+09  -1.931341e+09   1.474305e+05   2.912260e-26   0.000000e+00   0.000000e+00
      664000   6.639990e-06   4.332789e+01   6.072397e-01   3.722913e+01   4.741030e+04   1.202846e+05   7.084928e+04  -1.741560e+10   8.015539e+09  -1.954339e+09   1.474305e+05   2.876178e-26   0.000000e+00   0.000000e+00
      672000   6.719990e-06   4.333163e+01   6.168879e-01   3.723479e+01   4.601500e+04   1.209171e+05   7.069233e+04  -1.746650e+10   7.798229e+09  -1.969306e+09   1.474305e+05   2.863770e-26   0.000000e+00   0.000000e+00
      680000   6.799990e-06   4.333525e+01   6.265860e-01   3.724044e+01   4.461573e+04   1.215323e+05   7.053420e+04  -1.751489e+10   7.581312e+09  -1.983875e+09   1.474305e+05   2.851491e-26   0.000000e+00   0.000000e+00
      688000   6.879990e-06   4.333877e+01   6.363326e-01   3.724608e+01   4.321268e+04   1.221302e+05   7.037492e+04  -1.756081e+10   7.364804e+09  -1.998031e+09   1.474305e+05   2.839339e-26   0.000000e+00   0.000000e+00
      696000   6.959990e-06   4.334217e+01   6.461263e-01   3.725170e+01   4.180606e+04   1.227107e+05   7.021452e+04  -1.760428e+10   7.148718e+09  -2.011762e+09   1.474305e+05   2.827315e-26   0.000000e+00   0.000000e+00
      704000   7.039990e-06   4.334545e+01   6.559659e-01   3.725731e+01   4.039606e+04   1.232740e+05   7.005305e+04  -1.764533e+10   6.933068e+09  -2.025054e+09   1.474305e+05   2.815419e-26   0.000000e+00   0.000000e+00
      712000   7.119990e-06   4.334863e+01   6.658497e-01   3.726291e+01   3.898287e+04   1.238200e+05   6.989053e+04  -1.768400e+10   6.717866e+09  -2.037894e+09   1.474305e+05   2.803651e-26   0.000000e+00   0.000000e+00
      720000   7.199990e-06   4.335169e+01   6.757766e-01   3.726850e+01   3.756668e+04   1.243488e+05   6.972700e+04  -1.772031e+10   6.503124e+09  -2.050270e+09   1.474305e+05   2.792010e-26   0.000000e+00   0.000000e+00
      728000   7.279990e-06   4.335464e+01   6.857451e-01   3.727407e+01   3.614768e+04   1.248605e+05   6.956250e+04  -1.775429e+10   6.288854e+09  -2.062168e+09   1.474305e+05   2.780498e-26   0.000000e+00   0.000000e+00
      736000   7.359990e-06   4.335748e+01   6.957538e-01   3.727963e+01   3.472606e+04   1.253551e+05   6.939706e+04  -1.778597e+10   6.075067e+09  -2.073576e+09   1.474305e+05   2.769113e-26   0.000000e+00   0.000000e+00
      744000   7.439990e-06   4.336020e+01   7.058015e-01   3.728517e+01   3.328791e+04   1.258352e+05   6.923272e+04  -1.812452e+10   5.916935e+09  -2.039898e+09   1.474305e+05   2.847508e-26   0.000000e+00   0.000000e+00
      752000   7.519990e-06   4.336280e+01   7.158870e-01   3.729070e+01   3.183630e+04   1.262997e+05   6.906934e+04  -1.816531e+10   5.697057e+09  -2.044566e+09   1.474305e+05   2.839344e-26   0.000000e+00   0.000000e+00
      760000   7.599990e-06   4.336529e+01   7.260090e-01   3.729622e+01   3.038153e+04   1.267467e+05   6.890560e+04  -1.820349e+10   5.477269e+09  -2.048777e+09   1.474305e+05   2.831211e-26   0.000000e+00   0.000000e+00
      768000   7.679990e-06   4.336766e+01   7.361660e-01   3.730173e+01   2.892697e+04   1.271757e+05   6.874093e+04  -1.811200e+10   5.242705e+09  -2.077592e+09   1.474305e+05   2.786926e-26   0.000000e+00   0.000000e+00
      776000   7.759990e-06   4.336992e+01   7.463566e-01   3.730722e+01   2.747694e+04   1.275865e+05   6.857443e+04  -1.813859e+10   5.026824e+09  -2.084718e+09   1.474305e+05   2.777449e-26   0.000000e+00   0.000000e+00
      784000   7.839990e-06   4.337206e+01   7.565794e-01   3.731270e+01   2.602486e+04   1.279800e+05   6.840739e+04  -1.816288e+10   4.811315e+09  -2.091325e+09   1.474305e+05   2.768071e-26   0.000000e+00   0.000000e+00
      792000   7.919990e-06   4.337408e+01   7.668330e-01   3.731817e+01   2.457094e+04   1.283563e+05   6.823984e+04  -1.818490e+10   4.596189e+09  -2.097401e+09   1.474305e+05   2.758793e-26   0.000000e+00   0.000000e+00
      800000   7.999990e-06   4.337599e+01   7.771159e-01   3.732362e+01   2.311534e+04   1.287154e+05   6.807182e+04  -1.820466e+10   4.381457e+09  -2.102934e+09   1.474305e+05   2.749614e-26   0.000000e+00   0.000000e+00
      808000   8.079990e-06   4.337778e+01   7.874270e-01   3.732906e+01   2.165825e+04   1.290573e+05   6.790338e+04  -1.822220e+10   4.167132e+09  -2.107914e+09   1.474305e+05   2.740534e-26   0.000000e+00   0.000000e+00
      816000   8.159990e-06   4.337945e+01   7.977647e-01   3.733448e+01   2.019984e+04   1.293822e+05   6.773457e+04  -1.823753e+10   3.953223e+09  -2.112329e+09   1.474305e+05   2.731555e-26   0.000000e+00   0.000000e+00
      824000   8.239990e-06   4.338101e+01   8.081277e-01   3.733990e+01   1.872780e+04   1.296911e+05   6.756643e+04  -1.845581e+10   3.758898e+09  -2.099498e+09   1.474305e+05   2.781559e-26   0.000000e+00   0.000000e+00
      832000   8.319990e-06   4.338245e+01   8.185148e-01   3.734529e+01   1.725030e+04   1.299832e+05   6.739840e+04  -1.848135e+10   3.542148e+09  -2.101050e+09   1.474305e+05   2.776659e-26   0.000000e+00   0.000000e+00
      840000   8.399990e-06   4.338377e+01   8.289245e-01   3.735068e+01   1.577085e+04   1.302579e+05   6.723028e+04  -1.850446e+10   3.325331e+09  -2.101971e+09   1.474305e+05   2.771777e-26   0.000000e+00   0.000000e+00
      848000   8.479990e-06   4.338497e+01   8.393556e-01   3.735605e+01   1.428965e+04   1.305152e+05   6.706211e+04  -1.852515e+10   3.108469e+09  -2.102249e+09   1.474305e+05   2.766914e-26   0.000000e+00   0.000000e+00
      856000   8.559990e-06   4.338606e+01   8.498065e-01   3.736141e+01   1.280689e+04   1.307552e+05   6.689394e+04  -1.854341e+10   2.891584e+09  -2.101876e+09   1.474305e+05   2.762068e-26   0.000000e+00   0.000000e+00
      864000   8.639990e-06   4.338702e+01   8.602760e-01   3.736675e+01   1.132277e+04   1.309779e+05   6.672582e+04  -1.855927e+10   2.674696e+09  -2.100840e+09   1.474305e+05   2.757240e-26   0.000000e+00   0.000000e+00
      872000   8.719990e-06   4.338787e+01   8.707625e-01   3.737209e+01   9.837470e+03   1.311832e+05   6.655782e+04  -1.857271e+10   2.457828e+09  -2.099131e+09   1.474305e+05   2.752430e-26   0.000000e+00   0.000000e+00
      880000   8.799990e-06   4.338860e+01   8.812648e-01   3.737740e+01   8.351195e+03   1.313711e+05   6.638998e+04  -1.858376e+10   2.241000e+09  -2.096741e+09   1.474305e+05   2.747639e-26   0.000000e+00   0.000000e+00
      888000   8.879990e-06   4.338921e+01   8.917814e-01   3.738271e+01   6.864133e+03   1.315417e+05   6.622236e+04  -1.859240e+10   2.024234e+09  -2.093659e+09   1.474305e+05   2.742867e-26   0.000000e+00   0.000000e+00
      896000   8.959990e-06   4.338970e+01   9.023110e-01   3.738800e+01   5.372400e+03   1.316953e+05   6.605481e+04  -1.883467e+10   1.822512e+09  -2.101668e+09   1.474305e+05   2.807343e-26   0.000000e+00   0.000000e+00
      904000   9.039990e-06   4.339007e+01   9.128522e-01   3.739328e+01   3.864073e+03   1.318323e+05   6.588683e+04  -1.887308e+10   1.601548e+09  -2.097613e+09   1.474305e+05   2.812569e-26   0.000000e+00   0.000000e+00
      912000   9.119990e-06   4.339031e+01   9.234037e-01   3.739854e+01   2.352774e+03   1.319515e+05   6.571921e+04  -1.890897e+10   1.379518e+09  -2.092803e+09   1.474305e+05   2.817787e-26   0.000000e+00   0.000000e+00
      920000   9.199990e-06   4.339044e+01   9.339640e-01   3.740379e+01   8.490554e+02   1.320527e+05   6.555232e+04  -1.875707e+10   1.153731e+09  -2.081147e+09   1.474305e+05   2.768671e-26   0.000000e+00   0.000000e+00
      928000   9.279990e-06   4.339045e+01   9.445317e-01   3.740903e+01  -6.520873e+02   1.321362e+05   6.538614e+04  -1.877111e+10   9.333432e+08  -2.073303e+09   1.474305e+05   2.768936e-26   0.000000e+00   0.000000e+00
      936000   9.359990e-06   4.339034e+01   9.551053e-01   3.741425e+01  -2.154260e+03   1.322020e+05   6.522061e+04  -1.878282e+10   7.125895e+08  -2.064766e+09   1.474305e+05   2.769254e-26   0.000000e+00   0.000000e+00
      944000   9.439990e-06   4.339011e+01   9.656835e-01   3.741946e+01  -3.657276e+03   1.322502e+05   6.505580e+04  -1.879219e+10   4.914873e+08  -2.055527e+09   1.474305e+05   2.769625e-26   0.000000e+00   0.000000e+00
      952000   9.519990e-06   4.338975e+01   9.762649e-01   3.742466e+01  -5.160948e+03   1.322807e+05   6.489175e+04  -1.879922e+10   2.700539e+08  -2.045578e+09   1.474305e+05   2.770050e-26   0.000000e+00   0.000000e+00
      960000   9.599990e-06   4.338928e+01   9.868480e-01   3.742985e+01  -6.665088e+03   1.322934e+05   6.472852e+04  -1.880389e+10   4.830721e+07  -2.034911e+09   1.474305e+05   2.770527e-26   0.000000e+00   0.000000e+00
      968000   9.679990e-06   4.338869e+01   9.974314e-01   3.743502e+01  -8.169508e+03   1.322884e+05   6.456618e+04  -1.880620e+10  -1.737347e+08  -2.023517e+09   1.474305e+05   2.771056e-26   0.000000e+00   0.000000e+00
      976000   9.759990e-06   4.338797e+01   1.008014e+00   3.744018e+01  -9.667995e+03   1.322659e+05   6.440502e+04  -1.870598e+10  -3.899729e+08  -2.007075e+09   1.474305e+05   2.742372e-26   0.000000e+00   0.000000e+00
      984000   9.839990e-06   4.338714e+01   1.018593e+00   3.744532e+01  -1.116432e+04   1.322259e+05   6.424500e+04  -1.870171e+10  -6.104722e+08  -1.993432e+09   1.474305e+05   2.742419e-26   0.000000e+00   0.000000e+00
      992000   9.919990e-06   4.338619e+01   1.029169e+00   3.745046e+01  -1.266021e+04   1.321682e+05   6.408610e+04  -1.869523e+10  -8.311792e+08  -1.979003e+09   1.474305e+05   2.742564e-26   0.000000e+00   0.000000e+00
     1000000   9.999990e-06   4.338511e+01   1.039740e+00   3.745558e+01  -1.415550e+04   1.320929e+05   6.392838e+04  -1.868655e+10  -1.052082e+09  -1.963780e+09   1.474305e+05   2.742808e-26   0.000000e+00   0.000000e+00
     1008000   1.007999e-05   4.338392e+01   1.050304e+00   3.746069e+01  -1.565000e+04   1.319999e+05   6.377191e+04  -1.867565e+10  -1.273168e+09  -1.947759e+09   1.474305e+05   2.743150e-26   0.000000e+00   0.000000e+00
     1016000   1.015999e-05   4.338261e+01   1.060859e+00   3.746578e+01  -1.714354e+04   1.318892e+05   6.361676e+04  -1.866252e+10  -1.494425e+09  -1.930933e+09   1.474305e+05   2.743590e-26   0.000000e+00   0.000000e+00
     1024000   1.023999e-05   4.338118e+01   1.071406e+00   3.747086e+01  -1.863594e+04   1.317608e+05   6.346298e+04  -1.864715e+10  -1.715839e+09  -1.913295e+09   1.474305e+05   2.744128e-26   0.000000e+00   0.000000e+00
     1032000   1.031999e-05   4.337963e+01   1.081941e+00   3.747593e+01  -2.012702e+04   1.316147e+05   6.331065e+04  -1.862953e+10  -1.937396e+09  -1.894842e+09   1.474305e+05   2.744765e-26   0.000000e+00   0.000000e+00
     1040000   1.039999e-05   4.337796e+01   1.092463e+00   3.748099e+01  -2.161661e+04   1.314508e+05   6.315983e+04  -1.860964e+10  -2.159084e+09  -1.875567e+09   1.474305e+05   2.745501e-26   0.000000e+00   0.000000e+00
     1048000   1.047999e-05   4.337617e+01   1.102972e+00   3.748604e+01  -2.310757e+04   1.312687e+05   6.301056e+04  -1.872139e+10  -2.404200e+09  -1.856929e+09   1.474305e+05   2.785932e-26   0.000000e+00   0.000000e+00
     1056000   1.055999e-05   4.337426e+01   1.113466e+00   3.749108e+01  -2.460386e+04   1.310674e+05   6.286279e+04  -1.868547e+10  -2.626540e+09  -1.836973e+09   1.474305e+05   2.783618e-26   0.000000e+00   0.000000e+00
     1064000   1.063999e-05   4.337223e+01   1.123943e+00   3.749610e+01  -2.609718e+04   1.308484e+05   6.271666e+04  -1.864719e+10  -2.848546e+09  -1.816226e+09   1.474305e+05   2.781376e-26   0.000000e+00   0.000000e+00
     1072000   1.071999e-05   4.337009e+01   1.134401e+00   3.750111e+01  -2.758573e+04   1.306120e+05   6.257231e+04  -1.851358e+10  -3.052803e+09  -1.789521e+09   1.474305e+05   2.751515e-26   0.000000e+00   0.000000e+00
     1080000   1.079999e-05   4.336782e+01   1.144840e+00   3.750611e+01  -2.906449e+04   1.303591e+05   6.243008e+04  -1.845508e+10  -3.268841e+09  -1.766148e+09   1.474305e+05   2.744699e-26   0.000000e+00   0.000000e+00
     1088000   1.087999e-05   4.336544e+01   1.155258e+00   3.751110e+01  -3.053849e+04   1.300890e+05   6.228975e+04  -1.839448e+10  -3.483968e+09  -1.742025e+09   1.474305e+05   2.738001e-26   0.000000e+00   0.000000e+00
     1096000   1.095999e-05   4.336293e+01   1.165654e+00   3.751608e+01  -3.200755e+04   1.298017e+05   6.215137e+04  -1.833180e+10  -3.698173e+09  -1.717151e+09   1.474305e+05   2.731420e-26   0.000000e+00   0.000000e+00
     1104000   1.103999e-05   4.336031e+01   1.176026e+00   3.752104e+01  -3.347152e+04   1.294973e+05   6.201502e+04  -1.826704e+10  -3.911448e+09  -1.691526e+09   1.474305e+05   2.724956e-26   0.000000e+00   0.000000e+00
     1112000   1.111999e-05   4.335758e+01   1.186373e+00   3.752600e+01  -3.493022e+04   1.291759e+05   6.188075e+04  -1.820021e+10  -4.123783e+09  -1.665150e+09   1.474305e+05   2.718611e-26   0.000000e+00   0.000000e+00
     1120000   1.119999e-05   4.335473e+01   1.196694e+00   3.753094e+01  -3.638350e+04   1.288375e+05   6.174862e+04  -1.813134e+10  -4.335168e+09  -1.638022e+09   1.474305e+05   2.712385e-26   0.000000e+00   0.000000e+00
     1128000   1.127999e-05   4.335176e+01   1.206986e+00   3.753588e+01  -3.783747e+04   1.284804e+05   6.161868e+04  -1.817794e+10  -4.581124e+09  -1.610207e+09   1.474305e+05   2.741774e-26   0.000000e+00   0.000000e+00
     1136000   1.135999e-05   4.334867e+01   1.217250e+00   3.754080e+01  -3.928900e+04   1.281054e+05   6.149101e+04  -1.810986e+10  -4.795159e+09  -1.581194e+09   1.474305e+05   2.737468e-26   0.000000e+00   0.000000e+00
     1144000   1.143999e-05   4.334547e+01   1.227483e+00   3.754572e+01  -4.073499e+04   1.277132e+05   6.136571e+04  -1.803948e+10  -5.008329e+09  -1.551429e+09   1.474305e+05   2.733226e-26   0.000000e+00   0.000000e+00
     1152000   1.151999e-05   4.334215e+01   1.237684e+00   3.755062e+01  -4.217525e+04   1.273041e+05   6.124281e+04  -1.796679e+10  -5.220613e+09  -1.520914e+09   1.474305e+05   2.729046e-26   0.000000e+00   0.000000e+00
     1160000   1.159999e-05   4.333872e+01   1.247851e+00   3.755552e+01  -4.360961e+04   1.268780e+05   6.112238e+04  -1.789180e+10  -5.431991e+09  -1.489651e+09   1.474305e+05   2.724931e-26   0.000000e+00   0.000000e+00
     1168000   1.167999e-05   4.333518e+01   1.257984e+00   3.756040e+01  -4.503788e+04   1.264350e+05   6.100448e+04  -1.781452e+10  -5.642443e+09  -1.457642e+09   1.474305e+05   2.720881e-26   0.000000e+00   0.000000e+00
     1176000   1.175999e-05   4.333152e+01   1.268080e+00   3.756528e+01  -4.645987e+04   1.259752e+05   6.088918e+04  -1.773497e+10  -5.851949e+09  -1.424890e+09   1.474305e+05   2.716896e-26   0.000000e+00   0.000000e+00
     1184000   1.183999e-05   4.332774e+01   1.278139e+00   3.757014e+01  -4.787541e+04   1.254987e+05   6.077652e+04  -1.765314e+10  -6.060488e+09  -1.391400e+09   1.474305e+05   2.712978e-26   0.000000e+00   0.000000e+00
     1192000   1.191999e-05   4.332386e+01   1.288160e+00   3.757500e+01  -4.928431e+04   1.250055e+05   6.066657e+04  -1.756904e+10  -6.268040e+09  -1.357173e+09   1.474305e+05   2.709127e-26   0.000000e+00   0.000000e+00
     1200000   1.199999e-05   4.331986e+01   1.298140e+00   3.757985e+01  -5.068640e+04   1.244958e+05   6.055939e+04  -1.748269e+10  -6.474584e+09  -1.322215e+09   1.474305e+05   2.705344e-26   0.000000e+00   0.000000e+00
     1208000   1.207999e-05   4.331575e+01   1.308078e+00   3.758469e+01  -5.208581e+04   1.239678e+05   6.045505e+04  -1.746872e+10  -6.712278e+09  -1.286283e+09   1.474305e+05   2.725109e-26   0.000000e+00   0.000000e+00
     1216000   1.215999e-05   4.331152e+01   1.317974e+00   3.758952e+01  -5.348047e+04   1.234222e+05   6.035360e+04  -1.739749e+10  -6.927370e+09  -1.249816e+09   1.474305e+05   2.727880e-26   0.000000e+00   0.000000e+00
     1224000   1.223999e-05   4.330719e+01   1.327826e+00   3.759435e+01  -5.486933e+04   1.228594e+05   6.025510e+04  -1.732343e+10  -7.141949e+09  -1.212608e+09   1.474305e+05   2.730639e-26   0.000000e+00   0.000000e+00
     1232000   1.231999e-05   4.330275e+01   1.337631e+00   3.759916e+01  -5.625215e+04   1.222795e+05   6.015961e+04  -1.724655e+10  -7.355974e+09  -1.174663e+09   1.474305e+05   2.733385e-26   0.000000e+00   0.000000e+00
     1240000   1.239999e-05   4.329819e+01   1.347390e+00   3.760397e+01  -5.762595e+04   1.216838e+05   6.006725e+04  -1.716164e+10  -7.567947e+09  -1.132994e+09   1.474305e+05   2.734512e-26   0.000000e+00   0.000000e+00
     1248000   1.247999e-05   4.329353e+01   1.357100e+00   3.760878e+01  -5.899567e+04   1.210698e+05   5.997819e+04  -1.708092e+10  -7.781595e+09  -1.093417e+09   1.474305e+05   2.737823e-26   0.000000e+00   0.000000e+00
     1256000   1.255999e-05   4.328875e+01   1.366761e+00   3.761357e+01  -6.035882e+04   1.204387e+05   5.989233e+04  -1.699747e+10  -7.994686e+09  -1.053121e+09   1.474305e+05   2.741162e-26   0.000000e+00   0.000000e+00
     1264000   1.263999e-05   4.328387e+01   1.376370e+00   3.761836e+01  -6.171519e+04   1.197906e+05   5.980971e+04  -1.691125e+10  -8.207183e+09  -1.012110e+09   1.474305e+05   2.744529e-26   0.000000e+00   0.000000e+00
     1272000   1.271999e-05   4.327888e+01   1.385927e+00   3.762314e+01  -6.306455e+04   1.191256e+05   5.973041e+04  -1.682228e+10  -8.419049e+09  -9.703904e+08   1.474305e+05   2.747924e-26   0.000000e+00   0.000000e+00
     1280000   1.279999e-05   4.327378e+01   1.395429e+00   3.762792e+01  -6.440668e+04   1.184436e+05   5.965447e+04  -1.673053e+10  -8.630245e+09  -9.279671e+08   1.474305e+05   2.751348e-26   0.000000e+00   0.000000e+00
     1288000   1.287999e-05   4.326857e+01   1.404877e+00   3.763268e+01  -6.573553e+04   1.177482e+05   5.958162e+04  -1.649575e+10  -8.757105e+09  -8.932299e+08   1.474305e+05   2.707524e-26   0.000000e+00   0.000000e+00
     1296000   1.295999e-05   4.326326e+01   1.414269e+00   3.763745e+01  -6.705144e+04   1.170393e+05   5.951185e+04  -1.640170e+10  -8.963787e+09  -8.508940e+08   1.474305e+05   2.711355e-26   0.000000e+00   0.000000e+00
     1304000   1.303999e-05   4.325784e+01   1.423603e+00   3.764221e+01  -6.835973e+04   1.163140e+05   5.944550e+04  -1.630508e+10  -9.169885e+09  -8.078203e+08   1.474305e+05   2.715272e-26   0.000000e+00   0.000000e+00
     1312000   1.311999e-05   4.325232e+01   1.432879e+00   3.764696e+01  -6.966019e+04   1.155722e+05   5.938262e+04  -1.620588e+10  -9.375367e+09  -7.640160e+08   1.474305e+05   2.719273e-26   0.000000e+00   0.000000e+00
     1320000   1.319999e-05   4.324670e+01   1.442094e+00   3.765171e+01  -7.095260e+04   1.148139e+05   5.932328e+04  -1.610408e+10  -9.580199e+09  -7.194891e+08   1.474305e+05   2.723360e-26   0.000000e+00   0.000000e+00
     1328000   1.327999e-05   4.324097e+01   1.451248e+00   3.765645e+01  -7.223677e+04   1.140394e+05   5.926752e+04  -1.599968e+10  -9.784349e+09  -6.742477e+08   1.474305e+05   2.727532e-26   0.000000e+00   0.000000e+00
     1336000   1.335999e-05   4.323514e+01   1.460340e+00   3.766119e+01  -7.351248e+04   1.132485e+05   5.921542e+04  -1.589267e+10  -9.987782e+09  -6.283005e+08   1.474305e+05   2.731788e-26   0.000000e+00   0.000000e+00
     1344000   1.343999e-05   4.322921e+01   1.469368e+00   3.766593e+01  -7.477952e+04   1.124413e+05   5.916701e+04  -1.578303e+10  -1.019046e+10  -5.816568e+08   1.474305e+05   2.736128e-26   0.000000e+00   0.000000e+00
     1352000   1.351999e-05   4.322318e+01   1.478330e+00   3.767066e+01  -7.603769e+04   1.116180e+05   5.912237e+04  -1.567076e+10  -1.039236e+10  -5.343260e+08   1.474305e+05   2.740553e-26   0.000000e+00   0.000000e+00
     1360000   1.359999e-05   4.321704e+01   1.487226e+00   3.767539e+01  -7.728677e+04   1.107786e+05   5.908154e+04  -1.555584e+10  -1.059343e+10  -4.863182e+08   1.474305e+05   2.745061e-26   0.000000e+00   0.000000e+00
     1368000   1.367999e-05   4.321081e+01   1.496054e+00   3.768011e+01  -7.852655e+04   1.099231e+05   5.904458e+04  -1.543827e+10  -1.079364e+10  -4.376439e+08   1.474305e+05   2.749652e-26   0.000000e+00   0.000000e+00
     1376000   1.375999e-05   4.320448e+01   1.504813e+00   3.768483e+01  -7.975730e+04   1.090509e+05   5.901214e+04  -1.532560e+10  -1.100625e+10  -3.742138e+08   1.474305e+05   2.758307e-26   0.000000e+00   0.000000e+00
     1384000   1.383999e-05   4.319805e+01   1.513502e+00   3.768955e+01  -8.097944e+04   1.081618e+05   5.898406e+04  -1.524922e+10  -1.123649e+10  -3.307707e+08   1.474305e+05   2.779646e-26   0.000000e+00   0.000000e+00
     1392000   1.391999e-05   4.319152e+01   1.522119e+00   3.769427e+01  -8.219337e+04   1.072557e+05   5.895963e+04  -1.509881e+10  -1.141678e+10  -2.799321e+08   1.474305e+05   2.775684e-26   0.000000e+00   0.000000e+00
     1400000   1.399999e-05   4.318490e+01   1.530663e+00   3.769899e+01  -8.339519e+04   1.063352e+05   5.893929e+04  -1.494635e+10  -1.159521e+10  -2.285731e+08   1.474306e+05   2.771806e-26   0.000000e+00   0.000000e+00
     1408000   1.407999e-05   4.317818e+01   1.539132e+00   3.770370e+01  -8.458168e+04   1.054026e+05   5.892358e+04  -1.474570e+10  -1.173864e+10  -1.685099e+08   1.474306e+05   2.751400e-26   0.000000e+00   0.000000e+00
     1416000   1.415999e-05   4.317137e+01   1.547527e+00   3.770841e+01  -8.575534e+04   1.044564e+05   5.891220e+04  -1.459528e+10  -1.191680e+10  -1.160031e+08   1.474306e+05   2.749744e-26   0.000000e+00   0.000000e+00
     1424000   1.423999e-05   4.316446e+01   1.555845e+00   3.771313e+01  -8.691687e+04   1.034960e+05   5.890503e+04  -1.444279e+10  -1.209326e+10  -6.306132e+07   1.474306e+05   2.748188e-26   0.000000e+00   0.000000e+00
     1432000   1.431999e-05   4.315746e+01   1.564086e+00   3.771784e+01  -8.806612e+04   1.025215e+05   5.890212e+04  -1.428822e+10  -1.226799e+10  -9.697607e+06   1.474306e+05   2.746731e-26   0.000000e+00   0.000000e+00
     1440000   1.439999e-05   4.315037e+01   1.572248e+00   3.772255e+01  -8.920293e+04   1.015332e+05   5.890349e+04  -1.413159e+10  -1.244098e+10   4.407464e+07   1.474306e+05   2.745374e-26   0.000000e+00   0.000000e+00
     1448000   1.447999e-05   4.314319e+01   1.580331e+00   3.772726e+01  -9.032712e+04   1.005310e+05   5.890919e+04  -1.397291e+10  -1.261219e+10   9.824175e+07   1.474306e+05   2.744117e-26   0.000000e+00   0.000000e+00
     1456000   1.455999e-05   4.313592e+01   1.588333e+00   3.773198e+01  -9.143854e+04   9.951526e+04   5.891922e+04  -1.381220e+10  -1.278162e+10   1.527897e+08   1.474306e+05   2.742959e-26   0.000000e+00   0.000000e+00
     1464000   1.463999e-05   4.312856e+01   1.596253e+00   3.773669e+01  -9.253702e+04   9.848602e+04   5.893364e+04  -1.364946e+10  -1.294922e+10   2.077043e+08   1.474306e+05   2.741902e-26   0.000000e+00   0.000000e+00
     1472000   1.471999e-05   4.312111e+01   1.604090e+00   3.774141e+01  -9.362250e+04   9.744325e+04   5.895261e+04  -1.348405e+10  -1.311660e+10   2.665992e+08   1.474306e+05   2.741149e-26   0.000000e+00   0.000000e+00
     1480000   1.479999e-05   4.311358e+01   1.611843e+00   3.774612e+01  -9.469411e+04   9.638778e+04   5.897619e+04  -1.330611e+10  -1.326992e+10   3.230292e+08   1.474306e+05   2.735819e-26   0.000000e+00   0.000000e+00
     1488000   1.487999e-05   4.310596e+01   1.619512e+00   3.775084e+01  -9.575143e+04   9.532013e+04   5.900430e+04  -1.312654e+10  -1.342097e+10   3.797583e+08   1.474306e+05   2.730589e-26   0.000000e+00   0.000000e+00
     1496000   1.495999e-05   4.309826e+01   1.627094e+00   3.775556e+01  -9.679650e+04   9.423833e+04   5.903682e+04  -1.306854e+10  -1.369179e+10   4.286348e+08   1.474306e+05   2.775997e-26   0.000000e+00   0.000000e+00
     1504000   1.503999e-05   4.309047e+01   1.634589e+00   3.776029e+01  -9.783523e+04   9.313630e+04   5.907341e+04  -1.289936e+10  -1.385859e+10   4.863276e+08   1.474306e+05   2.777972e-26   0.000000e+00   0.000000e+00
     1512000   1.511999e-05   4.308261e+01   1.641996e+00   3.776502e+01  -9.886033e+04   9.202101e+04   5.911464e+04  -1.272774e+10  -1.402336e+10   5.443488e+08   1.474306e+05   2.779951e-26   0.000000e+00   0.000000e+00
     1520000   1.519999e-05   4.307466e+01   1.649312e+00   3.776975e+01  -9.987161e+04   9.089261e+04   5.916052e+04  -1.255368e+10  -1.418606e+10   6.026803e+08   1.474306e+05   2.781936e-26   0.000000e+00   0.000000e+00
     1528000   1.527999e-05   4.306663e+01   1.656538e+00   3.777448e+01  -1.008689e+05   8.975129e+04   5.921107e+04  -1.237723e+10  -1.434664e+10   6.613034e+08   1.474306e+05   2.783924e-26   0.000000e+00   0.000000e+00
     1536000   1.535999e-05   4.305852e+01   1.663672e+00   3.777922e+01  -1.018519e+05   8.859721e+04   5.926633e+04  -1.219839e+10  -1.450507e+10   7.201991e+08   1.474306e+05   2.785917e-26   0.000000e+00   0.000000e+00
     1544000   1.543999e-05   4.305033e+01   1.670713e+00   3.778396e+01  -1.028205e+05   8.743054e+04   5.932631e+04  -1.201719e+10  -1.466131e+10   7.793482e+08   1.474306e+05   2.787914e-26   0.000000e+00   0.000000e+00
     1552000   1.551999e-05   4.304207e+01   1.677661e+00   3.778871e+01  -1.037746e+05   8.625145e+04   5.939104e+04  -1.183366e+10  -1.481532e+10   8.387313e+08   1.474306e+05   2.789915e-26   0.000000e+00   0.000000e+00
     1560000   1.559999e-05   4.303373e+01   1.684513e+00   3.779347e+01  -1.047139e+05   8.506014e+04   5.946052e+04  -1.164782e+10  -1.496705e+10   8.983285e+08   1.474306e+05   2.791919e-26   0.000000e+00   0.000000e+00
     1568000   1.567999e-05   4.302531e+01   1.691270e+00   3.779823e+01  -1.056382e+05   8.385679e+04   5.953477e+04  -1.145970e+10  -1.511648e+10   9.581198e+08   1.474306e+05   2.793927e-26   0.000000e+00   0.000000e+00
     1576000   1.575999e-05   4.301683e+01   1.697930e+00   3.780299e+01  -1.065411e+05   8.264914e+04   5.961445e+04  -1.114571e+10  -1.511076e+10   1.030266e+09   1.474306e+05   2.738728e-26   0.000000e+00   0.000000e+00
     1584000   1.583999e-05   4.300827e+01   1.704494e+00   3.780777e+01  -1.074258e+05   8.143393e+04   5.969916e+04  -1.097053e+10  -1.526960e+10   1.087951e+09   1.474306e+05   2.747041e-26   0.000000e+00   0.000000e+00
     1592000   1.591999e-05   4.299964e+01   1.710959e+00   3.781255e+01  -1.082961e+05   8.020629e+04   5.978856e+04  -1.077178e+10  -1.539963e+10   1.147523e+09   1.474306e+05   2.745490e-26   0.000000e+00   0.000000e+00
     1600000   1.599999e-05   4.299094e+01   1.717326e+00   3.781733e+01  -1.091507e+05   7.896805e+04   5.988272e+04  -1.059265e+10  -1.555617e+10   1.206503e+09   1.474306e+05   2.754457e-26   0.000000e+00   0.000000e+00
     1608000   1.607999e-05   4.298217e+01   1.723594e+00   3.782213e+01  -1.099909e+05   7.771734e+04   5.998160e+04  -1.041096e+10  -1.571106e+10   1.265644e+09   1.474306e+05   2.763541e-26   0.000000e+00   0.000000e+00
     1616000   1.615999e-05   4.297334e+01   1.729761e+00   3.782693e+01  -1.108164e+05   7.645432e+04   6.008522e+04  -1.022669e+10  -1.586425e+10   1.324927e+09   1.474306e+05   2.772739e-26   0.000000e+00   0.000000e+00
     1624000   1.623999e-05   4.296444e+01   1.735826e+00   3.783174e+01  -1.116271e+05   7.517911e+04   6.019359e+04  -1.003986e+10  -1.601568e+10   1.384330e+09   1.474306e+05   2.782051e-26   0.000000e+00   0.000000e+00
     1632000   1.631999e-05   4.295548e+01   1.741789e+00   3.783656e+01  -1.124227e+05   7.389186e+04   6.030672e+04  -9.850469e+09  -1.616533e+10   1.443834e+09   1.474306e+05   2.791475e-26   0.000000e+00   0.000000e+00
     1640000   1.639999e-05   4.294646e+01   1.747649e+00   3.784139e+01  -1.132031e+05   7.259270e+04   6.042461e+04  -9.658515e+09  -1.631312e+10   1.503418e+09   1.474306e+05   2.801008e-26   0.000000e+00   0.000000e+00
     1648000   1.647999e-05   4.293737e+01   1.753404e+00   3.784623e+01  -1.139680e+05   7.128181e+04   6.054727e+04  -9.464004e+09  -1.645903e+10   1.563061e+09   1.474306e+05   2.810651e-26   0.000000e+00   0.000000e+00
     1656000   1.655999e-05   4.292822e+01   1.759053e+00   3.785108e+01  -1.147173e+05   6.995931e+04   6.067470e+04  -9.266942e+09  -1.660299e+10   1.622743e+09   1.474306e+05   2.820400e-26   0.000000e+00   0.000000e+00
     1664000   1.663999e-05   4.291902e+01   1.764597e+00   3.785594e+01  -1.154507e+05   6.862538e+04   6.080691e+04  -9.067335e+09  -1.674497e+10   1.682440e+09   1.474306e+05   2.830254e-26   0.000000e+00   0.000000e+00
     1672000   1.671999e-05   4.290975e+01   1.770033e+00   3.786081e+01  -1.161680e+05   6.728017e+04   6.094389e+04  -8.865190e+09  -1.688491e+10   1.742133e+09   1.474306e+05   2.840211e-26   0.000000e+00   0.000000e+00
     1680000   1.679999e-05   4.290043e+01   1.775361e+00   3.786569e+01  -1.168690e+05   6.592385e+04   6.108565e+04  -8.660516e+09  -1.702277e+10   1.801798e+09   1.474306e+05   2.850269e-26   0.000000e+00   0.000000e+00
     1688000   1.687999e-05   4.289105e+01   1.780581e+00   3.787058e+01  -1.175497e+05   6.456385e+04   6.123202e+04  -8.396012e+09  -1.704953e+10   1.859128e+09   1.474306e+05   2.824016e-26   0.000000e+00   0.000000e+00
     1696000   1.695999e-05   4.288162e+01   1.785691e+00   3.787548e+01  -1.182125e+05   6.319569e+04   6.138312e+04  -8.174290e+09  -1.715390e+10   1.918332e+09   1.474306e+05   2.824943e-26   0.000000e+00   0.000000e+00
     1704000   1.703999e-05   4.287214e+01   1.790692e+00   3.788040e+01  -1.188575e+05   6.181929e+04   6.153894e+04  -7.951101e+09  -1.725560e+10   1.977360e+09   1.474306e+05   2.825953e-26   0.000000e+00   0.000000e+00
     1712000   1.711999e-05   4.286260e+01   1.795582e+00   3.788533e+01  -1.194846e+05   6.043487e+04   6.169949e+04  -7.726473e+09  -1.735460e+10   2.036192e+09   1.474306e+05   2.827045e-26   0.000000e+00   0.000000e+00
     1720000   1.719999e-05   4.285302e+01   1.800361e+00   3.789027e+01  -1.200937e+05   5.904254e+04   6.186477e+04  -7.503942e+09  -1.746547e+10   2.101892e+09   1.474306e+05   2.832800e-26   0.000000e+00   0.000000e+00
     1728000   1.727999e-05   4.284339e+01   1.805029e+00   3.789523e+01  -1.206847e+05   5.764200e+04   6.203526e+04  -7.270762e+09  -1.754756e+10   2.160228e+09   1.474306e+05   2.830305e-26   0.000000e+00   0.000000e+00
     1736000   1.735999e-05   4.283371e+01   1.809584e+00   3.790020e+01  -1.212571e+05   5.623483e+04   6.221040e+04  -7.062555e+09  -1.768106e+10   2.216833e+09   1.474306e+05   2.845534e-26   0.000000e+00   0.000000e+00
     1744000   1.743999e-05   4.282399e+01   1.814026e+00   3.790518e+01  -1.218125e+05   5.481774e+04   6.239008e+04  -6.820694e+09  -1.774579e+10   2.275074e+09   1.474306e+05   2.839313e-26   0.000000e+00   0.000000e+00
     1752000   1.751999e-05   4.281422e+01   1.818355e+00   3.791018e+01  -1.223484e+05   5.339559e+04   6.257440e+04  -6.578314e+09  -1.780721e+10   2.332965e+09   1.474306e+05   2.833140e-26   0.000000e+00   0.000000e+00
     1760000   1.759999e-05   4.280441e+01   1.822569e+00   3.791520e+01  -1.228650e+05   5.196867e+04   6.276334e+04  -6.335464e+09  -1.786533e+10   2.390484e+09   1.474306e+05   2.827014e-26   0.000000e+00   0.000000e+00
     1768000   1.767999e-05   4.279457e+01   1.826669e+00   3.792022e+01  -1.233639e+05   5.053274e+04   6.295693e+04  -6.135920e+09  -1.803050e+10   2.449026e+09   1.474306e+05   2.855850e-26   0.000000e+00   0.000000e+00
     1776000   1.775999e-05   4.278468e+01   1.830654e+00   3.792527e+01  -1.238454e+05   4.908698e+04   6.315513e+04  -5.901290e+09  -1.811277e+10   2.505850e+09   1.474306e+05   2.859186e-26   0.000000e+00   0.000000e+00
     1784000   1.783999e-05   4.277475e+01   1.834523e+00   3.793033e+01  -1.243080e+05   4.763478e+04   6.335786e+04  -5.665127e+09  -1.819170e+10   2.562277e+09   1.474306e+05   2.862438e-26   0.000000e+00   0.000000e+00
     1792000   1.791999e-05   4.276479e+01   1.838276e+00   3.793541e+01  -1.247518e+05   4.617640e+04   6.356508e+04  -5.427484e+09  -1.826725e+10   2.618286e+09   1.474306e+05   2.865605e-26   0.000000e+00   0.000000e+00
     1800000   1.799999e-05   4.275479e+01   1.841911e+00   3.794050e+01  -1.251764e+05   4.471211e+04   6.377677e+04  -5.188421e+09  -1.833941e+10   2.673853e+09   1.474306e+05   2.868684e-26   0.000000e+00   0.000000e+00
     1808000   1.807999e-05   4.274476e+01   1.845429e+00   3.794561e+01  -1.255819e+05   4.324219e+04   6.399289e+04  -4.947992e+09  -1.840814e+10   2.728957e+09   1.474306e+05   2.871676e-26   0.000000e+00   0.000000e+00
     1816000   1.815999e-05   4.273470e+01   1.848830e+00   3.795074e+01  -1.259680e+05   4.176690e+04   6.421339e+04  -4.706258e+09  -1.847341e+10   2.783576e+09   1.474306e+05   2.874578e-26   0.000000e+00   0.000000e+00
     1824000   1.823999e-05   4.272461e+01   1.852112e+00   3.795588e+01  -1.263348e+05   4.028653e+04   6.443824e+04  -4.463276e+09  -1.853520e+10   2.837688e+09   1.474306e+05   2.877389e-26   0.000000e+00   0.000000e+00
     1832000   1.831999e-05   4.271449e+01   1.855275e+00   3.796105e+01  -1.266821e+05   3.880136e+04   6.466741e+04  -4.219106e+09  -1.859349e+10   2.891272e+09   1.474306e+05   2.880108e-26   0.000000e+00   0.000000e+00
     1840000   1.839999e-05   4.270434e+01   1.858320e+00   3.796623e+01  -1.270099e+05   3.731167e+04   6.490083e+04  -3.973810e+09  -1.864825e+10   2.944306e+09   1.474306e+05   2.882734e-26   0.000000e+00   0.000000e+00
     1848000   1.847999e-05   4.269416e+01   1.861245e+00   3.797143e+01  -1.273148e+05   3.582769e+04   6.513916e+04  -3.661785e+09  -1.848751e+10   3.011539e+09   1.474306e+05   2.821152e-26   0.000000e+00   0.000000e+00
     1856000   1.855999e-05   4.268397e+01   1.864052e+00   3.797665e+01  -1.275982e+05   3.434603e+04   6.538216e+04  -3.424372e+09  -1.855356e+10   3.063540e+09   1.474306e+05   2.829517e-26   0.000000e+00   0.000000e+00
     1864000   1.863999e-05   4.267375e+01   1.866741e+00   3.798189e+01  -1.278626e+05   3.285921e+04   6.562931e+04  -3.185394e+09  -1.861651e+10   3.114988e+09   1.474306e+05   2.837868e-26   0.000000e+00   0.000000e+00
     1872000   1.871999e-05   4.266351e+01   1.869310e+00   3.798715e+01  -1.281078e+05   3.136747e+04   6.588055e+04  -2.944897e+09  -1.867633e+10   3.165859e+09   1.474306e+05   2.846202e-26   0.000000e+00   0.000000e+00
     1880000   1.879999e-05   4.265325e+01   1.871759e+00   3.799244e+01  -1.283338e+05   2.987108e+04   6.613583e+04  -2.702923e+09  -1.873298e+10   3.216134e+09   1.474306e+05   2.854516e-26   0.000000e+00   0.000000e+00
     1888000   1.887999e-05   4.264298e+01   1.874089e+00   3.799774e+01  -1.285403e+05   2.837028e+04   6.639511e+04  -2.459519e+09  -1.878642e+10   3.265790e+09   1.474306e+05   2.862806e-26   0.000000e+00   0.000000e+00
     1896000   1.895999e-05   4.263269e+01   1.876298e+00   3.800306e+01  -1.287286e+05   2.685999e+04   6.665782e+04  -2.243645e+09  -1.895125e+10   3.303632e+09   1.474306e+05   2.905044e-26   0.000000e+00   0.000000e+00
     1904000   1.903999e-05   4.262238e+01   1.878386e+00   3.800840e+01  -1.288981e+05   2.534223e+04   6.692407e+04  -1.993409e+09  -1.899232e+10   3.352526e+09   1.474306e+05   2.911420e-26   0.000000e+00   0.000000e+00
     1912000   1.911999e-05   4.261206e+01   1.880353e+00   3.801377e+01  -1.290475e+05   2.382131e+04   6.719421e+04  -1.742091e+09  -1.902991e+10   3.400722e+09   1.474306e+05   2.917741e-26   0.000000e+00   0.000000e+00
     1920000   1.919999e-05   4.260173e+01   1.882198e+00   3.801915e+01  -1.291768e+05   2.229753e+04   6.746817e+04  -1.489746e+09  -1.906402e+10   3.448198e+09   1.474306e+05   2.924004e-26   0.000000e+00   0.000000e+00
     1928000   1.927999e-05   4.259140e+01   1.883921e+00   3.802456e+01  -1.292836e+05   2.078283e+04   6.774665e+04  -1.204214e+09  -1.891994e+10   3.506130e+09   1.474306e+05   2.878784e-26   0.000000e+00   0.000000e+00
     1936000   1.935999e-05   4.258105e+01   1.885523e+00   3.802999e+01  -1.293700e+05   1.926807e+04   6.802898e+04  -9.544057e+08  -1.894868e+10   3.551968e+09   1.474306e+05   2.885542e-26   0.000000e+00   0.000000e+00
     1944000   1.943999e-05   4.257070e+01   1.887004e+00   3.803545e+01  -1.294363e+05   1.775113e+04   6.831494e+04  -7.037007e+08  -1.897417e+10   3.597051e+09   1.474306e+05   2.892306e-26   0.000000e+00   0.000000e+00
     1952000   1.951999e-05   4.256034e+01   1.888363e+00   3.804092e+01  -1.294825e+05   1.623229e+04   6.860449e+04  -4.521457e+08  -1.899639e+10   3.641360e+09   1.474306e+05   2.899072e-26   0.000000e+00   0.000000e+00
     1960000   1.959999e-05   4.254998e+01   1.889601e+00   3.804642e+01  -1.295086e+05   1.471180e+04   6.889754e+04  -1.997880e+08  -1.901531e+10   3.684876e+09   1.474306e+05   2.905837e-26   0.000000e+00   0.000000e+00
     1968000   1.967999e-05   4.253962e+01   1.890717e+00   3.805195e+01  -1.295145e+05   1.318992e+04   6.919404e+04   5.332415e+07  -1.903092e+10   3.727580e+09   1.474306e+05   2.912600e-26   0.000000e+00   0.000000e+00
     1976000   1.975999e-05   4.252926e+01   1.891711e+00   3.805749e+01  -1.295001e+05   1.166694e+04   6.949393e+04   3.071418e+08  -1.904318e+10   3.769455e+09   1.474306e+05   2.919355e-26   0.000000e+00   0.000000e+00
     1984000   1.983999e-05   4.251890e+01   1.892584e+00   3.806307e+01  -1.294653e+05   1.014310e+04   6.979714e+04   5.616151e+08  -1.905208e+10   3.810481e+09   1.474306e+05   2.926102e-26   0.000000e+00   0.000000e+00
     1992000   1.991999e-05   4.250854e+01   1.893334e+00   3.806866e+01  -1.294102e+05   8.618695e+03   7.010359e+04   8.166937e+08  -1.905760e+10   3.850643e+09   1.474306e+05   2.932836e-26   0.000000e+00   0.000000e+00
     2000000   1.999999e-05   4.249819e+01   1.893963e+00   3.807428e+01  -1.293348e+05   7.095426e+03   7.041280e+04   1.061741e+09  -1.895472e+10   3.860315e+09   1.474306e+05   2.906693e-26   0.000000e+00   0.000000e+00
     2008000   2.007999e-05   4.248785e+01   1.894470e+00   3.807993e+01  -1.292397e+05   5.579676e+03   7.072317e+04   1.315753e+09  -1.893848e+10   3.898607e+09   1.474306e+05   2.908906e-26   0.000000e+00   0.000000e+00
     2016000   2.015999e-05   4.247752e+01   1.894855e+00   3.808560e+01  -1.291242e+05   4.065357e+03   7.103656e+04   1.569675e+09  -1.891896e+10   3.935990e+09   1.474306e+05   2.911125e-26   0.000000e+00   0.000000e+00
     2024000   2.023999e-05   4.246719e+01   1.895120e+00   3.809129e+01  -1.289885e+05   2.552730e+03   7.135290e+04   1.823459e+09  -1.889616e+10   3.972449e+09   1.474306e+05   2.913349e-26   0.000000e+00   0.000000e+00
     2032000   2.031999e-05   4.245688e+01   1.895264e+00   3.809702e+01  -1.288325e+05   1.042059e+03   7.167212e+04   2.077056e+09  -1.887006e+10   4.007972e+09   1.474306e+05   2.915573e-26   0.000000e+00   0.000000e+00
     2040000   2.039999e-05   4.244658e+01   1.895287e+00   3.810276e+01  -1.286555e+05  -4.663332e+02   7.199531e+04   2.347245e+09  -1.883828e+10   4.072555e+09   1.474306e+05   2.919592e-26   0.000000e+00   0.000000e+00
     2048000   2.047999e-05   4.243629e+01   1.895189e+00   3.810853e+01  -1.284577e+05  -1.971968e+03   7.232242e+04   2.599656e+09  -1.880207e+10   4.104847e+09   1.474306e+05   2.920750e-26   0.000000e+00   0.000000e+00
     2056000   2.055999e-05   4.242603e+01   1.894972e+00   3.811433e+01  -1.282396e+05  -3.474578e+03   7.265206e+04   2.851582e+09  -1.876264e+10   4.136114e+09   1.474306e+05   2.921912e-26   0.000000e+00   0.000000e+00
     2064000   2.063999e-05   4.241578e+01   1.894634e+00   3.812016e+01  -1.280014e+05  -4.973906e+03   7.298417e+04   3.102974e+09  -1.872002e+10   4.166345e+09   1.474306e+05   2.923077e-26   0.000000e+00   0.000000e+00
     2072000   2.071999e-05   4.240555e+01   1.894176e+00   3.812601e+01  -1.277431e+05  -6.469696e+03   7.331865e+04   3.353788e+09  -1.867421e+10   4.195531e+09   1.474306e+05   2.924241e-26   0.000000e+00   0.000000e+00
     2080000   2.079999e-05   4.239534e+01   1.893599e+00   3.813189e+01  -1.274655e+05  -7.961926e+03   7.365415e+04   3.584423e+09  -1.863148e+10   4.189197e+09   1.474306e+05   2.923877e-26   0.000000e+00   0.000000e+00
     2088000   2.087999e-05   4.238515e+01   1.892902e+00   3.813780e+01  -1.271688e+05  -9.450361e+03   7.399044e+04   3.834592e+09  -1.857887e+10   4.217668e+09   1.474306e+05   2.924944e-26   0.000000e+00   0.000000e+00
     2096000   2.095999e-05   4.237499e+01   1.892087e+00   3.814373e+01  -1.268520e+05  -1.093446e+04   7.432895e+04   4.084057e+09  -1.852302e+10   4.245123e+09   1.474306e+05   2.925995e-26   0.000000e+00   0.000000e+00
     2104000   2.103999e-05   4.236486e+01   1.891153e+00   3.814969e+01  -1.265153e+05  -1.241396e+04   7.466963e+04   4.332771e+09  -1.846395e+10   4.271551e+09   1.474306e+05   2.927028e-26   0.000000e+00   0.000000e+00
     2112000   2.111999e-05   4.235475e+01   1.890100e+00   3.815568e+01  -1.261588e+05  -1.388860e+04   7.501238e+04   4.580683e+09  -1.840165e+10   4.296944e+09   1.474306e+05   2.928042e-26   0.000000e+00   0.000000e+00
     2120000   2.119999e-05   4.234467e+01   1.888931e+00   3.816169e+01  -1.257825e+05  -1.535814e+04   7.535711e+04   4.827744e+09  -1.833615e+10   4.321293e+09   1.474306e+05   2.929034e-26   0.000000e+00   0.000000e+00
     2128000   2.127999e-05   4.233463e+01   1.887643e+00   3.816773e+01  -1.253864e+05  -1.682230e+04   7.570375e+04   5.073907e+09  -1.826746e+10   4.344591e+09   1.474306e+05   2.930001e-26   0.000000e+00   0.000000e+00
     2136000   2.135999e-05   4.232461e+01   1.886239e+00   3.817380e+01  -1.249707e+05  -1.828084e+04   7.605222e+04   5.319121e+09  -1.819559e+10   4.366830e+09   1.474306e+05   2.930941e-26   0.000000e+00   0.000000e+00
     2144000   2.143999e-05   4.231463e+01   1.884719e+00   3.817990e+01  -1.245354e+05  -1.973351e+04   7.640242e+04   5.563337e+09  -1.812054e+10   4.388003e+09   1.474306e+05   2.931853e-26   0.000000e+00   0.000000e+00
     2152000   2.151999e-05   4.230469e+01   1.883082e+00   3.818603e+01  -1.240805e+05  -2.118005e+04   7.675427e+04   5.806506e+09  -1.804234e+10   4.408103e+09   1.474306e+05   2.932732e-26   0.000000e+00   0.000000e+00
     2160000   2.159999e-05   4.229478e+01   1.881330e+00   3.819218e+01  -1.236025e+05  -2.263369e+04   7.710985e+04   6.140593e+09  -1.827860e+10   4.477824e+09   1.474306e+05   3.034904e-26   0.000000e+00   0.000000e+00
     2168000   2.167999e-05   4.228491e+01   1.879461e+00   3.819837e+01  -1.231014e+05  -2.409229e+04   7.746871e+04   6.386867e+09  -1.818589e+10   4.493380e+09   1.474306e+05   3.033696e-26   0.000000e+00   0.000000e+00
     2176000   2.175999e-05   4.227508e+01   1.877476e+00   3.820458e+01  -1.225852e+05  -2.552673e+04   7.782706e+04   6.552609e+09  -1.780999e+10   4.479494e+09   1.474306e+05   2.944546e-26   0.000000e+00   0.000000e+00
     2184000   2.183999e-05   4.226530e+01   1.875376e+00   3.821082e+01  -1.220515e+05  -2.694782e+04   7.818602e+04   6.790765e+09  -1.771666e+10   4.494424e+09   1.474306e+05   2.944517e-26   0.000000e+00   0.000000e+00
     2192000   2.191999e-05   4.225555e+01   1.873164e+00   3.821709e+01  -1.214987e+05  -2.836132e+04   7.854614e+04   7.027512e+09  -1.762020e+10   4.508245e+09   1.474306e+05   2.944420e-26   0.000000e+00   0.000000e+00
     2200000   2.199999e-05   4.224586e+01   1.870839e+00   3.822338e+01  -1.209271e+05  -2.976697e+04   7.890731e+04   7.262798e+09  -1.752064e+10   4.520955e+09   1.474307e+05   2.944251e-26   0.000000e+00   0.000000e+00
     2208000   2.207999e-05   4.223621e+01   1.868402e+00   3.822971e+01  -1.203367e+05  -3.116453e+04   7.926946e+04   7.496571e+09  -1.741798e+10   4.532553e+09   1.474307e+05   2.944009e-26   0.000000e+00   0.000000e+00
     2216000   2.215999e-05   4.222660e+01   1.865853e+00   3.823607e+01  -1.197277e+05  -3.255376e+04   7.963249e+04   7.728781e+09  -1.731227e+10   4.543036e+09   1.474307e+05   2.943692e-26   0.000000e+00   0.000000e+00
     2224000   2.223999e-05   4.221705e+01   1.863193e+00   3.824245e+01  -1.191001e+05  -3.393441e+04   7.999632e+04   7.959377e+09  -1.720351e+10   4.552405e+09   1.474307e+05   2.943297e-26   0.000000e+00   0.000000e+00
     2232000   2.231999e-05   4.220755e+01   1.860424e+00   3.824887e+01  -1.184542e+05  -3.530624e+04   8.036085e+04   8.188309e+09  -1.709174e+10   4.560658e+09   1.474307e+05   2.942823e-26   0.000000e+00   0.000000e+00
     2240000   2.239999e-05   4.219810e+01   1.857544e+00   3.825531e+01  -1.177891e+05  -3.667145e+04   8.072632e+04   8.476911e+09  -1.712781e+10   4.588214e+09   1.474307e+05   2.991583e-26   0.000000e+00   0.000000e+00
     2248000   2.247999e-05   4.218870e+01   1.854556e+00   3.826178e+01  -1.171018e+05  -3.803675e+04   8.109362e+04   8.704625e+09  -1.700399e+10   4.594129e+09   1.474307e+05   2.989575e-26   0.000000e+00   0.000000e+00
     2256000   2.255999e-05   4.217936e+01   1.851459e+00   3.826829e+01  -1.163964e+05  -3.939201e+04   8.146135e+04   8.930302e+09  -1.687721e+10   4.598884e+09   1.474307e+05   2.987469e-26   0.000000e+00   0.000000e+00
     2264000   2.263999e-05   4.217008e+01   1.848254e+00   3.827482e+01  -1.156730e+05  -4.073702e+04   8.182942e+04   9.153892e+09  -1.674751e+10   4.602482e+09   1.474307e+05   2.985264e-26   0.000000e+00   0.000000e+00
     2272000   2.271999e-05   4.216086e+01   1.844941e+00   3.828138e+01  -1.149318e+05  -4.207154e+04   8.219772e+04   9.375346e+09  -1.661491e+10   4.604927e+09   1.474307e+05   2.982958e-26   0.000000e+00   0.000000e+00
     2280000   2.279999e-05   4.215169e+01   1.841522e+00   3.828797e+01  -1.141730e+05  -4.339533e+04   8.256617e+04   9.594618e+09  -1.647947e+10   4.606223e+09   1.474307e+05   2.980550e-26   0.000000e+00   0.000000e+00
     2288000   2.287999e-05   4.214259e+01   1.837998e+00   3.829459e+01  -1.133967e+05  -4.470817e+04   8.293468e+04   9.811661e+09  -1.634122e+10   4.606373e+09   1.474307e+05   2.978040e-26   0.000000e+00   0.000000e+00
     2296000   2.295999e-05   4.213355e+01   1.834369e+00   3.830124e+01  -1.126036e+05  -4.600928e+04   8.330293e+04   9.999855e+09  -1.616321e+10   4.590063e+09   1.474307e+05   2.960942e-26   0.000000e+00   0.000000e+00
     2304000   2.303999e-05   4.212457e+01   1.830637e+00   3.830792e+01  -1.117949e+05  -4.729704e+04   8.367013e+04   1.021687e+10  -1.603016e+10   4.589670e+09   1.474307e+05   2.961721e-26   0.000000e+00   0.000000e+00
     2312000   2.311999e-05   4.211566e+01   1.826802e+00   3.831463e+01  -1.109689e+05  -4.857403e+04   8.403725e+04   1.043188e+10  -1.589408e+10   4.588188e+09   1.474307e+05   2.962354e-26   0.000000e+00   0.000000e+00
     2320000   2.319999e-05   4.210682e+01   1.822866e+00   3.832136e+01  -1.101259e+05  -4.984001e+04   8.440421e+04   1.064483e+10  -1.575499e+10   4.585619e+09   1.474307e+05   2.962840e-26   0.000000e+00   0.000000e+00
     2328000   2.327999e-05   4.209804e+01   1.818828e+00   3.832813e+01  -1.092659e+05  -5.109435e+04   8.477103e+04   1.085012e+10  -1.559125e+10   4.587975e+09   1.474307e+05   2.957431e-26   0.000000e+00   0.000000e+00
     2336000   2.335999e-05   4.208934e+01   1.814691e+00   3.833493e+01  -1.083896e+05  -5.233600e+04   8.513782e+04   1.105847e+10  -1.544941e+10   4.581580e+09   1.474307e+05   2.958229e-26   0.000000e+00   0.000000e+00
     2344000   2.343999e-05   4.208070e+01   1.810455e+00   3.834175e+01  -1.074966e+05  -5.356618e+04   8.550406e+04   1.126468e+10  -1.530467e+10   4.574121e+09   1.474307e+05   2.958877e-26   0.000000e+00   0.000000e+00
     2352000   2.351999e-05   4.207214e+01   1.806121e+00   3.834861e+01  -1.065873e+05  -5.478467e+04   8.586965e+04   1.146871e+10  -1.515707e+10   4.565606e+09   1.474307e+05   2.959374e-26   0.000000e+00   0.000000e+00
     2360000   2.359999e-05   4.206365e+01   1.801689e+00   3.835549e+01  -1.056617e+05  -5.599123e+04   8.623452e+04   1.167050e+10  -1.500664e+10   4.556041e+09   1.474307e+05   2.959718e-26   0.000000e+00   0.000000e+00
     2368000   2.367999e-05   4.205523e+01   1.797162e+00   3.836241e+01  -1.047184e+05  -5.718940e+04   8.659814e+04   1.190213e+10  -1.492384e+10   4.536928e+09   1.474307e+05   2.981469e-26   0.000000e+00   0.000000e+00
     2376000   2.375999e-05   4.204689e+01   1.792539e+00   3.836935e+01  -1.037585e+05  -5.837650e+04   8.696071e+04   1.209476e+10  -1.475335e+10   4.527202e+09   1.474307e+05   2.977400e-26   0.000000e+00   0.000000e+00
     2384000   2.383999e-05   4.203863e+01   1.787822e+00   3.837632e+01  -1.027833e+05  -5.954987e+04   8.732246e+04   1.228454e+10  -1.458045e+10   4.516429e+09   1.474307e+05   2.973199e-26   0.000000e+00   0.000000e+00
     2392000   2.391999e-05   4.203045e+01   1.783012e+00   3.838332e+01  -1.017930e+05  -6.070931e+04   8.768331e+04   1.247144e+10  -1.440520e+10   4.504619e+09   1.474307e+05   2.968866e-26   0.000000e+00   0.000000e+00
     2400000   2.399999e-05   4.202234e+01   1.778109e+00   3.839035e+01  -1.007879e+05  -6.185464e+04   8.804317e+04   1.265541e+10  -1.422764e+10   4.491783e+09   1.474307e+05   2.964400e-26   0.000000e+00   0.000000e+00
     2408000   2.407999e-05   4.201432e+01   1.773115e+00   3.839741e+01  -9.976824e+04  -6.298567e+04   8.840197e+04   1.283642e+10  -1.404785e+10   4.477932e+09   1.474307e+05   2.959801e-26   0.000000e+00   0.000000e+00
     2416000   2.415999e-05   4.200638e+01   1.768032e+00   3.840449e+01  -9.873410e+04  -6.410241e+04   8.875958e+04   1.301605e+10  -1.386944e+10   4.462241e+09   1.474307e+05   2.956106e-26   0.000000e+00   0.000000e+00
     2424000   2.423999e-05   4.199852e+01   1.762859e+00   3.841161e+01  -9.768526e+04  -6.520541e+04   8.911594e+04   1.322785e+10  -1.373843e+10   4.447577e+09   1.474307e+05   2.970131e-26   0.000000e+00   0.000000e+00
     2432000   2.431999e-05   4.199075e+01   1.757599e+00   3.841875e+01  -9.661992e+04  -6.629737e+04   8.947097e+04   1.340498e+10  -1.356021e+10   4.428088e+09   1.474307e+05   2.967647e-26   0.000000e+00   0.000000e+00
     2440000   2.439999e-05   4.198307e+01   1.752252e+00   3.842592e+01  -9.554054e+04  -6.737498e+04   8.982441e+04   1.357920e+10  -1.337966e+10   4.407641e+09   1.474307e+05   2.964989e-26   0.000000e+00   0.000000e+00
     2448000   2.447999e-05   4.197547e+01   1.746820e+00   3.843312e+01  -9.444733e+04  -6.843805e+04   9.017617e+04   1.375049e+10  -1.319684e+10   4.386250e+09   1.474307e+05   2.962155e-26   0.000000e+00   0.000000e+00
     2456000   2.455999e-05   4.196795e+01   1.741303e+00   3.844035e+01  -9.334054e+04  -6.948641e+04   9.052618e+04   1.391880e+10  -1.301178e+10   4.363929e+09   1.474307e+05   2.959147e-26   0.000000e+00   0.000000e+00
     2464000   2.463999e-05   4.196053e+01   1.735702e+00   3.844761e+01  -9.222040e+04  -7.051988e+04   9.087437e+04   1.408408e+10  -1.282455e+10   4.340693e+09   1.474307e+05   2.955963e-26   0.000000e+00   0.000000e+00
     2472000   2.471999e-05   4.195320e+01   1.730020e+00   3.845489e+01  -9.108716e+04  -7.153828e+04   9.122067e+04   1.424631e+10  -1.263520e+10   4.316558e+09   1.474307e+05   2.952605e-26   0.000000e+00   0.000000e+00
     2480000   2.479999e-05   4.194596e+01   1.724256e+00   3.846220e+01  -8.994107e+04  -7.254145e+04   9.156500e+04   1.440545e+10  -1.244380e+10   4.291537e+09   1.474307e+05   2.949073e-26   0.000000e+00   0.000000e+00
     2488000   2.487999e-05   4.193881e+01   1.718414e+00   3.846954e+01  -8.878237e+04  -7.352923e+04   9.190729e+04   1.456147e+10  -1.225038e+10   4.265648e+09   1.474307e+05   2.945367e-26   0.000000e+00   0.000000e+00
     2496000   2.495999e-05   4.193175e+01   1.712492e+00   3.847691e+01  -8.761132e+04  -7.450146e+04   9.224748e+04   1.471432e+10  -1.205502e+10   4.238907e+09   1.474307e+05   2.941487e-26   0.000000e+00   0.000000e+00
     2504000   2.503999e-05   4.192479e+01   1.706494e+00   3.848430e+01  -8.642816e+04  -7.545798e+04   9.258549e+04   1.486398e+10  -1.185776e+10   4.211329e+09   1.474307e+05   2.937435e-26   0.000000e+00   0.000000e+00
     2512000   2.511999e-05   4.191793e+01   1.700419e+00   3.849172e+01  -8.523317e+04  -7.639865e+04   9.292127e+04   1.501042e+10  -1.165867e+10   4.182932e+09   1.474307e+05   2.933211e-26   0.000000e+00   0.000000e+00
     2520000   2.519999e-05   4.191115e+01   1.694270e+00   3.849917e+01  -8.402580e+04  -7.732335e+04   9.325542e+04   1.516535e+10  -1.145935e+10   4.162859e+09   1.474307e+05   2.932434e-26   0.000000e+00   0.000000e+00
     2528000   2.527999e-05   4.190448e+01   1.688048e+00   3.850664e+01  -8.280733e+04  -7.823234e+04   9.358662e+04   1.529986e+10  -1.126135e+10   4.123903e+09   1.474307e+05   2.926830e-26   0.000000e+00   0.000000e+00
     2536000   2.535999e-05   4.189791e+01   1.681754e+00   3.851414e+01  -8.157847e+04  -7.912481e+04   9.391499e+04   1.541358e+10  -1.104760e+10   4.081144e+09   1.474307e+05   2.914230e-26   0.000000e+00   0.000000e+00
     2544000   2.543999e-05   4.189143e+01   1.675389e+00   3.852167e+01  -8.033978e+04  -8.000064e+04   9.424026e+04   1.555318e+10  -1.084778e+10   4.050430e+09   1.474307e+05   2.911895e-26   0.000000e+00   0.000000e+00
     2552000   2.551999e-05   4.188505e+01   1.668954e+00   3.852922e+01  -7.909004e+04  -8.086041e+04   9.456304e+04   1.568969e+10  -1.064620e+10   4.018967e+09   1.474307e+05   2.909401e-26   0.000000e+00   0.000000e+00
     2560000   2.559999e-05   4.187878e+01   1.662451e+00   3.853680e+01  -7.782951e+04  -8.170399e+04   9.488328e+04   1.582305e+10  -1.044290e+10   3.986773e+09   1.474307e+05   2.906749e-26   0.000000e+00   0.000000e+00
     2568000   2.567999e-05   4.187260e+01   1.655882e+00   3.854440e+01  -7.655844e+04  -8.253123e+04   9.520091e+04   1.595326e+10  -1.023793e+10   3.953865e+09   1.474307e+05   2.903938e-26   0.000000e+00   0.000000e+00
     2576000   2.575999e-05   4.186653e+01   1.649247e+00   3.855203e+01  -7.527707e+04  -8.334201e+04   9.551588e+04   1.608027e+10  -1.003134e+10   3.920260e+09   1.474307e+05   2.900970e-26   0.000000e+00   0.000000e+00
     2584000   2.583999e-05   4.186056e+01   1.642547e+00   3.855968e+01  -7.398568e+04  -8.413620e+04   9.582813e+04   1.620406e+10  -9.823194e+09   3.885976e+09   1.474307e+05   2.897842e-26   0.000000e+00   0.000000e+00
     2592000   2.591999e-05   4.185469e+01   1.635785e+00   3.856736e+01  -7.268451e+04  -8.491368e+04   9.613761e+04   1.632460e+10  -9.613536e+09   3.851030e+09   1.474307e+05   2.894556e-26   0.000000e+00   0.000000e+00
     2600000   2.599999e-05   4.184893e+01   1.628962e+00   3.857507e+01  -7.137383e+04  -8.567432e+04   9.644428e+04   1.644188e+10  -9.402422e+09   3.815440e+09   1.474307e+05   2.891112e-26   0.000000e+00   0.000000e+00
     2608000   2.607999e-05   4.184327e+01   1.622078e+00   3.858279e+01  -7.005390e+04  -8.641803e+04   9.674807e+04   1.655586e+10  -9.189905e+09   3.779224e+09   1.474307e+05   2.887510e-26   0.000000e+00   0.000000e+00
     2616000   2.615999e-05   4.183772e+01   1.615135e+00   3.859055e+01  -6.872498e+04  -8.714467e+04   9.704894e+04   1.666652e+10  -8.976039e+09   3.742402e+09   1.474307e+05   2.883750e-26   0.000000e+00   0.000000e+00
     2624000   2.623999e-05   4.183227e+01   1.608135e+00   3.859832e+01  -6.738734e+04  -8.785415e+04   9.734684e+04   1.677385e+10  -8.760879e+09   3.704990e+09   1.474307e+05   2.879832e-26   0.000000e+00   0.000000e+00
     2632000   2.631999e-05   4.182694e+01   1.601079e+00   3.860612e+01  -6.604153e+04  -8.854598e+04   9.764189e+04   1.687233e+10  -8.537578e+09   3.669637e+09   1.474307e+05   2.873560e-26   0.000000e+00   0.000000e+00
     2640000   2.639999e-05   4.182171e+01   1.593968e+00   3.861394e+01  -6.468718e+04  -8.922123e+04   9.793342e+04   1.698117e+10  -8.334043e+09   3.623833e+09   1.474307e+05   2.872914e-26   0.000000e+00   0.000000e+00
     2648000   2.647999e-05   4.181659e+01   1.586804e+00   3.862179e+01  -6.332472e+04  -8.987923e+04   9.822178e+04   1.707957e+10  -8.115775e+09   3.584981e+09   1.474307e+05   2.868894e-26   0.000000e+00   0.000000e+00
     2656000   2.655999e-05   4.181158e+01   1.579588e+00   3.862966e+01  -6.195453e+04  -9.051972e+04   9.850700e+04   1.717458e+10  -7.896397e+09   3.545606e+09   1.474307e+05   2.864719e-26   0.000000e+00   0.000000e+00
     2664000   2.663999e-05   4.180667e+01   1.572322e+00   3.863755e+01  -6.057688e+04  -9.114262e+04   9.878906e+04   1.726618e+10  -7.675966e+09   3.505726e+09   1.474307e+05   2.860390e-26   0.000000e+00   0.000000e+00
     2672000   2.671999e-05   4.180188e+01   1.565006e+00   3.864547e+01  -5.919204e+04  -9.174785e+04   9.906791e+04   1.735436e+10  -7.454535e+09   3.465362e+09   1.474307e+05   2.855907e-26   0.000000e+00   0.000000e+00
     2680000   2.679999e-05   4.179720e+01   1.557642e+00   3.865340e+01  -5.780131e+04  -9.233434e+04   9.934381e+04   1.741642e+10  -7.211270e+09   3.430991e+09   1.474307e+05   2.843152e-26   0.000000e+00   0.000000e+00
     2688000   2.687999e-05   4.179263e+01   1.550233e+00   3.866136e+01  -5.640487e+04  -9.290225e+04   9.961665e+04   1.749383e+10  -6.986239e+09   3.390033e+09   1.474307e+05   2.837175e-26   0.000000e+00   0.000000e+00
     2696000   2.695999e-05   4.178818e+01   1.542778e+00   3.866934e+01  -5.500239e+04  -9.345212e+04   9.988621e+04   1.756766e+10  -6.760458e+09   3.348691e+09   1.474307e+05   2.831028e-26   0.000000e+00   0.000000e+00
     2704000   2.703999e-05   4.178383e+01   1.535281e+00   3.867734e+01  -5.359414e+04  -9.398390e+04   1.001524e+05   1.763791e+10  -6.533987e+09   3.306985e+09   1.474307e+05   2.824713e-26   0.000000e+00   0.000000e+00
     2712000   2.711999e-05   4.177960e+01   1.527742e+00   3.868536e+01  -5.218042e+04  -9.449754e+04   1.004153e+05   1.770455e+10  -6.306888e+09   3.264934e+09   1.474307e+05   2.818230e-26   0.000000e+00   0.000000e+00
     2720000   2.719999e-05   4.177549e+01   1.520162e+00   3.869341e+01  -5.076151e+04  -9.499298e+04   1.006748e+05   1.776760e+10  -6.079222e+09   3.222558e+09   1.474307e+05   2.811582e-26   0.000000e+00   0.000000e+00
     2728000   2.727999e-05   4.177148e+01   1.512543e+00   3.870147e+01  -4.933713e+04  -9.547066e+04   1.009308e+05   1.786692e+10  -5.883080e+09   3.168950e+09   1.474307e+05   2.818167e-26   0.000000e+00   0.000000e+00
     2736000   2.735999e-05   4.176759e+01   1.504887e+00   3.870956e+01  -4.790525e+04  -9.593226e+04   1.011825e+05   1.792935e+10  -5.656727e+09   3.125552e+09   1.474307e+05   2.813130e-26   0.000000e+00   0.000000e+00
     2744000   2.743999e-05   4.176382e+01   1.497194e+00   3.871766e+01  -4.646815e+04  -9.637559e+04   1.014311e+05   1.799904e+10  -5.424540e+09   3.091678e+09   1.474307e+05   2.810964e-26   0.000000e+00   0.000000e+00
     2752000   2.751999e-05   4.176016e+01   1.489467e+00   3.872579e+01  -4.502644e+04  -9.680027e+04   1.016767e+05   1.804320e+10  -5.192294e+09   3.047004e+09   1.474307e+05   2.802071e-26   0.000000e+00   0.000000e+00
     2760000   2.759999e-05   4.175661e+01   1.481707e+00   3.873393e+01  -4.358133e+04  -9.720636e+04   1.019186e+05   1.808374e+10  -4.960029e+09   3.002109e+09   1.474307e+05   2.793048e-26   0.000000e+00   0.000000e+00
     2768000   2.767999e-05   4.175318e+01   1.473915e+00   3.874209e+01  -4.213313e+04  -9.759387e+04   1.021570e+05   1.812067e+10  -4.727802e+09   2.957013e+09   1.474307e+05   2.783896e-26   0.000000e+00   0.000000e+00
     2776000   2.775999e-05   4.174987e+01   1.466092e+00   3.875027e+01  -4.068212e+04  -9.796281e+04   1.023918e+05   1.815399e+10  -4.495672e+09   2.911736e+09   1.474307e+05   2.774618e-26   0.000000e+00   0.000000e+00
     2784000   2.783999e-05   4.174668e+01   1.458241e+00   3.875848e+01  -3.922859e+04  -9.831318e+04   1.026229e+05   1.818373e+10  -4.263699e+09   2.866298e+09   1.474307e+05   2.765217e-26   0.000000e+00   0.000000e+00
     2792000   2.791999e-05   4.174360e+01   1.450363e+00   3.876669e+01  -3.777282e+04  -9.864500e+04   1.028504e+05   1.820989e+10  -4.031938e+09   2.820718e+09   1.474307e+05   2.755693e-26   0.000000e+00   0.000000e+00
     2800000   2.799999e-05   4.174063e+01   1.442459e+00   3.877493e+01  -3.631510e+04  -9.895829e+04   1.030742e+05   1.823249e+10  -3.800449e+09   2.775015e+09   1.474307e+05   2.746050e-26   0.000000e+00   0.000000e+00
     2808000   2.807999e-05   4.173778e+01   1.434530e+00   3.878319e+01  -3.485572e+04  -9.925308e+04   1.032944e+05   1.825155e+10  -3.569286e+09   2.729209e+09   1.474307e+05   2.736289e-26   0.000000e+00   0.000000e+00
     2816000   2.815999e-05   4.173505e+01   1.426579e+00   3.879146e+01  -3.339495e+04  -9.952939e+04   1.035109e+05   1.826709e+10  -3.338506e+09   2.683320e+09   1.474307e+05   2.726415e-26   0.000000e+00   0.000000e+00
     2824000   2.823999e-05   4.173244e+01   1.418606e+00   3.879975e+01  -3.193307e+04  -9.978725e+04   1.037237e+05   1.827913e+10  -3.108164e+09   2.637365e+09   1.474307e+05   2.716427e-26   0.000000e+00   0.000000e+00
     2832000   2.831999e-05   4.172995e+01   1.410613e+00   3.880805e+01  -3.047000e+04  -1.000273e+05   1.039324e+05   1.829024e+10  -2.885078e+09   2.585532e+09   1.474307e+05   2.707122e-26   0.000000e+00   0.000000e+00
     2840000   2.839999e-05   4.172757e+01   1.402602e+00   3.881638e+01  -2.900675e+04  -1.002489e+05   1.041374e+05   1.829043e+10  -2.653902e+09   2.539902e+09   1.474307e+05   2.695448e-26   0.000000e+00   0.000000e+00
     2848000   2.847999e-05   4.172530e+01   1.394574e+00   3.882472e+01  -2.754286e+04  -1.004517e+05   1.043392e+05   1.830554e+10  -2.420305e+09   2.502094e+09   1.474307e+05   2.689073e-26   0.000000e+00   0.000000e+00
     2856000   2.855999e-05   4.172316e+01   1.386530e+00   3.883307e+01  -2.607815e+04  -1.006363e+05   1.045375e+05   1.831169e+10  -2.194232e+09   2.455760e+09   1.474307e+05   2.680958e-26   0.000000e+00   0.000000e+00
     2864000   2.863999e-05   4.172113e+01   1.378472e+00   3.884144e+01  -2.461308e+04  -1.008028e+05   1.047321e+05   1.831455e+10  -1.968573e+09   2.409416e+09   1.474307e+05   2.672749e-26   0.000000e+00   0.000000e+00
     2872000   2.871999e-05   4.171922e+01   1.370402e+00   3.884983e+01  -2.314791e+04  -1.009513e+05   1.049230e+05   1.831414e+10  -1.743376e+09   2.363080e+09   1.474307e+05   2.664446e-26   0.000000e+00   0.000000e+00
     2880000   2.879999e-05   4.171743e+01   1.362321e+00   3.885823e+01  -2.168290e+04  -1.010817e+05   1.051102e+05   1.831047e+10  -1.518686e+09   2.316771e+09   1.474307e+05   2.656051e-26   0.000000e+00   0.000000e+00
     2888000   2.887999e-05   4.171575e+01   1.354230e+00   3.886665e+01  -2.021832e+04  -1.011943e+05   1.052937e+05   1.830357e+10  -1.294552e+09   2.270504e+09   1.474307e+05   2.647567e-26   0.000000e+00   0.000000e+00
     2896000   2.895999e-05   4.171419e+01   1.346130e+00   3.887508e+01  -1.875442e+04  -1.012889e+05   1.054735e+05   1.829345e+10  -1.071018e+09   2.224296e+09   1.474307e+05   2.638995e-26   0.000000e+00   0.000000e+00
     2904000   2.903999e-05   4.171275e+01   1.338024e+00   3.888352e+01  -1.729145e+04  -1.013656e+05   1.056496e+05   1.828014e+10  -8.481302e+08   2.178165e+09   1.474307e+05   2.630338e-26   0.000000e+00   0.000000e+00
     2912000   2.911999e-05   4.171143e+01   1.329912e+00   3.889198e+01  -1.582968e+04  -1.014246e+05   1.058220e+05   1.826364e+10  -6.259341e+08   2.132127e+09   1.474307e+05   2.621596e-26   0.000000e+00   0.000000e+00
     2920000   2.919999e-05   4.171022e+01   1.321796e+00   3.890045e+01  -1.436940e+04  -1.014658e+05   1.059907e+05   1.823380e+10  -4.064692e+08   2.082912e+09   1.474307e+05   2.609798e-26   0.000000e+00   0.000000e+00
     2928000   2.927999e-05   4.170913e+01   1.313678e+00   3.890894e+01  -1.291144e+04  -1.014895e+05   1.061556e+05   1.821462e+10  -1.849164e+08   2.038642e+09   1.474307e+05   2.601956e-26   0.000000e+00   0.000000e+00
     2936000   2.935999e-05   4.170815e+01   1.305558e+00   3.891744e+01  -1.145514e+04  -1.014954e+05   1.063169e+05   1.819228e+10   3.592595e+07   1.994461e+09   1.474307e+05   2.594024e-26   0.000000e+00   0.000000e+00
     2944000   2.943999e-05   4.170729e+01   1.297439e+00   3.892595e+01  -1.000060e+04  -1.014837e+05   1.064747e+05   1.817242e+10   2.565109e+08   1.951357e+09   1.474307e+05   2.587612e-26   0.000000e+00   0.000000e+00
     2952000   2.951999e-05   4.170655e+01   1.289322e+00   3.893447e+01  -8.548055e+03  -1.014544e+05   1.066291e+05   1.814082e+10   4.760412e+08   1.907253e+09   1.474307e+05   2.578653e-26   0.000000e+00   0.000000e+00
     2960000   2.959999e-05   4.170593e+01   1.281207e+00   3.894301e+01  -7.098154e+03  -1.014076e+05   1.067799e+05   1.810623e+10   6.946485e+08   1.863335e+09   1.474307e+05   2.569640e-26   0.000000e+00   0.000000e+00
     2968000   2.967999e-05   4.170542e+01   1.273097e+00   3.895156e+01  -5.651139e+03  -1.013433e+05   1.069272e+05   1.806866e+10   9.122941e+08   1.819619e+09   1.474307e+05   2.560578e-26   0.000000e+00   0.000000e+00
     2976000   2.975999e-05   4.170502e+01   1.264992e+00   3.896012e+01  -4.207247e+03  -1.012616e+05   1.070710e+05   1.802815e+10   1.128940e+09   1.776115e+09   1.474307e+05   2.551466e-26   0.000000e+00   0.000000e+00
     2984000   2.983999e-05   4.170474e+01   1.256895e+00   3.896869e+01  -2.766713e+03  -1.011627e+05   1.072114e+05   1.798472e+10   1.344549e+09   1.732839e+09   1.474307e+05   2.542308e-26   0.000000e+00   0.000000e+00
     2992000   2.991999e-05   4.170458e+01   1.248807e+00   3.897727e+01  -1.329769e+03  -1.010465e+05   1.073483e+05   1.793841e+10   1.559083e+09   1.689800e+09   1.474307e+05   2.533106e-26   0.000000e+00   0.000000e+00
     3000000   2.999999e-05   4.170453e+01   1.240728e+00   3.898587e+01   1.033555e+02  -1.009133e+05   1.074818e+05   1.788923e+10   1.772508e+09   1.647013e+09   1.474307e+05   2.523860e-26   0.000000e+00   0.000000e+00
     3008000   3.007999e-05   4.170460e+01   1.232661e+00   3.899447e+01   1.532431e+03  -1.007630e+05   1.076118e+05   1.783721e+10   1.984786e+09   1.604488e+09   1.474308e+05   2.514574e-26   0.000000e+00   0.000000e+00
     3016000   3.015999e-05   4.170478e+01   1.224607e+00   3.900308e+01   2.957160e+03  -1.005957e+05   1.077385e+05   1.777996e+10   2.195689e+09   1.562135e+09   1.474308e+05   2.504571e-26   0.000000e+00   0.000000e+00
     3024000   3.023999e-05   4.170507e+01   1.216566e+00   3.901171e+01   4.377301e+03  -1.004117e+05   1.078618e+05   1.772311e+10   2.405962e+09   1.520562e+09   1.474308e+05   2.495441e-26   0.000000e+00   0.000000e+00
     3032000   3.031999e-05   4.170548e+01   1.208541e+00   3.902034e+01   5.792782e+03  -1.002108e+05   1.079818e+05   1.766346e+10   2.614992e+09   1.479260e+09   1.474308e+05   2.486261e-26   0.000000e+00   0.000000e+00
     3040000   3.039999e-05   4.170600e+01   1.200533e+00   3.902898e+01   7.203379e+03  -9.999330e+04   1.080985e+05   1.760102e+10   2.822743e+09   1.438242e+09   1.474308e+05   2.477033e-26   0.000000e+00   0.000000e+00
     3048000   3.047999e-05   4.170663e+01   1.192543e+00   3.903764e+01   8.609049e+03  -9.975923e+04   1.082119e+05   1.753824e+10   3.029086e+09   1.397212e+09   1.474308e+05   2.468397e-26   0.000000e+00   0.000000e+00
     3056000   3.055999e-05   4.170737e+01   1.184572e+00   3.904630e+01   1.000941e+04  -9.950868e+04   1.083220e+05   1.747039e+10   3.234597e+09   1.357114e+09   1.474308e+05   2.459114e-26   0.000000e+00   0.000000e+00
     3064000   3.063999e-05   4.170823e+01   1.176622e+00   3.905497e+01   1.140424e+04  -9.924173e+04   1.084290e+05   1.739983e+10   3.438718e+09   1.317320e+09   1.474308e+05   2.449786e-26   0.000000e+00   0.000000e+00
     3072000   3.071999e-05   4.170920e+01   1.168694e+00   3.906365e+01   1.279331e+04  -9.895852e+04   1.085328e+05   1.732661e+10   3.641414e+09   1.277837e+09   1.474308e+05   2.440414e-26   0.000000e+00   0.000000e+00
     3080000   3.079999e-05   4.171028e+01   1.160789e+00   3.907233e+01   1.417643e+04  -9.865914e+04   1.086335e+05   1.725076e+10   3.842651e+09   1.238676e+09   1.474308e+05   2.431002e-26   0.000000e+00   0.000000e+00
     3088000   3.087999e-05   4.171147e+01   1.152909e+00   3.908103e+01   1.555336e+04  -9.834373e+04   1.087310e+05   1.717230e+10   4.042396e+09   1.199845e+09   1.474308e+05   2.421550e-26   0.000000e+00   0.000000e+00
     3096000   3.095999e-05   4.171277e+01   1.145054e+00   3.908973e+01   1.692392e+04  -9.801240e+04   1.088255e+05   1.709128e+10   4.240617e+09   1.161351e+09   1.474308e+05   2.412062e-26   0.000000e+00   0.000000e+00
     3104000   3.103999e-05   4.171417e+01   1.137227e+00   3.909844e+01   1.828790e+04  -9.766527e+04   1.089168e+05   1.700773e+10   4.437282e+09   1.123204e+09   1.474308e+05   2.402539e-26   0.000000e+00   0.000000e+00
     3112000   3.111999e-05   4.171569e+01   1.129428e+00   3.910716e+01   1.964464e+04  -9.730251e+04   1.090052e+05   1.691505e+10   4.631938e+09   1.086300e+09   1.474308e+05   2.391231e-26   0.000000e+00   0.000000e+00
     3120000   3.119999e-05   4.171732e+01   1.121659e+00   3.911588e+01   2.099435e+04  -9.692419e+04   1.090906e+05   1.682734e+10   4.825790e+09   1.049219e+09   1.474308e+05   2.381896e-26   0.000000e+00   0.000000e+00
     3128000   3.127999e-05   4.171905e+01   1.113921e+00   3.912461e+01   2.233694e+04  -9.653043e+04   1.091731e+05   1.673718e+10   5.017960e+09   1.012441e+09   1.474308e+05   2.372523e-26   0.000000e+00   0.000000e+00
     3136000   3.135999e-05   4.172089e+01   1.106215e+00   3.913335e+01   2.367223e+04  -9.612136e+04   1.092526e+05   1.664463e+10   5.208416e+09   9.759734e+08   1.474308e+05   2.363117e-26   0.000000e+00   0.000000e+00
     3144000   3.143999e-05   4.172284e+01   1.098542e+00   3.914209e+01   2.500032e+04  -9.569708e+04   1.093292e+05   1.656881e+10   5.400242e+09   9.381284e+08   1.474308e+05   2.358815e-26   0.000000e+00   0.000000e+00
     3152000   3.151999e-05   4.172489e+01   1.090904e+00   3.915084e+01   2.632174e+04  -9.525762e+04   1.094028e+05   1.646647e+10   5.585882e+09   9.019400e+08   1.474308e+05   2.347909e-26   0.000000e+00   0.000000e+00
     3160000   3.159999e-05   4.172705e+01   1.083301e+00   3.915960e+01   2.763489e+04  -9.480339e+04   1.094736e+05   1.636194e+10   5.769549e+09   8.661019e+08   1.474308e+05   2.336997e-26   0.000000e+00   0.000000e+00
     3168000   3.167999e-05   4.172931e+01   1.075735e+00   3.916836e+01   2.893960e+04  -9.433454e+04   1.095414e+05   1.625529e+10   5.951223e+09   8.306198e+08   1.474308e+05   2.326080e-26   0.000000e+00   0.000000e+00
     3176000   3.175999e-05   4.173168e+01   1.068208e+00   3.917712e+01   3.023568e+04  -9.385125e+04   1.096065e+05   1.614655e+10   6.130882e+09   7.954989e+08   1.474308e+05   2.315161e-26   0.000000e+00   0.000000e+00
     3184000   3.183999e-05   4.173415e+01   1.060720e+00   3.918589e+01   3.152299e+04  -9.335366e+04   1.096687e+05   1.603577e+10   6.308508e+09   7.607445e+08   1.474308e+05   2.304243e-26   0.000000e+00   0.000000e+00
     3192000   3.191999e-05   4.173672e+01   1.053272e+00   3.919467e+01   3.280135e+04  -9.284194e+04   1.097282e+05   1.592299e+10   6.484084e+09   7.263613e+08   1.474308e+05   2.293327e-26   0.000000e+00   0.000000e+00
     3200000   3.199999e-05   4.173940e+01   1.045865e+00   3.920345e+01   3.406989e+04  -9.231649e+04   1.097850e+05   1.578441e+10   6.649622e+09   6.931696e+08   1.474308e+05   2.275771e-26   0.000000e+00   0.000000e+00
     3208000   3.207999e-05   4.174217e+01   1.038501e+00   3.921223e+01   3.532784e+04  -9.177773e+04   1.098391e+05   1.566408e+10   6.819047e+09   6.597050e+08   1.474308e+05   2.263786e-26   0.000000e+00   0.000000e+00
     3216000   3.215999e-05   4.174505e+01   1.031181e+00   3.922102e+01   3.657609e+04  -9.122551e+04   1.098905e+05   1.554193e+10   6.986211e+09   6.266259e+08   1.474308e+05   2.251808e-26   0.000000e+00   0.000000e+00
     3224000   3.223999e-05   4.174802e+01   1.023906e+00   3.922982e+01   3.781450e+04  -9.066000e+04   1.099394e+05   1.541802e+10   7.151099e+09   5.939352e+08   1.474308e+05   2.239841e-26   0.000000e+00   0.000000e+00
     3232000   3.231999e-05   4.175110e+01   1.016676e+00   3.923861e+01   3.904293e+04  -9.008139e+04   1.099856e+05   1.529238e+10   7.313700e+09   5.616353e+08   1.474308e+05   2.227885e-26   0.000000e+00   0.000000e+00
     3240000   3.239999e-05   4.175427e+01   1.009493e+00   3.924741e+01   4.026124e+04  -8.948986e+04   1.100292e+05   1.516507e+10   7.473999e+09   5.297285e+08   1.474308e+05   2.215943e-26   0.000000e+00   0.000000e+00
     3248000   3.247999e-05   4.175754e+01   1.002358e+00   3.925622e+01   4.146929e+04  -8.888561e+04   1.100703e+05   1.503613e+10   7.631987e+09   4.982169e+08   1.474308e+05   2.204016e-26   0.000000e+00   0.000000e+00
     3256000   3.255999e-05   4.176091e+01   9.952717e-01   3.926503e+01   4.266819e+04  -8.826777e+04   1.101093e+05   1.493014e+10   7.808426e+09   4.740122e+08   1.474308e+05   2.200334e-26   0.000000e+00   0.000000e+00
     3264000   3.263999e-05   4.176437e+01   9.882354e-01   3.927384e+01   4.385754e+04  -8.763678e+04   1.101460e+05   1.480332e+10   7.965799e+09   4.436156e+08   1.474308e+05   2.190141e-26   0.000000e+00   0.000000e+00
     3272000   3.271999e-05   4.176792e+01   9.812501e-01   3.928265e+01   4.503667e+04  -8.699329e+04   1.101803e+05   1.467484e+10   8.121053e+09   4.136302e+08   1.474308e+05   2.179952e-26   0.000000e+00   0.000000e+00
     3280000   3.279999e-05   4.177157e+01   9.743168e-01   3.929146e+01   4.620547e+04  -8.633747e+04   1.102122e+05   1.454473e+10   8.274175e+09   3.840578e+08   1.474308e+05   2.169769e-26   0.000000e+00   0.000000e+00
     3288000   3.287999e-05   4.177532e+01   9.674365e-01   3.930028e+01   4.736371e+04  -8.566954e+04   1.102418e+05   1.438308e+10   8.402291e+09   3.500213e+08   1.474308e+05   2.149907e-26   0.000000e+00   0.000000e+00
     3296000   3.295999e-05   4.177915e+01   9.606100e-01   3.930910e+01   4.850906e+04  -8.499141e+04   1.102686e+05   1.425033e+10   8.550494e+09   3.214998e+08   1.474308e+05   2.139777e-26   0.000000e+00   0.000000e+00
     3304000   3.303999e-05   4.178308e+01   9.538382e-01   3.931793e+01   4.964372e+04  -8.430152e+04   1.102932e+05   1.411608e+10   8.696500e+09   2.933630e+08   1.474308e+05   2.129654e-26   0.000000e+00   0.000000e+00
     3312000   3.311999e-05   4.178709e+01   9.471220e-01   3.932675e+01   5.076759e+04  -8.360003e+04   1.103156e+05   1.398040e+10   8.840299e+09   2.656107e+08   1.474308e+05   2.119538e-26   0.000000e+00   0.000000e+00
     3320000   3.319999e-05   4.179120e+01   9.404625e-01   3.933558e+01   5.188055e+04  -8.288713e+04   1.103357e+05   1.384331e+10   8.981880e+09   2.382421e+08   1.474308e+05   2.109432e-26   0.000000e+00   0.000000e+00
     3328000   3.327999e-05   4.179539e+01   9.338604e-01   3.934440e+01   5.298248e+04  -8.216299e+04   1.103537e+05   1.370486e+10   9.121232e+09   2.112564e+08   1.474308e+05   2.099338e-26   0.000000e+00   0.000000e+00
     3336000   3.335999e-05   4.179968e+01   9.273167e-01   3.935323e+01   5.407329e+04  -8.142779e+04   1.103695e+05   1.356510e+10   9.258346e+09   1.846525e+08   1.474308e+05   2.089256e-26   0.000000e+00   0.000000e+00
     3344000   3.343999e-05   4.180405e+01   9.208322e-01   3.936206e+01   5.515258e+04  -8.068195e+04   1.103832e+05   1.342002e+10   9.389902e+09   1.580819e+08   1.474308e+05   2.077866e-26   0.000000e+00   0.000000e+00
     3352000   3.351999e-05   4.180850e+01   9.144079e-01   3.937089e+01   5.622048e+04  -7.992544e+04   1.103948e+05   1.327733e+10   9.522419e+09   1.325087e+08   1.474308e+05   2.067715e-26   0.000000e+00   0.000000e+00
     3360000   3.359999e-05   4.181304e+01   9.080444e-01   3.937973e+01   5.727692e+04  -7.915842e+04   1.104044e+05   1.313347e+10   9.652695e+09   1.073340e+08   1.474308e+05   2.057589e-26   0.000000e+00   0.000000e+00
     3368000   3.367999e-05   4.181766e+01   9.017428e-01   3.938856e+01   5.832180e+04  -7.838107e+04   1.104120e+05   1.298847e+10   9.780724e+09   8.255672e+07   1.474308e+05   2.047487e-26   0.000000e+00   0.000000e+00
     3376000   3.375999e-05   4.182237e+01   8.955037e-01   3.939739e+01   5.935584e+04  -7.759295e+04   1.104176e+05   1.285646e+10   9.917478e+09   5.817027e+07   1.474308e+05   2.041900e-26   0.000000e+00   0.000000e+00
     3384000   3.383999e-05   4.182716e+01   8.893282e-01   3.940623e+01   6.037804e+04  -7.679502e+04   1.104213e+05   1.270416e+10   1.003520e+10   3.263566e+07   1.474308e+05   2.029923e-26   0.000000e+00   0.000000e+00
     3392000   3.391999e-05   4.183203e+01   8.832168e-01   3.941506e+01   6.138874e+04  -7.598713e+04   1.104229e+05   1.256298e+10   1.016174e+10   8.502472e+06   1.474308e+05   2.022081e-26   0.000000e+00   0.000000e+00
     3400000   3.399999e-05   4.183698e+01   8.771705e-01   3.942389e+01   6.238809e+04  -7.516920e+04   1.104226e+05   1.242057e+10   1.028623e+10  -1.526248e+07   1.474308e+05   2.014244e-26   0.000000e+00   0.000000e+00
     3408000   3.407999e-05   4.184201e+01   8.711900e-01   3.943273e+01   6.337600e+04  -7.434139e+04   1.104205e+05   1.227699e+10   1.040867e+10  -3.866118e+07   1.474308e+05   2.006412e-26   0.000000e+00   0.000000e+00
     3416000   3.415999e-05   4.184712e+01   8.652761e-01   3.944156e+01   6.435237e+04  -7.350386e+04   1.104165e+05   1.213225e+10   1.052903e+10  -6.169579e+07   1.474308e+05   1.998587e-26   0.000000e+00   0.000000e+00
     3424000   3.423999e-05   4.185231e+01   8.594296e-01   3.945039e+01   6.531712e+04  -7.265680e+04   1.104106e+05   1.198640e+10   1.064731e+10  -8.436866e+07   1.474308e+05   1.990769e-26   0.000000e+00   0.000000e+00
     3432000   3.431999e-05   4.185757e+01   8.536513e-01   3.945923e+01   6.627017e+04  -7.180035e+04   1.104030e+05   1.183949e+10   1.076351e+10  -1.066823e+08   1.474308e+05   1.982960e-26   0.000000e+00   0.000000e+00
     3440000   3.439999e-05   4.186291e+01   8.479418e-01   3.946806e+01   6.721141e+04  -7.093469e+04   1.103935e+05   1.169153e+10   1.087762e+10  -1.286394e+08   1.474308e+05   1.975161e-26   0.000000e+00   0.000000e+00
     3448000   3.447999e-05   4.186833e+01   8.423020e-01   3.947689e+01   6.814078e+04  -7.005998e+04   1.103824e+05   1.154257e+10   1.098963e+10  -1.502429e+08   1.474308e+05   1.967372e-26   0.000000e+00   0.000000e+00
     3456000   3.455999e-05   4.187381e+01   8.367325e-01   3.948572e+01   6.905820e+04  -6.917640e+04   1.103695e+05   1.139265e+10   1.109953e+10  -1.714957e+08   1.474308e+05   1.959596e-26   0.000000e+00   0.000000e+00
     3464000   3.463999e-05   4.187938e+01   8.312340e-01   3.949455e+01   6.996358e+04  -6.828411e+04   1.103550e+05   1.124180e+10   1.120731e+10  -1.924010e+08   1.474308e+05   1.951833e-26   0.000000e+00   0.000000e+00
     3472000   3.471999e-05   4.188501e+01   8.258072e-01   3.950338e+01   7.085518e+04  -6.738527e+04   1.103386e+05   1.103420e+10   1.124663e+10  -2.172455e+08   1.474308e+05   1.922934e-26   0.000000e+00   0.000000e+00
     3480000   3.479999e-05   4.189071e+01   8.204525e-01   3.951220e+01   7.173164e+04  -6.648170e+04   1.103204e+05   1.087722e+10   1.134213e+10  -2.374398e+08   1.474308e+05   1.913073e-26   0.000000e+00   0.000000e+00
     3488000   3.487999e-05   4.189649e+01   8.151703e-01   3.952103e+01   7.259551e+04  -6.557059e+04   1.103006e+05   1.071963e+10   1.143529e+10  -2.572634e+08   1.474308e+05   1.903224e-26   0.000000e+00   0.000000e+00
     3496000   3.495999e-05   4.190233e+01   8.099614e-01   3.952985e+01   7.344768e+04  -6.465086e+04   1.102794e+05   1.059143e+10   1.156744e+10  -2.726574e+08   1.474308e+05   1.905671e-26   0.000000e+00   0.000000e+00
     3504000   3.503999e-05   4.190824e+01   8.048265e-01   3.953867e+01   7.428884e+04  -6.372156e+04   1.102568e+05   1.043749e+10   1.166478e+10  -2.910323e+08   1.474308e+05   1.898194e-26   0.000000e+00   0.000000e+00
     3512000   3.511999e-05   4.191421e+01   7.997662e-01   3.954749e+01   7.511754e+04  -6.278473e+04   1.102328e+05   1.024991e+10   1.171199e+10  -3.139828e+08   1.474308e+05   1.876795e-26   0.000000e+00   0.000000e+00
     3520000   3.519999e-05   4.192026e+01   7.947810e-01   3.955631e+01   7.593126e+04  -6.184422e+04   1.102070e+05   1.009315e+10   1.180039e+10  -3.320819e+08   1.474308e+05   1.868284e-26   0.000000e+00   0.000000e+00
     3528000   3.527999e-05   4.192636e+01   7.898713e-01   3.956512e+01   7.673243e+04  -6.089672e+04   1.101797e+05   9.935895e+09   1.188662e+10  -3.498514e+08   1.474308e+05   1.859804e-26   0.000000e+00   0.000000e+00
     3536000   3.535999e-05   4.193253e+01   7.850377e-01   3.957394e+01   7.752099e+04  -5.994241e+04   1.101510e+05   9.778174e+09   1.197071e+10  -3.672960e+08   1.474308e+05   1.851357e-26   0.000000e+00   0.000000e+00
     3544000   3.543999e-05   4.193876e+01   7.802807e-01   3.958275e+01   7.829692e+04  -5.898146e+04   1.101209e+05   9.620025e+09   1.205265e+10  -3.844207e+08   1.474308e+05   1.842943e-26   0.000000e+00   0.000000e+00
     3552000   3.551999e-05   4.194506e+01   7.756008e-01   3.959156e+01   7.906019e+04  -5.801405e+04   1.100895e+05   9.461481e+09   1.213246e+10  -4.012306e+08   1.474308e+05   1.834563e-26   0.000000e+00   0.000000e+00
     3560000   3.559999e-05   4.195141e+01   7.709986e-01   3.960036e+01   7.981087e+04  -5.704010e+04   1.100568e+05   9.340505e+09   1.227873e+10  -4.097126e+08   1.474308e+05   1.844654e-26   0.000000e+00   0.000000e+00
     3568000   3.567999e-05   4.195783e+01   7.664747e-01   3.960917e+01   8.055158e+04  -5.605487e+04   1.100233e+05   9.177050e+09   1.235158e+10  -4.258821e+08   1.474308e+05   1.835215e-26   0.000000e+00   0.000000e+00
     3576000   3.575999e-05   4.196430e+01   7.620300e-01   3.961797e+01   8.127920e+04  -5.506391e+04   1.099886e+05   9.013459e+09   1.242227e+10  -4.417335e+08   1.474308e+05   1.825837e-26   0.000000e+00   0.000000e+00
     3584000   3.583999e-05   4.197083e+01   7.576647e-01   3.962676e+01   8.199373e+04  -5.406737e+04   1.099527e+05   8.849767e+09   1.249080e+10  -4.572725e+08   1.474308e+05   1.816521e-26   0.000000e+00   0.000000e+00
     3592000   3.591999e-05   4.197742e+01   7.533793e-01   3.963556e+01   8.269516e+04  -5.306543e+04   1.099155e+05   8.686003e+09   1.255718e+10  -4.725051e+08   1.474308e+05   1.807268e-26   0.000000e+00   0.000000e+00
     3600000   3.599999e-05   4.198406e+01   7.491743e-01   3.964435e+01   8.338348e+04  -5.205828e+04   1.098771e+05   8.522201e+09   1.262144e+10  -4.874371e+08   1.474308e+05   1.798078e-26   0.000000e+00   0.000000e+00
     3608000   3.607999e-05   4.199076e+01   7.450501e-01   3.965314e+01   8.405871e+04  -5.104606e+04   1.098375e+05   8.358391e+09   1.268358e+10  -5.020744e+08   1.474308e+05   1.788952e-26   0.000000e+00   0.000000e+00
     3616000   3.615999e-05   4.199751e+01   7.410071e-01   3.966192e+01   8.472083e+04  -5.002896e+04   1.097968e+05   8.194603e+09   1.274361e+10  -5.164231e+08   1.474308e+05   1.779891e-26   0.000000e+00   0.000000e+00
     3624000   3.623999e-05   4.200432e+01   7.370456e-01   3.967071e+01   8.536946e+04  -4.900835e+04   1.097546e+05   8.024684e+09   1.278011e+10  -5.350886e+08   1.474308e+05   1.765913e-26   0.000000e+00   0.000000e+00
     3632000   3.631999e-05   4.201117e+01   7.331659e-01   3.967949e+01   8.600506e+04  -4.798337e+04   1.097113e+05   7.865425e+09   1.284398e+10  -5.484072e+08   1.474308e+05   1.759101e-26   0.000000e+00   0.000000e+00
     3640000   3.639999e-05   4.201808e+01   7.293684e-01   3.968826e+01   8.662792e+04  -4.695337e+04   1.096669e+05   7.705976e+09   1.290591e+10  -5.614692e+08   1.474308e+05   1.752334e-26   0.000000e+00   0.000000e+00
     3648000   3.647999e-05   4.202503e+01   7.256535e-01   3.969703e+01   8.723801e+04  -4.591848e+04   1.096215e+05   7.546365e+09   1.296589e+10  -5.742803e+08   1.474308e+05   1.745612e-26   0.000000e+00   0.000000e+00
     3656000   3.655999e-05   4.203203e+01   7.220215e-01   3.970580e+01   8.783482e+04  -4.487974e+04   1.095751e+05   7.375799e+09   1.300482e+10  -5.858707e+08   1.474308e+05   1.733834e-26   0.000000e+00   0.000000e+00
     3664000   3.663999e-05   4.203909e+01   7.184728e-01   3.971456e+01   8.841835e+04  -4.383744e+04   1.095277e+05   7.212338e+09   1.305236e+10  -5.981950e+08   1.474308e+05   1.725072e-26   0.000000e+00   0.000000e+00
     3672000   3.671999e-05   4.204618e+01   7.150076e-01   3.972332e+01   8.898880e+04  -4.279142e+04   1.094794e+05   7.049060e+09   1.309782e+10  -6.102615e+08   1.474308e+05   1.716358e-26   0.000000e+00   0.000000e+00
     3680000   3.679999e-05   4.205332e+01   7.116263e-01   3.973208e+01   8.954620e+04  -4.174184e+04   1.094301e+05   6.885995e+09   1.314122e+10  -6.220763e+08   1.474308e+05   1.707691e-26   0.000000e+00   0.000000e+00
     3688000   3.687999e-05   4.206051e+01   7.083290e-01   3.974083e+01   9.009057e+04  -4.068887e+04   1.093798e+05   6.723171e+09   1.318257e+10  -6.336457e+08   1.474308e+05   1.699073e-26   0.000000e+00   0.000000e+00
     3696000   3.695999e-05   4.206774e+01   7.051162e-01   3.974958e+01   9.062191e+04  -3.963268e+04   1.093287e+05   6.560617e+09   1.322189e+10  -6.449759e+08   1.474308e+05   1.690503e-26   0.000000e+00   0.000000e+00
     3704000   3.703999e-05   4.207501e+01   7.019879e-01   3.975833e+01   9.114027e+04  -3.857343e+04   1.092767e+05   6.398362e+09   1.325920e+10  -6.560731e+08   1.474308e+05   1.681981e-26   0.000000e+00   0.000000e+00
     3712000   3.711999e-05   4.208232e+01   6.989445e-01   3.976707e+01   9.164648e+04  -3.751039e+04   1.092233e+05   6.266118e+09   1.332615e+10  -6.811389e+08   1.474308e+05   1.683055e-26   0.000000e+00   0.000000e+00
     3720000   3.719999e-05   4.208967e+01   6.959863e-01   3.977580e+01   9.214138e+04  -3.644282e+04   1.091684e+05   6.106343e+09   1.336297e+10  -6.930610e+08   1.474308e+05   1.675483e-26   0.000000e+00   0.000000e+00
     3728000   3.727999e-05   4.209706e+01   6.931137e-01   3.978453e+01   9.262350e+04  -3.537237e+04   1.091125e+05   5.946861e+09   1.339792e+10  -7.047852e+08   1.474308e+05   1.667965e-26   0.000000e+00   0.000000e+00
     3736000   3.735999e-05   4.210449e+01   6.903269e-01   3.979326e+01   9.309216e+04  -3.429809e+04   1.090566e+05   5.773244e+09   1.345588e+10  -6.962490e+08   1.474308e+05   1.664168e-26   0.000000e+00   0.000000e+00
     3744000   3.743999e-05   4.211196e+01   6.876261e-01   3.980198e+01   9.354754e+04  -3.322092e+04   1.090003e+05   5.605427e+09   1.344631e+10  -7.125939e+08   1.474308e+05   1.647564e-26   0.000000e+00   0.000000e+00
     3752000   3.751999e-05   4.211946e+01   6.850115e-01   3.981070e+01   9.398955e+04  -3.214443e+04   1.089429e+05   5.444859e+09   1.346567e+10  -7.243396e+08   1.474308e+05   1.637987e-26   0.000000e+00   0.000000e+00
     3760000   3.759999e-05   4.212699e+01   6.824830e-01   3.981941e+01   9.441873e+04  -3.106647e+04   1.088844e+05   5.284995e+09   1.348308e+10  -7.359060e+08   1.474308e+05   1.628468e-26   0.000000e+00   0.000000e+00
     3768000   3.767999e-05   4.213456e+01   6.800409e-01   3.982812e+01   9.483516e+04  -2.998719e+04   1.088251e+05   5.125857e+09   1.349858e+10  -7.472986e+08   1.474308e+05   1.619006e-26   0.000000e+00   0.000000e+00
     3776000   3.775999e-05   4.214217e+01   6.776851e-01   3.983682e+01   9.523889e+04  -2.890674e+04   1.087649e+05   4.967469e+09   1.351219e+10  -7.585230e+08   1.474308e+05   1.609603e-26   0.000000e+00   0.000000e+00
     3784000   3.783999e-05   4.214980e+01   6.754158e-01   3.984552e+01   9.562998e+04  -2.782529e+04   1.087038e+05   4.809853e+09   1.352394e+10  -7.695844e+08   1.474308e+05   1.600258e-26   0.000000e+00   0.000000e+00
     3792000   3.791999e-05   4.215747e+01   6.732331e-01   3.985422e+01   9.600849e+04  -2.674296e+04   1.086418e+05   4.653032e+09   1.353384e+10  -7.804884e+08   1.474308e+05   1.590971e-26   0.000000e+00   0.000000e+00
     3800000   3.799999e-05   4.216516e+01   6.711370e-01   3.986291e+01   9.637448e+04  -2.565992e+04   1.085789e+05   4.497027e+09   1.354192e+10  -7.912402e+08   1.474308e+05   1.581742e-26   0.000000e+00   0.000000e+00
     3808000   3.807999e-05   4.217289e+01   6.691275e-01   3.987159e+01   9.672803e+04  -2.457630e+04   1.085152e+05   4.341859e+09   1.354822e+10  -8.018451e+08   1.474308e+05   1.572571e-26   0.000000e+00   0.000000e+00
     3816000   3.815999e-05   4.218064e+01   6.672048e-01   3.988027e+01   9.706920e+04  -2.349225e+04   1.084506e+05   4.187547e+09   1.355274e+10  -8.123085e+08   1.474308e+05   1.563458e-26   0.000000e+00   0.000000e+00
     3824000   3.823999e-05   4.218842e+01   6.653688e-01   3.988894e+01   9.739806e+04  -2.240791e+04   1.083852e+05   4.034111e+09   1.355553e+10  -8.226356e+08   1.474308e+05   1.554404e-26   0.000000e+00   0.000000e+00
     3832000   3.831999e-05   4.219622e+01   6.636195e-01   3.989761e+01   9.771468e+04  -2.132342e+04   1.083190e+05   3.881570e+09   1.355660e+10  -8.328314e+08   1.474308e+05   1.545407e-26   0.000000e+00   0.000000e+00
     3840000   3.839999e-05   4.220405e+01   6.619573e-01   3.990627e+01   9.802036e+04  -2.022958e+04   1.082526e+05   3.749473e+09   1.371500e+10  -8.320717e+08   1.474308e+05   1.571048e-26   0.000000e+00   0.000000e+00
     3848000   3.847999e-05   4.221191e+01   6.603828e-01   3.991493e+01   9.831415e+04  -1.913246e+04   1.081856e+05   3.595470e+09   1.371269e+10  -8.423138e+08   1.474308e+05   1.561928e-26   0.000000e+00   0.000000e+00
     3856000   3.855999e-05   4.221978e+01   6.588961e-01   3.992358e+01   9.859566e+04  -1.803559e+04   1.081178e+05   3.442451e+09   1.370869e+10  -8.524448e+08   1.474308e+05   1.552871e-26   0.000000e+00   0.000000e+00
     3864000   3.863999e-05   4.222768e+01   6.574971e-01   3.993223e+01   9.886496e+04  -1.693911e+04   1.080492e+05   3.290432e+09   1.370304e+10  -8.624696e+08   1.474308e+05   1.543878e-26   0.000000e+00   0.000000e+00
     3872000   3.871999e-05   4.223560e+01   6.561858e-01   3.994087e+01   9.912215e+04  -1.584315e+04   1.079798e+05   3.139427e+09   1.369576e+10  -8.723929e+08   1.474308e+05   1.534947e-26   0.000000e+00   0.000000e+00
     3880000   3.879999e-05   4.224354e+01   6.549622e-01   3.994951e+01   9.936730e+04  -1.474783e+04   1.079096e+05   2.989452e+09   1.368688e+10  -8.822194e+08   1.474308e+05   1.526079e-26   0.000000e+00   0.000000e+00
     3888000   3.887999e-05   4.225150e+01   6.538262e-01   3.995814e+01   9.960049e+04  -1.365329e+04   1.078387e+05   2.840521e+09   1.367643e+10  -8.919537e+08   1.474308e+05   1.517273e-26   0.000000e+00   0.000000e+00
     3896000   3.895999e-05   4.225948e+01   6.527776e-01   3.996676e+01   9.982181e+04  -1.255965e+04   1.077669e+05   2.692648e+09   1.366443e+10  -9.016004e+08   1.474308e+05   1.508529e-26   0.000000e+00   0.000000e+00
     3904000   3.903999e-05   4.226747e+01   6.518166e-01   3.997538e+01   1.000313e+05  -1.146702e+04   1.076944e+05   2.545846e+09   1.365090e+10  -9.111639e+08   1.474308e+05   1.499847e-26   0.000000e+00   0.000000e+00
     3912000   3.911999e-05   4.227548e+01   6.509429e-01   3.998399e+01   1.002292e+05  -1.037554e+04   1.076211e+05   2.400128e+09   1.363589e+10  -9.206486e+08   1.474308e+05   1.491226e-26   0.000000e+00   0.000000e+00
     3920000   3.919999e-05   4.228351e+01   6.501565e-01   3.999260e+01   1.004154e+05  -9.285320e+03   1.075471e+05   2.255506e+09   1.361940e+10  -9.300588e+08   1.474308e+05   1.482666e-26   0.000000e+00   0.000000e+00
     3928000   3.927999e-05   4.229155e+01   6.494572e-01   4.000120e+01   1.005901e+05  -8.194863e+03   1.074724e+05   2.116177e+09   1.374798e+10  -9.323483e+08   1.474308e+05   1.505234e-26   0.000000e+00   0.000000e+00
     3936000   3.935999e-05   4.229960e+01   6.488456e-01   4.000979e+01   1.007536e+05  -7.094719e+03   1.073975e+05   1.970791e+09   1.375541e+10  -9.401670e+08   1.474308e+05   1.502327e-26   0.000000e+00   0.000000e+00
     3944000   3.943999e-05   4.230767e+01   6.483220e-01   4.001838e+01   1.009054e+05  -5.996185e+03   1.073219e+05   1.825971e+09   1.373072e+10  -9.496349e+08   1.474308e+05   1.492952e-26   0.000000e+00   0.000000e+00
     3952000   3.951999e-05   4.231574e+01   6.478862e-01   4.002696e+01   1.010458e+05  -4.897737e+03   1.072456e+05   1.682241e+09   1.373025e+10  -9.579349e+08   1.474308e+05   1.489071e-26   0.000000e+00   0.000000e+00
     3960000   3.959999e-05   4.232383e+01   6.475384e-01   4.003554e+01   1.011746e+05  -3.799378e+03   1.071686e+05   1.539013e+09   1.372850e+10  -9.662101e+08   1.474308e+05   1.485249e-26   0.000000e+00   0.000000e+00
     3968000   3.967999e-05   4.233193e+01   6.472783e-01   4.004411e+01   1.012920e+05  -2.701211e+03   1.070910e+05   1.396297e+09   1.372548e+10  -9.744647e+08   1.474308e+05   1.481485e-26   0.000000e+00   0.000000e+00
     3976000   3.975999e-05   4.234004e+01   6.471062e-01   4.005268e+01   1.013980e+05  -1.603335e+03   1.070127e+05   1.254099e+09   1.372119e+10  -9.827025e+08   1.474308e+05   1.477780e-26   0.000000e+00   0.000000e+00
     3984000   3.983999e-05   4.234816e+01   6.470218e-01   4.006123e+01   1.014927e+05  -5.058529e+02   1.069338e+05   1.112431e+09   1.371566e+10  -9.909275e+08   1.474308e+05   1.474133e-26   0.000000e+00   0.000000e+00
     3992000   3.991999e-05   4.235628e+01   6.470252e-01   4.006979e+01   1.015760e+05   5.911367e+02   1.068541e+05   9.712989e+08   1.370888e+10  -9.991435e+08   1.474308e+05   1.470543e-26   0.000000e+00   0.000000e+00
     4000000   3.999999e-05   4.236441e+01   6.471164e-01   4.007833e+01   1.016481e+05   1.687535e+03   1.067739e+05   8.307119e+08   1.370088e+10  -1.007354e+09   1.474308e+05   1.467009e-26   0.000000e+00   0.000000e+00
     4008000   4.007999e-05   4.237254e+01   6.472952e-01   4.008687e+01   1.017090e+05   2.783245e+03   1.066930e+05   6.906776e+08   1.369166e+10  -1.015563e+09   1.474308e+05   1.463532e-26   0.000000e+00   0.000000e+00
     4016000   4.015999e-05   4.238068e+01   6.475616e-01   4.009540e+01   1.017586e+05   3.878168e+03   1.066114e+05   5.512038e+08   1.368124e+10  -1.023774e+09   1.474308e+05   1.460111e-26   0.000000e+00   0.000000e+00
     4024000   4.023999e-05   4.238882e+01   6.479156e-01   4.010393e+01   1.017970e+05   4.970990e+03   1.065294e+05   4.072482e+08   1.363434e+10  -1.025360e+09   1.474308e+05   1.449147e-26   0.000000e+00   0.000000e+00
     4032000   4.031999e-05   4.239697e+01   6.483569e-01   4.011245e+01   1.018241e+05   6.060859e+03   1.064471e+05   2.697071e+08   1.361220e+10  -1.033025e+09   1.474308e+05   1.443877e-26   0.000000e+00   0.000000e+00
     4040000   4.039999e-05   4.240511e+01   6.488853e-01   4.012096e+01   1.018404e+05   7.147741e+03   1.063640e+05   1.386866e+08   1.356768e+10  -1.044530e+09   1.474308e+05   1.434275e-26   0.000000e+00   0.000000e+00
     4048000   4.047999e-05   4.241326e+01   6.495005e-01   4.012946e+01   1.018461e+05   8.232450e+03   1.062800e+05   4.551213e+06   1.354985e+10  -1.053915e+09   1.474308e+05   1.430533e-26   0.000000e+00   0.000000e+00
     4056000   4.055999e-05   4.242141e+01   6.502025e-01   4.013796e+01   1.018412e+05   9.315687e+03   1.061953e+05  -1.289220e+08   1.353089e+10  -1.063306e+09   1.474308e+05   1.426840e-26   0.000000e+00   0.000000e+00
     4064000   4.063999e-05   4.242956e+01   6.509910e-01   4.014646e+01   1.018255e+05   1.039736e+04   1.061099e+05  -2.617267e+08   1.351081e+10  -1.072704e+09   1.474308e+05   1.423193e-26   0.000000e+00   0.000000e+00
     4072000   4.071999e-05   4.243770e+01   6.518660e-01   4.015494e+01   1.017993e+05   1.147739e+04   1.060237e+05  -3.938565e+08   1.348964e+10  -1.082113e+09   1.474308e+05   1.419592e-26   0.000000e+00   0.000000e+00
     4080000   4.079999e-05   4.244584e+01   6.528273e-01   4.016342e+01   1.017625e+05   1.255567e+04   1.059368e+05  -5.253057e+08   1.346737e+10  -1.091535e+09   1.474308e+05   1.416038e-26   0.000000e+00   0.000000e+00
     4088000   4.087999e-05   4.245398e+01   6.538749e-01   4.017189e+01   1.017153e+05   1.363214e+04   1.058491e+05  -6.560685e+08   1.344403e+10  -1.100972e+09   1.474308e+05   1.412530e-26   0.000000e+00   0.000000e+00
     4096000   4.095999e-05   4.246212e+01   6.550084e-01   4.018036e+01   1.016576e+05   1.470669e+04   1.057606e+05  -7.861394e+08   1.341962e+10  -1.110427e+09   1.474308e+05   1.409067e-26   0.000000e+00   0.000000e+00
     4104000   4.103999e-05   4.247025e+01   6.562279e-01   4.018881e+01   1.015895e+05   1.577925e+04   1.056714e+05  -9.155131e+08   1.339416e+10  -1.119901e+09   1.474308e+05   1.405648e-26   0.000000e+00   0.000000e+00
     4112000   4.111999e-05   4.247837e+01   6.575330e-01   4.019726e+01   1.015111e+05   1.684973e+04   1.055814e+05  -1.044185e+09   1.336766e+10  -1.129397e+09   1.474308e+05   1.402274e-26   0.000000e+00   0.000000e+00
     4120000   4.119999e-05   4.248649e+01   6.589236e-01   4.020571e+01   1.014228e+05   1.791201e+04   1.054914e+05  -1.164183e+09   1.322325e+10  -1.125955e+09   1.474308e+05   1.374526e-26   0.000000e+00   0.000000e+00
     4128000   4.127999e-05   4.249460e+01   6.603988e-01   4.021414e+01   1.013248e+05   1.896812e+04   1.054009e+05  -1.286544e+09   1.317937e+10  -1.134974e+09   1.474308e+05   1.368033e-26   0.000000e+00   0.000000e+00
     4136000   4.135999e-05   4.250270e+01   6.619584e-01   4.022257e+01   1.012168e+05   2.002211e+04   1.053097e+05  -1.415339e+09   1.319110e+10  -1.147622e+09   1.474308e+05   1.373347e-26   0.000000e+00   0.000000e+00
     4144000   4.143999e-05   4.251079e+01   6.636024e-01   4.023099e+01   1.010985e+05   2.107633e+04   1.052175e+05  -1.541689e+09   1.316434e+10  -1.155624e+09   1.474308e+05   1.370923e-26   0.000000e+00   0.000000e+00
     4152000   4.151999e-05   4.251888e+01   6.653306e-01   4.023940e+01   1.009701e+05   2.212838e+04   1.051248e+05  -1.667409e+09   1.313661e+10  -1.163681e+09   1.474308e+05   1.368543e-26   0.000000e+00   0.000000e+00
     4160000   4.159999e-05   4.252695e+01   6.671429e-01   4.024781e+01   1.008317e+05   2.317816e+04   1.050314e+05  -1.792494e+09   1.310792e+10  -1.171796e+09   1.474308e+05   1.366209e-26   0.000000e+00   0.000000e+00
     4168000   4.167999e-05   4.253501e+01   6.690390e-01   4.025621e+01   1.006834e+05   2.422562e+04   1.049373e+05  -1.916942e+09   1.307826e+10  -1.179971e+09   1.474308e+05   1.363918e-26   0.000000e+00   0.000000e+00
     4176000   4.175999e-05   4.254306e+01   6.710189e-01   4.026460e+01   1.005251e+05   2.527066e+04   1.048426e+05  -2.040748e+09   1.304765e+10  -1.188207e+09   1.474308e+05   1.361671e-26   0.000000e+00   0.000000e+00
     4184000   4.183999e-05   4.255109e+01   6.730823e-01   4.027298e+01   1.003569e+05   2.631322e+04   1.047472e+05  -2.163908e+09   1.301610e+10  -1.196507e+09   1.474308e+05   1.359466e-26   0.000000e+00   0.000000e+00
     4192000   4.191999e-05   4.255911e+01   6.752289e-01   4.028136e+01   1.001788e+05   2.735321e+04   1.046511e+05  -2.286420e+09   1.298362e+10  -1.204871e+09   1.474308e+05   1.357305e-26   0.000000e+00   0.000000e+00
     4200000   4.199999e-05   4.256712e+01   6.774587e-01   4.028973e+01   9.999105e+04   2.839057e+04   1.045544e+05  -2.408280e+09   1.295023e+10  -1.213302e+09   1.474308e+05   1.355185e-26   0.000000e+00   0.000000e+00
     4208000   4.207999e-05   4.257511e+01   6.797714e-01   4.029809e+01   9.979354e+04   2.942522e+04   1.044570e+05  -2.529486e+09   1.291592e+10  -1.221801e+09   1.474308e+05   1.353108e-26   0.000000e+00   0.000000e+00
     4216000   4.215999e-05   4.258309e+01   6.821665e-01   4.030644e+01   9.958881e+04   3.045112e+04   1.043583e+05  -2.606658e+09   1.277747e+10  -1.240847e+09   1.474308e+05   1.328992e-26   0.000000e+00   0.000000e+00
     4224000   4.223999e-05   4.259105e+01   6.846434e-01   4.031479e+01   9.937585e+04   3.147121e+04   1.042586e+05  -2.717154e+09   1.272473e+10  -1.251133e+09   1.474308e+05   1.323329e-26   0.000000e+00   0.000000e+00
     4232000   4.231999e-05   4.259899e+01   6.872018e-01   4.032312e+01   9.915410e+04   3.248706e+04   1.041581e+05  -2.826489e+09   1.267125e+10  -1.261467e+09   1.474308e+05   1.317707e-26   0.000000e+00   0.000000e+00
     4240000   4.239999e-05   4.260691e+01   6.898413e-01   4.033145e+01   9.892268e+04   3.350088e+04   1.040570e+05  -2.951228e+09   1.265605e+10  -1.268957e+09   1.474308e+05   1.320453e-26   0.000000e+00   0.000000e+00
     4248000   4.247999e-05   4.261482e+01   6.925618e-01   4.033977e+01   9.868203e+04   3.451174e+04   1.039550e+05  -3.064998e+09   1.261554e+10  -1.278651e+09   1.474308e+05   1.318015e-26   0.000000e+00   0.000000e+00
     4256000   4.255999e-05   4.262270e+01   6.953631e-01   4.034808e+01   9.843230e+04   3.551934e+04   1.038524e+05  -3.178025e+09   1.257419e+10  -1.288415e+09   1.474308e+05   1.315609e-26   0.000000e+00   0.000000e+00
     4264000   4.263999e-05   4.263056e+01   6.982448e-01   4.035639e+01   9.817356e+04   3.652359e+04   1.037489e+05  -3.290306e+09   1.253203e+10  -1.298249e+09   1.474309e+05   1.313232e-26   0.000000e+00   0.000000e+00
     4272000   4.271999e-05   4.263841e+01   7.012068e-01   4.036468e+01   9.790655e+04   3.752271e+04   1.036446e+05  -3.379860e+09   1.243358e+10  -1.308600e+09   1.474309e+05   1.299032e-26   0.000000e+00   0.000000e+00
     4280000   4.279999e-05   4.264623e+01   7.042483e-01   4.037297e+01   9.763191e+04   3.851530e+04   1.035396e+05  -3.486162e+09   1.238108e+10  -1.318324e+09   1.474309e+05   1.294793e-26   0.000000e+00   0.000000e+00
     4288000   4.287999e-05   4.265403e+01   7.073691e-01   4.038125e+01   9.734879e+04   3.950366e+04   1.034337e+05  -3.591466e+09   1.232792e+10  -1.328111e+09   1.474309e+05   1.290593e-26   0.000000e+00   0.000000e+00
