     timestep     time              x             y              z              vx             vy             vz             ax             ay             az         v_magnitude      ELoss        Electronic      Nuclear
           0   0.000000e+00   2.559773e+01   1.000000e-01   6.007783e+00  -2.965308e+03   2.849496e+03  -1.473730e+05   0.000000e+00   0.000000e+00   0.000000e+00   1.474304e+05   0.000000e+00   0.000000e+00   0.000000e+00
        8000   7.999000e-08   2.559750e+01   1.002257e-01   5.995993e+00  -2.927655e+03   2.793519e+03  -1.473748e+05   4.765683e+08  -6.936539e+08  -2.261560e+07   1.474304e+05   5.489349e-29   0.000000e+00   0.000000e+00
       16000   1.599900e-07   2.559727e+01   1.004470e-01   5.984203e+00  -2.888848e+03   2.738459e+03  -1.473766e+05   4.935556e+08  -6.828020e+08  -2.236202e+07   1.474304e+05   5.501207e-29   0.000000e+00   0.000000e+00
       24000   2.399900e-07   2.559704e+01   1.006639e-01   5.972413e+00  -2.848694e+03   2.684279e+03  -1.473784e+05   5.102443e+08  -6.716494e+08  -2.209572e+07   1.474304e+05   5.513868e-29   0.000000e+00   0.000000e+00
       32000   3.199900e-07   2.559681e+01   1.008765e-01   5.960622e+00  -2.807217e+03   2.631003e+03  -1.473802e+05   5.266303e+08  -6.602041e+08  -2.181686e+07   1.474304e+05   5.527301e-29   0.000000e+00   0.000000e+00
       40000   3.999900e-07   2.559659e+01   1.010849e-01   5.948832e+00  -2.764441e+03   2.578654e+03  -1.473819e+05   5.427094e+08  -6.484740e+08  -2.152561e+07   1.474304e+05   5.541478e-29   0.000000e+00   0.000000e+00
       48000   4.799900e-07   2.559637e+01   1.012891e-01   5.937041e+00  -2.720392e+03   2.527254e+03  -1.473836e+05   5.584778e+08  -6.364671e+08  -2.122217e+07   1.474304e+05   5.556370e-29   0.000000e+00   0.000000e+00
       56000   5.599900e-07   2.559615e+01   1.014893e-01   5.925251e+00  -2.675093e+03   2.476826e+03  -1.473853e+05   5.739319e+08  -6.241913e+08  -2.090671e+07   1.474304e+05   5.571948e-29   0.000000e+00   0.000000e+00
       64000   6.399900e-07   2.559594e+01   1.016854e-01   5.913460e+00  -2.628571e+03   2.427391e+03  -1.473869e+05   5.890681e+08  -6.116547e+08  -2.057943e+07   1.474304e+05   5.588184e-29   0.000000e+00   0.000000e+00
       72000   7.199900e-07   2.559573e+01   1.018777e-01   5.901669e+00  -2.580851e+03   2.378968e+03  -1.473886e+05   6.038833e+08  -5.988653e+08  -2.024052e+07   1.474304e+05   5.605053e-29   0.000000e+00   0.000000e+00
       80000   7.999900e-07   2.559553e+01   1.020661e-01   5.889878e+00  -2.530868e+03   2.331815e+03  -1.473902e+05   6.333321e+08  -5.822540e+08  -2.008679e+07   1.474304e+05   5.735233e-29   0.000000e+00   0.000000e+00
       88000   8.799900e-07   2.559533e+01   1.022508e-01   5.878086e+00  -2.479718e+03   2.285776e+03  -1.473918e+05   6.453566e+08  -5.686913e+08  -1.967688e+07   1.474304e+05   5.733292e-29   0.000000e+00   0.000000e+00
       96000   9.599900e-07   2.559513e+01   1.024318e-01   5.866295e+00  -2.427620e+03   2.240830e+03  -1.473933e+05   6.570466e+08  -5.549432e+08  -1.925867e+07   1.474304e+05   5.731440e-29   0.000000e+00   0.000000e+00
      104000   1.039990e-06   2.559494e+01   1.026094e-01   5.854503e+00  -2.374600e+03   2.196990e+03  -1.473949e+05   6.684006e+08  -5.410176e+08  -1.883241e+07   1.474304e+05   5.729666e-29   0.000000e+00   0.000000e+00
      112000   1.119990e-06   2.559475e+01   1.027834e-01   5.842712e+00  -2.320685e+03   2.154271e+03  -1.473964e+05   6.794173e+08  -5.269222e+08  -1.839838e+07   1.474304e+05   5.727957e-29   0.000000e+00   0.000000e+00
      120000   1.199990e-06   2.559457e+01   1.029541e-01   5.830920e+00  -2.265902e+03   2.112687e+03  -1.473978e+05   6.900956e+08  -5.126651e+08  -1.795683e+07   1.474304e+05   5.726303e-29   0.000000e+00   0.000000e+00
      128000   1.279990e-06   2.559439e+01   1.031215e-01   5.819128e+00  -2.210278e+03   2.072249e+03  -1.473992e+05   7.004345e+08  -4.982540e+08  -1.750802e+07   1.474304e+05   5.724694e-29   0.000000e+00   0.000000e+00
      136000   1.359990e-06   2.559421e+01   1.032857e-01   5.807336e+00  -2.153841e+03   2.032970e+03  -1.474006e+05   7.104333e+08  -4.836967e+08  -1.705223e+07   1.474304e+05   5.723120e-29   0.000000e+00   0.000000e+00
      144000   1.439990e-06   2.559404e+01   1.034468e-01   5.795544e+00  -2.096995e+03   1.994859e+03  -1.474020e+05   7.082438e+08  -4.690078e+08  -1.642309e+07   1.474304e+05   5.590514e-29   0.000000e+00   0.000000e+00
      152000   1.519990e-06   2.559388e+01   1.036049e-01   5.783752e+00  -2.039829e+03   1.957946e+03  -1.474033e+05   7.208360e+08  -4.538005e+08  -1.600308e+07   1.474304e+05   5.621092e-29   0.000000e+00   0.000000e+00
      160000   1.599990e-06   2.559372e+01   1.037601e-01   5.771959e+00  -1.981670e+03   1.922257e+03  -1.474045e+05   7.330785e+08  -4.384062e+08  -1.557250e+07   1.474304e+05   5.652467e-29   0.000000e+00   0.000000e+00
      168000   1.679990e-06   2.559356e+01   1.039125e-01   5.760167e+00  -1.922546e+03   1.887806e+03  -1.474057e+05   7.449702e+08  -4.228329e+08  -1.513152e+07   1.474304e+05   5.684612e-29   0.000000e+00   0.000000e+00
      176000   1.759990e-06   2.559341e+01   1.040622e-01   5.748375e+00  -1.862484e+03   1.854608e+03  -1.474069e+05   7.565100e+08  -4.070888e+08  -1.468035e+07   1.474304e+05   5.717503e-29   0.000000e+00   0.000000e+00
      184000   1.839990e-06   2.559326e+01   1.042092e-01   5.736582e+00  -1.801513e+03   1.822676e+03  -1.474081e+05   7.676969e+08  -3.911819e+08  -1.421918e+07   1.474304e+05   5.751115e-29   0.000000e+00   0.000000e+00
      192000   1.919990e-06   2.559312e+01   1.043538e-01   5.724789e+00  -1.739662e+03   1.792023e+03  -1.474092e+05   7.785304e+08  -3.751205e+08  -1.374820e+07   1.474304e+05   5.785424e-29   0.000000e+00   0.000000e+00
      200000   1.999990e-06   2.559298e+01   1.044960e-01   5.712996e+00  -1.676958e+03   1.762661e+03  -1.474103e+05   7.890100e+08  -3.589123e+08  -1.326763e+07   1.474304e+05   5.820405e-29   0.000000e+00   0.000000e+00
      208000   2.079990e-06   2.559285e+01   1.046359e-01   5.701204e+00  -1.613430e+03   1.734601e+03  -1.474113e+05   7.991353e+08  -3.425656e+08  -1.277765e+07   1.474304e+05   5.856037e-29   0.000000e+00   0.000000e+00
      216000   2.159990e-06   2.559273e+01   1.047735e-01   5.689411e+00  -1.549476e+03   1.707350e+03  -1.474123e+05   8.039781e+08  -3.330733e+08  -1.230850e+07   1.474304e+05   5.866403e-29   0.000000e+00   0.000000e+00
      224000   2.239990e-06   2.559260e+01   1.049091e-01   5.677618e+00  -1.484758e+03   1.681371e+03  -1.474133e+05   8.138966e+08  -3.163962e+08  -1.180644e+07   1.474304e+05   5.906702e-29   0.000000e+00   0.000000e+00
      232000   2.319990e-06   2.559249e+01   1.050426e-01   5.665824e+00  -1.419262e+03   1.656730e+03  -1.474142e+05   8.234582e+08  -2.995950e+08  -1.129510e+07   1.474304e+05   5.947707e-29   0.000000e+00   0.000000e+00
      240000   2.399990e-06   2.559238e+01   1.051742e-01   5.654031e+00  -1.353015e+03   1.633439e+03  -1.474151e+05   8.326632e+08  -2.826775e+08  -1.077467e+07   1.474304e+05   5.989394e-29   0.000000e+00   0.000000e+00
      248000   2.479990e-06   2.559227e+01   1.053040e-01   5.642238e+00  -1.286045e+03   1.611505e+03  -1.474160e+05   8.415121e+08  -2.656516e+08  -1.024536e+07   1.474304e+05   6.031739e-29   0.000000e+00   0.000000e+00
      256000   2.559990e-06   2.559217e+01   1.054321e-01   5.630445e+00  -1.218382e+03   1.590937e+03  -1.474168e+05   8.500053e+08  -2.485251e+08  -9.707356e+06   1.474304e+05   6.074719e-29   0.000000e+00   0.000000e+00
      264000   2.639990e-06   2.559208e+01   1.055586e-01   5.618651e+00  -1.150054e+03   1.571744e+03  -1.474175e+05   8.581437e+08  -2.313055e+08  -9.160867e+06   1.474304e+05   6.118313e-29   0.000000e+00   0.000000e+00
      272000   2.719990e-06   2.559199e+01   1.056836e-01   5.606858e+00  -1.081088e+03   1.553931e+03  -1.474182e+05   8.659282e+08  -2.140006e+08  -8.606094e+06   1.474304e+05   6.162498e-29   0.000000e+00   0.000000e+00
      280000   2.799990e-06   2.559190e+01   1.058072e-01   5.595064e+00  -1.011113e+03   1.537573e+03  -1.474189e+05   8.848119e+08  -1.946747e+08  -8.099234e+06   1.474304e+05   6.357312e-29   0.000000e+00   0.000000e+00
      288000   2.879990e-06   2.559183e+01   1.059296e-01   5.583271e+00  -9.401441e+02   1.522682e+03  -1.474195e+05   8.893661e+08  -1.775976e+08  -7.506233e+06   1.474304e+05   6.370583e-29   0.000000e+00   0.000000e+00
      296000   2.959990e-06   2.559175e+01   1.060509e-01   5.571477e+00  -8.688240e+02   1.509158e+03  -1.474201e+05   8.935782e+08  -1.605065e+08  -6.909507e+06   1.474304e+05   6.383924e-29   0.000000e+00   0.000000e+00
      304000   3.039990e-06   2.559169e+01   1.061711e-01   5.559684e+00  -7.971806e+02   1.497002e+03  -1.474206e+05   8.974504e+08  -1.434083e+08  -6.309299e+06   1.474304e+05   6.397330e-29   0.000000e+00   0.000000e+00
      312000   3.119990e-06   2.559163e+01   1.062905e-01   5.547890e+00  -7.252409e+02   1.486213e+03  -1.474211e+05   9.009855e+08  -1.263097e+08  -5.705851e+06   1.474304e+05   6.410794e-29   0.000000e+00   0.000000e+00
      320000   3.199990e-06   2.559157e+01   1.064090e-01   5.536096e+00  -6.530318e+02   1.476792e+03  -1.474215e+05   9.041860e+08  -1.092174e+08  -5.099403e+06   1.474304e+05   6.424311e-29   0.000000e+00   0.000000e+00
      328000   3.279990e-06   2.559152e+01   1.065268e-01   5.524303e+00  -5.805799e+02   1.468738e+03  -1.474219e+05   9.070548e+08  -9.213793e+07  -4.490192e+06   1.474304e+05   6.437874e-29   0.000000e+00   0.000000e+00
      336000   3.359990e-06   2.559148e+01   1.066440e-01   5.512509e+00  -5.079117e+02   1.462050e+03  -1.474222e+05   9.095949e+08  -7.507783e+07  -3.878450e+06   1.474304e+05   6.451478e-29   0.000000e+00   0.000000e+00
      344000   3.439990e-06   2.559144e+01   1.067607e-01   5.500715e+00  -4.350534e+02   1.456725e+03  -1.474225e+05   9.118093e+08  -5.804343e+07  -3.264409e+06   1.474304e+05   6.465118e-29   0.000000e+00   0.000000e+00
      352000   3.519990e-06   2.559141e+01   1.068771e-01   5.488921e+00  -3.621258e+02   1.452823e+03  -1.474228e+05   9.122398e+08  -4.018812e+07  -2.636907e+06   1.474304e+05   6.457588e-29   0.000000e+00   0.000000e+00
      360000   3.599990e-06   2.559138e+01   1.069932e-01   5.477127e+00  -2.890985e+02   1.450290e+03  -1.474230e+05   9.133911e+08  -2.314672e+07  -2.018938e+06   1.474304e+05   6.465486e-29   0.000000e+00   0.000000e+00
      368000   3.679990e-06   2.559136e+01   1.071092e-01   5.465334e+00  -2.159917e+02   1.449118e+03  -1.474231e+05   9.142253e+08  -6.156981e+06  -1.400022e+06   1.474304e+05   6.473421e-29   0.000000e+00   0.000000e+00
      376000   3.759990e-06   2.559135e+01   1.072251e-01   5.453540e+00  -1.428308e+02   1.449304e+03  -1.474232e+05   9.147459e+08   1.077521e+07  -7.803772e+05   1.474304e+05   6.481390e-29   0.000000e+00   0.000000e+00
      384000   3.839990e-06   2.559134e+01   1.073411e-01   5.441746e+00  -6.964062e+01   1.450841e+03  -1.474232e+05   9.149566e+08   2.764406e+07  -1.602149e+05   1.474304e+05   6.489390e-29   0.000000e+00   0.000000e+00
      392000   3.919990e-06   2.559134e+01   1.074573e-01   5.429952e+00   3.554115e+00   1.453725e+03  -1.474232e+05   9.148612e+08   4.444391e+07   4.602556e+05   1.474304e+05   6.497420e-29   0.000000e+00   0.000000e+00
      400000   3.999990e-06   2.559134e+01   1.075738e-01   5.418158e+00   7.672912e+01   1.457950e+03  -1.474231e+05   9.144638e+08   6.116922e+07   1.080829e+06   1.474304e+05   6.505477e-29   0.000000e+00   0.000000e+00
      408000   4.079990e-06   2.559135e+01   1.076906e-01   5.406364e+00   1.498604e+02   1.463510e+03  -1.474230e+05   9.137682e+08   7.781455e+07   1.701305e+06   1.474304e+05   6.513558e-29   0.000000e+00   0.000000e+00
      416000   4.159990e-06   2.559136e+01   1.078080e-01   5.394570e+00   2.228306e+02   1.470397e+03  -1.474229e+05   9.102771e+08   9.421412e+07   2.315525e+06   1.474304e+05   6.486109e-29   0.000000e+00   0.000000e+00
      424000   4.239990e-06   2.559138e+01   1.079259e-01   5.382777e+00   2.956106e+02   1.478572e+03  -1.474227e+05   9.091753e+08   1.101564e+08   2.927825e+06   1.474304e+05   6.495841e-29   0.000000e+00   0.000000e+00
      432000   4.319990e-06   2.559141e+01   1.080446e-01   5.370983e+00   3.682913e+02   1.488020e+03  -1.474224e+05   9.077970e+08   1.260075e+08   3.539672e+06   1.474304e+05   6.505468e-29   0.000000e+00   0.000000e+00
      440000   4.399990e-06   2.559144e+01   1.081640e-01   5.359189e+00   4.408508e+02   1.498731e+03  -1.474221e+05   9.061463e+08   1.417625e+08   4.150876e+06   1.474304e+05   6.514988e-29   0.000000e+00   0.000000e+00
      448000   4.479990e-06   2.559148e+01   1.082844e-01   5.347395e+00   5.132675e+02   1.510699e+03  -1.474217e+05   9.042274e+08   1.574167e+08   4.761248e+06   1.474304e+05   6.524397e-29   0.000000e+00   0.000000e+00
      456000   4.559990e-06   2.559153e+01   1.084058e-01   5.335602e+00   5.855201e+02   1.523915e+03  -1.474213e+05   9.020445e+08   1.729656e+08   5.370604e+06   1.474304e+05   6.533694e-29   0.000000e+00   0.000000e+00
      464000   4.639990e-06   2.559158e+01   1.085283e-01   5.323808e+00   6.575877e+02   1.538371e+03  -1.474209e+05   8.996020e+08   1.884046e+08   5.978766e+06   1.474304e+05   6.542876e-29   0.000000e+00   0.000000e+00
      472000   4.719990e-06   2.559163e+01   1.086519e-01   5.312014e+00   7.294496e+02   1.554057e+03  -1.474204e+05   8.969043e+08   2.037295e+08   6.585557e+06   1.474304e+05   6.551942e-29   0.000000e+00   0.000000e+00
      480000   4.799990e-06   2.559169e+01   1.087769e-01   5.300221e+00   8.010857e+02   1.570965e+03  -1.474198e+05   8.939557e+08   2.189360e+08   7.190805e+06   1.474304e+05   6.560887e-29   0.000000e+00   0.000000e+00
      488000   4.879990e-06   2.559176e+01   1.089033e-01   5.288427e+00   8.723113e+02   1.589350e+03  -1.474192e+05   8.891607e+08   2.374350e+08   7.821122e+06   1.474304e+05   6.560125e-29   0.000000e+00   0.000000e+00
      496000   4.959990e-06   2.559183e+01   1.090313e-01   5.276634e+00   9.433488e+02   1.608946e+03  -1.474186e+05   8.867370e+08   2.524569e+08   8.429626e+06   1.474304e+05   6.583861e-29   0.000000e+00   0.000000e+00
      504000   5.039990e-06   2.559191e+01   1.091608e-01   5.264840e+00   1.014183e+03   1.629740e+03  -1.474179e+05   8.840747e+08   2.673673e+08   9.037874e+06   1.474304e+05   6.607460e-29   0.000000e+00   0.000000e+00
      512000   5.119990e-06   2.559199e+01   1.092921e-01   5.253047e+00   1.084794e+03   1.651722e+03  -1.474171e+05   8.811782e+08   2.821623e+08   9.645707e+06   1.474304e+05   6.630915e-29   0.000000e+00   0.000000e+00
      520000   5.199990e-06   2.559208e+01   1.094251e-01   5.241253e+00   1.155165e+03   1.674883e+03  -1.474163e+05   8.780517e+08   2.968381e+08   1.025297e+07   1.474304e+05   6.654220e-29   0.000000e+00   0.000000e+00
      528000   5.279990e-06   2.559218e+01   1.095601e-01   5.229460e+00   1.225277e+03   1.699213e+03  -1.474155e+05   8.746996e+08   3.113911e+08   1.085951e+07   1.474304e+05   6.677368e-29   0.000000e+00   0.000000e+00
      536000   5.359990e-06   2.559228e+01   1.096970e-01   5.217667e+00   1.295111e+03   1.724702e+03  -1.474146e+05   8.711263e+08   3.258177e+08   1.146518e+07   1.474304e+05   6.700354e-29   0.000000e+00   0.000000e+00
      544000   5.439990e-06   2.559239e+01   1.098360e-01   5.205874e+00   1.364651e+03   1.751341e+03  -1.474137e+05   8.673362e+08   3.401143e+08   1.206984e+07   1.474304e+05   6.723170e-29   0.000000e+00   0.000000e+00
      552000   5.519990e-06   2.559250e+01   1.099773e-01   5.194081e+00   1.433862e+03   1.779069e+03  -1.474127e+05   8.633683e+08   3.532767e+08   1.266137e+07   1.474304e+05   6.740778e-29   0.000000e+00   0.000000e+00
      560000   5.599990e-06   2.559262e+01   1.101207e-01   5.182288e+00   1.502839e+03   1.807926e+03  -1.474116e+05   8.610387e+08   3.681145e+08   1.329283e+07   1.474304e+05   6.792692e-29   0.000000e+00   0.000000e+00
      568000   5.679990e-06   2.559274e+01   1.102666e-01   5.170495e+00   1.571622e+03   1.837965e+03  -1.474105e+05   8.584917e+08   3.828447e+08   1.392621e+07   1.474304e+05   6.844576e-29   0.000000e+00   0.000000e+00
      576000   5.759990e-06   2.559287e+01   1.104148e-01   5.158702e+00   1.640192e+03   1.869178e+03  -1.474094e+05   8.557313e+08   3.974639e+08   1.456139e+07   1.474304e+05   6.896416e-29   0.000000e+00   0.000000e+00
      584000   5.839990e-06   2.559300e+01   1.105657e-01   5.146909e+00   1.708533e+03   1.901556e+03  -1.474082e+05   8.527618e+08   4.119688e+08   1.519824e+07   1.474304e+05   6.948200e-29   0.000000e+00   0.000000e+00
      592000   5.919990e-06   2.559314e+01   1.107191e-01   5.135117e+00   1.776629e+03   1.935090e+03  -1.474070e+05   8.495874e+08   4.263560e+08   1.583663e+07   1.474304e+05   6.999912e-29   0.000000e+00   0.000000e+00
      600000   5.999990e-06   2.559329e+01   1.108753e-01   5.123324e+00   1.844462e+03   1.969770e+03  -1.474057e+05   8.462124e+08   4.406224e+08   1.647645e+07   1.474304e+05   7.051539e-29   0.000000e+00   0.000000e+00
      608000   6.079990e-06   2.559344e+01   1.110343e-01   5.111532e+00   1.912017e+03   2.005586e+03  -1.474043e+05   8.426411e+08   4.547651e+08   1.711758e+07   1.474304e+05   7.103067e-29   0.000000e+00   0.000000e+00
      616000   6.159990e-06   2.559359e+01   1.111962e-01   5.099740e+00   1.979292e+03   2.042526e+03  -1.474029e+05   8.462977e+08   4.669421e+08   1.783413e+07   1.474304e+05   7.238018e-29   0.000000e+00   0.000000e+00
      624000   6.239990e-06   2.559375e+01   1.113611e-01   5.087947e+00   2.046779e+03   2.080427e+03  -1.474015e+05   8.408402e+08   4.805605e+08   1.845827e+07   1.474304e+05   7.266817e-29   0.000000e+00   0.000000e+00
      632000   6.319990e-06   2.559392e+01   1.115291e-01   5.076155e+00   2.113822e+03   2.119412e+03  -1.474000e+05   8.352057e+08   4.940186e+08   1.908071e+07   1.474304e+05   7.295439e-29   0.000000e+00   0.000000e+00
      640000   6.399990e-06   2.559409e+01   1.117003e-01   5.064363e+00   2.180407e+03   2.159466e+03  -1.473984e+05   8.293990e+08   5.073143e+08   1.970134e+07   1.474304e+05   7.323875e-29   0.000000e+00   0.000000e+00
      648000   6.479990e-06   2.559427e+01   1.118747e-01   5.052572e+00   2.246521e+03   2.200578e+03  -1.473968e+05   8.234251e+08   5.204452e+08   2.032006e+07   1.474304e+05   7.352115e-29   0.000000e+00   0.000000e+00
      656000   6.559990e-06   2.559445e+01   1.120524e-01   5.040780e+00   2.312151e+03   2.242733e+03  -1.473952e+05   8.172888e+08   5.334093e+08   2.093678e+07   1.474304e+05   7.380150e-29   0.000000e+00   0.000000e+00
      664000   6.639990e-06   2.559464e+01   1.122335e-01   5.028988e+00   2.377283e+03   2.285919e+03  -1.473935e+05   8.109950e+08   5.462045e+08   2.155139e+07   1.474304e+05   7.407968e-29   0.000000e+00   0.000000e+00
      672000   6.719990e-06   2.559483e+01   1.124182e-01   5.017197e+00   2.441906e+03   2.330121e+03  -1.473917e+05   8.045487e+08   5.588290e+08   2.216381e+07   1.474304e+05   7.435562e-29   0.000000e+00   0.000000e+00
      680000   6.799990e-06   2.559503e+01   1.126064e-01   5.005406e+00   2.506007e+03   2.375327e+03  -1.473899e+05   7.979546e+08   5.712808e+08   2.277394e+07   1.474304e+05   7.462919e-29   0.000000e+00   0.000000e+00
      688000   6.879990e-06   2.559523e+01   1.127982e-01   4.993615e+00   2.569137e+03   2.421630e+03  -1.473881e+05   7.807570e+08   5.860172e+08   2.323783e+07   1.474304e+05   7.384898e-29   0.000000e+00   0.000000e+00
      696000   6.959990e-06   2.559544e+01   1.129939e-01   4.981824e+00   2.631272e+03   2.468990e+03  -1.473862e+05   7.726095e+08   5.979409e+08   2.380987e+07   1.474304e+05   7.396422e-29   0.000000e+00   0.000000e+00
      704000   7.039990e-06   2.559565e+01   1.131933e-01   4.970033e+00   2.692751e+03   2.517295e+03  -1.473843e+05   7.643315e+08   6.096671e+08   2.437748e+07   1.474304e+05   7.407770e-29   0.000000e+00   0.000000e+00
      712000   7.119990e-06   2.559587e+01   1.133967e-01   4.958242e+00   2.753562e+03   2.566531e+03  -1.473823e+05   7.559281e+08   6.211946e+08   2.494058e+07   1.474304e+05   7.418932e-29   0.000000e+00   0.000000e+00
      720000   7.199990e-06   2.559609e+01   1.136040e-01   4.946452e+00   2.813696e+03   2.616681e+03  -1.473803e+05   7.474045e+08   6.325224e+08   2.549913e+07   1.474304e+05   7.429899e-29   0.000000e+00   0.000000e+00
      728000   7.279990e-06   2.559632e+01   1.138154e-01   4.934661e+00   2.873143e+03   2.667730e+03  -1.473782e+05   7.387658e+08   6.436494e+08   2.605305e+07   1.474304e+05   7.440664e-29   0.000000e+00   0.000000e+00
      736000   7.359990e-06   2.559655e+01   1.140308e-01   4.922871e+00   2.931895e+03   2.719660e+03  -1.473761e+05   7.300171e+08   6.545749e+08   2.660231e+07   1.474304e+05   7.451218e-29   0.000000e+00   0.000000e+00
      744000   7.439990e-06   2.559679e+01   1.142505e-01   4.911081e+00   2.989943e+03   2.772456e+03  -1.473740e+05   7.211634e+08   6.652980e+08   2.714684e+07   1.474304e+05   7.461550e-29   0.000000e+00   0.000000e+00
      752000   7.519990e-06   2.559703e+01   1.144745e-01   4.899291e+00   3.047275e+03   2.826096e+03  -1.473718e+05   7.115049e+08   6.744632e+08   2.764600e+07   1.474304e+05   7.449694e-29   0.000000e+00   0.000000e+00
      760000   7.599990e-06   2.559728e+01   1.147027e-01   4.887502e+00   3.103837e+03   2.880484e+03  -1.473695e+05   7.025102e+08   6.851944e+08   2.818872e+07   1.474304e+05   7.464428e-29   0.000000e+00   0.000000e+00
      768000   7.679990e-06   2.559753e+01   1.149354e-01   4.875712e+00   3.159674e+03   2.935722e+03  -1.473673e+05   6.934179e+08   6.957230e+08   2.872696e+07   1.474304e+05   7.478969e-29   0.000000e+00   0.000000e+00
      776000   7.759990e-06   2.559778e+01   1.151725e-01   4.863923e+00   3.214781e+03   2.991794e+03  -1.473650e+05   6.842328e+08   7.060486e+08   2.926069e+07   1.474304e+05   7.493306e-29   0.000000e+00   0.000000e+00
      784000   7.839990e-06   2.559804e+01   1.154141e-01   4.852134e+00   3.269149e+03   3.048684e+03  -1.473626e+05   6.749601e+08   7.161706e+08   2.978988e+07   1.474304e+05   7.507428e-29   0.000000e+00   0.000000e+00
      792000   7.919990e-06   2.559831e+01   1.156603e-01   4.840345e+00   3.322772e+03   3.106376e+03  -1.473602e+05   6.656045e+08   7.260887e+08   3.031448e+07   1.474304e+05   7.521325e-29   0.000000e+00   0.000000e+00
      800000   7.999990e-06   2.559857e+01   1.159111e-01   4.828556e+00   3.375644e+03   3.164853e+03  -1.473577e+05   6.561710e+08   7.358028e+08   3.083447e+07   1.474304e+05   7.534984e-29   0.000000e+00   0.000000e+00
      808000   8.079990e-06   2.559885e+01   1.161667e-01   4.816768e+00   3.427758e+03   3.224099e+03  -1.473553e+05   6.466644e+08   7.453126e+08   3.134982e+07   1.474304e+05   7.548395e-29   0.000000e+00   0.000000e+00
      816000   8.159990e-06   2.559912e+01   1.164270e-01   4.804979e+00   3.479108e+03   3.284098e+03  -1.473527e+05   6.370895e+08   7.546181e+08   3.186051e+07   1.474304e+05   7.561547e-29   0.000000e+00   0.000000e+00
      824000   8.239990e-06   2.559940e+01   1.166921e-01   4.793191e+00   3.530645e+03   3.344819e+03  -1.473501e+05   6.479972e+08   7.634139e+08   3.285589e+07   1.474304e+05   7.774017e-29   0.000000e+00   0.000000e+00
      832000   8.319990e-06   2.559969e+01   1.169622e-01   4.781403e+00   3.582079e+03   3.406247e+03  -1.473475e+05   6.378444e+08   7.722275e+08   3.335786e+07   1.474304e+05   7.777990e-29   0.000000e+00   0.000000e+00
      840000   8.399990e-06   2.559998e+01   1.172372e-01   4.769616e+00   3.632699e+03   3.468370e+03  -1.473448e+05   6.276416e+08   7.808275e+08   3.385407e+07   1.474304e+05   7.781692e-29   0.000000e+00   0.000000e+00
      848000   8.479990e-06   2.560027e+01   1.175171e-01   4.757828e+00   3.681303e+03   3.531206e+03  -1.473421e+05   6.018877e+08   7.895416e+08   3.396012e+07   1.474304e+05   7.642490e-29   0.000000e+00   0.000000e+00
      856000   8.559990e-06   2.560056e+01   1.178022e-01   4.746041e+00   3.729119e+03   3.594688e+03  -1.473394e+05   5.935036e+08   7.974916e+08   3.447802e+07   1.474304e+05   7.662860e-29   0.000000e+00   0.000000e+00
      864000   8.639990e-06   2.560086e+01   1.180923e-01   4.734254e+00   3.776263e+03   3.658800e+03  -1.473366e+05   5.850841e+08   8.052616e+08   3.499275e+07   1.474304e+05   7.682733e-29   0.000000e+00   0.000000e+00
      872000   8.719990e-06   2.560117e+01   1.183876e-01   4.722467e+00   3.822731e+03   3.723525e+03  -1.473338e+05   5.766333e+08   8.128520e+08   3.550428e+07   1.474304e+05   7.702100e-29   0.000000e+00   0.000000e+00
      880000   8.799990e-06   2.560148e+01   1.186881e-01   4.710680e+00   3.868523e+03   3.788851e+03  -1.473309e+05   5.681552e+08   8.202633e+08   3.601259e+07   1.474304e+05   7.720952e-29   0.000000e+00   0.000000e+00
      888000   8.879990e-06   2.560179e+01   1.189938e-01   4.698894e+00   3.913662e+03   3.854763e+03  -1.473280e+05   5.630551e+08   8.276062e+08   3.661099e+07   1.474304e+05   7.770322e-29   0.000000e+00   0.000000e+00
      896000   8.959990e-06   2.560210e+01   1.193049e-01   4.687108e+00   3.958282e+03   3.921270e+03  -1.473250e+05   5.524477e+08   8.350212e+08   3.706822e+07   1.474304e+05   7.774422e-29   0.000000e+00   0.000000e+00
      904000   9.039990e-06   2.560242e+01   1.196212e-01   4.675322e+00   4.002053e+03   3.988361e+03  -1.473221e+05   5.418205e+08   8.422261e+08   3.751975e+07   1.474304e+05   7.778211e-29   0.000000e+00   0.000000e+00
      912000   9.119990e-06   2.560274e+01   1.199430e-01   4.663536e+00   4.044973e+03   4.056021e+03  -1.473190e+05   5.311780e+08   8.492219e+08   3.796557e+07   1.474304e+05   7.781675e-29   0.000000e+00   0.000000e+00
      920000   9.199990e-06   2.560307e+01   1.202702e-01   4.651751e+00   4.087041e+03   4.124231e+03  -1.473160e+05   5.205246e+08   8.560095e+08   3.840572e+07   1.474304e+05   7.784803e-29   0.000000e+00   0.000000e+00
      928000   9.279990e-06   2.560340e+01   1.206029e-01   4.639966e+00   4.128256e+03   4.192977e+03  -1.473129e+05   5.098646e+08   8.625901e+08   3.884020e+07   1.474304e+05   7.787583e-29   0.000000e+00   0.000000e+00
      936000   9.359990e-06   2.560373e+01   1.209411e-01   4.628181e+00   4.168619e+03   4.262240e+03  -1.473098e+05   4.992024e+08   8.689648e+08   3.926903e+07   1.474304e+05   7.790005e-29   0.000000e+00   0.000000e+00
      944000   9.439990e-06   2.560406e+01   1.212849e-01   4.616396e+00   4.208129e+03   4.332006e+03  -1.473066e+05   4.885421e+08   8.751348e+08   3.969222e+07   1.474304e+05   7.792056e-29   0.000000e+00   0.000000e+00
      952000   9.519990e-06   2.560440e+01   1.216342e-01   4.604612e+00   4.246786e+03   4.402257e+03  -1.473034e+05   4.778879e+08   8.811014e+08   4.010981e+07   1.474304e+05   7.793725e-29   0.000000e+00   0.000000e+00
      960000   9.599990e-06   2.560474e+01   1.219892e-01   4.592828e+00   4.284728e+03   4.473002e+03  -1.473002e+05   4.704547e+08   8.872698e+08   4.062805e+07   1.474304e+05   7.823935e-29   0.000000e+00   0.000000e+00
      968000   9.679990e-06   2.560509e+01   1.223499e-01   4.581044e+00   4.321992e+03   4.544193e+03  -1.472969e+05   4.611580e+08   8.924704e+08   4.106446e+07   1.474304e+05   7.828818e-29   0.000000e+00   0.000000e+00
      976000   9.759990e-06   2.560543e+01   1.227163e-01   4.569260e+00   4.358514e+03   4.615792e+03  -1.472936e+05   4.518868e+08   8.974919e+08   4.149658e+07   1.474304e+05   7.833147e-29   0.000000e+00   0.000000e+00
      984000   9.839990e-06   2.560578e+01   1.230885e-01   4.557477e+00   4.394295e+03   4.687787e+03  -1.472903e+05   4.426448e+08   9.023358e+08   4.192442e+07   1.474304e+05   7.836915e-29   0.000000e+00   0.000000e+00
      992000   9.919990e-06   2.560614e+01   1.234664e-01   4.545694e+00   4.429337e+03   4.760161e+03  -1.472869e+05   4.334355e+08   9.070036e+08   4.234799e+07   1.474304e+05   7.840116e-29   0.000000e+00   0.000000e+00
     1000000   9.999990e-06   2.560649e+01   1.238501e-01   4.533911e+00   4.463645e+03   4.832903e+03  -1.472835e+05   4.242622e+08   9.114970e+08   4.276733e+07   1.474304e+05   7.842741e-29   0.000000e+00   0.000000e+00
     1008000   1.007999e-05   2.560685e+01   1.242397e-01   4.522128e+00   4.497220e+03   4.905996e+03  -1.472801e+05   4.151285e+08   9.158175e+08   4.318243e+07   1.474304e+05   7.844786e-29   0.000000e+00   0.000000e+00
     1016000   1.015999e-05   2.560721e+01   1.246351e-01   4.510346e+00   4.530067e+03   4.979429e+03  -1.472766e+05   4.060377e+08   9.199670e+08   4.359333e+07   1.474304e+05   7.846242e-29   0.000000e+00   0.000000e+00
     1024000   1.023999e-05   2.560758e+01   1.250364e-01   4.498564e+00   4.562121e+03   5.053180e+03  -1.472731e+05   3.902628e+08   9.232010e+08   4.376574e+07   1.474304e+05   7.795238e-29   0.000000e+00   0.000000e+00
     1032000   1.031999e-05   2.560794e+01   1.254436e-01   4.486782e+00   4.593037e+03   5.127179e+03  -1.472696e+05   3.826405e+08   9.267532e+08   4.419855e+07   1.474304e+05   7.800800e-29   0.000000e+00   0.000000e+00
     1040000   1.039999e-05   2.560831e+01   1.258567e-01   4.475001e+00   4.623345e+03   5.201456e+03  -1.472660e+05   3.750725e+08   9.301608e+08   4.462856e+07   1.474304e+05   7.805691e-29   0.000000e+00   0.000000e+00
     1048000   1.047999e-05   2.560868e+01   1.262758e-01   4.463220e+00   4.653050e+03   5.276001e+03  -1.472624e+05   3.675614e+08   9.334257e+08   4.505579e+07   1.474304e+05   7.809909e-29   0.000000e+00   0.000000e+00
     1056000   1.055999e-05   2.560906e+01   1.267009e-01   4.451439e+00   4.682156e+03   5.350801e+03  -1.472588e+05   3.601099e+08   9.365495e+08   4.548027e+07   1.474304e+05   7.813453e-29   0.000000e+00   0.000000e+00
     1064000   1.063999e-05   2.560943e+01   1.271320e-01   4.439658e+00   4.710669e+03   5.425845e+03  -1.472552e+05   3.527207e+08   9.395340e+08   4.590200e+07   1.474304e+05   7.816323e-29   0.000000e+00   0.000000e+00
     1072000   1.071999e-05   2.560981e+01   1.275690e-01   4.427878e+00   4.738593e+03   5.501122e+03  -1.472515e+05   3.453963e+08   9.423812e+08   4.632101e+07   1.474304e+05   7.818519e-29   0.000000e+00   0.000000e+00
     1080000   1.079999e-05   2.561019e+01   1.280121e-01   4.416098e+00   4.765934e+03   5.576622e+03  -1.472478e+05   3.381392e+08   9.450928e+08   4.673732e+07   1.474304e+05   7.820039e-29   0.000000e+00   0.000000e+00
     1088000   1.087999e-05   2.561057e+01   1.284613e-01   4.404319e+00   4.792697e+03   5.652334e+03  -1.472440e+05   3.309519e+08   9.476707e+08   4.715094e+07   1.474304e+05   7.820885e-29   0.000000e+00   0.000000e+00
     1096000   1.095999e-05   2.561096e+01   1.289165e-01   4.392539e+00   4.819148e+03   5.728282e+03  -1.472402e+05   3.285643e+08   9.508765e+08   4.774701e+07   1.474304e+05   7.856266e-29   0.000000e+00   0.000000e+00
     1104000   1.103999e-05   2.561134e+01   1.293778e-01   4.380760e+00   4.845100e+03   5.804451e+03  -1.472364e+05   3.202487e+08   9.533150e+08   4.812057e+07   1.474304e+05   7.850721e-29   0.000000e+00   0.000000e+00
     1112000   1.111999e-05   2.561173e+01   1.298452e-01   4.368981e+00   4.870390e+03   5.880809e+03  -1.472325e+05   3.120092e+08   9.556067e+08   4.849022e+07   1.474304e+05   7.844532e-29   0.000000e+00   0.000000e+00
     1120000   1.119999e-05   2.561212e+01   1.303188e-01   4.357203e+00   4.895024e+03   5.957344e+03  -1.472286e+05   3.038480e+08   9.577537e+08   4.885601e+07   1.474304e+05   7.837697e-29   0.000000e+00   0.000000e+00
     1128000   1.127999e-05   2.561251e+01   1.307984e-01   4.345425e+00   4.919008e+03   6.034046e+03  -1.472247e+05   2.957678e+08   9.597581e+08   4.921796e+07   1.474304e+05   7.830215e-29   0.000000e+00   0.000000e+00
     1136000   1.135999e-05   2.561291e+01   1.312842e-01   4.333647e+00   4.942349e+03   6.110902e+03  -1.472207e+05   2.877709e+08   9.616221e+08   4.957612e+07   1.474304e+05   7.822086e-29   0.000000e+00   0.000000e+00
     1144000   1.143999e-05   2.561331e+01   1.317762e-01   4.321869e+00   4.965053e+03   6.187902e+03  -1.472168e+05   2.798597e+08   9.633479e+08   4.993053e+07   1.474304e+05   7.813308e-29   0.000000e+00   0.000000e+00
     1152000   1.151999e-05   2.561370e+01   1.322743e-01   4.310092e+00   4.987129e+03   6.265034e+03  -1.472127e+05   2.720365e+08   9.649376e+08   5.028123e+07   1.474304e+05   7.803882e-29   0.000000e+00   0.000000e+00
     1160000   1.159999e-05   2.561410e+01   1.327786e-01   4.298315e+00   5.008618e+03   6.342283e+03  -1.472087e+05   2.676166e+08   9.659359e+08   5.072130e+07   1.474304e+05   7.800681e-29   0.000000e+00   0.000000e+00
     1168000   1.167999e-05   2.561450e+01   1.332891e-01   4.286539e+00   5.029790e+03   6.419617e+03  -1.472046e+05   2.616888e+08   9.674075e+08   5.113029e+07   1.474304e+05   7.798740e-29   0.000000e+00   0.000000e+00
     1176000   1.175999e-05   2.561491e+01   1.338057e-01   4.274763e+00   5.050491e+03   6.497065e+03  -1.472005e+05   2.558550e+08   9.687740e+08   5.153766e+07   1.474304e+05   7.796170e-29   0.000000e+00   0.000000e+00
     1184000   1.183999e-05   2.561531e+01   1.343286e-01   4.262987e+00   5.070729e+03   6.574618e+03  -1.471964e+05   2.501167e+08   9.700372e+08   5.194345e+07   1.474304e+05   7.792978e-29   0.000000e+00   0.000000e+00
     1192000   1.191999e-05   2.561572e+01   1.348577e-01   4.251211e+00   5.090512e+03   6.652268e+03  -1.471922e+05   2.444756e+08   9.711993e+08   5.234771e+07   1.474304e+05   7.789168e-29   0.000000e+00   0.000000e+00
     1200000   1.199999e-05   2.561613e+01   1.353930e-01   4.239436e+00   5.109848e+03   6.730008e+03  -1.471880e+05   2.389335e+08   9.722625e+08   5.275047e+07   1.474304e+05   7.784749e-29   0.000000e+00   0.000000e+00
     1208000   1.207999e-05   2.561654e+01   1.359345e-01   4.227661e+00   5.128744e+03   6.807828e+03  -1.471838e+05   2.334919e+08   9.732287e+08   5.315180e+07   1.474304e+05   7.779726e-29   0.000000e+00   0.000000e+00
     1216000   1.215999e-05   2.561695e+01   1.364822e-01   4.215887e+00   5.147209e+03   6.885722e+03  -1.471795e+05   2.281523e+08   9.741000e+08   5.355174e+07   1.474304e+05   7.774108e-29   0.000000e+00   0.000000e+00
     1224000   1.223999e-05   2.561736e+01   1.370362e-01   4.204112e+00   5.165251e+03   6.963681e+03  -1.471752e+05   2.229162e+08   9.748787e+08   5.395034e+07   1.474304e+05   7.767901e-29   0.000000e+00   0.000000e+00
     1232000   1.231999e-05   2.561777e+01   1.375964e-01   4.192339e+00   5.182598e+03   7.041665e+03  -1.471709e+05   2.118155e+08   9.748062e+08   5.410040e+07   1.474304e+05   7.729559e-29   0.000000e+00   0.000000e+00
     1240000   1.239999e-05   2.561819e+01   1.381629e-01   4.180565e+00   5.199269e+03   7.119662e+03  -1.471665e+05   2.049801e+08   9.750900e+08   5.441487e+07   1.474304e+05   7.712045e-29   0.000000e+00   0.000000e+00
     1248000   1.247999e-05   2.561861e+01   1.387355e-01   4.168792e+00   5.215398e+03   7.197677e+03  -1.471622e+05   1.982567e+08   9.752623e+08   5.472602e+07   1.474304e+05   7.693913e-29   0.000000e+00   0.000000e+00
     1256000   1.255999e-05   2.561902e+01   1.393145e-01   4.157019e+00   5.230993e+03   7.275701e+03  -1.471578e+05   1.916469e+08   9.753253e+08   5.503391e+07   1.474304e+05   7.675167e-29   0.000000e+00   0.000000e+00
     1264000   1.263999e-05   2.561944e+01   1.398997e-01   4.145247e+00   5.246065e+03   7.353726e+03  -1.471534e+05   1.851521e+08   9.752815e+08   5.533861e+07   1.474304e+05   7.655814e-29   0.000000e+00   0.000000e+00
     1272000   1.271999e-05   2.561986e+01   1.404911e-01   4.133475e+00   5.260621e+03   7.431743e+03  -1.471489e+05   1.787740e+08   9.751334e+08   5.564018e+07   1.474304e+05   7.635858e-29   0.000000e+00   0.000000e+00
     1280000   1.279999e-05   2.562028e+01   1.410887e-01   4.121703e+00   5.274672e+03   7.509745e+03  -1.471445e+05   1.725139e+08   9.748832e+08   5.593869e+07   1.474304e+05   7.615307e-29   0.000000e+00   0.000000e+00
     1288000   1.287999e-05   2.562071e+01   1.416926e-01   4.109932e+00   5.288226e+03   7.587722e+03  -1.471400e+05   1.663732e+08   9.745335e+08   5.623420e+07   1.474304e+05   7.594167e-29   0.000000e+00   0.000000e+00
     1296000   1.295999e-05   2.562113e+01   1.423028e-01   4.098160e+00   5.301279e+03   7.665677e+03  -1.471355e+05   1.589382e+08   9.749123e+08   5.651886e+07   1.474304e+05   7.581402e-29   0.000000e+00   0.000000e+00
     1304000   1.303999e-05   2.562156e+01   1.429191e-01   4.086390e+00   5.313650e+03   7.743665e+03  -1.471309e+05   1.503425e+08   9.747498e+08   5.673173e+07   1.474304e+05   7.558546e-29   0.000000e+00   0.000000e+00
     1312000   1.311999e-05   2.562198e+01   1.435418e-01   4.074620e+00   5.325337e+03   7.821634e+03  -1.471264e+05   1.418644e+08   9.744579e+08   5.693960e+07   1.474304e+05   7.535136e-29   0.000000e+00   0.000000e+00
     1320000   1.319999e-05   2.562241e+01   1.441706e-01   4.062850e+00   5.336351e+03   7.899574e+03  -1.471218e+05   1.335057e+08   9.740392e+08   5.714256e+07   1.474304e+05   7.511171e-29   0.000000e+00   0.000000e+00
     1328000   1.327999e-05   2.562283e+01   1.448057e-01   4.051080e+00   5.346701e+03   7.977477e+03  -1.471173e+05   1.252680e+08   9.734965e+08   5.734070e+07   1.474304e+05   7.486651e-29   0.000000e+00   0.000000e+00
     1336000   1.335999e-05   2.562326e+01   1.454470e-01   4.039311e+00   5.356397e+03   8.055331e+03  -1.471127e+05   1.171530e+08   9.728322e+08   5.753409e+07   1.474304e+05   7.461575e-29   0.000000e+00   0.000000e+00
     1344000   1.343999e-05   2.562369e+01   1.460945e-01   4.027542e+00   5.365449e+03   8.133127e+03  -1.471081e+05   1.091622e+08   9.720492e+08   5.772284e+07   1.474304e+05   7.435943e-29   0.000000e+00   0.000000e+00
     1352000   1.351999e-05   2.562412e+01   1.467483e-01   4.015774e+00   5.373866e+03   8.210855e+03  -1.471034e+05   1.012971e+08   9.711500e+08   5.790701e+07   1.474304e+05   7.409756e-29   0.000000e+00   0.000000e+00
     1360000   1.359999e-05   2.562455e+01   1.474083e-01   4.004005e+00   5.381660e+03   8.288508e+03  -1.470988e+05   9.355926e+07   9.701373e+08   5.808671e+07   1.474304e+05   7.383014e-29   0.000000e+00   0.000000e+00
     1368000   1.367999e-05   2.562498e+01   1.480745e-01   3.992238e+00   5.388874e+03   8.366047e+03  -1.470941e+05   8.705329e+07   9.685434e+08   5.827553e+07   1.474304e+05   7.350151e-29   0.000000e+00   0.000000e+00
     1376000   1.375999e-05   2.562541e+01   1.487468e-01   3.980470e+00   5.395592e+03   8.443489e+03  -1.470895e+05   8.092890e+07   9.674966e+08   5.850655e+07   1.474304e+05   7.326696e-29   0.000000e+00   0.000000e+00
     1384000   1.383999e-05   2.562585e+01   1.494254e-01   3.968703e+00   5.401826e+03   8.520844e+03  -1.470848e+05   7.493173e+07   9.663623e+08   5.873471e+07   1.474304e+05   7.302677e-29   0.000000e+00   0.000000e+00
     1392000   1.391999e-05   2.562628e+01   1.501102e-01   3.956937e+00   5.407585e+03   8.598104e+03  -1.470801e+05   6.906279e+07   9.651431e+08   5.896010e+07   1.474304e+05   7.278099e-29   0.000000e+00   0.000000e+00
     1400000   1.399999e-05   2.562671e+01   1.508011e-01   3.945171e+00   5.412879e+03   8.675264e+03  -1.470753e+05   6.332301e+07   9.638413e+08   5.918279e+07   1.474304e+05   7.252970e-29   0.000000e+00   0.000000e+00
     1408000   1.407999e-05   2.562714e+01   1.514982e-01   3.933405e+00   5.417720e+03   8.752317e+03  -1.470706e+05   5.771330e+07   9.624594e+08   5.940287e+07   1.474304e+05   7.227297e-29   0.000000e+00   0.000000e+00
     1416000   1.415999e-05   2.562758e+01   1.522015e-01   3.921639e+00   5.422117e+03   8.829256e+03  -1.470658e+05   5.223450e+07   9.609998e+08   5.962041e+07   1.474304e+05   7.201088e-29   0.000000e+00   0.000000e+00
     1424000   1.423999e-05   2.562801e+01   1.529109e-01   3.909874e+00   5.426081e+03   8.906075e+03  -1.470611e+05   4.688741e+07   9.594647e+08   5.983549e+07   1.474304e+05   7.174351e-29   0.000000e+00   0.000000e+00
     1432000   1.431999e-05   2.562845e+01   1.536264e-01   3.898110e+00   5.429661e+03   8.982811e+03  -1.470563e+05   4.485328e+07   9.611285e+08   6.036577e+07   1.474304e+05   7.198148e-29   0.000000e+00   0.000000e+00
     1440000   1.439999e-05   2.562888e+01   1.543481e-01   3.886345e+00   5.433112e+03   9.059623e+03  -1.470514e+05   4.142464e+07   9.591706e+08   6.062355e+07   1.474304e+05   7.166980e-29   0.000000e+00   0.000000e+00
     1448000   1.447999e-05   2.562932e+01   1.550760e-01   3.874581e+00   5.436293e+03   9.136277e+03  -1.470466e+05   3.813415e+07   9.571662e+08   6.088028e+07   1.474304e+05   7.135447e-29   0.000000e+00   0.000000e+00
     1456000   1.455999e-05   2.562975e+01   1.558099e-01   3.862818e+00   5.439217e+03   9.212768e+03  -1.470417e+05   3.498210e+07   9.551177e+08   6.113603e+07   1.474304e+05   7.103565e-29   0.000000e+00   0.000000e+00
     1464000   1.463999e-05   2.563019e+01   1.565500e-01   3.851055e+00   5.441894e+03   9.289094e+03  -1.470368e+05   3.196874e+07   9.530272e+08   6.139091e+07   1.474304e+05   7.071351e-29   0.000000e+00   0.000000e+00
     1472000   1.471999e-05   2.563062e+01   1.572962e-01   3.839292e+00   5.444335e+03   9.365252e+03  -1.470319e+05   2.909427e+07   9.508969e+08   6.164500e+07   1.474304e+05   7.038821e-29   0.000000e+00   0.000000e+00
     1480000   1.479999e-05   2.563106e+01   1.580485e-01   3.827530e+00   5.446553e+03   9.441237e+03  -1.470269e+05   2.635888e+07   9.487289e+08   6.189840e+07   1.474304e+05   7.005993e-29   0.000000e+00   0.000000e+00
     1488000   1.487999e-05   2.563149e+01   1.588068e-01   3.815768e+00   5.448557e+03   9.517047e+03  -1.470219e+05   2.376271e+07   9.465254e+08   6.215120e+07   1.474304e+05   6.972884e-29   0.000000e+00   0.000000e+00
     1496000   1.495999e-05   2.563193e+01   1.595712e-01   3.804006e+00   5.450358e+03   9.592680e+03  -1.470170e+05   2.130585e+07   9.442884e+08   6.240349e+07   1.474304e+05   6.939513e-29   0.000000e+00   0.000000e+00
     1504000   1.503999e-05   2.563236e+01   1.603416e-01   3.792245e+00   5.451889e+03   9.668054e+03  -1.470120e+05   1.809033e+07   9.406808e+08   6.253348e+07   1.474304e+05   6.885990e-29   0.000000e+00   0.000000e+00
     1512000   1.511999e-05   2.563280e+01   1.611181e-01   3.780484e+00   5.453323e+03   9.743235e+03  -1.470070e+05   1.777209e+07   9.388586e+08   6.288429e+07   1.474304e+05   6.859717e-29   0.000000e+00   0.000000e+00
     1520000   1.519999e-05   2.563324e+01   1.619005e-01   3.768724e+00   5.454736e+03   9.818271e+03  -1.470019e+05   1.758725e+07   9.370328e+08   6.323705e+07   1.474304e+05   6.833485e-29   0.000000e+00   0.000000e+00
     1528000   1.527999e-05   2.563367e+01   1.626890e-01   3.756964e+00   5.456140e+03   9.893161e+03  -1.469968e+05   1.753554e+07   9.352053e+08   6.359187e+07   1.474304e+05   6.807320e-29   0.000000e+00   0.000000e+00
     1536000   1.535999e-05   2.563411e+01   1.634834e-01   3.745204e+00   5.457546e+03   9.967904e+03  -1.469917e+05   1.761669e+07   9.333777e+08   6.394886e+07   1.474304e+05   6.781247e-29   0.000000e+00   0.000000e+00
     1544000   1.543999e-05   2.563455e+01   1.642838e-01   3.733445e+00   5.458963e+03   1.004250e+04  -1.469866e+05   1.783039e+07   9.315517e+08   6.430814e+07   1.474304e+05   6.755289e-29   0.000000e+00   0.000000e+00
     1552000   1.551999e-05   2.563498e+01   1.650902e-01   3.721686e+00   5.460402e+03   1.011695e+04  -1.469814e+05   1.817631e+07   9.297291e+08   6.466983e+07   1.474304e+05   6.729473e-29   0.000000e+00   0.000000e+00
     1560000   1.559999e-05   2.563542e+01   1.659025e-01   3.709928e+00   5.461874e+03   1.019126e+04  -1.469763e+05   1.865411e+07   9.279113e+08   6.503405e+07   1.474304e+05   6.703824e-29   0.000000e+00   0.000000e+00
     1568000   1.567999e-05   2.563586e+01   1.667208e-01   3.698170e+00   5.463435e+03   1.026541e+04  -1.469710e+05   2.277742e+07   9.251168e+08   6.546279e+07   1.474304e+05   6.665477e-29   0.000000e+00   0.000000e+00
     1576000   1.575999e-05   2.563629e+01   1.675450e-01   3.686413e+00   5.465253e+03   1.033933e+04  -1.469658e+05   2.269403e+07   9.230108e+08   6.577949e+07   1.474304e+05   6.635624e-29   0.000000e+00   0.000000e+00
     1584000   1.583999e-05   2.563673e+01   1.683751e-01   3.674656e+00   5.467069e+03   1.041309e+04  -1.469605e+05   2.274618e+07   9.209037e+08   6.609801e+07   1.474304e+05   6.605878e-29   0.000000e+00   0.000000e+00
     1592000   1.591999e-05   2.563717e+01   1.692111e-01   3.662899e+00   5.468896e+03   1.048668e+04  -1.469552e+05   2.293355e+07   9.187975e+08   6.641850e+07   1.474304e+05   6.576264e-29   0.000000e+00   0.000000e+00
     1600000   1.599999e-05   2.563761e+01   1.700530e-01   3.651143e+00   5.470742e+03   1.056010e+04  -1.469499e+05   2.325577e+07   9.166937e+08   6.674106e+07   1.474304e+05   6.546805e-29   0.000000e+00   0.000000e+00
     1608000   1.607999e-05   2.563804e+01   1.709007e-01   3.639387e+00   5.472620e+03   1.063335e+04  -1.469445e+05   2.371245e+07   9.145939e+08   6.706582e+07   1.474304e+05   6.517527e-29   0.000000e+00   0.000000e+00
     1616000   1.615999e-05   2.563848e+01   1.717543e-01   3.627632e+00   5.474540e+03   1.070643e+04  -1.469392e+05   2.430321e+07   9.124999e+08   6.739291e+07   1.474304e+05   6.488456e-29   0.000000e+00   0.000000e+00
     1624000   1.623999e-05   2.563892e+01   1.726137e-01   3.615877e+00   5.476512e+03   1.077935e+04  -1.469338e+05   2.502762e+07   9.104132e+08   6.772246e+07   1.474304e+05   6.459617e-29   0.000000e+00   0.000000e+00
     1632000   1.631999e-05   2.563936e+01   1.734790e-01   3.604122e+00   5.478548e+03   1.085210e+04  -1.469283e+05   2.588524e+07   9.083352e+08   6.805459e+07   1.474304e+05   6.431036e-29   0.000000e+00   0.000000e+00
     1640000   1.639999e-05   2.563980e+01   1.743501e-01   3.592368e+00   5.480827e+03   1.092466e+04  -1.469229e+05   2.917930e+07   9.057469e+08   6.843656e+07   1.474304e+05   6.396479e-29   0.000000e+00   0.000000e+00
     1648000   1.647999e-05   2.564024e+01   1.752269e-01   3.580615e+00   5.483087e+03   1.099702e+04  -1.469174e+05   2.736015e+07   9.032909e+08   6.863395e+07   1.474304e+05   6.361483e-29   0.000000e+00   0.000000e+00
     1656000   1.655999e-05   2.564067e+01   1.761096e-01   3.568862e+00   5.485208e+03   1.106919e+04  -1.469119e+05   2.567885e+07   9.008125e+08   6.883110e+07   1.474304e+05   6.326373e-29   0.000000e+00   0.000000e+00
     1664000   1.663999e-05   2.564111e+01   1.769980e-01   3.557109e+00   5.487200e+03   1.114115e+04  -1.469064e+05   2.413526e+07   8.983134e+08   6.902814e+07   1.474304e+05   6.291166e-29   0.000000e+00   0.000000e+00
     1672000   1.671999e-05   2.564155e+01   1.778922e-01   3.545357e+00   5.489073e+03   1.121292e+04  -1.469008e+05   2.272922e+07   8.957956e+08   6.922517e+07   1.474304e+05   6.255882e-29   0.000000e+00   0.000000e+00
     1680000   1.679999e-05   2.564199e+01   1.787921e-01   3.533605e+00   5.490840e+03   1.128448e+04  -1.468953e+05   2.146055e+07   8.932608e+08   6.942232e+07   1.474304e+05   6.220539e-29   0.000000e+00   0.000000e+00
     1688000   1.687999e-05   2.564243e+01   1.796977e-01   3.521853e+00   5.492511e+03   1.135584e+04  -1.468897e+05   2.032903e+07   8.907110e+08   6.961970e+07   1.474304e+05   6.185155e-29   0.000000e+00   0.000000e+00
     1696000   1.695999e-05   2.564287e+01   1.806090e-01   3.510102e+00   5.494096e+03   1.142699e+04  -1.468841e+05   1.933442e+07   8.881478e+08   6.981744e+07   1.474304e+05   6.149751e-29   0.000000e+00   0.000000e+00
     1704000   1.703999e-05   2.564331e+01   1.815260e-01   3.498352e+00   5.495580e+03   1.149793e+04  -1.468786e+05   1.595409e+07   8.845700e+08   6.984268e+07   1.474304e+05   6.099733e-29   0.000000e+00   0.000000e+00
     1712000   1.711999e-05   2.564375e+01   1.824486e-01   3.486602e+00   5.496809e+03   1.156860e+04  -1.468730e+05   1.480132e+07   8.821718e+08   7.003906e+07   1.474304e+05   6.066857e-29   0.000000e+00   0.000000e+00
     1720000   1.719999e-05   2.564419e+01   1.833770e-01   3.474852e+00   5.497952e+03   1.163908e+04  -1.468674e+05   1.378147e+07   8.797605e+08   7.023591e+07   1.474304e+05   6.033942e-29   0.000000e+00   0.000000e+00
     1728000   1.727999e-05   2.564463e+01   1.843109e-01   3.463103e+00   5.499018e+03   1.170936e+04  -1.468617e+05   1.289430e+07   8.773379e+08   7.043335e+07   1.474304e+05   6.001006e-29   0.000000e+00   0.000000e+00
     1736000   1.735999e-05   2.564507e+01   1.852504e-01   3.451354e+00   5.500018e+03   1.177945e+04  -1.468561e+05   1.213955e+07   8.749055e+08   7.063150e+07   1.474304e+05   5.968067e-29   0.000000e+00   0.000000e+00
     1744000   1.743999e-05   2.564551e+01   1.861956e-01   3.439606e+00   5.500964e+03   1.184934e+04  -1.468504e+05   1.151694e+07   8.724651e+08   7.083048e+07   1.474304e+05   5.935145e-29   0.000000e+00   0.000000e+00
     1752000   1.751999e-05   2.564595e+01   1.871463e-01   3.427858e+00   5.501864e+03   1.191904e+04  -1.468447e+05   1.102616e+07   8.700182e+08   7.103041e+07   1.474304e+05   5.902258e-29   0.000000e+00   0.000000e+00
     1760000   1.759999e-05   2.564639e+01   1.881026e-01   3.416111e+00   5.502731e+03   1.198855e+04  -1.468391e+05   1.066690e+07   8.675665e+08   7.123140e+07   1.474304e+05   5.869426e-29   0.000000e+00   0.000000e+00
     1768000   1.767999e-05   2.564683e+01   1.890645e-01   3.404364e+00   5.503575e+03   1.205785e+04  -1.468334e+05   1.043881e+07   8.651116e+08   7.143359e+07   1.474304e+05   5.836669e-29   0.000000e+00   0.000000e+00
     1776000   1.775999e-05   2.564727e+01   1.900319e-01   3.392618e+00   5.503878e+03   1.212718e+04  -1.468276e+05   5.369031e+05   8.669588e+08   7.162627e+07   1.474304e+05   5.860820e-29   0.000000e+00   0.000000e+00
     1784000   1.783999e-05   2.564771e+01   1.910048e-01   3.380872e+00   5.504009e+03   1.219644e+04  -1.468219e+05   2.760998e+06   8.644252e+08   7.191092e+07   1.474304e+05   5.827220e-29   0.000000e+00   0.000000e+00
     1792000   1.791999e-05   2.564815e+01   1.919833e-01   3.369126e+00   5.504323e+03   1.226549e+04  -1.468161e+05   5.114764e+06   8.619191e+08   7.219921e+07   1.474304e+05   5.794179e-29   0.000000e+00   0.000000e+00
     1800000   1.799999e-05   2.564859e+01   1.929673e-01   3.357381e+00   5.504830e+03   1.233435e+04  -1.468103e+05   7.597477e+06   8.594417e+08   7.249126e+07   1.474304e+05   5.761723e-29   0.000000e+00   0.000000e+00
     1808000   1.807999e-05   2.564903e+01   1.939568e-01   3.345636e+00   5.505542e+03   1.240300e+04  -1.468045e+05   1.020840e+07   8.569942e+08   7.278724e+07   1.474304e+05   5.729880e-29   0.000000e+00   0.000000e+00
     1816000   1.815999e-05   2.564947e+01   1.949518e-01   3.333892e+00   5.506467e+03   1.247147e+04  -1.467987e+05   1.294680e+07   8.545777e+08   7.308730e+07   1.474304e+05   5.698678e-29   0.000000e+00   0.000000e+00
     1824000   1.823999e-05   2.564991e+01   1.959522e-01   3.322149e+00   5.507617e+03   1.253974e+04  -1.467928e+05   1.581193e+07   8.521933e+08   7.339159e+07   1.474304e+05   5.668144e-29   0.000000e+00   0.000000e+00
     1832000   1.831999e-05   2.565035e+01   1.969581e-01   3.310405e+00   5.509001e+03   1.260782e+04  -1.467869e+05   1.880303e+07   8.498423e+08   7.370025e+07   1.474304e+05   5.638306e-29   0.000000e+00   0.000000e+00
     1840000   1.839999e-05   2.565079e+01   1.979695e-01   3.298663e+00   5.510742e+03   1.267571e+04  -1.467810e+05   3.434859e+07   8.474468e+08   7.447331e+07   1.474304e+05   5.614103e-29   0.000000e+00   0.000000e+00
     1848000   1.847999e-05   2.565124e+01   1.989863e-01   3.286920e+00   5.513639e+03   1.274342e+04  -1.467751e+05   3.811149e+07   8.453468e+08   7.482700e+07   1.474304e+05   5.589092e-29   0.000000e+00   0.000000e+00
     1856000   1.855999e-05   2.565168e+01   2.000084e-01   3.275179e+00   5.516835e+03   1.281097e+04  -1.467691e+05   3.030735e+07   8.449647e+08   7.489324e+07   1.474304e+05   5.580032e-29   0.000000e+00   0.000000e+00
     1864000   1.863999e-05   2.565212e+01   2.010360e-01   3.263437e+00   5.519459e+03   1.287848e+04  -1.467631e+05   3.531560e+07   8.428245e+08   7.528607e+07   1.474304e+05   5.555058e-29   0.000000e+00   0.000000e+00
     1872000   1.871999e-05   2.565256e+01   2.020690e-01   3.251697e+00   5.522489e+03   1.294582e+04  -1.467570e+05   4.044545e+07   8.407392e+08   7.568573e+07   1.474304e+05   5.531345e-29   0.000000e+00   0.000000e+00
     1880000   1.879999e-05   2.565300e+01   2.031073e-01   3.239956e+00   5.525934e+03   1.301300e+04  -1.467509e+05   4.569591e+07   8.387096e+08   7.609241e+07   1.474304e+05   5.508927e-29   0.000000e+00   0.000000e+00
     1888000   1.887999e-05   2.565344e+01   2.041511e-01   3.228216e+00   5.529803e+03   1.308002e+04  -1.467448e+05   5.106604e+07   8.367364e+08   7.650630e+07   1.474304e+05   5.487837e-29   0.000000e+00   0.000000e+00
     1896000   1.895999e-05   2.565389e+01   2.052001e-01   3.216477e+00   5.534108e+03   1.314688e+04  -1.467387e+05   5.655489e+07   8.348203e+08   7.692760e+07   1.474304e+05   5.468107e-29   0.000000e+00   0.000000e+00
     1904000   1.903999e-05   2.565433e+01   2.062546e-01   3.204738e+00   5.538855e+03   1.321359e+04  -1.467325e+05   6.216148e+07   8.329620e+08   7.735650e+07   1.474304e+05   5.449772e-29   0.000000e+00   0.000000e+00
     1912000   1.911999e-05   2.565477e+01   2.073143e-01   3.193000e+00   5.543894e+03   1.327999e+04  -1.467263e+05   6.445692e+07   8.278053e+08   7.735886e+07   1.474304e+05   5.385698e-29   0.000000e+00   0.000000e+00
     1920000   1.919999e-05   2.565522e+01   2.083794e-01   3.181262e+00   5.549281e+03   1.334615e+04  -1.467201e+05   7.024655e+07   8.262144e+08   7.781205e+07   1.474304e+05   5.371903e-29   0.000000e+00   0.000000e+00
     1928000   1.927999e-05   2.565566e+01   2.094497e-01   3.169525e+00   5.555136e+03   1.341219e+04  -1.467139e+05   7.614877e+07   8.246825e+08   7.827348e+07   1.474304e+05   5.359566e-29   0.000000e+00   0.000000e+00
     1936000   1.935999e-05   2.565610e+01   2.105253e-01   3.157788e+00   5.561468e+03   1.347810e+04  -1.467076e+05   8.216266e+07   8.232100e+08   7.874334e+07   1.474304e+05   5.348718e-29   0.000000e+00   0.000000e+00
     1944000   1.943999e-05   2.565655e+01   2.116062e-01   3.146051e+00   5.568285e+03   1.354390e+04  -1.467013e+05   8.828732e+07   8.217975e+08   7.922185e+07   1.474304e+05   5.339394e-29   0.000000e+00   0.000000e+00
     1952000   1.951999e-05   2.565700e+01   2.126923e-01   3.134316e+00   5.575597e+03   1.360959e+04  -1.466949e+05   9.452186e+07   8.204455e+08   7.970921e+07   1.474304e+05   5.331624e-29   0.000000e+00   0.000000e+00
     1960000   1.959999e-05   2.565744e+01   2.137837e-01   3.122580e+00   5.583412e+03   1.367518e+04  -1.466885e+05   1.008654e+08   8.191544e+08   8.020563e+07   1.474304e+05   5.325443e-29   0.000000e+00   0.000000e+00
     1968000   1.967999e-05   2.565789e+01   2.148803e-01   3.110845e+00   5.591738e+03   1.374066e+04  -1.466821e+05   1.073170e+08   8.179246e+08   8.071131e+07   1.474304e+05   5.320882e-29   0.000000e+00   0.000000e+00
     1976000   1.975999e-05   2.565834e+01   2.159822e-01   3.099111e+00   5.600693e+03   1.380608e+04  -1.466756e+05   1.314928e+08   8.222609e+08   8.241753e+07   1.474304e+05   5.422836e-29   0.000000e+00   0.000000e+00
     1984000   1.983999e-05   2.565879e+01   2.170893e-01   3.087377e+00   5.611390e+03   1.387180e+04  -1.466690e+05   1.359597e+08   8.206491e+08   8.281771e+07   1.474304e+05   5.412092e-29   0.000000e+00   0.000000e+00
     1992000   1.991999e-05   2.565923e+01   2.182017e-01   3.075644e+00   5.622449e+03   1.393738e+04  -1.466624e+05   1.405410e+08   8.190757e+08   8.322483e+07   1.474304e+05   5.402445e-29   0.000000e+00   0.000000e+00
     2000000   1.999999e-05   2.565968e+01   2.193193e-01   3.063911e+00   5.633880e+03   1.400285e+04  -1.466557e+05   1.452359e+08   8.175414e+08   8.363905e+07   1.474304e+05   5.393924e-29   0.000000e+00   0.000000e+00
     2008000   2.007999e-05   2.566014e+01   2.204422e-01   3.052179e+00   5.645690e+03   1.406819e+04  -1.466490e+05   1.500440e+08   8.160468e+08   8.406057e+07   1.474304e+05   5.386557e-29   0.000000e+00   0.000000e+00
     2016000   2.015999e-05   2.566059e+01   2.215702e-01   3.040447e+00   5.657890e+03   1.413342e+04  -1.466422e+05   1.549645e+08   8.145925e+08   8.448957e+07   1.474304e+05   5.380374e-29   0.000000e+00   0.000000e+00
     2024000   2.023999e-05   2.566104e+01   2.227035e-01   3.028716e+00   5.670487e+03   1.419853e+04  -1.466355e+05   1.599967e+08   8.131791e+08   8.492623e+07   1.474304e+05   5.375404e-29   0.000000e+00   0.000000e+00
     2032000   2.031999e-05   2.566150e+01   2.238420e-01   3.016986e+00   5.683492e+03   1.426353e+04  -1.466287e+05   1.651399e+08   8.118072e+08   8.537075e+07   1.474304e+05   5.371675e-29   0.000000e+00   0.000000e+00
     2040000   2.039999e-05   2.566195e+01   2.249857e-01   3.005256e+00   5.696913e+03   1.432842e+04  -1.466218e+05   1.703935e+08   8.104772e+08   8.582330e+07   1.474304e+05   5.369218e-29   0.000000e+00   0.000000e+00
     2048000   2.047999e-05   2.566241e+01   2.261345e-01   2.993526e+00   5.710382e+03   1.439318e+04  -1.466149e+05   1.672652e+08   8.087332e+08   8.590791e+07   1.474304e+05   5.339278e-29   0.000000e+00   0.000000e+00
     2056000   2.055999e-05   2.566286e+01   2.272886e-01   2.981797e+00   5.723986e+03   1.445785e+04  -1.466081e+05   1.728503e+08   8.079160e+08   8.642165e+07   1.474304e+05   5.344443e-29   0.000000e+00   0.000000e+00
     2064000   2.063999e-05   2.566332e+01   2.284478e-01   2.970069e+00   5.738041e+03   1.452245e+04  -1.466011e+05   1.785385e+08   8.071439e+08   8.694448e+07   1.474304e+05   5.350967e-29   0.000000e+00   0.000000e+00
     2072000   2.071999e-05   2.566378e+01   2.296122e-01   2.958341e+00   5.752555e+03   1.458699e+04  -1.465941e+05   1.843291e+08   8.064173e+08   8.747660e+07   1.474304e+05   5.358879e-29   0.000000e+00   0.000000e+00
     2080000   2.079999e-05   2.566424e+01   2.307817e-01   2.946614e+00   5.767536e+03   1.465148e+04  -1.465871e+05   1.902215e+08   8.057366e+08   8.801818e+07   1.474304e+05   5.368209e-29   0.000000e+00   0.000000e+00
     2088000   2.087999e-05   2.566471e+01   2.319564e-01   2.934887e+00   5.782993e+03   1.471591e+04  -1.465801e+05   1.962152e+08   8.051021e+08   8.856944e+07   1.474304e+05   5.378985e-29   0.000000e+00   0.000000e+00
     2096000   2.095999e-05   2.566517e+01   2.331362e-01   2.923161e+00   5.798933e+03   1.478029e+04  -1.465729e+05   2.023095e+08   8.045141e+08   8.913055e+07   1.474304e+05   5.391238e-29   0.000000e+00   0.000000e+00
     2104000   2.103999e-05   2.566563e+01   2.343212e-01   2.911436e+00   5.815365e+03   1.484463e+04  -1.465658e+05   2.085039e+08   8.039730e+08   8.970171e+07   1.474304e+05   5.404996e-29   0.000000e+00   0.000000e+00
     2112000   2.111999e-05   2.566610e+01   2.355114e-01   2.899711e+00   5.832267e+03   1.490893e+04  -1.465586e+05   1.996857e+08   8.034432e+08   8.967807e+07   1.474304e+05   5.370490e-29   0.000000e+00   0.000000e+00
     2120000   2.119999e-05   2.566657e+01   2.367067e-01   2.887986e+00   5.848517e+03   1.497319e+04  -1.465514e+05   2.065850e+08   8.030121e+08   9.028818e+07   1.474304e+05   5.387685e-29   0.000000e+00   0.000000e+00
     2128000   2.127999e-05   2.566703e+01   2.379071e-01   2.876262e+00   5.865323e+03   1.503741e+04  -1.465442e+05   2.135807e+08   8.026347e+08   9.090954e+07   1.474304e+05   5.406628e-29   0.000000e+00   0.000000e+00
     2136000   2.135999e-05   2.566750e+01   2.391126e-01   2.864539e+00   5.882693e+03   1.510161e+04  -1.465369e+05   2.206718e+08   8.023112e+08   9.154235e+07   1.474304e+05   5.427349e-29   0.000000e+00   0.000000e+00
     2144000   2.143999e-05   2.566798e+01   2.403233e-01   2.852817e+00   5.900633e+03   1.516578e+04  -1.465295e+05   2.278580e+08   8.020417e+08   9.218683e+07   1.474304e+05   5.449880e-29   0.000000e+00   0.000000e+00
     2152000   2.151999e-05   2.566845e+01   2.415392e-01   2.841094e+00   5.919152e+03   1.522994e+04  -1.465221e+05   2.351386e+08   8.018262e+08   9.284318e+07   1.474304e+05   5.474251e-29   0.000000e+00   0.000000e+00
     2160000   2.159999e-05   2.566892e+01   2.427601e-01   2.829373e+00   5.938258e+03   1.529408e+04  -1.465146e+05   2.425129e+08   8.016650e+08   9.351163e+07   1.474304e+05   5.500493e-29   0.000000e+00   0.000000e+00
     2168000   2.167999e-05   2.566940e+01   2.439862e-01   2.817652e+00   5.957957e+03   1.535821e+04  -1.465071e+05   2.499804e+08   8.015579e+08   9.419239e+07   1.474304e+05   5.528636e-29   0.000000e+00   0.000000e+00
     2176000   2.175999e-05   2.566988e+01   2.452174e-01   2.805932e+00   5.978257e+03   1.542233e+04  -1.464996e+05   2.575405e+08   8.015051e+08   9.488567e+07   1.474304e+05   5.558711e-29   0.000000e+00   0.000000e+00
     2184000   2.183999e-05   2.567036e+01   2.464538e-01   2.794212e+00   5.999926e+03   1.548669e+04  -1.464919e+05   2.842085e+08   8.076968e+08   9.702770e+07   1.474304e+05   5.750951e-29   0.000000e+00   0.000000e+00
     2192000   2.191999e-05   2.567084e+01   2.476953e-01   2.782493e+00   6.022937e+03   1.555132e+04  -1.464841e+05   2.910831e+08   8.080423e+08   9.775321e+07   1.474304e+05   5.786999e-29   0.000000e+00   0.000000e+00
     2200000   2.199999e-05   2.567132e+01   2.489420e-01   2.770775e+00   6.046501e+03   1.561598e+04  -1.464763e+05   2.980481e+08   8.084327e+08   9.849110e+07   1.474304e+05   5.824787e-29   0.000000e+00   0.000000e+00
     2208000   2.207999e-05   2.567180e+01   2.501939e-01   2.759057e+00   6.070627e+03   1.568067e+04  -1.464684e+05   3.051031e+08   8.088680e+08   9.924159e+07   1.474304e+05   5.864344e-29   0.000000e+00   0.000000e+00
     2216000   2.215999e-05   2.567229e+01   2.514509e-01   2.747340e+00   6.095320e+03   1.574540e+04  -1.464604e+05   3.122479e+08   8.093482e+08   1.000049e+08   1.474304e+05   5.905700e-29   0.000000e+00   0.000000e+00
     2224000   2.223999e-05   2.567278e+01   2.527131e-01   2.735623e+00   6.120589e+03   1.581017e+04  -1.464524e+05   3.194819e+08   8.098734e+08   1.007812e+08   1.474304e+05   5.948886e-29   0.000000e+00   0.000000e+00
     2232000   2.231999e-05   2.567327e+01   2.539805e-01   2.723907e+00   6.146440e+03   1.587498e+04  -1.464443e+05   3.268049e+08   8.104434e+08   1.015707e+08   1.474304e+05   5.993930e-29   0.000000e+00   0.000000e+00
     2240000   2.239999e-05   2.567376e+01   2.552531e-01   2.712192e+00   6.172880e+03   1.593984e+04  -1.464361e+05   3.342164e+08   8.110584e+08   1.023737e+08   1.474304e+05   6.040864e-29   0.000000e+00   0.000000e+00
     2248000   2.247999e-05   2.567426e+01   2.565309e-01   2.700478e+00   6.199917e+03   1.600475e+04  -1.464279e+05   3.417161e+08   8.117182e+08   1.031904e+08   1.474304e+05   6.089717e-29   0.000000e+00   0.000000e+00
     2256000   2.255999e-05   2.567475e+01   2.578139e-01   2.688764e+00   6.227093e+03   1.606865e+04  -1.464197e+05   3.435625e+08   7.988090e+08   1.022757e+08   1.474304e+05   5.937042e-29   0.000000e+00   0.000000e+00
     2264000   2.263999e-05   2.567525e+01   2.591019e-01   2.677051e+00   6.254910e+03   1.613261e+04  -1.464115e+05   3.518695e+08   8.000114e+08   1.031830e+08   1.474304e+05   5.998115e-29   0.000000e+00   0.000000e+00
     2272000   2.271999e-05   2.567576e+01   2.603951e-01   2.665338e+00   6.283395e+03   1.619666e+04  -1.464032e+05   3.602579e+08   8.012637e+08   1.041058e+08   1.474304e+05   6.061391e-29   0.000000e+00   0.000000e+00
     2280000   2.279999e-05   2.567626e+01   2.616934e-01   2.653626e+00   6.312554e+03   1.626081e+04  -1.463948e+05   3.687273e+08   8.025656e+08   1.050445e+08   1.474304e+05   6.126899e-29   0.000000e+00   0.000000e+00
     2288000   2.287999e-05   2.567677e+01   2.629968e-01   2.641915e+00   6.342393e+03   1.632507e+04  -1.463864e+05   3.772776e+08   8.039170e+08   1.059991e+08   1.474304e+05   6.194672e-29   0.000000e+00   0.000000e+00
     2296000   2.295999e-05   2.567727e+01   2.643054e-01   2.630204e+00   6.372920e+03   1.638944e+04  -1.463779e+05   3.859083e+08   8.053174e+08   1.069701e+08   1.474304e+05   6.264740e-29   0.000000e+00   0.000000e+00
     2304000   2.303999e-05   2.567779e+01   2.656191e-01   2.618494e+00   6.404141e+03   1.645392e+04  -1.463693e+05   3.946192e+08   8.067666e+08   1.079575e+08   1.474304e+05   6.337134e-29   0.000000e+00   0.000000e+00
     2312000   2.311999e-05   2.567830e+01   2.669380e-01   2.606785e+00   6.436062e+03   1.651852e+04  -1.463606e+05   4.034102e+08   8.082643e+08   1.089617e+08   1.474304e+05   6.411887e-29   0.000000e+00   0.000000e+00
     2320000   2.319999e-05   2.567881e+01   2.682621e-01   2.595077e+00   6.468074e+03   1.658352e+04  -1.463519e+05   3.940733e+08   8.177182e+08   1.100740e+08   1.474304e+05   6.475159e-29   0.000000e+00   0.000000e+00
     2328000   2.327999e-05   2.567933e+01   2.695914e-01   2.583369e+00   6.499970e+03   1.664895e+04  -1.463430e+05   4.033254e+08   8.179829e+08   1.109732e+08   1.474304e+05   6.537190e-29   0.000000e+00   0.000000e+00
     2336000   2.335999e-05   2.567986e+01   2.709259e-01   2.571662e+00   6.532609e+03   1.671440e+04  -1.463341e+05   4.126689e+08   8.182998e+08   1.118891e+08   1.474304e+05   6.601834e-29   0.000000e+00   0.000000e+00
     2344000   2.343999e-05   2.568038e+01   2.722657e-01   2.559955e+00   6.565999e+03   1.677988e+04  -1.463251e+05   4.221031e+08   8.186687e+08   1.128219e+08   1.474304e+05   6.669127e-29   0.000000e+00   0.000000e+00
     2352000   2.351999e-05   2.568091e+01   2.736107e-01   2.548250e+00   6.600148e+03   1.684539e+04  -1.463160e+05   4.316277e+08   8.190892e+08   1.137720e+08   1.474304e+05   6.739103e-29   0.000000e+00   0.000000e+00
     2360000   2.359999e-05   2.568143e+01   2.749610e-01   2.536545e+00   6.635062e+03   1.691093e+04  -1.463069e+05   4.412422e+08   8.195609e+08   1.147396e+08   1.474304e+05   6.811798e-29   0.000000e+00   0.000000e+00
     2368000   2.367999e-05   2.568197e+01   2.763165e-01   2.524841e+00   6.670749e+03   1.697652e+04  -1.462977e+05   4.509462e+08   8.200836e+08   1.157250e+08   1.474304e+05   6.887246e-29   0.000000e+00   0.000000e+00
     2376000   2.375999e-05   2.568250e+01   2.776772e-01   2.513137e+00   6.707216e+03   1.704215e+04  -1.462884e+05   4.607392e+08   8.206569e+08   1.167285e+08   1.474304e+05   6.965483e-29   0.000000e+00   0.000000e+00
     2384000   2.383999e-05   2.568304e+01   2.790432e-01   2.501434e+00   6.744470e+03   1.710782e+04  -1.462790e+05   4.706210e+08   8.212803e+08   1.177503e+08   1.474304e+05   7.046544e-29   0.000000e+00   0.000000e+00
     2392000   2.391999e-05   2.568358e+01   2.804145e-01   2.489733e+00   6.784550e+03   1.717336e+04  -1.462695e+05   5.094670e+08   8.195872e+08   1.198580e+08   1.474304e+05   7.323767e-29   0.000000e+00   0.000000e+00
     2400000   2.399999e-05   2.568413e+01   2.817909e-01   2.478031e+00   6.825702e+03   1.723899e+04  -1.462598e+05   5.193433e+08   8.210461e+08   1.210098e+08   1.474304e+05   7.423145e-29   0.000000e+00   0.000000e+00
     2408000   2.407999e-05   2.568467e+01   2.831727e-01   2.466331e+00   6.867647e+03   1.730473e+04  -1.462501e+05   5.293019e+08   8.225499e+08   1.221815e+08   1.474304e+05   7.525372e-29   0.000000e+00   0.000000e+00
     2416000   2.415999e-05   2.568522e+01   2.845597e-01   2.454631e+00   6.910392e+03   1.737060e+04  -1.462403e+05   5.393426e+08   8.240983e+08   1.233732e+08   1.474304e+05   7.630485e-29   0.000000e+00   0.000000e+00
     2424000   2.423999e-05   2.568578e+01   2.859520e-01   2.442932e+00   6.953944e+03   1.743659e+04  -1.462304e+05   5.494650e+08   8.256907e+08   1.245854e+08   1.474304e+05   7.738518e-29   0.000000e+00   0.000000e+00
     2432000   2.431999e-05   2.568634e+01   2.873496e-01   2.431234e+00   6.998309e+03   1.750271e+04  -1.462204e+05   5.596692e+08   8.273267e+08   1.258182e+08   1.474304e+05   7.849506e-29   0.000000e+00   0.000000e+00
     2440000   2.439999e-05   2.568690e+01   2.887524e-01   2.419537e+00   7.043494e+03   1.756896e+04  -1.462102e+05   5.699550e+08   8.290058e+08   1.270721e+08   1.474304e+05   7.963486e-29   0.000000e+00   0.000000e+00
     2448000   2.447999e-05   2.568746e+01   2.901606e-01   2.407841e+00   7.089504e+03   1.763535e+04  -1.462000e+05   5.803221e+08   8.307273e+08   1.283471e+08   1.474304e+05   8.080494e-29   0.000000e+00   0.000000e+00
     2456000   2.455999e-05   2.568803e+01   2.915741e-01   2.396145e+00   7.136630e+03   1.770197e+04  -1.461897e+05   6.016437e+08   8.358924e+08   1.305882e+08   1.474304e+05   8.346834e-29   0.000000e+00   0.000000e+00
     2464000   2.463999e-05   2.568861e+01   2.929929e-01   2.384450e+00   7.185217e+03   1.776890e+04  -1.461792e+05   6.130446e+08   8.372534e+08   1.319061e+08   1.474304e+05   8.474402e-29   0.000000e+00   0.000000e+00
     2472000   2.471999e-05   2.568918e+01   2.944171e-01   2.372757e+00   7.234720e+03   1.783593e+04  -1.461686e+05   6.245317e+08   8.386614e+08   1.332476e+08   1.474304e+05   8.605531e-29   0.000000e+00   0.000000e+00
     2480000   2.479999e-05   2.568976e+01   2.958467e-01   2.361064e+00   7.285145e+03   1.790309e+04  -1.461579e+05   6.361047e+08   8.401156e+08   1.346131e+08   1.474304e+05   8.740261e-29   0.000000e+00   0.000000e+00
     2488000   2.487999e-05   2.569035e+01   2.972816e-01   2.349371e+00   7.336499e+03   1.797035e+04  -1.461470e+05   6.477633e+08   8.416154e+08   1.360030e+08   1.474304e+05   8.878633e-29   0.000000e+00   0.000000e+00
     2496000   2.495999e-05   2.569094e+01   2.987219e-01   2.337680e+00   7.388789e+03   1.803775e+04  -1.461361e+05   6.595075e+08   8.431601e+08   1.374175e+08   1.474304e+05   9.020687e-29   0.000000e+00   0.000000e+00
     2504000   2.503999e-05   2.569153e+01   3.001677e-01   2.325990e+00   7.441801e+03   1.810526e+04  -1.461251e+05   6.473757e+08   8.450686e+08   1.376754e+08   1.474304e+05   8.923397e-29   0.000000e+00   0.000000e+00
     2512000   2.511999e-05   2.569213e+01   3.016188e-01   2.314300e+00   7.494069e+03   1.817293e+04  -1.461140e+05   6.593578e+08   8.466743e+08   1.391230e+08   1.474304e+05   9.068802e-29   0.000000e+00   0.000000e+00
     2520000   2.519999e-05   2.569273e+01   3.030753e-01   2.302611e+00   7.547300e+03   1.824073e+04  -1.461028e+05   6.714216e+08   8.483259e+08   1.405962e+08   1.474304e+05   9.218008e-29   0.000000e+00   0.000000e+00
     2528000   2.527999e-05   2.569334e+01   3.045373e-01   2.290924e+00   7.602865e+03   1.830884e+04  -1.460914e+05   7.047157e+08   8.527124e+08   1.435404e+08   1.474304e+05   9.637122e-29   0.000000e+00   0.000000e+00
     2536000   2.535999e-05   2.569395e+01   3.060047e-01   2.279237e+00   7.659645e+03   1.837712e+04  -1.460799e+05   7.147871e+08   8.543328e+08   1.449562e+08   1.474304e+05   9.772428e-29   0.000000e+00   0.000000e+00
     2544000   2.543999e-05   2.569456e+01   3.074777e-01   2.267551e+00   7.717233e+03   1.844553e+04  -1.460682e+05   7.249446e+08   8.559779e+08   1.463941e+08   1.474304e+05   9.910722e-29   0.000000e+00   0.000000e+00
     2552000   2.551999e-05   2.569518e+01   3.089560e-01   2.255866e+00   7.775638e+03   1.851408e+04  -1.460564e+05   7.351881e+08   8.576474e+08   1.478544e+08   1.474304e+05   1.005204e-28   0.000000e+00   0.000000e+00
     2560000   2.559999e-05   2.569581e+01   3.104399e-01   2.244182e+00   7.834866e+03   1.858275e+04  -1.460445e+05   7.455178e+08   8.593406e+08   1.493375e+08   1.474304e+05   1.019643e-28   0.000000e+00   0.000000e+00
     2568000   2.567999e-05   2.569643e+01   3.119293e-01   2.232499e+00   7.894923e+03   1.865157e+04  -1.460325e+05   7.559336e+08   8.610571e+08   1.508437e+08   1.474304e+05   1.034392e-28   0.000000e+00   0.000000e+00
     2576000   2.575999e-05   2.569707e+01   3.134242e-01   2.220817e+00   7.955818e+03   1.872052e+04  -1.460204e+05   7.664356e+08   8.627962e+08   1.523733e+08   1.474304e+05   1.049455e-28   0.000000e+00   0.000000e+00
     2584000   2.583999e-05   2.569771e+01   3.149246e-01   2.209135e+00   8.017556e+03   1.878962e+04  -1.460082e+05   7.770239e+08   8.645575e+08   1.539265e+08   1.474304e+05   1.064837e-28   0.000000e+00   0.000000e+00
     2592000   2.591999e-05   2.569835e+01   3.164305e-01   2.197455e+00   8.079947e+03   1.885888e+04  -1.459958e+05   7.764527e+08   8.677053e+08   1.550567e+08   1.474304e+05   1.068643e-28   0.000000e+00   0.000000e+00
     2600000   2.599999e-05   2.569900e+01   3.179420e-01   2.185776e+00   8.142505e+03   1.892838e+04  -1.459833e+05   7.875147e+08   8.699698e+08   1.567265e+08   1.474304e+05   1.085493e-28   0.000000e+00   0.000000e+00
     2608000   2.607999e-05   2.569965e+01   3.194591e-01   2.174098e+00   8.205952e+03   1.899807e+04  -1.459707e+05   7.986577e+08   8.722585e+08   1.584219e+08   1.474304e+05   1.102683e-28   0.000000e+00   0.000000e+00
     2616000   2.615999e-05   2.570031e+01   3.209817e-01   2.162421e+00   8.270515e+03   1.906798e+04  -1.459580e+05   8.154356e+08   8.755580e+08   1.605886e+08   1.474304e+05   1.128658e-28   0.000000e+00   0.000000e+00
     2624000   2.623999e-05   2.570098e+01   3.225099e-01   2.150745e+00   8.336154e+03   1.913813e+04  -1.459450e+05   8.255649e+08   8.782480e+08   1.623217e+08   1.474304e+05   1.145619e-28   0.000000e+00   0.000000e+00
     2632000   2.631999e-05   2.570165e+01   3.240438e-01   2.139070e+00   8.402607e+03   1.920850e+04  -1.459320e+05   8.357732e+08   8.809516e+08   1.640793e+08   1.474304e+05   1.162881e-28   0.000000e+00   0.000000e+00
     2640000   2.639999e-05   2.570232e+01   3.255833e-01   2.127396e+00   8.469880e+03   1.927909e+04  -1.459188e+05   8.460608e+08   8.836681e+08   1.658616e+08   1.474304e+05   1.180449e-28   0.000000e+00   0.000000e+00
     2648000   2.647999e-05   2.570300e+01   3.271285e-01   2.115723e+00   8.537979e+03   1.934989e+04  -1.459054e+05   8.564279e+08   8.863970e+08   1.676691e+08   1.474304e+05   1.198327e-28   0.000000e+00   0.000000e+00
     2656000   2.655999e-05   2.570369e+01   3.286793e-01   2.104051e+00   8.606911e+03   1.942091e+04  -1.458920e+05   8.668748e+08   8.891376e+08   1.695019e+08   1.474304e+05   1.216517e-28   0.000000e+00   0.000000e+00
     2664000   2.663999e-05   2.570438e+01   3.302358e-01   2.092380e+00   8.676765e+03   1.949211e+04  -1.458783e+05   8.789377e+08   8.909299e+08   1.713237e+08   1.474304e+05   1.235779e-28   0.000000e+00   0.000000e+00
     2672000   2.671999e-05   2.570508e+01   3.317980e-01   2.080710e+00   8.747496e+03   1.956347e+04  -1.458645e+05   8.893376e+08   8.932584e+08   1.731380e+08   1.474304e+05   1.253723e-28   0.000000e+00   0.000000e+00
     2680000   2.679999e-05   2.570578e+01   3.333660e-01   2.069042e+00   8.819061e+03   1.963503e+04  -1.458506e+05   8.998213e+08   8.955958e+08   1.749777e+08   1.474304e+05   1.271984e-28   0.000000e+00   0.000000e+00
     2688000   2.687999e-05   2.570649e+01   3.349396e-01   2.057374e+00   8.891469e+03   1.970677e+04  -1.458366e+05   9.103892e+08   8.979414e+08   1.768432e+08   1.474304e+05   1.290566e-28   0.000000e+00   0.000000e+00
     2696000   2.695999e-05   2.570720e+01   3.365191e-01   2.045708e+00   8.964726e+03   1.977870e+04  -1.458223e+05   9.210413e+08   9.002947e+08   1.787348e+08   1.474304e+05   1.309473e-28   0.000000e+00   0.000000e+00
     2704000   2.703999e-05   2.570792e+01   3.381042e-01   2.034042e+00   9.038838e+03   1.985082e+04  -1.458080e+05   9.317781e+08   9.026549e+08   1.806528e+08   1.474304e+05   1.328709e-28   0.000000e+00   0.000000e+00
     2712000   2.711999e-05   2.570865e+01   3.396952e-01   2.022378e+00   9.113813e+03   1.992312e+04  -1.457934e+05   9.425996e+08   9.050215e+08   1.825975e+08   1.474304e+05   1.348279e-28   0.000000e+00   0.000000e+00
     2720000   2.719999e-05   2.570938e+01   3.412919e-01   2.010716e+00   9.189657e+03   1.999562e+04  -1.457787e+05   9.535061e+08   9.073939e+08   1.845693e+08   1.474304e+05   1.368186e-28   0.000000e+00   0.000000e+00
     2728000   2.727999e-05   2.571012e+01   3.428945e-01   1.999054e+00   9.266315e+03   2.006829e+04  -1.457639e+05   9.551844e+08   9.066949e+08   1.855524e+08   1.474304e+05   1.369965e-28   0.000000e+00   0.000000e+00
     2736000   2.735999e-05   2.571086e+01   3.445029e-01   1.987393e+00   9.343299e+03   2.014094e+04  -1.457490e+05   9.694368e+08   9.097218e+08   1.878598e+08   1.474304e+05   1.396135e-28   0.000000e+00   0.000000e+00
     2744000   2.743999e-05   2.571161e+01   3.461171e-01   1.975734e+00   9.421427e+03   2.021384e+04  -1.457338e+05   9.837671e+08   9.127734e+08   1.902038e+08   1.474304e+05   1.422806e-28   0.000000e+00   0.000000e+00
     2752000   2.751999e-05   2.571237e+01   3.477371e-01   1.964076e+00   9.500704e+03   2.028699e+04  -1.457185e+05   9.981753e+08   9.158486e+08   1.925847e+08   1.474304e+05   1.449983e-28   0.000000e+00   0.000000e+00
     2760000   2.759999e-05   2.571313e+01   3.493630e-01   1.952419e+00   9.581137e+03   2.036038e+04  -1.457030e+05   1.012662e+09   9.189462e+08   1.950030e+08   1.474304e+05   1.477671e-28   0.000000e+00   0.000000e+00
     2768000   2.767999e-05   2.571390e+01   3.509948e-01   1.940763e+00   9.662732e+03   2.043402e+04  -1.456873e+05   1.027226e+09   9.220651e+08   1.974591e+08   1.474304e+05   1.505874e-28   0.000000e+00   0.000000e+00
     2776000   2.775999e-05   2.571468e+01   3.526324e-01   1.929109e+00   9.745496e+03   2.050791e+04  -1.456714e+05   1.041870e+09   9.252042e+08   1.999536e+08   1.474304e+05   1.534598e-28   0.000000e+00   0.000000e+00
     2784000   2.783999e-05   2.571546e+01   3.542760e-01   1.917456e+00   9.829434e+03   2.058205e+04  -1.456553e+05   1.056592e+09   9.283623e+08   2.024868e+08   1.474304e+05   1.563848e-28   0.000000e+00   0.000000e+00
     2792000   2.791999e-05   2.571625e+01   3.559256e-01   1.905804e+00   9.914553e+03   2.065645e+04  -1.456390e+05   1.071393e+09   9.315382e+08   2.050593e+08   1.474304e+05   1.593627e-28   0.000000e+00   0.000000e+00
     2800000   2.799999e-05   2.571705e+01   3.575811e-01   1.894154e+00   1.000107e+04   2.073126e+04  -1.456225e+05   1.091608e+09   9.386949e+08   2.086048e+08   1.474304e+05   1.638994e-28   0.000000e+00   0.000000e+00
     2808000   2.807999e-05   2.571785e+01   3.592426e-01   1.882505e+00   1.008901e+04   2.080649e+04  -1.456057e+05   1.107064e+09   9.421478e+08   2.113376e+08   1.474304e+05   1.671231e-28   0.000000e+00   0.000000e+00
     2816000   2.815999e-05   2.571866e+01   3.609101e-01   1.870857e+00   1.017820e+04   2.088200e+04  -1.455887e+05   1.122600e+09   9.456179e+08   2.141129e+08   1.474304e+05   1.704046e-28   0.000000e+00   0.000000e+00
     2824000   2.823999e-05   2.571948e+01   3.625837e-01   1.859210e+00   1.026863e+04   2.095779e+04  -1.455714e+05   1.138215e+09   9.491040e+08   2.169314e+08   1.474304e+05   1.737443e-28   0.000000e+00   0.000000e+00
     2832000   2.831999e-05   2.572031e+01   3.642634e-01   1.847565e+00   1.036032e+04   2.103386e+04  -1.455540e+05   1.153909e+09   9.526048e+08   2.197934e+08   1.474304e+05   1.771428e-28   0.000000e+00   0.000000e+00
     2840000   2.839999e-05   2.572114e+01   3.659491e-01   1.835922e+00   1.045326e+04   2.111021e+04  -1.455363e+05   1.169684e+09   9.561190e+08   2.226996e+08   1.474304e+05   1.806007e-28   0.000000e+00   0.000000e+00
     2848000   2.847999e-05   2.572198e+01   3.676410e-01   1.824280e+00   1.054747e+04   2.118684e+04  -1.455183e+05   1.185540e+09   9.596453e+08   2.256504e+08   1.474304e+05   1.841184e-28   0.000000e+00   0.000000e+00
     2856000   2.855999e-05   2.572283e+01   3.693390e-01   1.812639e+00   1.064295e+04   2.126375e+04  -1.455002e+05   1.201475e+09   9.631823e+08   2.286464e+08   1.474304e+05   1.876966e-28   0.000000e+00   0.000000e+00
     2864000   2.863999e-05   2.572368e+01   3.710432e-01   1.801000e+00   1.073971e+04   2.134095e+04  -1.454817e+05   1.217492e+09   9.667288e+08   2.316882e+08   1.474304e+05   1.913358e-28   0.000000e+00   0.000000e+00
     2872000   2.871999e-05   2.572455e+01   3.727536e-01   1.789362e+00   1.083893e+04   2.141805e+04  -1.454631e+05   1.249459e+09   9.648896e+08   2.351719e+08   1.474304e+05   1.972940e-28   0.000000e+00   0.000000e+00
     2880000   2.879999e-05   2.572542e+01   3.744701e-01   1.777726e+00   1.093951e+04   2.149536e+04  -1.454441e+05   1.265065e+09   9.680419e+08   2.382192e+08   1.474304e+05   2.009169e-28   0.000000e+00   0.000000e+00
     2888000   2.887999e-05   2.572630e+01   3.761928e-01   1.766091e+00   1.104134e+04   2.157293e+04  -1.454249e+05   1.280759e+09   9.711937e+08   2.413119e+08   1.474304e+05   2.045993e-28   0.000000e+00   0.000000e+00
     2896000   2.895999e-05   2.572718e+01   3.779218e-01   1.754458e+00   1.114443e+04   2.165076e+04  -1.454055e+05   1.296539e+09   9.743437e+08   2.444505e+08   1.474304e+05   2.083420e-28   0.000000e+00   0.000000e+00
     2904000   2.903999e-05   2.572808e+01   3.796570e-01   1.742826e+00   1.124879e+04   2.172883e+04  -1.453858e+05   1.312408e+09   9.774907e+08   2.476356e+08   1.474304e+05   2.121454e-28   0.000000e+00   0.000000e+00
     2912000   2.911999e-05   2.572898e+01   3.813984e-01   1.731196e+00   1.135442e+04   2.180715e+04  -1.453659e+05   1.328365e+09   9.806333e+08   2.508677e+08   1.474304e+05   2.160103e-28   0.000000e+00   0.000000e+00
     2920000   2.919999e-05   2.572990e+01   3.831461e-01   1.719567e+00   1.146133e+04   2.188573e+04  -1.453457e+05   1.344410e+09   9.837702e+08   2.541474e+08   1.474304e+05   2.199371e-28   0.000000e+00   0.000000e+00
     2928000   2.927999e-05   2.573082e+01   3.849001e-01   1.707941e+00   1.156953e+04   2.196456e+04  -1.453252e+05   1.360544e+09   9.869001e+08   2.574753e+08   1.474304e+05   2.239266e-28   0.000000e+00   0.000000e+00
     2936000   2.935999e-05   2.573175e+01   3.866605e-01   1.696315e+00   1.167876e+04   2.204394e+04  -1.453045e+05   1.366269e+09   1.002195e+09   2.618545e+08   1.474304e+05   2.276680e-28   0.000000e+00   0.000000e+00
     2944000   2.943999e-05   2.573269e+01   3.884272e-01   1.684692e+00   1.178867e+04   2.212423e+04  -1.452834e+05   1.381385e+09   1.004847e+09   2.651102e+08   1.474304e+05   2.314296e-28   0.000000e+00   0.000000e+00
     2952000   2.951999e-05   2.573363e+01   3.902003e-01   1.673070e+00   1.189979e+04   2.220472e+04  -1.452620e+05   1.396593e+09   1.007483e+09   2.684115e+08   1.474304e+05   2.352490e-28   0.000000e+00   0.000000e+00
     2960000   2.959999e-05   2.573459e+01   3.919799e-01   1.661450e+00   1.201212e+04   2.228542e+04  -1.452404e+05   1.411896e+09   1.010102e+09   2.717589e+08   1.474304e+05   2.391268e-28   0.000000e+00   0.000000e+00
     2968000   2.967999e-05   2.573555e+01   3.937660e-01   1.649832e+00   1.212569e+04   2.236633e+04  -1.452186e+05   1.427294e+09   1.012703e+09   2.751531e+08   1.474304e+05   2.430637e-28   0.000000e+00   0.000000e+00
     2976000   2.975999e-05   2.573653e+01   3.955586e-01   1.638215e+00   1.224049e+04   2.244745e+04  -1.451964e+05   1.442785e+09   1.015284e+09   2.785945e+08   1.474304e+05   2.470603e-28   0.000000e+00   0.000000e+00
     2984000   2.983999e-05   2.573751e+01   3.973576e-01   1.626600e+00   1.235654e+04   2.252878e+04  -1.451740e+05   1.458372e+09   1.017845e+09   2.820837e+08   1.474304e+05   2.511172e-28   0.000000e+00   0.000000e+00
     2992000   2.991999e-05   2.573851e+01   3.991632e-01   1.614987e+00   1.247384e+04   2.261031e+04  -1.451513e+05   1.474055e+09   1.020384e+09   2.856212e+08   1.474304e+05   2.552351e-28   0.000000e+00   0.000000e+00
     3000000   2.999999e-05   2.573951e+01   4.009753e-01   1.603376e+00   1.259233e+04   2.269193e+04  -1.451283e+05   1.488100e+09   1.020591e+09   2.886949e+08   1.474304e+05   2.586267e-28   0.000000e+00   0.000000e+00
     3008000   3.007999e-05   2.574052e+01   4.027939e-01   1.591767e+00   1.271207e+04   2.277379e+04  -1.451050e+05   1.504257e+09   1.025167e+09   2.926785e+08   1.474304e+05   2.632754e-28   0.000000e+00   0.000000e+00
     3016000   3.015999e-05   2.574154e+01   4.046191e-01   1.580159e+00   1.283295e+04   2.285592e+04  -1.450815e+05   1.517677e+09   1.028037e+09   2.961989e+08   1.474304e+05   2.670334e-28   0.000000e+00   0.000000e+00
     3024000   3.023999e-05   2.574257e+01   4.064508e-01   1.568554e+00   1.295491e+04   2.293828e+04  -1.450576e+05   1.531193e+09   1.030868e+09   2.997619e+08   1.474304e+05   2.708406e-28   0.000000e+00   0.000000e+00
     3032000   3.031999e-05   2.574362e+01   4.082892e-01   1.556950e+00   1.307795e+04   2.302086e+04  -1.450335e+05   1.544804e+09   1.033658e+09   3.033679e+08   1.474304e+05   2.746975e-28   0.000000e+00   0.000000e+00
     3040000   3.039999e-05   2.574467e+01   4.101342e-01   1.545348e+00   1.320208e+04   2.310366e+04  -1.450091e+05   1.558510e+09   1.036406e+09   3.070173e+08   1.474304e+05   2.786049e-28   0.000000e+00   0.000000e+00
     3048000   3.047999e-05   2.574573e+01   4.119858e-01   1.533748e+00   1.332731e+04   2.318668e+04  -1.449844e+05   1.572313e+09   1.039112e+09   3.107108e+08   1.474304e+05   2.825633e-28   0.000000e+00   0.000000e+00
     3056000   3.055999e-05   2.574680e+01   4.138441e-01   1.522151e+00   1.345365e+04   2.326992e+04  -1.449594e+05   1.586212e+09   1.041774e+09   3.144488e+08   1.474304e+05   2.865733e-28   0.000000e+00   0.000000e+00
     3064000   3.063999e-05   2.574788e+01   4.157090e-01   1.510555e+00   1.358111e+04   2.335336e+04  -1.449341e+05   1.600208e+09   1.044392e+09   3.182317e+08   1.474304e+05   2.906356e-28   0.000000e+00   0.000000e+00
     3072000   3.071999e-05   2.574897e+01   4.175806e-01   1.498961e+00   1.370965e+04   2.343703e+04  -1.449085e+05   1.609804e+09   1.048264e+09   3.218445e+08   1.474304e+05   2.938277e-28   0.000000e+00   0.000000e+00
     3080000   3.079999e-05   2.575007e+01   4.194589e-01   1.487370e+00   1.383907e+04   2.352096e+04  -1.448826e+05   1.625584e+09   1.049996e+09   3.257358e+08   1.474304e+05   2.982585e-28   0.000000e+00   0.000000e+00
     3088000   3.087999e-05   2.575119e+01   4.213440e-01   1.475780e+00   1.396975e+04   2.360503e+04  -1.448564e+05   1.641465e+09   1.051690e+09   3.296781e+08   1.474304e+05   3.027525e-28   0.000000e+00   0.000000e+00
     3096000   3.095999e-05   2.575231e+01   4.232357e-01   1.464193e+00   1.410171e+04   2.368923e+04  -1.448298e+05   1.657446e+09   1.053344e+09   3.336722e+08   1.474304e+05   3.073104e-28   0.000000e+00   0.000000e+00
     3104000   3.103999e-05   2.575344e+01   4.251342e-01   1.452607e+00   1.423494e+04   2.377356e+04  -1.448030e+05   1.673528e+09   1.054958e+09   3.377184e+08   1.474304e+05   3.119330e-28   0.000000e+00   0.000000e+00
     3112000   3.111999e-05   2.575459e+01   4.270395e-01   1.441024e+00   1.436947e+04   2.385802e+04  -1.447758e+05   1.689710e+09   1.056529e+09   3.418176e+08   1.474304e+05   3.166209e-28   0.000000e+00   0.000000e+00
     3120000   3.119999e-05   2.575574e+01   4.289515e-01   1.429443e+00   1.450530e+04   2.394260e+04  -1.447483e+05   1.705994e+09   1.058058e+09   3.459701e+08   1.474304e+05   3.213749e-28   0.000000e+00   0.000000e+00
     3128000   3.127999e-05   2.575691e+01   4.308703e-01   1.417864e+00   1.464243e+04   2.402731e+04  -1.447204e+05   1.722379e+09   1.059542e+09   3.501767e+08   1.474304e+05   3.261955e-28   0.000000e+00   0.000000e+00
     3136000   3.135999e-05   2.575808e+01   4.327959e-01   1.406288e+00   1.478088e+04   2.411213e+04  -1.446922e+05   1.738866e+09   1.060980e+09   3.544378e+08   1.474304e+05   3.310837e-28   0.000000e+00   0.000000e+00
     3144000   3.143999e-05   2.575927e+01   4.347283e-01   1.394714e+00   1.492092e+04   2.419698e+04  -1.446637e+05   1.763150e+09   1.060313e+09   3.592066e+08   1.474304e+05   3.378240e-28   0.000000e+00   0.000000e+00
     3152000   3.151999e-05   2.576047e+01   4.366674e-01   1.383142e+00   1.506271e+04   2.428189e+04  -1.446348e+05   1.781555e+09   1.062441e+09   3.639033e+08   1.474304e+05   3.434897e-28   0.000000e+00   0.000000e+00
     3160000   3.159999e-05   2.576168e+01   4.386134e-01   1.371572e+00   1.520597e+04   2.436697e+04  -1.446055e+05   1.800059e+09   1.064525e+09   3.686642e+08   1.474304e+05   3.492357e-28   0.000000e+00   0.000000e+00
     3168000   3.167999e-05   2.576291e+01   4.405661e-01   1.360005e+00   1.535072e+04   2.445221e+04  -1.445758e+05   1.818660e+09   1.066565e+09   3.734898e+08   1.474304e+05   3.550630e-28   0.000000e+00   0.000000e+00
     3176000   3.175999e-05   2.576414e+01   4.425257e-01   1.348440e+00   1.549696e+04   2.453762e+04  -1.445457e+05   1.837360e+09   1.068558e+09   3.783808e+08   1.474304e+05   3.609722e-28   0.000000e+00   0.000000e+00
     3184000   3.183999e-05   2.576538e+01   4.444922e-01   1.336878e+00   1.564470e+04   2.462318e+04  -1.445152e+05   1.856158e+09   1.070504e+09   3.833381e+08   1.474304e+05   3.669643e-28   0.000000e+00   0.000000e+00
     3192000   3.191999e-05   2.576664e+01   4.464654e-01   1.325318e+00   1.579395e+04   2.470890e+04  -1.444844e+05   1.875055e+09   1.072399e+09   3.883623e+08   1.474304e+05   3.730399e-28   0.000000e+00   0.000000e+00
     3200000   3.199999e-05   2.576791e+01   4.484456e-01   1.313760e+00   1.594471e+04   2.479477e+04  -1.444531e+05   1.894051e+09   1.074244e+09   3.934542e+08   1.474304e+05   3.791999e-28   0.000000e+00   0.000000e+00
     3208000   3.207999e-05   2.576919e+01   4.504326e-01   1.302205e+00   1.609700e+04   2.488078e+04  -1.444214e+05   1.913146e+09   1.076036e+09   3.986145e+08   1.474304e+05   3.854452e-28   0.000000e+00   0.000000e+00
     3216000   3.215999e-05   2.577049e+01   4.524265e-01   1.290653e+00   1.625106e+04   2.496736e+04  -1.443892e+05   1.936477e+09   1.084376e+09   4.054581e+08   1.474304e+05   3.942229e-28   0.000000e+00   0.000000e+00
     3224000   3.223999e-05   2.577179e+01   4.544274e-01   1.279103e+00   1.640679e+04   2.505417e+04  -1.443566e+05   1.956763e+09   1.085902e+09   4.108613e+08   1.474304e+05   4.009375e-28   0.000000e+00   0.000000e+00
     3232000   3.231999e-05   2.577311e+01   4.564352e-01   1.267556e+00   1.656415e+04   2.514110e+04  -1.443235e+05   1.977150e+09   1.087375e+09   4.163394e+08   1.474304e+05   4.077477e-28   0.000000e+00   0.000000e+00
     3240000   3.239999e-05   2.577444e+01   4.584500e-01   1.256011e+00   1.672314e+04   2.522815e+04  -1.442900e+05   1.997638e+09   1.088793e+09   4.218933e+08   1.474304e+05   4.146542e-28   0.000000e+00   0.000000e+00
     3248000   3.247999e-05   2.577579e+01   4.604717e-01   1.244469e+00   1.688377e+04   2.531531e+04  -1.442560e+05   2.018227e+09   1.090155e+09   4.275236e+08   1.474304e+05   4.216579e-28   0.000000e+00   0.000000e+00
     3256000   3.255999e-05   2.577715e+01   4.625004e-01   1.232930e+00   1.704606e+04   2.540257e+04  -1.442216e+05   2.038918e+09   1.091458e+09   4.332314e+08   1.474304e+05   4.287599e-28   0.000000e+00   0.000000e+00
     3264000   3.263999e-05   2.577852e+01   4.645361e-01   1.221394e+00   1.721000e+04   2.548994e+04  -1.441867e+05   2.059710e+09   1.092701e+09   4.390173e+08   1.474304e+05   4.359609e-28   0.000000e+00   0.000000e+00
     3272000   3.271999e-05   2.577990e+01   4.665788e-01   1.209860e+00   1.737561e+04   2.557740e+04  -1.441513e+05   2.080603e+09   1.093882e+09   4.448823e+08   1.474304e+05   4.432620e-28   0.000000e+00   0.000000e+00
     3280000   3.279999e-05   2.578130e+01   4.686285e-01   1.198330e+00   1.754272e+04   2.566484e+04  -1.441155e+05   2.085452e+09   1.084498e+09   4.469880e+08   1.474304e+05   4.433889e-28   0.000000e+00   0.000000e+00
     3288000   3.287999e-05   2.578271e+01   4.706852e-01   1.186802e+00   1.771035e+04   2.575163e+04  -1.440795e+05   2.105532e+09   1.085202e+09   4.527734e+08   1.474304e+05   4.504279e-28   0.000000e+00   0.000000e+00
     3296000   3.295999e-05   2.578413e+01   4.727488e-01   1.175277e+00   1.787960e+04   2.583847e+04  -1.440431e+05   2.125713e+09   1.085833e+09   4.586345e+08   1.474304e+05   4.575611e-28   0.000000e+00   0.000000e+00
     3304000   3.303999e-05   2.578557e+01   4.748193e-01   1.163755e+00   1.805047e+04   2.592536e+04  -1.440061e+05   2.145996e+09   1.086391e+09   4.645722e+08   1.474304e+05   4.647895e-28   0.000000e+00   0.000000e+00
     3312000   3.311999e-05   2.578702e+01   4.768968e-01   1.152236e+00   1.822297e+04   2.601229e+04  -1.439687e+05   2.166379e+09   1.086874e+09   4.705873e+08   1.474304e+05   4.721140e-28   0.000000e+00   0.000000e+00
     3320000   3.319999e-05   2.578848e+01   4.789813e-01   1.140720e+00   1.839710e+04   2.609926e+04  -1.439309e+05   2.186863e+09   1.087279e+09   4.766805e+08   1.474304e+05   4.795354e-28   0.000000e+00   0.000000e+00
     3328000   3.327999e-05   2.578996e+01   4.810727e-01   1.129207e+00   1.857287e+04   2.618625e+04  -1.438925e+05   2.207448e+09   1.087605e+09   4.828527e+08   1.474304e+05   4.870547e-28   0.000000e+00   0.000000e+00
     3336000   3.335999e-05   2.579145e+01   4.831711e-01   1.117697e+00   1.875029e+04   2.627327e+04  -1.438536e+05   2.228135e+09   1.087849e+09   4.891047e+08   1.474304e+05   4.946727e-28   0.000000e+00   0.000000e+00
     3344000   3.343999e-05   2.579296e+01   4.852764e-01   1.106190e+00   1.892937e+04   2.636031e+04  -1.438142e+05   2.248922e+09   1.088011e+09   4.954372e+08   1.474304e+05   5.023905e-28   0.000000e+00   0.000000e+00
     3352000   3.351999e-05   2.579448e+01   4.873888e-01   1.094687e+00   1.910999e+04   2.644754e+04  -1.437743e+05   2.265915e+09   1.093179e+09   5.022694e+08   1.474304e+05   5.097333e-28   0.000000e+00   0.000000e+00
     3360000   3.359999e-05   2.579602e+01   4.895081e-01   1.083187e+00   1.929203e+04   2.653500e+04  -1.437339e+05   2.284977e+09   1.093316e+09   5.085295e+08   1.474304e+05   5.169652e-28   0.000000e+00   0.000000e+00
     3368000   3.367999e-05   2.579757e+01   4.916344e-01   1.071689e+00   1.947559e+04   2.662247e+04  -1.436929e+05   2.304142e+09   1.093358e+09   5.148641e+08   1.474304e+05   5.242858e-28   0.000000e+00   0.000000e+00
     3376000   3.375999e-05   2.579914e+01   4.937676e-01   1.060196e+00   1.966069e+04   2.670993e+04  -1.436515e+05   2.323409e+09   1.093303e+09   5.212742e+08   1.474304e+05   5.316961e-28   0.000000e+00   0.000000e+00
     3384000   3.383999e-05   2.580072e+01   4.959079e-01   1.048705e+00   1.984765e+04   2.679740e+04  -1.436095e+05   2.351451e+09   1.093590e+09   5.290464e+08   1.474304e+05   5.425295e-28   0.000000e+00   0.000000e+00
     3392000   3.391999e-05   2.580231e+01   4.980552e-01   1.037218e+00   2.003655e+04   2.688490e+04  -1.435669e+05   2.370845e+09   1.093906e+09   5.357296e+08   1.474304e+05   5.502273e-28   0.000000e+00   0.000000e+00
     3400000   3.399999e-05   2.580392e+01   5.002095e-01   1.025735e+00   2.022698e+04   2.697243e+04  -1.435238e+05   2.388690e+09   1.095270e+09   5.424747e+08   1.474304e+05   5.575998e-28   0.000000e+00   0.000000e+00
     3408000   3.407999e-05   2.580555e+01   5.023708e-01   1.014254e+00   2.041887e+04   2.706005e+04  -1.434801e+05   2.408574e+09   1.095004e+09   5.492828e+08   1.474304e+05   5.655179e-28   0.000000e+00   0.000000e+00
     3416000   3.415999e-05   2.580719e+01   5.045391e-01   1.002778e+00   2.061235e+04   2.714763e+04  -1.434359e+05   2.428558e+09   1.094636e+09   5.561719e+08   1.474304e+05   5.735317e-28   0.000000e+00   0.000000e+00
     3424000   3.423999e-05   2.580885e+01   5.067144e-01   9.913047e-01   2.080744e+04   2.723519e+04  -1.433911e+05   2.448726e+09   1.094433e+09   5.632061e+08   1.474304e+05   5.817251e-28   0.000000e+00   0.000000e+00
     3432000   3.431999e-05   2.581052e+01   5.088968e-01   9.798352e-01   2.100415e+04   2.732274e+04  -1.433458e+05   2.469094e+09   1.094160e+09   5.703454e+08   1.474304e+05   5.900632e-28   0.000000e+00   0.000000e+00
     3440000   3.439999e-05   2.581221e+01   5.110861e-01   9.683694e-01   2.120250e+04   2.741026e+04  -1.432998e+05   2.489561e+09   1.093778e+09   5.775693e+08   1.474304e+05   5.985008e-28   0.000000e+00   0.000000e+00
     3448000   3.447999e-05   2.581391e+01   5.132824e-01   9.569072e-01   2.140249e+04   2.749774e+04  -1.432534e+05   2.510127e+09   1.093287e+09   5.848784e+08   1.474304e+05   6.070388e-28   0.000000e+00   0.000000e+00
     3456000   3.455999e-05   2.581563e+01   5.154857e-01   9.454489e-01   2.160412e+04   2.758518e+04  -1.432063e+05   2.530791e+09   1.092683e+09   5.922736e+08   1.474304e+05   6.156782e-28   0.000000e+00   0.000000e+00
     3464000   3.463999e-05   2.581737e+01   5.176960e-01   9.339943e-01   2.180742e+04   2.767257e+04  -1.431586e+05   2.551553e+09   1.091966e+09   5.997558e+08   1.474304e+05   6.244198e-28   0.000000e+00   0.000000e+00
     3472000   3.471999e-05   2.581912e+01   5.199133e-01   9.225435e-01   2.201237e+04   2.775989e+04  -1.431103e+05   2.572413e+09   1.091132e+09   6.073257e+08   1.474304e+05   6.332648e-28   0.000000e+00   0.000000e+00
     3480000   3.479999e-05   2.582089e+01   5.221376e-01   9.110966e-01   2.221901e+04   2.784714e+04  -1.430614e+05   2.593371e+09   1.090181e+09   6.149841e+08   1.474304e+05   6.422140e-28   0.000000e+00   0.000000e+00
     3488000   3.487999e-05   2.582267e+01   5.243689e-01   8.996537e-01   2.242732e+04   2.793432e+04  -1.430119e+05   2.616530e+09   1.088917e+09   6.230239e+08   1.474304e+05   6.521158e-28   0.000000e+00   0.000000e+00
     3496000   3.495999e-05   2.582448e+01   5.266071e-01   8.882147e-01   2.263755e+04   2.802139e+04  -1.429617e+05   2.639296e+09   1.087875e+09   6.311542e+08   1.474304e+05   6.619967e-28   0.000000e+00   0.000000e+00
     3504000   3.503999e-05   2.582630e+01   5.288523e-01   8.767798e-01   2.284961e+04   2.810837e+04  -1.429109e+05   2.662158e+09   1.086714e+09   6.393839e+08   1.474304e+05   6.719974e-28   0.000000e+00   0.000000e+00
     3512000   3.511999e-05   2.582813e+01   5.311044e-01   8.653490e-01   2.306350e+04   2.819526e+04  -1.428594e+05   2.685114e+09   1.085432e+09   6.477141e+08   1.474304e+05   6.821190e-28   0.000000e+00   0.000000e+00
     3520000   3.519999e-05   2.582999e+01   5.333635e-01   8.539223e-01   2.327923e+04   2.828204e+04  -1.428073e+05   2.708164e+09   1.084027e+09   6.561458e+08   1.474304e+05   6.923624e-28   0.000000e+00   0.000000e+00
     3528000   3.527999e-05   2.583186e+01   5.356296e-01   8.424999e-01   2.349681e+04   2.836870e+04  -1.427544e+05   2.731309e+09   1.082497e+09   6.646797e+08   1.474304e+05   7.027288e-28   0.000000e+00   0.000000e+00
     3536000   3.535999e-05   2.583375e+01   5.379025e-01   8.310816e-01   2.371625e+04   2.845523e+04  -1.427009e+05   2.754547e+09   1.080839e+09   6.733170e+08   1.474304e+05   7.132192e-28   0.000000e+00   0.000000e+00
     3544000   3.543999e-05   2.583565e+01   5.401824e-01   8.196677e-01   2.393754e+04   2.854163e+04  -1.426467e+05   2.777878e+09   1.079053e+09   6.820585e+08   1.474304e+05   7.238346e-28   0.000000e+00   0.000000e+00
     3552000   3.551999e-05   2.583758e+01   5.424692e-01   8.082582e-01   2.416071e+04   2.862788e+04  -1.425918e+05   2.801302e+09   1.077134e+09   6.909051e+08   1.474304e+05   7.345761e-28   0.000000e+00   0.000000e+00
     3560000   3.559999e-05   2.583952e+01   5.447629e-01   7.968531e-01   2.438579e+04   2.871403e+04  -1.425361e+05   2.826576e+09   1.077731e+09   7.006938e+08   1.474304e+05   7.467470e-28   0.000000e+00   0.000000e+00
     3568000   3.567999e-05   2.584148e+01   5.470634e-01   7.854524e-01   2.461287e+04   2.880017e+04  -1.424797e+05   2.850503e+09   1.075815e+09   7.098738e+08   1.474304e+05   7.579503e-28   0.000000e+00   0.000000e+00
     3576000   3.575999e-05   2.584346e+01   5.493709e-01   7.740563e-01   2.484187e+04   2.888615e+04  -1.424226e+05   2.874520e+09   1.073762e+09   7.191643e+08   1.474304e+05   7.692857e-28   0.000000e+00   0.000000e+00
     3584000   3.583999e-05   2.584545e+01   5.516852e-01   7.626648e-01   2.507280e+04   2.897197e+04  -1.423647e+05   2.898627e+09   1.071569e+09   7.285661e+08   1.474304e+05   7.807541e-28   0.000000e+00   0.000000e+00
     3592000   3.591999e-05   2.584747e+01   5.540064e-01   7.512780e-01   2.530566e+04   2.905760e+04  -1.423060e+05   2.922824e+09   1.069234e+09   7.380803e+08   1.474304e+05   7.923567e-28   0.000000e+00   0.000000e+00
     3600000   3.599999e-05   2.584950e+01   5.563344e-01   7.398959e-01   2.554045e+04   2.914304e+04  -1.422466e+05   2.947108e+09   1.066755e+09   7.477079e+08   1.474304e+05   8.040945e-28   0.000000e+00   0.000000e+00
     3608000   3.607999e-05   2.585155e+01   5.586693e-01   7.285186e-01   2.577720e+04   2.922828e+04  -1.421864e+05   2.971481e+09   1.064130e+09   7.574498e+08   1.474304e+05   8.159688e-28   0.000000e+00   0.000000e+00
     3616000   3.615999e-05   2.585363e+01   5.610109e-01   7.171461e-01   2.601589e+04   2.931330e+04  -1.421254e+05   2.995941e+09   1.061356e+09   7.673072e+08   1.474304e+05   8.279805e-28   0.000000e+00   0.000000e+00
     3624000   3.623999e-05   2.585572e+01   5.633594e-01   7.057785e-01   2.625655e+04   2.939809e+04  -1.420636e+05   3.020487e+09   1.058431e+09   7.772808e+08   1.474304e+05   8.401309e-28   0.000000e+00   0.000000e+00
     3632000   3.631999e-05   2.585783e+01   5.657146e-01   6.944159e-01   2.649922e+04   2.948248e+04  -1.420010e+05   3.046015e+09   1.051246e+09   7.866863e+08   1.474304e+05   8.520902e-28   0.000000e+00   0.000000e+00
     3640000   3.639999e-05   2.585996e+01   5.680766e-01   6.830584e-01   2.674384e+04   2.956646e+04  -1.419377e+05   3.069395e+09   1.048179e+09   7.966752e+08   1.474304e+05   8.638897e-28   0.000000e+00   0.000000e+00
     3648000   3.647999e-05   2.586211e+01   5.704452e-01   6.717059e-01   2.699033e+04   2.965018e+04  -1.418735e+05   3.092862e+09   1.044948e+09   8.067758e+08   1.474304e+05   8.758198e-28   0.000000e+00   0.000000e+00
     3656000   3.655999e-05   2.586428e+01   5.728206e-01   6.603586e-01   2.723870e+04   2.973365e+04  -1.418086e+05   3.116414e+09   1.041552e+09   8.169892e+08   1.474304e+05   8.878815e-28   0.000000e+00   0.000000e+00
     3664000   3.663999e-05   2.586646e+01   5.752026e-01   6.490166e-01   2.748896e+04   2.981683e+04  -1.417428e+05   3.140052e+09   1.037988e+09   8.273162e+08   1.474304e+05   9.000761e-28   0.000000e+00   0.000000e+00
     3672000   3.671999e-05   2.586867e+01   5.775913e-01   6.376798e-01   2.774111e+04   2.989972e+04  -1.416762e+05   3.163773e+09   1.034253e+09   8.377577e+08   1.474304e+05   9.124045e-28   0.000000e+00   0.000000e+00
     3680000   3.679999e-05   2.587090e+01   5.799866e-01   6.263484e-01   2.799516e+04   2.998230e+04  -1.416088e+05   3.187579e+09   1.030346e+09   8.483147e+08   1.474304e+05   9.248681e-28   0.000000e+00   0.000000e+00
     3688000   3.687999e-05   2.587315e+01   5.823884e-01   6.150224e-01   2.825112e+04   3.006457e+04  -1.415405e+05   3.211467e+09   1.026264e+09   8.589882e+08   1.474304e+05   9.374678e-28   0.000000e+00   0.000000e+00
     3696000   3.695999e-05   2.587542e+01   5.847969e-01   6.037020e-01   2.850900e+04   3.014650e+04  -1.414713e+05   3.235436e+09   1.022005e+09   8.697790e+08   1.474304e+05   9.502047e-28   0.000000e+00   0.000000e+00
     3704000   3.703999e-05   2.587771e+01   5.872119e-01   5.923870e-01   2.876896e+04   3.022824e+04  -1.414013e+05   3.261999e+09   1.020200e+09   8.817674e+08   1.474304e+05   9.649121e-28   0.000000e+00   0.000000e+00
     3712000   3.711999e-05   2.588003e+01   5.896334e-01   5.810778e-01   2.903083e+04   3.030965e+04  -1.413303e+05   3.284778e+09   1.015021e+09   8.924105e+08   1.474304e+05   9.771081e-28   0.000000e+00   0.000000e+00
     3720000   3.719999e-05   2.588236e+01   5.920614e-01   5.697742e-01   2.929452e+04   3.039064e+04  -1.412585e+05   3.307641e+09   1.009659e+09   9.031657e+08   1.474304e+05   9.894358e-28   0.000000e+00   0.000000e+00
     3728000   3.727999e-05   2.588471e+01   5.944959e-01   5.584764e-01   2.956005e+04   3.047119e+04  -1.411858e+05   3.330585e+09   1.004111e+09   9.140340e+08   1.474304e+05   1.001896e-27   0.000000e+00   0.000000e+00
     3736000   3.735999e-05   2.588709e+01   5.969368e-01   5.471845e-01   2.982742e+04   3.055129e+04  -1.411122e+05   3.353611e+09   9.983760e+08   9.250162e+08   1.474304e+05   1.014490e-27   0.000000e+00   0.000000e+00
     3744000   3.743999e-05   2.588949e+01   5.993841e-01   5.358985e-01   3.009663e+04   3.063092e+04  -1.410378e+05   3.376716e+09   9.924507e+08   9.361131e+08   1.474304e+05   1.027220e-27   0.000000e+00   0.000000e+00
     3752000   3.751999e-05   2.589191e+01   6.018377e-01   5.246185e-01   3.036688e+04   3.071022e+04  -1.409626e+05   3.386106e+09   9.888035e+08   9.448728e+08   1.474304e+05   1.032854e-27   0.000000e+00   0.000000e+00
     3760000   3.759999e-05   2.589435e+01   6.042977e-01   5.133445e-01   3.063868e+04   3.078908e+04  -1.408865e+05   3.408873e+09   9.828217e+08   9.561126e+08   1.474304e+05   1.045577e-27   0.000000e+00   0.000000e+00
     3768000   3.767999e-05   2.589681e+01   6.067640e-01   5.020767e-01   3.091230e+04   3.086746e+04  -1.408096e+05   3.431712e+09   9.766441e+08   9.674661e+08   1.474304e+05   1.058431e-27   0.000000e+00   0.000000e+00
     3776000   3.775999e-05   2.589929e+01   6.092365e-01   4.908150e-01   3.118818e+04   3.094503e+04  -1.407317e+05   3.461154e+09   9.654997e+08   9.793412e+08   1.474304e+05   1.074262e-27   0.000000e+00   0.000000e+00
     3784000   3.783999e-05   2.590180e+01   6.117152e-01   4.795596e-01   3.146569e+04   3.102226e+04  -1.406529e+05   3.479179e+09   9.632272e+08   9.907801e+08   1.474304e+05   1.085357e-27   0.000000e+00   0.000000e+00
     3792000   3.791999e-05   2.590433e+01   6.142000e-01   4.683106e-01   3.174498e+04   3.109903e+04  -1.405732e+05   3.502976e+09   9.560423e+08   1.002565e+09   1.474304e+05   1.098976e-27   0.000000e+00   0.000000e+00
     3800000   3.799999e-05   2.590688e+01   6.166910e-01   4.570679e-01   3.202617e+04   3.117522e+04  -1.404925e+05   3.526841e+09   9.486533e+08   1.014471e+09   1.474304e+05   1.112739e-27   0.000000e+00   0.000000e+00
     3808000   3.807999e-05   2.590945e+01   6.191880e-01   4.458318e-01   3.230928e+04   3.125081e+04  -1.404109e+05   3.550774e+09   9.410578e+08   1.026499e+09   1.474304e+05   1.126647e-27   0.000000e+00   0.000000e+00
     3816000   3.815999e-05   2.591205e+01   6.216911e-01   4.346022e-01   3.259430e+04   3.132579e+04  -1.403283e+05   3.574771e+09   9.332537e+08   1.038650e+09   1.474304e+05   1.140701e-27   0.000000e+00   0.000000e+00
     3824000   3.823999e-05   2.591467e+01   6.242001e-01   4.233793e-01   3.288124e+04   3.140013e+04  -1.402447e+05   3.598833e+09   9.252386e+08   1.050924e+09   1.474304e+05   1.154902e-27   0.000000e+00   0.000000e+00
     3832000   3.831999e-05   2.591731e+01   6.267151e-01   4.121631e-01   3.317011e+04   3.147382e+04  -1.401601e+05   3.622957e+09   9.170103e+08   1.063323e+09   1.474304e+05   1.169251e-27   0.000000e+00   0.000000e+00
     3840000   3.839999e-05   2.591997e+01   6.292359e-01   4.009537e-01   3.346092e+04   3.154684e+04  -1.400745e+05   3.647141e+09   9.085665e+08   1.075848e+09   1.474304e+05   1.183749e-27   0.000000e+00   0.000000e+00
     3848000   3.847999e-05   2.592266e+01   6.317626e-01   3.897512e-01   3.375348e+04   3.161918e+04  -1.399880e+05   3.669669e+09   8.997715e+08   1.088050e+09   1.474304e+05   1.197328e-27   0.000000e+00   0.000000e+00
     3856000   3.855999e-05   2.592537e+01   6.342950e-01   3.785557e-01   3.404809e+04   3.169080e+04  -1.399005e+05   3.695544e+09   8.907417e+08   1.101171e+09   1.474304e+05   1.213060e-27   0.000000e+00   0.000000e+00
     3864000   3.863999e-05   2.592811e+01   6.368331e-01   3.673672e-01   3.434477e+04   3.176169e+04  -1.398118e+05   3.721468e+09   8.814911e+08   1.114430e+09   1.474304e+05   1.228957e-27   0.000000e+00   0.000000e+00
     3872000   3.871999e-05   2.593087e+01   6.393768e-01   3.561858e-01   3.464352e+04   3.183183e+04  -1.397221e+05   3.747441e+09   8.720172e+08   1.127826e+09   1.474304e+05   1.245020e-27   0.000000e+00   0.000000e+00
     3880000   3.879999e-05   2.593365e+01   6.419262e-01   3.450116e-01   3.494436e+04   3.190121e+04  -1.396314e+05   3.773459e+09   8.623177e+08   1.141362e+09   1.474304e+05   1.261251e-27   0.000000e+00   0.000000e+00
     3888000   3.887999e-05   2.593646e+01   6.444810e-01   3.338448e-01   3.524728e+04   3.196980e+04  -1.395395e+05   3.799521e+09   8.523899e+08   1.155037e+09   1.474304e+05   1.277650e-27   0.000000e+00   0.000000e+00
     3896000   3.895999e-05   2.593929e+01   6.470413e-01   3.226853e-01   3.555228e+04   3.203758e+04  -1.394466e+05   3.825625e+09   8.422316e+08   1.168853e+09   1.474304e+05   1.294219e-27   0.000000e+00   0.000000e+00
     3904000   3.903999e-05   2.594215e+01   6.496070e-01   3.115334e-01   3.585938e+04   3.210455e+04  -1.393525e+05   3.851768e+09   8.318401e+08   1.182811e+09   1.474304e+05   1.310959e-27   0.000000e+00   0.000000e+00
     3912000   3.911999e-05   2.594503e+01   6.521780e-01   3.003890e-01   3.616857e+04   3.217067e+04  -1.392573e+05   3.877948e+09   8.212130e+08   1.196911e+09   1.474304e+05   1.327870e-27   0.000000e+00   0.000000e+00
     3920000   3.919999e-05   2.594793e+01   6.547543e-01   2.892522e-01   3.648045e+04   3.223625e+04  -1.391608e+05   3.912358e+09   8.145938e+08   1.214307e+09   1.474304e+05   1.351040e-27   0.000000e+00   0.000000e+00
     3928000   3.927999e-05   2.595087e+01   6.573358e-01   2.781233e-01   3.679453e+04   3.230099e+04  -1.390630e+05   3.939453e+09   8.037036e+08   1.229015e+09   1.474304e+05   1.368935e-27   0.000000e+00   0.000000e+00
     3936000   3.935999e-05   2.595382e+01   6.599224e-01   2.670022e-01   3.711077e+04   3.236484e+04  -1.389641e+05   3.966577e+09   7.925719e+08   1.243875e+09   1.474304e+05   1.387013e-27   0.000000e+00   0.000000e+00
     3944000   3.943999e-05   2.595680e+01   6.625141e-01   2.558891e-01   3.742918e+04   3.242779e+04  -1.388640e+05   3.993729e+09   7.811961e+08   1.258889e+09   1.474304e+05   1.405276e-27   0.000000e+00   0.000000e+00
     3952000   3.951999e-05   2.595981e+01   6.651109e-01   2.447840e-01   3.774976e+04   3.248983e+04  -1.387627e+05   4.020907e+09   7.695738e+08   1.274056e+09   1.474304e+05   1.423725e-27   0.000000e+00   0.000000e+00
     3960000   3.959999e-05   2.596284e+01   6.677125e-01   2.336871e-01   3.807252e+04   3.255092e+04  -1.386601e+05   4.048107e+09   7.577022e+08   1.289378e+09   1.474304e+05   1.442360e-27   0.000000e+00   0.000000e+00
     3968000   3.967999e-05   2.596590e+01   6.703190e-01   2.225984e-01   3.839746e+04   3.261105e+04  -1.385564e+05   4.075327e+09   7.455789e+08   1.304856e+09   1.474304e+05   1.461184e-27   0.000000e+00   0.000000e+00
     3976000   3.975999e-05   2.596899e+01   6.729302e-01   2.115181e-01   3.872458e+04   3.267020e+04  -1.384514e+05   4.102564e+09   7.332014e+08   1.320490e+09   1.474304e+05   1.480196e-27   0.000000e+00   0.000000e+00
     3984000   3.983999e-05   2.597210e+01   6.755462e-01   2.004462e-01   3.905387e+04   3.272836e+04  -1.383451e+05   4.129816e+09   7.205670e+08   1.336282e+09   1.474304e+05   1.499398e-27   0.000000e+00   0.000000e+00
     3992000   3.991999e-05   2.597524e+01   6.781667e-01   1.893829e-01   3.938498e+04   3.278536e+04  -1.382377e+05   4.151957e+09   7.061077e+08   1.350388e+09   1.474304e+05   1.514937e-27   0.000000e+00   0.000000e+00
     4000000   3.999999e-05   2.597840e+01   6.807918e-01   1.783282e-01   3.971820e+04   3.284133e+04  -1.381290e+05   4.178689e+09   6.931045e+08   1.366348e+09   1.474304e+05   1.534133e-27   0.000000e+00   0.000000e+00
     4008000   4.007999e-05   2.598159e+01   6.834213e-01   1.672823e-01   4.005357e+04   3.289625e+04  -1.380191e+05   4.205427e+09   6.798368e+08   1.382463e+09   1.474304e+05   1.553515e-27   0.000000e+00   0.000000e+00
     4016000   4.015999e-05   2.598481e+01   6.860552e-01   1.562452e-01   4.039107e+04   3.295010e+04  -1.379078e+05   4.232170e+09   6.663023e+08   1.398734e+09   1.474304e+05   1.573084e-27   0.000000e+00   0.000000e+00
     4024000   4.023999e-05   2.598805e+01   6.886933e-01   1.452171e-01   4.073071e+04   3.300285e+04  -1.377953e+05   4.258913e+09   6.524984e+08   1.415162e+09   1.474304e+05   1.592841e-27   0.000000e+00   0.000000e+00
     4032000   4.031999e-05   2.599133e+01   6.913356e-01   1.341980e-01   4.107250e+04   3.305449e+04  -1.376814e+05   4.285655e+09   6.384227e+08   1.431748e+09   1.474304e+05   1.612787e-27   0.000000e+00   0.000000e+00
     4040000   4.039999e-05   2.599463e+01   6.939820e-01   1.231881e-01   4.141642e+04   3.310499e+04  -1.375662e+05   4.312392e+09   6.240729e+08   1.448492e+09   1.474304e+05   1.632923e-27   0.000000e+00   0.000000e+00
     4048000   4.047999e-05   2.599795e+01   6.966324e-01   1.121874e-01   4.176248e+04   3.315434e+04  -1.374496e+05   4.339121e+09   6.094463e+08   1.465395e+09   1.474304e+05   1.653250e-27   0.000000e+00   0.000000e+00
     4056000   4.055999e-05   2.600131e+01   6.992867e-01   1.011962e-01   4.211081e+04   3.320259e+04  -1.373317e+05   4.370043e+09   5.976713e+08   1.484509e+09   1.474304e+05   1.677373e-27   0.000000e+00   0.000000e+00
     4064000   4.063999e-05   2.600469e+01   7.019448e-01   9.021441e-02   4.246132e+04   3.324987e+04  -1.372122e+05   4.394809e+09   5.835108e+08   1.501403e+09   1.474304e+05   1.696796e-27   0.000000e+00   0.000000e+00
     4072000   4.071999e-05   2.600810e+01   7.046066e-01   7.924225e-02   4.281389e+04   3.329597e+04  -1.370914e+05   4.419354e+09   5.690698e+08   1.518383e+09   1.474304e+05   1.716233e-27   0.000000e+00   0.000000e+00
     4080000   4.079999e-05   2.601154e+01   7.072721e-01   6.827981e-02   4.316842e+04   3.334091e+04  -1.369693e+05   4.443883e+09   5.543513e+08   1.535510e+09   1.474304e+05   1.735841e-27   0.000000e+00   0.000000e+00
     4088000   4.087999e-05   2.601501e+01   7.099411e-01   5.732720e-02   4.352491e+04   3.338466e+04  -1.368458e+05   4.468393e+09   5.393532e+08   1.552787e+09   1.474304e+05   1.755620e-27   0.000000e+00   0.000000e+00
     4096000   4.095999e-05   2.601850e+01   7.126136e-01   4.638453e-02   4.388336e+04   3.342720e+04  -1.367208e+05   4.492880e+09   5.240732e+08   1.570212e+09   1.474304e+05   1.775571e-27   0.000000e+00   0.000000e+00
     4104000   4.103999e-05   2.602203e+01   7.152894e-01   3.545191e-02   4.424377e+04   3.346851e+04  -1.365945e+05   4.517341e+09   5.085095e+08   1.587787e+09   1.474304e+05   1.795694e-27   0.000000e+00   0.000000e+00
     4112000   4.111999e-05   2.602558e+01   7.179685e-01   2.452944e-02   4.460614e+04   3.350856e+04  -1.364668e+05   4.541774e+09   4.926600e+08   1.605512e+09   1.474304e+05   1.815991e-27   0.000000e+00   0.000000e+00
     4120000   4.119999e-05   2.602917e+01   7.206508e-01   1.361726e-02   4.497045e+04   3.354733e+04  -1.363376e+05   4.566175e+09   4.765225e+08   1.623387e+09   1.474304e+05   1.836462e-27   0.000000e+00   0.000000e+00
     4128000   4.127999e-05   2.603278e+01   7.233361e-01   2.715460e-03   4.533672e+04   3.358479e+04  -1.362070e+05   4.590540e+09   4.600951e+08   1.641413e+09   1.474304e+05   1.857107e-27   0.000000e+00   0.000000e+00
