     timestep     time              x             y              z              vx             vy             vz             ax             ay             az         v_magnitude      ELoss        Electronic      Nuclear
           0   0.000000e+00   4.563766e+01   1.000000e-01   2.953554e+01   2.306177e+05  -1.602531e+04   4.152011e+04   0.000000e+00   0.000000e+00   0.000000e+00   2.348729e+05   0.000000e+00   0.000000e+00   0.000000e+00
        8000   7.999000e-08   4.565597e+01   1.000474e-01   2.953966e+01   2.259612e+05   1.681517e+04   6.184064e+04  -1.023914e+11   3.709571e+11   2.732993e+11   2.348733e+05   4.379118e-23   0.000000e+00   0.000000e+00
       16000   1.599900e-07   4.567364e+01   1.025367e-01   2.954550e+01   2.144681e+05   4.482515e+04   8.461544e+04  -1.845655e+11   3.264711e+11   2.948822e+11   2.348737e+05   4.473825e-23   0.000000e+00   0.000000e+00
       24000   2.399900e-07   4.569012e+01   1.071065e-01   2.955323e+01   1.965195e+05   6.860412e+04   1.088090e+05  -2.633822e+11   2.652830e+11   3.084542e+11   2.348741e+05   4.617047e-23   0.000000e+00   0.000000e+00
       32000   3.199900e-07   4.570492e+01   1.133656e-01   2.956293e+01   1.724848e+05   8.684547e+04   1.336894e+05  -3.362359e+11   1.882184e+11   3.115589e+11   2.348745e+05   4.826599e-23   0.000000e+00   0.000000e+00
       40000   3.999900e-07   4.571757e+01   1.208218e-01   2.957462e+01   1.429335e+05   9.834368e+04   1.583186e+05  -4.009343e+11   9.705169e+10   3.017025e+11   2.348749e+05   5.134073e-23   0.000000e+00   0.000000e+00
       48000   4.799900e-07   4.572766e+01   1.288928e-01   2.958823e+01   1.086335e+05   1.020574e+05   1.815199e+05  -4.544052e+11  -5.904371e+09   2.752811e+11   2.348754e+05   5.548968e-23   0.000000e+00   0.000000e+00
       56000   5.599900e-07   4.573485e+01   1.369214e-01   2.960358e+01   7.084645e+04   9.715414e+04   2.017635e+05  -4.814023e+11  -1.188733e+11   2.262928e+11   2.348759e+05   5.839646e-23   0.000000e+00   0.000000e+00
       64000   6.399900e-07   4.573894e+01   1.441857e-01   2.962039e+01   3.108322e+04   8.284894e+04   2.175702e+05  -5.096711e+11  -2.391461e+11   1.638949e+11   2.348764e+05   6.758203e-23   0.000000e+00   0.000000e+00
       72000   7.199900e-07   4.573979e+01   1.499202e-01   2.963823e+01  -1.012244e+04   5.892946e+04   2.271389e+05  -5.161573e+11  -3.578270e+11   6.985055e+10   2.348770e+05   7.849579e-23   0.000000e+00   0.000000e+00
       80000   7.999900e-07   4.573734e+01   1.533706e-01   2.965650e+01  -5.068402e+04   2.589908e+04   2.278770e+05  -4.919309e+11  -4.650273e+11  -5.654211e+10   2.348778e+05   9.070429e-23   0.000000e+00   0.000000e+00
       88000   8.799900e-07   4.573177e+01   1.538577e-01   2.967439e+01  -8.774303e+04  -1.483441e+04   2.173685e+05  -4.269635e+11  -5.481161e+11  -2.097304e+11   2.348786e+05   1.035356e-22   0.000000e+00   0.000000e+00
       96000   9.599900e-07   4.572349e+01   1.508572e-01   2.969093e+01  -1.176875e+05  -6.077852e+04   1.939691e+05  -3.130906e+11  -5.929259e+11  -3.757202e+11   2.348796e+05   1.161244e-22   0.000000e+00   0.000000e+00
      104000   1.039990e-06   4.571324e+01   1.441062e-01   2.970509e+01  -1.363565e+05  -1.072602e+05   1.583384e+05  -1.519450e+11  -5.538478e+11  -5.059966e+11   2.348806e+05   1.151646e-22   0.000000e+00   0.000000e+00
      112000   1.119990e-06   4.570202e+01   1.337927e-01   2.971598e+01  -1.418052e+05  -1.498874e+05   1.122249e+05   2.362800e+10  -5.020283e+11  -6.405936e+11   2.348816e+05   1.303187e-22   0.000000e+00   0.000000e+00
      120000   1.199990e-06   4.569097e+01   1.202987e-01   2.972280e+01  -1.315380e+05  -1.859742e+05   5.728241e+04   2.378609e+11  -3.904392e+11  -7.212787e+11   2.348828e+05   1.433559e-22   0.000000e+00   0.000000e+00
      128000   1.279990e-06   4.568145e+01   1.043356e-01   2.972506e+01  -1.034334e+05  -2.108817e+05  -9.844824e+02   4.634510e+11  -2.239888e+11  -7.201926e+11   2.348841e+05   1.540462e-22   0.000000e+00   0.000000e+00
      136000   1.359990e-06   4.567507e+01   8.693531e-02   2.972258e+01  -5.147807e+04  -2.210486e+05  -6.048864e+04   7.847443e+11   3.743658e+09  -6.817059e+11   2.348858e+05   2.124207e-22   0.000000e+00   0.000000e+00
      144000   1.439990e-06   4.567362e+01   6.956593e-02   2.971582e+01   1.638253e+04  -2.094941e+05  -1.049572e+05   8.839613e+11   2.797328e+11  -4.204687e+11   2.348876e+05   2.037500e-22   0.000000e+00   0.000000e+00
      152000   1.519990e-06   4.567773e+01   5.395778e-02   2.970638e+01   8.568672e+04  -1.777328e+05  -1.274435e+05   8.249217e+11   5.026391e+11  -1.464191e+11   2.348893e+05   1.876626e-22   0.000000e+00   0.000000e+00
      160000   1.599990e-06   4.568709e+01   4.155112e-02   2.969597e+01   1.470603e+05  -1.293612e+05  -1.296638e+05   7.059151e+11   7.151888e+11   8.702716e+10   2.348910e+05   2.000113e-22   0.000000e+00   0.000000e+00
      168000   1.679990e-06   4.570086e+01   3.362674e-02   2.968610e+01   1.937157e+05  -6.736413e+04  -1.145028e+05   4.517764e+11   8.188141e+11   2.825079e+11   2.348927e+05   1.876254e-22   0.000000e+00   0.000000e+00
      176000   1.759990e-06   4.571750e+01   3.089447e-02   2.967801e+01   2.186613e+05  -7.817581e+02  -8.580179e+04   1.703923e+11   8.310516e+11   4.265587e+11   2.348942e+05   1.772598e-22   0.000000e+00   0.000000e+00
      184000   1.839990e-06   4.573524e+01   3.343664e-02   2.967263e+01   2.211338e+05   6.339199e+04  -4.751116e+04  -1.054996e+11   7.604496e+11   5.234190e+11   2.348957e+05   1.697414e-22   0.000000e+00   0.000000e+00
      192000   1.919990e-06   4.575232e+01   4.080787e-02   2.967057e+01   2.024987e+05   1.190003e+05  -3.148177e+03  -3.547322e+11   6.190252e+11   5.790477e+11   2.348972e+05   1.659962e-22   0.000000e+00   0.000000e+00
      200000   1.999990e-06   4.576715e+01   5.210972e-02   2.967220e+01   1.653900e+05   1.608803e+05   4.405723e+04  -5.660332e+11   4.193109e+11   5.939072e+11   2.348986e+05   1.669054e-22   0.000000e+00   0.000000e+00
      208000   2.079990e-06   4.577838e+01   6.607058e-02   2.967760e+01   1.131197e+05   1.848643e+05   9.059348e+04  -7.327099e+11   1.737697e+11   5.604039e+11   2.349001e+05   1.732319e-22   0.000000e+00   0.000000e+00
      216000   2.159990e-06   4.578495e+01   8.112655e-02   2.968656e+01   4.956689e+04   1.878378e+05   1.320563e+05  -8.461731e+11  -1.031746e+11   4.644357e+11   2.349016e+05   1.852743e-22   0.000000e+00   0.000000e+00
      224000   2.239990e-06   4.578614e+01   9.551614e-02   2.969845e+01  -2.042663e+04   1.680614e+05   1.628425e+05  -8.902177e+11  -3.906760e+11   2.915929e+11   2.349033e+05   2.025365e-22   0.000000e+00   0.000000e+00
      232000   2.319990e-06   4.578201e+01   1.075884e-01   2.971215e+01  -8.083565e+04   1.317704e+05   1.768683e+05  -7.119840e+11  -5.312054e+11   7.039934e+10   2.349047e+05   1.561226e-22   0.000000e+00   0.000000e+00
      240000   2.399990e-06   4.577335e+01   1.162868e-01   2.972628e+01  -1.344322e+05   8.410132e+04   1.733085e+05  -6.189536e+11  -6.500791e+11  -1.645993e+11   2.349061e+05   1.637416e-22   0.000000e+00   0.000000e+00
      248000   2.479990e-06   4.576076e+01   1.208621e-01   2.973935e+01  -1.783153e+05   2.962570e+04   1.500251e+05  -4.678343e+11  -6.990125e+11  -4.179596e+11   2.349076e+05   1.734522e-22   0.000000e+00   0.000000e+00
      256000   2.559990e-06   4.574521e+01   1.210072e-01   2.974976e+01  -2.076075e+05  -2.557252e+04   1.068994e+05  -2.543415e+11  -6.669781e+11  -6.534197e+11   2.349091e+05   1.841368e-22   0.000000e+00   0.000000e+00
      264000   2.639990e-06   4.572806e+01   1.169277e-01   2.975601e+01  -2.175915e+05  -7.489224e+04   4.720313e+04   1.149117e+10  -5.530239e+11  -8.242455e+11   2.349107e+05   1.937431e-22   0.000000e+00   0.000000e+00
      272000   2.719990e-06   4.571100e+01   1.093459e-01   2.975705e+01  -2.051905e+05  -1.122128e+05  -2.211300e+04   2.982770e+11  -3.704582e+11  -8.883291e+11   2.349124e+05   1.996432e-22   0.000000e+00   0.000000e+00
      280000   2.799990e-06   4.569583e+01   9.941508e-02   2.975247e+01  -1.697559e+05  -1.333833e+05  -9.260963e+04   7.528936e+11  -2.202601e+11  -1.063027e+12   2.349143e+05   3.432016e-22   0.000000e+00   0.000000e+00
      288000   2.879990e-06   4.568497e+01   8.848386e-02   2.974197e+01  -9.871458e+04  -1.345529e+05  -1.653390e+05   9.772355e+11   1.785263e+11  -7.288287e+11   2.349170e+05   2.985102e-22   0.000000e+00   0.000000e+00
      296000   2.959990e-06   4.568022e+01   7.862915e-02   2.972684e+01  -2.050631e+04  -1.080814e+05  -2.075693e+05   9.394588e+11   4.580757e+11  -3.313898e+11   2.349194e+05   2.364152e-22   0.000000e+00   0.000000e+00
      304000   3.039990e-06   4.568140e+01   7.162398e-02   2.970954e+01   4.700785e+04  -6.534090e+04  -2.207006e+05   7.302822e+11   5.867087e+11  -1.819595e+10   2.349211e+05   1.726341e-22   0.000000e+00   0.000000e+00
      312000   3.119990e-06   4.568725e+01   6.835959e-02   2.969206e+01   9.699150e+04  -1.442455e+04  -2.134787e+05   5.275906e+11   6.980097e+11   1.925031e+11   2.349225e+05   1.578352e-22   0.000000e+00   0.000000e+00
      320000   3.199990e-06   4.569643e+01   6.947355e-02   2.967578e+01   1.292224e+05   4.242564e+04  -1.915485e+05   2.786700e+11   7.098171e+11   3.451756e+11   2.349238e+05   1.377816e-22   0.000000e+00   0.000000e+00
      328000   3.279990e-06   4.570741e+01   7.509380e-02   2.966167e+01   1.420473e+05   9.731843e+04  -1.598168e+05   4.743884e+10   6.530064e+11   4.397655e+11   2.349249e+05   1.223293e-22   0.000000e+00   0.000000e+00
      336000   3.359990e-06   4.571871e+01   8.486885e-02   2.965036e+01   1.378396e+05   1.456818e+05  -1.223407e+05  -1.456508e+11   5.501267e+11   4.909352e+11   2.349259e+05   1.110833e-22   0.000000e+00   0.000000e+00
      344000   3.439990e-06   4.572909e+01   9.815010e-02   2.964217e+01   1.198672e+05   1.846072e+05  -8.211379e+04  -2.968044e+11   4.196678e+11   5.101618e+11   2.349269e+05   1.031407e-22   0.000000e+00   0.000000e+00
      352000   3.519990e-06   4.573772e+01   1.140354e-01   2.963717e+01   9.476936e+04   2.105718e+05  -4.323521e+04  -3.578607e+11   2.584771e+11   4.743713e+11   2.349276e+05   8.257587e-23   0.000000e+00   0.000000e+00
      360000   3.599990e-06   4.574407e+01   1.315745e-01   2.963520e+01   6.299793e+04   2.262302e+05  -6.515422e+03  -4.315562e+11   1.328816e+11   4.406025e+11   2.349283e+05   7.827463e-23   0.000000e+00   0.000000e+00
      368000   3.679990e-06   4.574767e+01   1.499653e-01   2.963604e+01   2.643953e+04   2.318933e+05   2.679687e+04  -4.782625e+11   9.550307e+09   3.893808e+11   2.349290e+05   7.481674e-23   0.000000e+00   0.000000e+00
      376000   3.759990e-06   4.574823e+01   1.684211e-01   2.963936e+01  -1.291561e+04   2.279547e+05   5.533329e+04  -5.020976e+11  -1.063997e+11   3.212006e+11   2.349296e+05   7.209318e-23   0.000000e+00   0.000000e+00
      384000   3.839990e-06   4.574558e+01   1.862021e-01   2.964473e+01  -5.336710e+04   2.151791e+05   7.773102e+04  -5.060277e+11  -2.106986e+11   2.358937e+11   2.349302e+05   7.003076e-23   0.000000e+00   0.000000e+00
      392000   3.919990e-06   4.573970e+01   2.026452e-01   2.965160e+01  -9.282320e+04   1.949916e+05   9.249110e+04  -4.496107e+11  -2.732868e+11   1.249553e+11   2.349308e+05   5.751295e-23   0.000000e+00   0.000000e+00
      400000   3.999990e-06   4.573087e+01   2.173073e-01   2.965929e+01  -1.276050e+05   1.708384e+05   9.860990e+04  -4.174491e+11  -3.274586e+11   2.714435e+10   2.349313e+05   5.550337e-23   0.000000e+00   0.000000e+00
      408000   4.079990e-06   4.571937e+01   2.298839e-01   2.966716e+01  -1.592275e+05   1.431097e+05   9.674259e+04  -3.707600e+11  -3.624552e+11  -7.402721e+10   2.349318e+05   5.394737e-23   0.000000e+00   0.000000e+00
      416000   4.159990e-06   4.570551e+01   2.401515e-01   2.967456e+01  -1.865583e+05   1.133826e+05   8.679586e+04  -3.102892e+11  -3.773305e+11  -1.739902e+11   2.349322e+05   5.288821e-23   0.000000e+00   0.000000e+00
      424000   4.239990e-06   4.568966e+01   2.480154e-01   2.968084e+01  -2.085313e+05   8.329341e+04   6.906703e+04  -2.370527e+11  -3.716336e+11  -2.675027e+11   2.349327e+05   5.228519e-23   0.000000e+00   0.000000e+00
      432000   4.319990e-06   4.567231e+01   2.535111e-01   2.968542e+01  -2.241976e+05   5.442761e+04   4.434711e+04  -1.530418e+11  -3.469515e+11  -3.478291e+11   2.349331e+05   5.207276e-23   0.000000e+00   0.000000e+00
      440000   4.399990e-06   4.565398e+01   2.567954e-01   2.968778e+01  -2.328149e+05   2.823785e+04   1.391459e+04  -6.149737e+10  -3.051961e+11  -4.094106e+11   2.349336e+05   5.202603e-23   0.000000e+00   0.000000e+00
      448000   4.479990e-06   4.563526e+01   2.581338e-01   2.968754e+01  -2.339591e+05   5.964132e+03  -2.053237e+04   3.290163e+10  -2.496945e+11  -4.475608e+11   2.349340e+05   5.186832e-23   0.000000e+00   0.000000e+00
      456000   4.559990e-06   4.561675e+01   2.578793e-01   2.968445e+01  -2.276270e+05  -1.145915e+04  -5.699851e+04   1.243893e+11  -1.847030e+11  -4.596688e+11   2.349345e+05   5.130667e-23   0.000000e+00   0.000000e+00
      464000   4.639990e-06   4.559903e+01   2.564453e-01   2.967842e+01  -2.142971e+05  -2.346074e+04  -9.338511e+04   2.069584e+11  -1.148152e+11  -4.461040e+11   2.349349e+05   5.015446e-23   0.000000e+00   0.000000e+00
      472000   4.719990e-06   4.558262e+01   2.542760e-01   2.966956e+01  -1.949118e+05  -2.984015e+04  -1.277246e+05   2.748177e+11  -4.505035e+10  -4.088749e+11   2.349353e+05   4.813102e-23   0.000000e+00   0.000000e+00
      480000   4.799990e-06   4.556797e+01   2.518162e-01   2.965809e+01  -1.708297e+05  -3.078029e+04  -1.583180e+05   3.238429e+11   2.053934e+10  -3.534437e+11   2.349357e+05   4.527679e-23   0.000000e+00   0.000000e+00
      488000   4.879990e-06   4.555537e+01   2.494838e-01   2.964436e+01  -1.436586e+05  -2.675232e+04  -1.839606e+05   3.518671e+11   7.870073e+10  -2.862366e+11   2.349361e+05   4.168136e-23   0.000000e+00   0.000000e+00
      496000   4.959990e-06   4.554502e+01   2.476500e-01   2.962880e+01  -1.150928e+05  -1.844426e+04  -2.039819e+05   3.588823e+11   1.272753e+11  -2.140100e+11   2.349365e+05   3.752400e-23   0.000000e+00   0.000000e+00
      504000   5.039990e-06   4.553695e+01   2.466251e-01   2.961188e+01  -8.674814e+04  -6.673252e+03  -2.182327e+05   3.467919e+11   1.651774e+11  -1.429094e+11   2.349368e+05   3.303525e-23   0.000000e+00   0.000000e+00
      512000   5.119990e-06   4.553110e+01   2.466539e-01   2.959403e+01  -5.971877e+04   7.884708e+03  -2.270835e+05   3.315000e+11   2.010049e+11  -8.020605e+10   2.349370e+05   3.082402e-23   0.000000e+00   0.000000e+00
      520000   5.199990e-06   4.552735e+01   2.479582e-01   2.957567e+01  -3.451365e+04   2.506609e+04  -2.310325e+05   2.969544e+11   2.267060e+11  -1.977102e+10   2.349373e+05   2.752793e-23   0.000000e+00   0.000000e+00
      528000   5.279990e-06   4.552549e+01   2.507079e-01   2.955719e+01  -1.242353e+04   4.387719e+04  -2.304693e+05   2.542623e+11   2.418973e+11   3.234139e+10   2.349375e+05   2.442865e-23   0.000000e+00   0.000000e+00
      536000   5.359990e-06   4.552526e+01   2.550006e-01   2.953890e+01   6.048933e+03   6.351837e+04  -2.261074e+05   2.070949e+11   2.476707e+11   7.511142e+10   2.349377e+05   2.160866e-23   0.000000e+00   0.000000e+00
      544000   5.439990e-06   4.552636e+01   2.608742e-01   2.952109e+01   2.067833e+04   8.329004e+04  -2.187030e+05   1.586749e+11   2.454049e+11   1.084573e+11   2.349379e+05   1.910965e-23   0.000000e+00   0.000000e+00
      552000   5.519990e-06   4.552847e+01   2.683148e-01   2.950397e+01   3.147329e+04   1.026089e+05  -2.089898e+05   1.116143e+11   2.366048e+11   1.329718e+11   2.349381e+05   1.693775e-23   0.000000e+00   0.000000e+00
      560000   5.599990e-06   4.553130e+01   2.772822e-01   2.948771e+01   3.866647e+04   1.215375e+05  -1.973056e+05   6.920705e+10   2.327783e+11   1.569467e+11   2.349382e+05   1.644334e-23   0.000000e+00   0.000000e+00
      568000   5.679990e-06   4.553457e+01   2.877356e-01   2.947244e+01   4.263711e+04   1.396051e+05  -1.840883e+05   3.065641e+10   2.182539e+11   1.726110e+11   2.349383e+05   1.541308e-23   0.000000e+00   0.000000e+00
      576000   5.759990e-06   4.553804e+01   2.995841e-01   2.945828e+01   4.367496e+04   1.563671e+05  -1.698173e+05  -4.012673e+09   2.003183e+11   1.834160e+11   2.349385e+05   1.451150e-23   0.000000e+00   0.000000e+00
      584000   5.839990e-06   4.554150e+01   3.126979e-01   2.944528e+01   4.234640e+04   1.712089e+05  -1.552109e+05  -3.182394e+10   1.756617e+11   1.850809e+11   2.349386e+05   1.300495e-23   0.000000e+00   0.000000e+00
      592000   5.919990e-06   4.554475e+01   3.269350e-01   2.943345e+01   3.867776e+04   1.844425e+05  -1.402896e+05  -5.922270e+10   1.549585e+11   1.873960e+11   2.349387e+05   1.231897e-23   0.000000e+00   0.000000e+00
      600000   5.999990e-06   4.554763e+01   3.421633e-01   2.942283e+01   3.297793e+04   1.959755e+05  -1.253088e+05  -8.259912e+10   1.332559e+11   1.866618e+11   2.349388e+05   1.168680e-23   0.000000e+00   0.000000e+00
      608000   6.079990e-06   4.554998e+01   3.582442e-01   2.941340e+01   2.556775e+04   2.057531e+05  -1.104910e+05  -1.020025e+11   1.111671e+11   1.834034e+11   2.349389e+05   1.109227e-23   0.000000e+00   0.000000e+00
      616000   6.159990e-06   4.555169e+01   3.750367e-01   2.940514e+01   1.675859e+04   2.137657e+05  -9.601924e+04  -1.176128e+11   8.921359e+10   1.780815e+11   2.349390e+05   1.052300e-23   0.000000e+00   0.000000e+00
      624000   6.239990e-06   4.555263e+01   3.924009e-01   2.939803e+01   6.690804e+03   2.200838e+05  -8.194335e+04  -1.364268e+11   6.947849e+10   1.754596e+11   2.349391e+05   1.066473e-23   0.000000e+00   0.000000e+00
      632000   6.319990e-06   4.555273e+01   4.102054e-01   2.939202e+01  -4.347459e+03   2.247205e+05  -6.839743e+04  -1.402545e+11   4.704990e+10   1.634907e+11   2.349392e+05   9.561130e-24   0.000000e+00   0.000000e+00
      640000   6.399990e-06   4.555192e+01   4.283123e-01   2.938706e+01  -1.593295e+04   2.276898e+05  -5.567735e+04  -1.489665e+11   2.730434e+10   1.542804e+11   2.349392e+05   9.192333e-24   0.000000e+00   0.000000e+00
      648000   6.479990e-06   4.555016e+01   4.465945e-01   2.938309e+01  -2.811832e+04   2.291114e+05  -4.374732e+04  -1.552844e+11   8.396128e+09   1.437697e+11   2.349393e+05   8.821509e-24   0.000000e+00   0.000000e+00
      656000   6.559990e-06   4.554741e+01   4.649309e-01   2.938004e+01  -4.072002e+04   2.290607e+05  -3.270445e+04  -1.594090e+11  -9.471420e+09   1.321282e+11   2.349394e+05   8.448886e-24   0.000000e+00   0.000000e+00
      664000   6.639990e-06   4.554364e+01   4.832073e-01   2.937783e+01  -5.357068e+04   2.276280e+05  -2.263300e+04  -1.615415e+11  -2.613316e+10   1.195085e+11   2.349395e+05   8.075618e-24   0.000000e+00   0.000000e+00
      672000   6.719990e-06   4.553884e+01   5.013172e-01   2.937639e+01  -6.649336e+04   2.249216e+05  -1.361989e+04  -1.575659e+11  -4.030518e+10   1.036141e+11   2.349395e+05   7.313812e-24   0.000000e+00   0.000000e+00
      680000   6.799990e-06   4.553301e+01   5.191673e-01   2.937562e+01  -7.908487e+04   2.211507e+05  -5.880194e+03  -1.569591e+11  -5.374057e+10   8.978769e+10   2.349396e+05   6.998864e-24   0.000000e+00   0.000000e+00
      688000   6.879990e-06   4.552619e+01   5.366741e-01   2.937542e+01  -9.156681e+04   2.163599e+05   7.330739e+02  -1.548521e+11  -6.578992e+10   7.547623e+10   2.349397e+05   6.687753e-24   0.000000e+00   0.000000e+00
      696000   6.959990e-06   4.551837e+01   5.537607e-01   2.937570e+01  -1.038251e+05   2.106626e+05   6.186494e+03  -1.513924e+11  -7.639816e+10   6.081351e+10   2.349397e+05   6.383006e-24   0.000000e+00   0.000000e+00
      704000   7.039990e-06   4.550958e+01   5.703591e-01   2.937638e+01  -1.157571e+05   2.041755e+05   1.045721e+04  -1.467158e+11  -8.553126e+10   4.593042e+10   2.349398e+05   6.087226e-24   0.000000e+00   0.000000e+00
      712000   7.119990e-06   4.549986e+01   5.864109e-01   2.937734e+01  -1.272703e+05   1.970174e+05   1.353272e+04  -1.407859e+11  -9.306535e+10   3.088329e+10   2.349398e+05   5.789244e-24   0.000000e+00   0.000000e+00
      720000   7.199990e-06   4.548924e+01   6.018676e-01   2.937851e+01  -1.382448e+05   1.893353e+05   1.540267e+04  -1.316334e+11  -9.738590e+10   1.566187e+10   2.349399e+05   5.321363e-24   0.000000e+00   0.000000e+00
      728000   7.279990e-06   4.547776e+01   6.166974e-01   2.937978e+01  -1.484994e+05   1.813447e+05   1.608704e+04  -1.245932e+11  -1.021578e+11   1.492177e+09   2.349399e+05   5.106054e-24   0.000000e+00   0.000000e+00
      736000   7.359990e-06   4.546549e+01   6.308740e-01   2.938105e+01  -1.581585e+05   1.730253e+05   1.564974e+04  -1.167599e+11  -1.056081e+11  -1.236034e+10   2.349400e+05   4.904822e-24   0.000000e+00   0.000000e+00
      744000   7.439990e-06   4.545247e+01   6.443754e-01   2.938225e+01  -1.671623e+05   1.644815e+05   1.412081e+04  -1.082271e+11  -1.077763e+11  -2.577945e+10   2.349400e+05   4.718904e-24   0.000000e+00   0.000000e+00
      752000   7.519990e-06   4.543876e+01   6.571878e-01   2.938328e+01  -1.754585e+05   1.558139e+05   1.153947e+04  -9.908445e+10  -1.087127e+11  -3.865209e+10   2.349400e+05   4.549124e-24   0.000000e+00   0.000000e+00
      760000   7.599990e-06   4.542442e+01   6.693049e-01   2.938407e+01  -1.830018e+05   1.471188e+05   7.953833e+03  -8.941930e+10  -1.084774e+11  -5.086935e+10   2.349401e+05   4.395853e-24   0.000000e+00   0.000000e+00
      768000   7.679990e-06   4.540950e+01   6.807285e-01   2.938453e+01  -1.897538e+05   1.384870e+05   3.420504e+03  -7.931786e+10  -1.071397e+11  -6.232770e+10   2.349401e+05   4.258995e-24   0.000000e+00   0.000000e+00
      776000   7.759990e-06   4.539408e+01   6.914668e-01   2.938459e+01  -1.956831e+05   1.300039e+05  -1.997703e+03  -6.886200e+10  -1.047717e+11  -7.299009e+10   2.349402e+05   4.139346e-24   0.000000e+00   0.000000e+00
      784000   7.839990e-06   4.537822e+01   7.015353e-01   2.938419e+01  -2.007562e+05   1.217639e+05  -8.207692e+03  -5.750315e+10  -1.002557e+11  -8.085240e+10   2.349402e+05   3.912833e-24   0.000000e+00   0.000000e+00
      792000   7.919990e-06   4.536198e+01   7.109593e-01   2.938327e+01  -2.049432e+05   1.138846e+05  -1.501536e+04  -4.714809e+10  -9.660230e+10  -8.917738e+10   2.349402e+05   3.836645e-24   0.000000e+00   0.000000e+00
      800000   7.999990e-06   4.534545e+01   7.197654e-01   2.938177e+01  -2.082970e+05   1.063264e+05  -2.244971e+04  -3.668549e+10  -9.224362e+10  -9.651117e+10   2.349403e+05   3.770084e-24   0.000000e+00   0.000000e+00
      808000   8.079990e-06   4.532868e+01   7.279815e-01   2.937966e+01  -2.108122e+05   9.914226e+04  -3.042960e+04  -2.620017e+10  -8.726440e+10  -1.028098e+11   2.349403e+05   3.711528e-24   0.000000e+00   0.000000e+00
      816000   8.159990e-06   4.531174e+01   7.356393e-01   2.937689e+01  -2.124906e+05   9.237840e+04  -3.887088e+04  -1.577742e+10  -8.175115e+10  -1.080416e+11   2.349403e+05   3.659171e-24   0.000000e+00   0.000000e+00
      824000   8.239990e-06   4.529470e+01   7.427743e-01   2.937343e+01  -2.133398e+05   8.607517e+04  -4.768831e+04  -5.474571e+09  -7.574274e+10  -1.122248e+11   2.349404e+05   3.611214e-24   0.000000e+00   0.000000e+00
      832000   8.319990e-06   4.527763e+01   7.494246e-01   2.936925e+01  -2.133739e+05   8.026725e+04  -5.679535e+04   4.572947e+09  -6.940350e+10  -1.152692e+11   2.349404e+05   3.564687e-24   0.000000e+00   0.000000e+00
      840000   8.399990e-06   4.526058e+01   7.556309e-01   2.936434e+01  -2.126165e+05   7.497794e+04  -6.610250e+04   1.430287e+10  -6.279181e+10  -1.172301e+11   2.349404e+05   3.518574e-24   0.000000e+00   0.000000e+00
      848000   8.479990e-06   4.524363e+01   7.614354e-01   2.935867e+01  -2.110960e+05   7.022566e+04  -7.552388e+04   2.363579e+10  -5.599153e+10  -1.181300e+11   2.349404e+05   3.471003e-24   0.000000e+00   0.000000e+00
      856000   8.559990e-06   4.522683e+01   7.668816e-01   2.935225e+01  -2.088473e+05   6.602224e+04  -8.497597e+04   3.249655e+10  -4.908330e+10  -1.180049e+11   2.349405e+05   3.420251e-24   0.000000e+00   0.000000e+00
      864000   8.639990e-06   4.521023e+01   7.720137e-01   2.934508e+01  -2.059109e+05   6.237323e+04  -9.437860e+04   4.081542e+10  -4.214372e+10  -1.169031e+11   2.349405e+05   3.364785e-24   0.000000e+00   0.000000e+00
      872000   8.719990e-06   4.519390e+01   7.768761e-01   2.933716e+01  -2.023324e+05   5.927985e+04  -1.036560e+05   4.854428e+10  -3.519095e+10  -1.148834e+11   2.349405e+05   3.302801e-24   0.000000e+00   0.000000e+00
      880000   8.799990e-06   4.517788e+01   7.815132e-01   2.932850e+01  -1.981623e+05   5.673714e+04  -1.127371e+05   5.559078e+10  -2.840075e+10  -1.120088e+11   2.349406e+05   3.233916e-24   0.000000e+00   0.000000e+00
      888000   8.879990e-06   4.516221e+01   7.859684e-01   2.931912e+01  -1.934567e+05   5.473130e+04  -1.215569e+05   6.192903e+10  -2.177909e+10  -1.083669e+11   2.349406e+05   3.157217e-24   0.000000e+00   0.000000e+00
      896000   8.959990e-06   4.514694e+01   7.902841e-01   2.930906e+01  -1.882735e+05   5.324661e+04  -1.300576e+05   6.752189e+10  -1.538000e+10  -1.040437e+11   2.349406e+05   3.072243e-24   0.000000e+00   0.000000e+00
      904000   9.039990e-06   4.513210e+01   7.945013e-01   2.929833e+01  -1.826552e+05   5.226900e+04  -1.382104e+05   7.389436e+10  -8.735020e+09  -1.009614e+11   2.349406e+05   3.093688e-24   0.000000e+00   0.000000e+00
      912000   9.119990e-06   4.511772e+01   7.986619e-01   2.928695e+01  -1.765596e+05   5.183308e+04  -1.460724e+05   7.836038e+10  -2.213792e+09  -9.550182e+10   2.349407e+05   3.002425e-24   0.000000e+00   0.000000e+00
      920000   9.199990e-06   4.510385e+01   8.028073e-01   2.927497e+01  -1.702166e+05   5.187398e+04  -1.534032e+05   8.059677e+10   3.313800e+09  -8.831077e+10   2.349407e+05   2.813571e-24   0.000000e+00   0.000000e+00
      928000   9.279990e-06   4.509050e+01   8.069739e-01   2.926242e+01  -1.636449e+05   5.236698e+04  -1.602348e+05   8.355385e+10   8.964040e+09  -8.240334e+10   2.349407e+05   2.724340e-24   0.000000e+00   0.000000e+00
      936000   9.359990e-06   4.507767e+01   8.111978e-01   2.924934e+01  -1.568687e+05   5.329977e+04  -1.665788e+05   8.572829e+10   1.429800e+10  -7.615696e+10   2.349407e+05   2.626346e-24   0.000000e+00   0.000000e+00
      944000   9.439990e-06   4.506540e+01   8.155129e-01   2.923578e+01  -1.499479e+05   5.464529e+04  -1.724143e+05   8.716959e+10   1.927866e+10  -6.970154e+10   2.349408e+05   2.523065e-24   0.000000e+00   0.000000e+00
      952000   9.519990e-06   4.505369e+01   8.199512e-01   2.922177e+01  -1.429406e+05   5.637449e+04  -1.777275e+05   8.789691e+10   2.388746e+10  -6.311635e+10   2.349408e+05   2.415217e-24   0.000000e+00   0.000000e+00
      960000   9.599990e-06   4.504253e+01   8.245422e-01   2.920736e+01  -1.359028e+05   5.845704e+04  -1.825114e+05   8.793653e+10   2.811062e+10  -5.647686e+10   2.349408e+05   2.303609e-24   0.000000e+00   0.000000e+00
      968000   9.679990e-06   4.503194e+01   8.293132e-01   2.919258e+01  -1.288691e+05   6.087411e+04  -1.867733e+05   8.787685e+10   3.235073e+10  -5.008960e+10   2.349408e+05   2.218094e-24   0.000000e+00   0.000000e+00
      976000   9.759990e-06   4.502191e+01   8.342908e-01   2.917749e+01  -1.218717e+05   6.361830e+04  -1.905182e+05   8.696054e+10   3.618771e+10  -4.354405e+10   2.349408e+05   2.117769e-24   0.000000e+00   0.000000e+00
      984000   9.839990e-06   4.501244e+01   8.394999e-01   2.916211e+01  -1.149706e+05   6.665359e+04  -1.937428e+05   8.547485e+10   3.962758e+10  -3.708980e+10   2.349409e+05   2.016320e-24   0.000000e+00   0.000000e+00
      992000   9.919990e-06   4.500351e+01   8.449623e-01   2.914650e+01  -1.082098e+05   6.994812e+04  -1.964564e+05   8.346341e+10   4.266922e+10  -3.078047e+10   2.349409e+05   1.914500e-24   0.000000e+00   0.000000e+00
     1000000   9.999990e-06   4.499512e+01   8.506976e-01   2.913069e+01  -1.016283e+05   7.346999e+04  -1.986733e+05   8.099102e+10   4.531447e+10  -2.467277e+10   2.349409e+05   1.813694e-24   0.000000e+00   0.000000e+00
     1008000   1.007999e-05   4.498725e+01   8.567227e-01   2.911473e+01  -9.526351e+04   7.718827e+04  -2.004097e+05   7.806210e+10   4.757765e+10  -1.878212e+10   2.349409e+05   1.713075e-24   0.000000e+00   0.000000e+00
     1016000   1.015999e-05   4.497987e+01   8.630522e-01   2.909864e+01  -8.914379e+04   8.107531e+04  -2.016864e+05   7.547840e+10   4.993187e+10  -1.328930e+10   2.349409e+05   1.645553e-24   0.000000e+00   0.000000e+00
     1024000   1.023999e-05   4.497298e+01   8.697001e-01   2.908247e+01  -8.323538e+04   8.514755e+04  -2.025315e+05   7.218039e+10   5.181309e+10  -7.881658e+09   2.349409e+05   1.564904e-24   0.000000e+00   0.000000e+00
     1032000   1.031999e-05   4.496655e+01   8.766794e-01   2.906625e+01  -7.760261e+04   8.935587e+04  -2.029547e+05   6.859534e+10   5.333613e+10  -2.746212e+09   2.349409e+05   1.486406e-24   0.000000e+00   0.000000e+00
     1040000   1.039999e-05   4.496055e+01   8.839999e-01   2.905001e+01  -7.226658e+04   9.367213e+04  -2.029786e+05   6.476973e+10   5.451367e+10   2.097034e+09   2.349410e+05   1.410421e-24   0.000000e+00   0.000000e+00
     1048000   1.047999e-05   4.495498e+01   8.916691e-01   2.903378e+01  -6.724470e+04   9.806924e+04  -2.026273e+05   6.074901e+10   5.536028e+10   6.632981e+09   2.349410e+05   1.337246e-24   0.000000e+00   0.000000e+00
     1056000   1.055999e-05   4.494979e+01   8.996924e-01   2.901760e+01  -6.255081e+04   1.025214e+05  -2.019258e+05   5.657712e+10   5.589206e+10   1.085113e+10   2.349410e+05   1.267119e-24   0.000000e+00   0.000000e+00
     1064000   1.063999e-05   4.494496e+01   9.080730e-01   2.900148e+01  -5.820731e+04   1.069945e+05  -2.009014e+05   5.215115e+10   5.602327e+10   1.472634e+10   2.349410e+05   1.194855e-24   0.000000e+00   0.000000e+00
     1072000   1.071999e-05   4.494046e+01   9.168121e-01   2.898546e+01  -5.419418e+04   1.114886e+05  -1.995759e+05   4.813452e+10   5.627209e+10   1.836407e+10   2.349410e+05   1.144801e-24   0.000000e+00   0.000000e+00
     1080000   1.079999e-05   4.493628e+01   9.259113e-01   2.896956e+01  -5.050795e+04   1.159910e+05  -1.979705e+05   4.401357e+10   5.624631e+10   2.172533e+10   2.349410e+05   1.096047e-24   0.000000e+00   0.000000e+00
     1088000   1.087999e-05   4.493237e+01   9.353704e-01   2.895379e+01  -4.715296e+04   1.204816e+05  -1.961073e+05   3.985861e+10   5.597941e+10   2.480776e+10   2.349410e+05   1.049827e-24   0.000000e+00   0.000000e+00
     1096000   1.095999e-05   4.492872e+01   9.451876e-01   2.893819e+01  -4.413075e+04   1.249417e+05  -1.940086e+05   3.569870e+10   5.548711e+10   2.761316e+10   2.349410e+05   1.006140e-24   0.000000e+00   0.000000e+00
     1104000   1.103999e-05   4.492530e+01   9.553598e-01   2.892276e+01  -4.144062e+04   1.293539e+05  -1.916965e+05   3.156078e+10   5.478560e+10   3.014550e+10   2.349410e+05   9.649546e-25   0.000000e+00   0.000000e+00
     1112000   1.111999e-05   4.492209e+01   9.658825e-01   2.890752e+01  -3.907982e+04   1.337022e+05  -1.891924e+05   2.746957e+10   5.389132e+10   3.241058e+10   2.349410e+05   9.262095e-25   0.000000e+00   0.000000e+00
     1120000   1.119999e-05   4.491904e+01   9.767503e-01   2.889249e+01  -3.703518e+04   1.379860e+05  -1.865089e+05   2.370923e+10   5.321759e+10   3.466409e+10   2.349411e+05   9.038939e-25   0.000000e+00   0.000000e+00
     1128000   1.127999e-05   4.491615e+01   9.879584e-01   2.887768e+01  -3.528884e+04   1.422021e+05  -1.836589e+05   1.996318e+10   5.215797e+10   3.654846e+10   2.349411e+05   8.761495e-25   0.000000e+00   0.000000e+00
     1136000   1.135999e-05   4.491339e+01   9.995002e-01   2.886311e+01  -3.383872e+04   1.463273e+05  -1.806670e+05   1.630662e+10   5.095012e+10   3.821149e+10   2.349411e+05   8.500241e-25   0.000000e+00   0.000000e+00
     1144000   1.143999e-05   4.491073e+01   1.011367e+00   2.884878e+01  -3.268703e+04   1.503299e+05  -1.775663e+05   1.258313e+10   4.933708e+10   3.945283e+10   2.349411e+05   8.160129e-25   0.000000e+00   0.000000e+00
     1152000   1.151999e-05   4.490815e+01   1.023550e+00   2.883470e+01  -3.182234e+04   1.542189e+05  -1.743594e+05   9.053083e+09   4.786789e+10   4.068610e+10   2.349411e+05   7.923415e-25   0.000000e+00   0.000000e+00
     1160000   1.159999e-05   4.490563e+01   1.036039e+00   2.882088e+01  -3.123545e+04   1.579859e+05  -1.710618e+05   5.640143e+09   4.628968e+10   4.172120e+10   2.349411e+05   7.700289e-25   0.000000e+00   0.000000e+00
     1168000   1.167999e-05   4.490315e+01   1.048824e+00   2.880733e+01  -3.091655e+04   1.616227e+05  -1.676890e+05   2.354682e+09   4.461569e+10   4.256730e+10   2.349411e+05   7.489600e-25   0.000000e+00   0.000000e+00
     1176000   1.175999e-05   4.490068e+01   1.061895e+00   2.879405e+01  -3.085443e+04   1.651293e+05  -1.642487e+05  -7.498480e+08   4.308120e+10   4.345281e+10   2.349411e+05   7.364940e-25   0.000000e+00   0.000000e+00
     1184000   1.183999e-05   4.489820e+01   1.075241e+00   2.878105e+01  -3.102866e+04   1.685061e+05  -1.607490e+05  -3.602497e+09   4.133640e+10   4.402628e+10   2.349411e+05   7.198338e-25   0.000000e+00   0.000000e+00
     1192000   1.191999e-05   4.489571e+01   1.088852e+00   2.876834e+01  -3.142820e+04   1.717418e+05  -1.572080e+05  -6.362806e+09   3.954699e+10   4.447491e+10   2.349411e+05   7.045869e-25   0.000000e+00   0.000000e+00
     1200000   1.199999e-05   4.489317e+01   1.102716e+00   2.875590e+01  -3.204326e+04   1.748299e+05  -1.536394e+05  -9.009608e+09   3.755700e+10   4.461585e+10   2.349411e+05   6.848816e-25   0.000000e+00   0.000000e+00
     1208000   1.207999e-05   4.489057e+01   1.116821e+00   2.874375e+01  -3.286862e+04   1.777587e+05  -1.500627e+05  -1.160119e+10   3.565565e+10   4.477717e+10   2.349411e+05   6.708454e-25   0.000000e+00   0.000000e+00
     1216000   1.215999e-05   4.488790e+01   1.131154e+00   2.873189e+01  -3.389575e+04   1.805338e+05  -1.464785e+05  -1.405325e+10   3.371626e+10   4.480683e+10   2.349411e+05   6.572793e-25   0.000000e+00   0.000000e+00
     1224000   1.223999e-05   4.488515e+01   1.145702e+00   2.872032e+01  -3.511339e+04   1.831525e+05  -1.428969e+05  -1.636356e+10   3.174826e+10   4.471280e+10   2.349411e+05   6.441061e-25   0.000000e+00   0.000000e+00
     1232000   1.231999e-05   4.488228e+01   1.160454e+00   2.870903e+01  -3.651013e+04   1.856130e+05  -1.393276e+05  -1.853081e+10   2.976066e+10   4.450301e+10   2.349411e+05   6.312539e-25   0.000000e+00   0.000000e+00
     1240000   1.239999e-05   4.487930e+01   1.175396e+00   2.869802e+01  -3.807530e+04   1.879155e+05  -1.357769e+05  -2.060440e+10   2.787578e+10   4.435789e+10   2.349412e+05   6.233114e-25   0.000000e+00   0.000000e+00
     1248000   1.247999e-05   4.487619e+01   1.190516e+00   2.868730e+01  -3.979801e+04   1.900676e+05  -1.322414e+05  -2.244107e+10   2.592493e+10   4.401471e+10   2.349412e+05   6.122534e-25   0.000000e+00   0.000000e+00
     1256000   1.255999e-05   4.487293e+01   1.205802e+00   2.867686e+01  -4.166016e+04   1.920601e+05  -1.287428e+05  -2.409140e+10   2.385790e+10   4.338706e+10   2.349412e+05   5.963292e-25   0.000000e+00   0.000000e+00
     1264000   1.263999e-05   4.486952e+01   1.221242e+00   2.866670e+01  -4.365527e+04   1.938900e+05  -1.252925e+05  -2.576483e+10   2.189230e+10   4.285523e+10   2.349412e+05   5.860309e-25   0.000000e+00   0.000000e+00
     1272000   1.271999e-05   4.486594e+01   1.236821e+00   2.865682e+01  -4.577914e+04   1.955630e+05  -1.218882e+05  -2.731054e+10   1.993398e+10   4.224013e+10   2.349412e+05   5.757620e-25   0.000000e+00   0.000000e+00
     1280000   1.279999e-05   4.486219e+01   1.252527e+00   2.864720e+01  -4.802161e+04   1.970798e+05  -1.185362e+05  -2.873007e+10   1.798902e+10   4.154772e+10   2.349412e+05   5.654911e-25   0.000000e+00   0.000000e+00
     1288000   1.287999e-05   4.485825e+01   1.268349e+00   2.863785e+01  -5.037266e+04   1.984417e+05  -1.152425e+05  -3.002537e+10   1.606314e+10   4.078380e+10   2.349412e+05   5.551913e-25   0.000000e+00   0.000000e+00
     1296000   1.295999e-05   4.485413e+01   1.284274e+00   2.862876e+01  -5.282243e+04   1.996505e+05  -1.120125e+05  -3.119880e+10   1.416164e+10   3.995399e+10   2.349412e+05   5.448408e-25   0.000000e+00   0.000000e+00
     1304000   1.303999e-05   4.484980e+01   1.300289e+00   2.861993e+01  -5.536133e+04   2.007083e+05  -1.088515e+05  -3.227364e+10   1.226146e+10   3.902253e+10   2.349412e+05   5.339155e-25   0.000000e+00   0.000000e+00
     1312000   1.311999e-05   4.484527e+01   1.316383e+00   2.861134e+01  -5.798547e+04   2.016142e+05  -1.057676e+05  -3.331051e+10   1.038964e+10   3.806647e+10   2.349412e+05   5.244558e-25   0.000000e+00   0.000000e+00
     1320000   1.319999e-05   4.484052e+01   1.332544e+00   2.860300e+01  -6.068798e+04   2.023715e+05  -1.027623e+05  -3.423343e+10   8.550961e+09   3.705641e+10   2.349412e+05   5.149433e-25   0.000000e+00   0.000000e+00
     1328000   1.327999e-05   4.483555e+01   1.348759e+00   2.859490e+01  -6.346142e+04   2.029849e+05  -9.983557e+04  -3.507229e+10   6.788016e+09   3.609512e+10   2.349412e+05   5.072288e-25   0.000000e+00   0.000000e+00
     1336000   1.335999e-05   4.483036e+01   1.365018e+00   2.858702e+01  -6.629572e+04   2.034580e+05  -9.699026e+04  -3.576822e+10   5.044580e+09   3.503047e+10   2.349412e+05   4.979745e-25   0.000000e+00   0.000000e+00
     1344000   1.343999e-05   4.482495e+01   1.381309e+00   2.857938e+01  -6.918168e+04   2.037931e+05  -9.423182e+04  -3.636459e+10   3.341527e+09   3.392399e+10   2.349412e+05   4.886206e-25   0.000000e+00   0.000000e+00
     1352000   1.351999e-05   4.481929e+01   1.397621e+00   2.857195e+01  -7.211148e+04   2.039937e+05  -9.156344e+04  -3.686454e+10   1.681874e+09   3.277972e+10   2.349412e+05   4.791696e-25   0.000000e+00   0.000000e+00
     1360000   1.359999e-05   4.481341e+01   1.413944e+00   2.856472e+01  -7.507332e+04   2.040614e+05  -8.899613e+04  -3.724321e+10   2.845598e+07   3.148175e+10   2.349412e+05   4.677279e-25   0.000000e+00   0.000000e+00
     1368000   1.367999e-05   4.480728e+01   1.430267e+00   2.855770e+01  -7.806915e+04   2.039997e+05  -8.652584e+04  -3.763760e+10  -1.564407e+09   3.027042e+10   2.349412e+05   4.593057e-25   0.000000e+00   0.000000e+00
     1376000   1.375999e-05   4.480092e+01   1.446581e+00   2.855088e+01  -8.109299e+04   2.038124e+05  -8.415364e+04  -3.794394e+10  -3.110448e+09   2.903044e+10   2.349412e+05   4.508189e-25   0.000000e+00   0.000000e+00
     1384000   1.383999e-05   4.479431e+01   1.462874e+00   2.854424e+01  -8.413907e+04   2.035028e+05  -8.188174e+04  -3.818327e+10  -4.615654e+09   2.776423e+10   2.349412e+05   4.425457e-25   0.000000e+00   0.000000e+00
     1392000   1.391999e-05   4.478745e+01   1.479138e+00   2.853777e+01  -8.719996e+04   2.030753e+05  -7.971193e+04  -3.832572e+10  -6.063635e+09   2.647790e+10   2.349412e+05   4.340078e-25   0.000000e+00   0.000000e+00
     1400000   1.399999e-05   4.478035e+01   1.495363e+00   2.853148e+01  -9.026909e+04   2.025340e+05  -7.764578e+04  -3.838972e+10  -7.459433e+09   2.517323e+10   2.349412e+05   4.254322e-25   0.000000e+00   0.000000e+00
     1408000   1.407999e-05   4.477301e+01   1.511540e+00   2.852535e+01  -9.333901e+04   2.018830e+05  -7.568670e+04  -3.837980e+10  -8.815928e+09   2.381561e+10   2.349412e+05   4.165439e-25   0.000000e+00   0.000000e+00
     1416000   1.415999e-05   4.476542e+01   1.527661e+00   2.851937e+01  -9.640920e+04   2.011245e+05  -7.383488e+04  -3.836279e+10  -1.013726e+10   2.247789e+10   2.349413e+05   4.090329e-25   0.000000e+00   0.000000e+00
     1424000   1.423999e-05   4.475758e+01   1.543718e+00   2.851353e+01  -9.947518e+04   2.002624e+05  -7.209055e+04  -3.827519e+10  -1.140607e+10   2.112903e+10   2.349413e+05   4.015201e-25   0.000000e+00   0.000000e+00
     1432000   1.431999e-05   4.474950e+01   1.559701e+00   2.850783e+01  -1.025314e+05   1.993009e+05  -7.045447e+04  -3.812012e+10  -1.262148e+10   1.977188e+10   2.349413e+05   3.940166e-25   0.000000e+00   0.000000e+00
     1440000   1.439999e-05   4.474118e+01   1.575603e+00   2.850225e+01  -1.055727e+05   1.982444e+05  -6.892721e+04  -3.790070e+10  -1.378280e+10   1.840923e+10   2.349413e+05   3.865342e-25   0.000000e+00   0.000000e+00
     1448000   1.447999e-05   4.473261e+01   1.591417e+00   2.849680e+01  -1.085987e+05   1.970953e+05  -6.750667e+04  -3.771812e+10  -1.492661e+10   1.709686e+10   2.349413e+05   3.811127e-25   0.000000e+00   0.000000e+00
     1456000   1.455999e-05   4.472380e+01   1.607136e+00   2.849145e+01  -1.115996e+05   1.958599e+05  -6.619537e+04  -3.730138e+10  -1.595412e+10   1.568127e+10   2.349413e+05   3.720784e-25   0.000000e+00   0.000000e+00
     1464000   1.463999e-05   4.471476e+01   1.622753e+00   2.848620e+01  -1.145702e+05   1.945423e+05  -6.499522e+04  -3.695489e+10  -1.697838e+10   1.432257e+10   2.349413e+05   3.656347e-25   0.000000e+00   0.000000e+00
     1472000   1.471999e-05   4.470547e+01   1.638261e+00   2.848105e+01  -1.175109e+05   1.931447e+05  -6.390375e+04  -3.655489e+10  -1.795074e+10   1.296466e+10   2.349413e+05   3.592440e-25   0.000000e+00   0.000000e+00
     1480000   1.479999e-05   4.469596e+01   1.653654e+00   2.847598e+01  -1.204175e+05   1.916715e+05  -6.292098e+04  -3.610042e+10  -1.887065e+10   1.160405e+10   2.349413e+05   3.528370e-25   0.000000e+00   0.000000e+00
     1488000   1.487999e-05   4.468621e+01   1.668926e+00   2.847098e+01  -1.232858e+05   1.901268e+05  -6.204682e+04  -3.560021e+10  -1.973908e+10   1.025125e+10   2.349413e+05   3.465628e-25   0.000000e+00   0.000000e+00
     1496000   1.495999e-05   4.467623e+01   1.684072e+00   2.846605e+01  -1.261123e+05   1.885147e+05  -6.128060e+04  -3.505433e+10  -2.055554e+10   8.905677e+09   2.349413e+05   3.403778e-25   0.000000e+00   0.000000e+00
     1504000   1.503999e-05   4.466603e+01   1.699087e+00   2.846117e+01  -1.288934e+05   1.868393e+05  -6.062168e+04  -3.446529e+10  -2.132028e+10   7.569335e+09   2.349413e+05   3.342924e-25   0.000000e+00   0.000000e+00
     1512000   1.511999e-05   4.465561e+01   1.713965e+00   2.845634e+01  -1.316230e+05   1.851065e+05  -6.006965e+04  -3.382241e+10  -2.202475e+10   6.240568e+09   2.349413e+05   3.280545e-25   0.000000e+00   0.000000e+00
     1520000   1.519999e-05   4.464497e+01   1.728702e+00   2.845156e+01  -1.343042e+05   1.833164e+05  -5.962285e+04  -3.319955e+10  -2.271908e+10   4.931678e+09   2.349413e+05   3.230783e-25   0.000000e+00   0.000000e+00
     1528000   1.527999e-05   4.463412e+01   1.743294e+00   2.844680e+01  -1.369340e+05   1.814727e+05  -5.928023e+04  -3.253895e+10  -2.336500e+10   3.636276e+09   2.349413e+05   3.182088e-25   0.000000e+00   0.000000e+00
     1536000   1.535999e-05   4.462307e+01   1.757737e+00   2.844207e+01  -1.395095e+05   1.795793e+05  -5.904065e+04  -3.184291e+10  -2.396305e+10   2.356062e+09   2.349413e+05   3.134533e-25   0.000000e+00   0.000000e+00
     1544000   1.543999e-05   4.461180e+01   1.772026e+00   2.843735e+01  -1.420279e+05   1.776399e+05  -5.890283e+04  -3.111369e+10  -2.451384e+10   1.092662e+09   2.349413e+05   3.088184e-25   0.000000e+00   0.000000e+00
     1552000   1.551999e-05   4.460034e+01   1.786158e+00   2.843264e+01  -1.444868e+05   1.756583e+05  -5.886535e+04  -3.035349e+10  -2.501808e+10  -1.523768e+08   2.349413e+05   3.043103e-25   0.000000e+00   0.000000e+00
     1560000   1.559999e-05   4.458869e+01   1.800130e+00   2.842793e+01  -1.468825e+05   1.736403e+05  -5.892355e+04  -2.954543e+10  -2.546030e+10  -1.378793e+09   2.349413e+05   2.995503e-25   0.000000e+00   0.000000e+00
     1568000   1.567999e-05   4.457684e+01   1.813939e+00   2.842321e+01  -1.492147e+05   1.715860e+05  -5.908180e+04  -2.875433e+10  -2.589144e+10  -2.573651e+09   2.349413e+05   2.957626e-25   0.000000e+00   0.000000e+00
     1576000   1.575999e-05   4.456481e+01   1.827583e+00   2.841848e+01  -1.514825e+05   1.694988e+05  -5.933476e+04  -2.793761e+10  -2.627947e+10  -3.746457e+09   2.349413e+05   2.920954e-25   0.000000e+00   0.000000e+00
     1584000   1.583999e-05   4.455261e+01   1.841059e+00   2.841372e+01  -1.536840e+05   1.673824e+05  -5.968062e+04  -2.709730e+10  -2.662528e+10  -4.895968e+09   2.349413e+05   2.885520e-25   0.000000e+00   0.000000e+00
     1592000   1.591999e-05   4.454023e+01   1.854364e+00   2.840892e+01  -1.558175e+05   1.652399e+05  -6.011748e+04  -2.623539e+10  -2.692986e+10  -6.021012e+09   2.349413e+05   2.851349e-25   0.000000e+00   0.000000e+00
     1600000   1.599999e-05   4.452768e+01   1.867496e+00   2.840409e+01  -1.578812e+05   1.630747e+05  -6.064332e+04  -2.535382e+10  -2.719421e+10  -7.120493e+09   2.349413e+05   2.818458e-25   0.000000e+00   0.000000e+00
     1608000   1.607999e-05   4.451497e+01   1.880455e+00   2.839922e+01  -1.598738e+05   1.608896e+05  -6.125630e+04  -2.446460e+10  -2.743700e+10  -8.212977e+09   2.349413e+05   2.790366e-25   0.000000e+00   0.000000e+00
     1616000   1.615999e-05   4.450210e+01   1.893238e+00   2.839429e+01  -1.617939e+05   1.586872e+05  -6.195575e+04  -2.353747e+10  -2.761691e+10  -9.268632e+09   2.349413e+05   2.758613e-25   0.000000e+00   0.000000e+00
     1624000   1.623999e-05   4.448908e+01   1.905845e+00   2.838930e+01  -1.636377e+05   1.564737e+05  -6.273827e+04  -2.260469e+10  -2.775781e+10  -1.027125e+10   2.349413e+05   2.727837e-25   0.000000e+00   0.000000e+00
     1632000   1.631999e-05   4.447592e+01   1.918274e+00   2.838425e+01  -1.654093e+05   1.542473e+05  -6.359997e+04  -2.168228e+10  -2.789665e+10  -1.126646e+10   2.349413e+05   2.704847e-25   0.000000e+00   0.000000e+00
     1640000   1.639999e-05   4.446262e+01   1.930524e+00   2.837913e+01  -1.671065e+05   1.520112e+05  -6.454017e+04  -2.074678e+10  -2.800102e+10  -1.223361e+10   2.349413e+05   2.682956e-25   0.000000e+00   0.000000e+00
     1648000   1.647999e-05   4.444919e+01   1.942595e+00   2.837392e+01  -1.687285e+05   1.497680e+05  -6.555659e+04  -1.979979e+10  -2.807195e+10  -1.317192e+10   2.349413e+05   2.662145e-25   0.000000e+00   0.000000e+00
     1656000   1.655999e-05   4.443562e+01   1.954487e+00   2.836863e+01  -1.702742e+05   1.475205e+05  -6.664690e+04  -1.884290e+10  -2.811054e+10  -1.408069e+10   2.349413e+05   2.642394e-25   0.000000e+00   0.000000e+00
     1664000   1.663999e-05   4.442194e+01   1.966198e+00   2.836326e+01  -1.717431e+05   1.452712e+05  -6.780870e+04  -1.787764e+10  -2.811787e+10  -1.495927e+10   2.349413e+05   2.623673e-25   0.000000e+00   0.000000e+00
     1672000   1.671999e-05   4.440815e+01   1.977730e+00   2.835778e+01  -1.731345e+05   1.430225e+05  -6.903957e+04  -1.690552e+10  -2.809509e+10  -1.580707e+10   2.349413e+05   2.605952e-25   0.000000e+00   0.000000e+00
     1680000   1.679999e-05   4.439424e+01   1.989082e+00   2.835221e+01  -1.744456e+05   1.407794e+05  -7.033719e+04  -1.586206e+10  -2.796304e+10  -1.662799e+10   2.349413e+05   2.576513e-25   0.000000e+00   0.000000e+00
     1688000   1.687999e-05   4.438024e+01   2.000255e+00   2.834653e+01  -1.756756e+05   1.385453e+05  -7.169877e+04  -1.492106e+10  -2.790885e+10  -1.736972e+10   2.349413e+05   2.563183e-25   0.000000e+00   0.000000e+00
     1696000   1.695999e-05   4.436614e+01   2.011250e+00   2.834074e+01  -1.768305e+05   1.363161e+05  -7.311850e+04  -1.395170e+10  -2.781669e+10  -1.811838e+10   2.349413e+05   2.550292e-25   0.000000e+00   0.000000e+00
     1704000   1.703999e-05   4.435195e+01   2.022066e+00   2.833483e+01  -1.779078e+05   1.340953e+05  -7.459687e+04  -1.298045e+10  -2.769953e+10  -1.883545e+10   2.349413e+05   2.538168e-25   0.000000e+00   0.000000e+00
     1712000   1.711999e-05   4.433767e+01   2.032705e+00   2.832880e+01  -1.789074e+05   1.318848e+05  -7.613133e+04  -1.200859e+10  -2.755848e+10  -1.952063e+10   2.349413e+05   2.526763e-25   0.000000e+00   0.000000e+00
     1720000   1.719999e-05   4.432332e+01   2.043168e+00   2.832264e+01  -1.798292e+05   1.296865e+05  -7.771932e+04  -1.103740e+10  -2.739468e+10  -2.017371e+10   2.349414e+05   2.516025e-25   0.000000e+00   0.000000e+00
     1728000   1.727999e-05   4.430890e+01   2.053455e+00   2.831636e+01  -1.806734e+05   1.275022e+05  -7.935827e+04  -1.006810e+10  -2.720927e+10  -2.079453e+10   2.349414e+05   2.505900e-25   0.000000e+00   0.000000e+00
     1736000   1.735999e-05   4.429442e+01   2.063569e+00   2.830995e+01  -1.814404e+05   1.253333e+05  -8.104561e+04  -9.106319e+09  -2.701056e+10  -2.138404e+10   2.349414e+05   2.497343e-25   0.000000e+00   0.000000e+00
     1744000   1.743999e-05   4.427988e+01   2.073509e+00   2.830339e+01  -1.821301e+05   1.231817e+05  -8.277886e+04  -8.138140e+09  -2.677745e+10  -2.194163e+10   2.349414e+05   2.487359e-25   0.000000e+00   0.000000e+00
     1752000   1.751999e-05   4.426528e+01   2.083278e+00   2.829670e+01  -1.827428e+05   1.210469e+05  -8.455857e+04  -7.178898e+09  -2.659071e+10  -2.255057e+10   2.349414e+05   2.492147e-25   0.000000e+00   0.000000e+00
     1760000   1.759999e-05   4.425064e+01   2.092877e+00   2.828986e+01  -1.832784e+05   1.189304e+05  -8.638308e+04  -6.211643e+09  -2.631911e+10  -2.305653e+10   2.349414e+05   2.483794e-25   0.000000e+00   0.000000e+00
     1768000   1.767999e-05   4.423596e+01   2.102308e+00   2.828288e+01  -1.837361e+05   1.168388e+05  -8.824506e+04  -5.214670e+09  -2.590659e+10  -2.344363e+10   2.349414e+05   2.454420e-25   0.000000e+00   0.000000e+00
     1776000   1.775999e-05   4.422124e+01   2.111572e+00   2.827574e+01  -1.841159e+05   1.147773e+05  -9.013837e+04  -4.282943e+09  -2.562705e+10  -2.388394e+10   2.349414e+05   2.449668e-25   0.000000e+00   0.000000e+00
     1784000   1.783999e-05   4.420650e+01   2.120673e+00   2.826845e+01  -1.844216e+05   1.127389e+05  -9.206566e+04  -3.358728e+09  -2.533265e+10  -2.429315e+10   2.349414e+05   2.445044e-25   0.000000e+00   0.000000e+00
     1792000   1.791999e-05   4.419174e+01   2.129611e+00   2.826101e+01  -1.846552e+05   1.107215e+05  -9.402478e+04  -2.474684e+09  -2.508304e+10  -2.467734e+10   2.349414e+05   2.447155e-25   0.000000e+00   0.000000e+00
     1800000   1.799999e-05   4.417696e+01   2.138389e+00   2.825341e+01  -1.848162e+05   1.087288e+05  -9.601286e+04  -1.553407e+09  -2.473377e+10  -2.501946e+10   2.349414e+05   2.439074e-25   0.000000e+00   0.000000e+00
     1808000   1.807999e-05   4.416217e+01   2.147008e+00   2.824565e+01  -1.849040e+05   1.067645e+05  -9.802706e+04  -6.437173e+08  -2.437208e+10  -2.533033e+10   2.349414e+05   2.430996e-25   0.000000e+00   0.000000e+00
     1816000   1.815999e-05   4.414738e+01   2.155472e+00   2.823773e+01  -1.849195e+05   1.048295e+05  -1.000649e+05   2.535072e+08  -2.399897e+10  -2.561030e+10   2.349414e+05   2.422862e-25   0.000000e+00   0.000000e+00
     1824000   1.823999e-05   4.413258e+01   2.163782e+00   2.822964e+01  -1.848638e+05   1.029249e+05  -1.021239e+05   1.137424e+09  -2.361543e+10  -2.585973e+10   2.349414e+05   2.414613e-25   0.000000e+00   0.000000e+00
     1832000   1.831999e-05   4.411780e+01   2.171941e+00   2.822138e+01  -1.847379e+05   1.010513e+05  -1.042016e+05   2.007223e+09  -2.322242e+10  -2.607904e+10   2.349414e+05   2.406191e-25   0.000000e+00   0.000000e+00
     1840000   1.839999e-05   4.410303e+01   2.179951e+00   2.821296e+01  -1.845430e+05   9.920954e+04  -1.062958e+05   2.862133e+09  -2.282089e+10  -2.626868e+10   2.349414e+05   2.397542e-25   0.000000e+00   0.000000e+00
     1848000   1.847999e-05   4.408827e+01   2.187815e+00   2.820438e+01  -1.842804e+05   9.740010e+04  -1.084039e+05   3.698942e+09  -2.241673e+10  -2.642935e+10   2.349414e+05   2.389034e-25   0.000000e+00   0.000000e+00
     1856000   1.855999e-05   4.407354e+01   2.195536e+00   2.819562e+01  -1.839500e+05   9.562247e+04  -1.105268e+05   4.561452e+09  -2.201850e+10  -2.664109e+10   2.349414e+05   2.390344e-25   0.000000e+00   0.000000e+00
     1864000   1.863999e-05   4.405884e+01   2.203115e+00   2.818669e+01  -1.835545e+05   9.387676e+04  -1.126604e+05   5.312512e+09  -2.163318e+10  -2.668196e+10   2.349414e+05   2.376136e-25   0.000000e+00   0.000000e+00
     1872000   1.871999e-05   4.404418e+01   2.210557e+00   2.817759e+01  -1.830974e+05   9.216316e+04  -1.147987e+05   6.111051e+09  -2.120591e+10  -2.677150e+10   2.349414e+05   2.367491e-25   0.000000e+00   0.000000e+00
     1880000   1.879999e-05   4.402955e+01   2.217862e+00   2.816832e+01  -1.825772e+05   9.048396e+04  -1.169431e+05   6.892554e+09  -2.077323e+10  -2.683423e+10   2.349414e+05   2.358368e-25   0.000000e+00   0.000000e+00
     1888000   1.887999e-05   4.401497e+01   2.225035e+00   2.815888e+01  -1.819951e+05   8.883957e+04  -1.190915e+05   7.656421e+09  -2.033593e+10  -2.687075e+10   2.349414e+05   2.348727e-25   0.000000e+00   0.000000e+00
     1896000   1.895999e-05   4.400043e+01   2.232078e+00   2.814927e+01  -1.813526e+05   8.723032e+04  -1.212418e+05   8.402087e+09  -1.989479e+10  -2.688167e+10   2.349414e+05   2.338527e-25   0.000000e+00   0.000000e+00
     1904000   1.903999e-05   4.398595e+01   2.238993e+00   2.813948e+01  -1.806512e+05   8.565631e+04  -1.233921e+05   9.125328e+09  -1.946133e+10  -2.686963e+10   2.349414e+05   2.328634e-25   0.000000e+00   0.000000e+00
     1912000   1.911999e-05   4.397153e+01   2.245784e+00   2.812953e+01  -1.798931e+05   8.411656e+04  -1.255403e+05   9.825327e+09  -1.903195e+10  -2.683141e+10   2.349414e+05   2.318180e-25   0.000000e+00   0.000000e+00
     1920000   1.919999e-05   4.395717e+01   2.252453e+00   2.811940e+01  -1.790797e+05   8.261125e+04  -1.276845e+05   1.050635e+10  -1.860074e+10  -2.677002e+10   2.349414e+05   2.307026e-25   0.000000e+00   0.000000e+00
     1928000   1.927999e-05   4.394288e+01   2.259002e+00   2.810910e+01  -1.782125e+05   8.114048e+04  -1.298229e+05   1.116797e+10  -1.816837e+10  -2.668616e+10   2.349414e+05   2.295145e-25   0.000000e+00   0.000000e+00
     1936000   1.935999e-05   4.392866e+01   2.265436e+00   2.809863e+01  -1.772928e+05   7.970424e+04  -1.319544e+05   1.185608e+10  -1.774178e+10  -2.664637e+10   2.349414e+05   2.292003e-25   0.000000e+00   0.000000e+00
     1944000   1.943999e-05   4.391451e+01   2.271756e+00   2.808799e+01  -1.763185e+05   7.830369e+04  -1.340812e+05   1.249784e+10  -1.727190e+10  -2.652173e+10   2.349414e+05   2.277351e-25   0.000000e+00   0.000000e+00
     1952000   1.951999e-05   4.390045e+01   2.277966e+00   2.807717e+01  -1.752937e+05   7.694074e+04  -1.361973e+05   1.311824e+10  -1.680200e+10  -2.637583e+10   2.349414e+05   2.261937e-25   0.000000e+00   0.000000e+00
     1960000   1.959999e-05   4.388647e+01   2.284068e+00   2.806619e+01  -1.742205e+05   7.561485e+04  -1.383007e+05   1.371292e+10  -1.634307e+10  -2.621001e+10   2.349414e+05   2.246252e-25   0.000000e+00   0.000000e+00
     1968000   1.967999e-05   4.387257e+01   2.290065e+00   2.805505e+01  -1.731002e+05   7.432583e+04  -1.403903e+05   1.429043e+10  -1.588286e+10  -2.602882e+10   2.349414e+05   2.230275e-25   0.000000e+00   0.000000e+00
     1976000   1.975999e-05   4.385877e+01   2.295961e+00   2.804373e+01  -1.719346e+05   7.307356e+04  -1.424648e+05   1.484610e+10  -1.542432e+10  -2.582870e+10   2.349414e+05   2.213474e-25   0.000000e+00   0.000000e+00
     1984000   1.983999e-05   4.384507e+01   2.301758e+00   2.803225e+01  -1.707258e+05   7.185849e+04  -1.445217e+05   1.536355e+10  -1.494413e+10  -2.557976e+10   2.349414e+05   2.190367e-25   0.000000e+00   0.000000e+00
     1992000   1.991999e-05   4.383146e+01   2.307459e+00   2.802061e+01  -1.694760e+05   7.068085e+04  -1.465591e+05   1.587781e+10  -1.449738e+10  -2.535228e+10   2.349414e+05   2.173310e-25   0.000000e+00   0.000000e+00
     2000000   1.999999e-05   4.381795e+01   2.313068e+00   2.800880e+01  -1.681860e+05   6.953884e+04  -1.485776e+05   1.637050e+10  -1.405334e+10  -2.510845e+10   2.349414e+05   2.155426e-25   0.000000e+00   0.000000e+00
     2008000   2.007999e-05   4.380455e+01   2.318586e+00   2.799684e+01  -1.668571e+05   6.843197e+04  -1.505763e+05   1.685273e+10  -1.362064e+10  -2.486510e+10   2.349414e+05   2.139468e-25   0.000000e+00   0.000000e+00
     2016000   2.015999e-05   4.379125e+01   2.324018e+00   2.798471e+01  -1.654908e+05   6.736282e+04  -1.525534e+05   1.730565e+10  -1.312162e+10  -2.456743e+10   2.349414e+05   2.114709e-25   0.000000e+00   0.000000e+00
     2024000   2.023999e-05   4.377807e+01   2.329365e+00   2.797243e+01  -1.640886e+05   6.633145e+04  -1.545075e+05   1.774553e+10  -1.266333e+10  -2.428249e+10   2.349414e+05   2.094416e-25   0.000000e+00   0.000000e+00
     2032000   2.031999e-05   4.376500e+01   2.334632e+00   2.795999e+01  -1.626521e+05   6.533658e+04  -1.564382e+05   1.816302e+10  -1.220908e+10  -2.398367e+10   2.349414e+05   2.073313e-25   0.000000e+00   0.000000e+00
     2040000   2.039999e-05   4.375205e+01   2.339820e+00   2.794740e+01  -1.611831e+05   6.437788e+04  -1.583445e+05   1.855804e+10  -1.175932e+10  -2.367175e+10   2.349414e+05   2.051406e-25   0.000000e+00   0.000000e+00
     2048000   2.047999e-05   4.373921e+01   2.344933e+00   2.793466e+01  -1.596834e+05   6.345497e+04  -1.602253e+05   1.893055e+10  -1.131446e+10  -2.334751e+10   2.349414e+05   2.028699e-25   0.000000e+00   0.000000e+00
     2056000   2.055999e-05   4.372650e+01   2.349974e+00   2.792176e+01  -1.581548e+05   6.256743e+04  -1.620798e+05   1.928056e+10  -1.087488e+10  -2.301173e+10   2.349414e+05   2.005204e-25   0.000000e+00   0.000000e+00
     2064000   2.063999e-05   4.371391e+01   2.354945e+00   2.790872e+01  -1.565991e+05   6.171484e+04  -1.639069e+05   1.960808e+10  -1.044098e+10  -2.266519e+10   2.349414e+05   1.980932e-25   0.000000e+00   0.000000e+00
     2072000   2.071999e-05   4.370144e+01   2.359849e+00   2.789554e+01  -1.550168e+05   6.089744e+04  -1.657069e+05   1.996392e+10  -9.982705e+09  -2.234472e+10   2.349414e+05   1.961849e-25   0.000000e+00   0.000000e+00
     2080000   2.079999e-05   4.368911e+01   2.364689e+00   2.788221e+01  -1.534108e+05   6.010553e+04  -1.674812e+05   2.021803e+10  -9.690976e+09  -2.199742e+10   2.349414e+05   1.940355e-25   0.000000e+00   0.000000e+00
     2088000   2.087999e-05   4.367690e+01   2.369467e+00   2.786874e+01  -1.517821e+05   5.934823e+04  -1.692261e+05   2.049516e+10  -9.242726e+09  -2.162401e+10   2.349414e+05   1.913817e-25   0.000000e+00   0.000000e+00
     2096000   2.095999e-05   4.366482e+01   2.374186e+00   2.785514e+01  -1.501321e+05   5.862652e+04  -1.709408e+05   2.074940e+10  -8.801256e+09  -2.124215e+10   2.349414e+05   1.886580e-25   0.000000e+00   0.000000e+00
     2104000   2.103999e-05   4.365288e+01   2.378848e+00   2.784139e+01  -1.484628e+05   5.793985e+04  -1.726246e+05   2.098092e+10  -8.366914e+09  -2.085260e+10   2.349414e+05   1.858665e-25   0.000000e+00   0.000000e+00
     2112000   2.111999e-05   4.364107e+01   2.383457e+00   2.782752e+01  -1.467758e+05   5.728762e+04  -1.742770e+05   2.118985e+10  -7.940029e+09  -2.045612e+10   2.349414e+05   1.830092e-25   0.000000e+00   0.000000e+00
     2120000   2.119999e-05   4.362939e+01   2.388015e+00   2.781351e+01  -1.450730e+05   5.666924e+04  -1.758974e+05   2.137640e+10  -7.520913e+09  -2.005346e+10   2.349414e+05   1.800883e-25   0.000000e+00   0.000000e+00
     2128000   2.127999e-05   4.361786e+01   2.392525e+00   2.779938e+01  -1.433559e+05   5.608433e+04  -1.774856e+05   2.162421e+10  -7.033199e+09  -1.968847e+10   2.349415e+05   1.779351e-25   0.000000e+00   0.000000e+00
     2136000   2.135999e-05   4.360646e+01   2.396990e+00   2.778511e+01  -1.416196e+05   5.553776e+04  -1.790445e+05   2.177850e+10  -6.632452e+09  -1.928361e+10   2.349415e+05   1.750719e-25   0.000000e+00   0.000000e+00
     2144000   2.143999e-05   4.359520e+01   2.401412e+00   2.777073e+01  -1.398730e+05   5.502036e+04  -1.805708e+05   2.187876e+10  -6.280769e+09  -1.886145e+10   2.349415e+05   1.718725e-25   0.000000e+00   0.000000e+00
     2152000   2.151999e-05   4.358408e+01   2.405794e+00   2.775622e+01  -1.381180e+05   5.453331e+04  -1.820632e+05   2.199163e+10  -5.896868e+09  -1.844977e+10   2.349415e+05   1.689060e-25   0.000000e+00   0.000000e+00
     2160000   2.159999e-05   4.357310e+01   2.410138e+00   2.774160e+01  -1.363548e+05   5.407666e+04  -1.835226e+05   2.208416e+10  -5.520694e+09  -1.803500e+10   2.349415e+05   1.658871e-25   0.000000e+00   0.000000e+00
     2168000   2.167999e-05   4.356226e+01   2.414447e+00   2.772686e+01  -1.345851e+05   5.364979e+04  -1.849488e+05   2.215659e+10  -5.152469e+09  -1.761776e+10   2.349415e+05   1.628187e-25   0.000000e+00   0.000000e+00
     2176000   2.175999e-05   4.355157e+01   2.418723e+00   2.771201e+01  -1.328103e+05   5.325205e+04  -1.863414e+05   2.220921e+10  -4.792406e+09  -1.719867e+10   2.349415e+05   1.597037e-25   0.000000e+00   0.000000e+00
     2184000   2.183999e-05   4.354101e+01   2.422968e+00   2.769705e+01  -1.310324e+05   5.288246e+04  -1.877004e+05   2.222667e+10  -4.457931e+09  -1.677230e+10   2.349415e+05   1.563991e-25   0.000000e+00   0.000000e+00
     2192000   2.191999e-05   4.353060e+01   2.427185e+00   2.768198e+01  -1.292525e+05   5.254094e+04  -1.890258e+05   2.226860e+10  -4.081640e+09  -1.636144e+10   2.349415e+05   1.534566e-25   0.000000e+00   0.000000e+00
     2200000   2.199999e-05   4.352033e+01   2.431375e+00   2.766680e+01  -1.274699e+05   5.222918e+04  -1.903182e+05   2.229128e+10  -3.713868e+09  -1.594933e+10   2.349415e+05   1.504727e-25   0.000000e+00   0.000000e+00
     2208000   2.207999e-05   4.351021e+01   2.435542e+00   2.765153e+01  -1.256864e+05   5.194649e+04  -1.915776e+05   2.229501e+10  -3.354816e+09  -1.553656e+10   2.349415e+05   1.474501e-25   0.000000e+00   0.000000e+00
     2216000   2.215999e-05   4.350022e+01   2.439687e+00   2.763615e+01  -1.239032e+05   5.169217e+04  -1.928040e+05   2.228010e+10  -3.004668e+09  -1.512366e+10   2.349415e+05   1.443916e-25   0.000000e+00   0.000000e+00
     2224000   2.223999e-05   4.349038e+01   2.443813e+00   2.762068e+01  -1.221223e+05   5.146422e+04  -1.939976e+05   2.223781e+10  -2.685673e+09  -1.471129e+10   2.349415e+05   1.412447e-25   0.000000e+00   0.000000e+00
     2232000   2.231999e-05   4.348068e+01   2.447922e+00   2.760511e+01  -1.203457e+05   5.126224e+04  -1.951579e+05   2.217470e+10  -2.365561e+09  -1.429561e+10   2.349415e+05   1.380040e-25   0.000000e+00   0.000000e+00
     2240000   2.239999e-05   4.347113e+01   2.452016e+00   2.758946e+01  -1.185742e+05   5.108575e+04  -1.962853e+05   2.211126e+10  -2.043307e+09  -1.388905e+10   2.349415e+05   1.349182e-25   0.000000e+00   0.000000e+00
     2248000   2.247999e-05   4.346171e+01   2.456097e+00   2.757371e+01  -1.168084e+05   5.093520e+04  -1.973801e+05   2.203075e+10  -1.722056e+09  -1.348209e+10   2.349415e+05   1.317906e-25   0.000000e+00   0.000000e+00
     2256000   2.255999e-05   4.345244e+01   2.460166e+00   2.755788e+01  -1.150497e+05   5.080998e+04  -1.984424e+05   2.193337e+10  -1.410078e+09  -1.307725e+10   2.349415e+05   1.286417e-25   0.000000e+00   0.000000e+00
     2264000   2.263999e-05   4.344330e+01   2.464227e+00   2.754196e+01  -1.132995e+05   5.070934e+04  -1.994725e+05   2.181951e+10  -1.107510e+09  -1.267496e+10   2.349415e+05   1.254745e-25   0.000000e+00   0.000000e+00
     2272000   2.271999e-05   4.343431e+01   2.468281e+00   2.752596e+01  -1.115590e+05   5.063252e+04  -2.004705e+05   2.168954e+10  -8.144816e+08  -1.227567e+10   2.349415e+05   1.222922e-25   0.000000e+00   0.000000e+00
     2280000   2.279999e-05   4.342545e+01   2.472329e+00   2.750988e+01  -1.098296e+05   5.057877e+04  -2.014367e+05   2.154387e+10  -5.311107e+08  -1.187978e+10   2.349415e+05   1.190978e-25   0.000000e+00   0.000000e+00
     2288000   2.287999e-05   4.341674e+01   2.476374e+00   2.749373e+01  -1.081112e+05   5.054650e+04  -2.023722e+05   2.142280e+10  -2.811623e+08  -1.151474e+10   2.349415e+05   1.163551e-25   0.000000e+00   0.000000e+00
     2296000   2.295999e-05   4.340815e+01   2.480417e+00   2.747751e+01  -1.064040e+05   5.053503e+04  -2.032779e+05   2.125431e+10  -7.227105e+06  -1.112721e+10   2.349415e+05   1.131996e-25   0.000000e+00   0.000000e+00
     2304000   2.303999e-05   4.339971e+01   2.484460e+00   2.746121e+01  -1.047108e+05   5.054542e+04  -2.041527e+05   2.111412e+10   3.797864e+08  -1.073553e+10   2.349415e+05   1.103756e-25   0.000000e+00   0.000000e+00
     2312000   2.311999e-05   4.339140e+01   2.488505e+00   2.744484e+01  -1.030295e+05   5.058572e+04  -2.049963e+05   2.091602e+10   6.260499e+08  -1.035776e+10   2.349415e+05   1.072196e-25   0.000000e+00   0.000000e+00
     2320000   2.319999e-05   4.338323e+01   2.492554e+00   2.742841e+01  -1.013646e+05   5.064533e+04  -2.058100e+05   2.070442e+10   8.626167e+08  -9.985003e+09   2.349415e+05   1.040654e-25   0.000000e+00   0.000000e+00
     2328000   2.327999e-05   4.337518e+01   2.496609e+00   2.741191e+01  -9.971716e+04   5.072348e+04  -2.065941e+05   2.047974e+10   1.089409e+09  -9.617546e+09   2.349415e+05   1.009159e-25   0.000000e+00   0.000000e+00
     2336000   2.335999e-05   4.336727e+01   2.500670e+00   2.739536e+01  -9.808775e+04   5.081808e+04  -2.073495e+05   2.022963e+10   1.259033e+09  -9.261184e+09   2.349415e+05   9.766845e-26   0.000000e+00   0.000000e+00
     2344000   2.343999e-05   4.335949e+01   2.504740e+00   2.737874e+01  -9.647809e+04   5.092860e+04  -2.080763e+05   2.000975e+10   1.502498e+09  -8.910130e+09   2.349415e+05   9.480592e-26   0.000000e+00   0.000000e+00
     2352000   2.351999e-05   4.335183e+01   2.508819e+00   2.736206e+01  -9.488652e+04   5.105821e+04  -2.087753e+05   1.977760e+10   1.735875e+09  -8.564241e+09   2.349415e+05   9.194918e-26   0.000000e+00   0.000000e+00
     2360000   2.359999e-05   4.334431e+01   2.512910e+00   2.734533e+01  -9.331400e+04   5.120608e+04  -2.094467e+05   1.953360e+10   1.959103e+09  -8.223785e+09   2.349415e+05   8.910078e-26   0.000000e+00   0.000000e+00
     2368000   2.367999e-05   4.333690e+01   2.517013e+00   2.732855e+01  -9.176145e+04   5.137140e+04  -2.100912e+05   1.927818e+10   2.172132e+09  -7.889013e+09   2.349415e+05   8.626323e-26   0.000000e+00   0.000000e+00
     2376000   2.375999e-05   4.332962e+01   2.521130e+00   2.731172e+01  -9.022978e+04   5.155335e+04  -2.107091e+05   1.901176e+10   2.374919e+09  -7.560165e+09   2.349415e+05   8.343903e-26   0.000000e+00   0.000000e+00
     2384000   2.383999e-05   4.332246e+01   2.525262e+00   2.729484e+01  -8.871969e+04   5.175093e+04  -2.113011e+05   1.874304e+10   2.560475e+09  -7.242622e+09   2.349415e+05   8.069933e-26   0.000000e+00   0.000000e+00
     2392000   2.391999e-05   4.331543e+01   2.529410e+00   2.727791e+01  -8.723129e+04   5.196326e+04  -2.118679e+05   1.846523e+10   2.746119e+09  -6.929091e+09   2.349415e+05   7.798613e-26   0.000000e+00   0.000000e+00
     2400000   2.399999e-05   4.330851e+01   2.533576e+00   2.726094e+01  -8.576551e+04   5.219005e+04  -2.124099e+05   1.817768e+10   2.921964e+09  -6.621746e+09   2.349415e+05   7.529077e-26   0.000000e+00   0.000000e+00
     2408000   2.407999e-05   4.330170e+01   2.537761e+00   2.724393e+01  -8.432311e+04   5.243051e+04  -2.129276e+05   1.788082e+10   3.087981e+09  -6.320765e+09   2.349415e+05   7.261553e-26   0.000000e+00   0.000000e+00
     2416000   2.415999e-05   4.329501e+01   2.541965e+00   2.722687e+01  -8.290677e+04   5.268111e+04  -2.134213e+05   1.754364e+10   3.199587e+09  -6.025324e+09   2.349415e+05   6.968702e-26   0.000000e+00   0.000000e+00
     2424000   2.423999e-05   4.328844e+01   2.546190e+00   2.720978e+01  -8.151567e+04   5.294315e+04  -2.138918e+05   1.723257e+10   3.349819e+09  -5.738312e+09   2.349415e+05   6.708887e-26   0.000000e+00   0.000000e+00
     2432000   2.431999e-05   4.328197e+01   2.550437e+00   2.719265e+01  -8.014829e+04   5.321785e+04  -2.143400e+05   1.695710e+10   3.521608e+09  -5.466427e+09   2.349415e+05   6.486954e-26   0.000000e+00   0.000000e+00
     2440000   2.439999e-05   4.327561e+01   2.554706e+00   2.717549e+01  -7.880471e+04   5.350511e+04  -2.147662e+05   1.663115e+10   3.658100e+09  -5.191176e+09   2.349415e+05   6.233207e-26   0.000000e+00   0.000000e+00
     2448000   2.447999e-05   4.326936e+01   2.558998e+00   2.715829e+01  -7.748751e+04   5.380289e+04  -2.151707e+05   1.629773e+10   3.784957e+09  -4.922749e+09   2.349415e+05   5.982445e-26   0.000000e+00   0.000000e+00
     2456000   2.455999e-05   4.326321e+01   2.563314e+00   2.714106e+01  -7.619726e+04   5.411044e+04  -2.155540e+05   1.595722e+10   3.902167e+09  -4.661249e+09   2.349415e+05   5.734861e-26   0.000000e+00   0.000000e+00
     2464000   2.463999e-05   4.325717e+01   2.567656e+00   2.712380e+01  -7.493453e+04   5.442698e+04  -2.159167e+05   1.561001e+10   4.009722e+09  -4.406765e+09   2.349415e+05   5.490645e-26   0.000000e+00   0.000000e+00
     2472000   2.471999e-05   4.325122e+01   2.572023e+00   2.710651e+01  -7.369984e+04   5.475174e+04  -2.162593e+05   1.525648e+10   4.107619e+09  -4.159375e+09   2.349415e+05   5.249979e-26   0.000000e+00   0.000000e+00
     2480000   2.479999e-05   4.324538e+01   2.576416e+00   2.708920e+01  -7.249363e+04   5.508367e+04  -2.165825e+05   1.490390e+10   4.195130e+09  -3.921632e+09   2.349415e+05   5.017333e-26   0.000000e+00   0.000000e+00
     2488000   2.487999e-05   4.323962e+01   2.580836e+00   2.707186e+01  -7.131509e+04   5.542311e+04  -2.168869e+05   1.455876e+10   4.289296e+09  -3.691029e+09   2.349415e+05   4.798530e-26   0.000000e+00   0.000000e+00
     2496000   2.495999e-05   4.323397e+01   2.585284e+00   2.705450e+01  -7.016437e+04   5.576970e+04  -2.171732e+05   1.420831e+10   4.373790e+09  -3.467254e+09   2.349415e+05   4.583142e-26   0.000000e+00   0.000000e+00
     2504000   2.503999e-05   4.322840e+01   2.589760e+00   2.703711e+01  -6.904189e+04   5.612266e+04  -2.174419e+05   1.385291e+10   4.448640e+09  -3.250357e+09   2.349415e+05   4.371326e-26   0.000000e+00   0.000000e+00
     2512000   2.511999e-05   4.322292e+01   2.594264e+00   2.701971e+01  -6.794803e+04   5.648123e+04  -2.176935e+05   1.349291e+10   4.513876e+09  -3.040375e+09   2.349415e+05   4.163229e-26   0.000000e+00   0.000000e+00
     2520000   2.519999e-05   4.321753e+01   2.598797e+00   2.700228e+01  -6.688314e+04   5.684463e+04  -2.179285e+05   1.312869e+10   4.569536e+09  -2.837335e+09   2.349415e+05   3.958997e-26   0.000000e+00   0.000000e+00
     2528000   2.527999e-05   4.321222e+01   2.603359e+00   2.698484e+01  -6.584620e+04   5.721305e+04  -2.181478e+05   1.278121e+10   4.626264e+09  -2.644601e+09   2.349415e+05   3.771409e-26   0.000000e+00   0.000000e+00
     2536000   2.535999e-05   4.320699e+01   2.607951e+00   2.696738e+01  -6.483810e+04   5.758481e+04  -2.183518e+05   1.242085e+10   4.666357e+09  -2.457661e+09   2.349415e+05   3.581356e-26   0.000000e+00   0.000000e+00
     2544000   2.543999e-05   4.320184e+01   2.612573e+00   2.694991e+01  -6.385896e+04   5.795943e+04  -2.185412e+05   1.205724e+10   4.697535e+09  -2.277367e+09   2.349415e+05   3.395257e-26   0.000000e+00   0.000000e+00
     2552000   2.551999e-05   4.319677e+01   2.617225e+00   2.693241e+01  -6.290747e+04   5.833714e+04  -2.187166e+05   1.171909e+10   4.737753e+09  -2.106986e+09   2.349415e+05   3.229899e-26   0.000000e+00   0.000000e+00
     2560000   2.559999e-05   4.319178e+01   2.621907e+00   2.691491e+01  -6.198496e+04   5.871666e+04  -2.188783e+05   1.134331e+10   4.748853e+09  -1.938426e+09   2.349415e+05   3.048112e-26   0.000000e+00   0.000000e+00
     2568000   2.567999e-05   4.318685e+01   2.626619e+00   2.689739e+01  -6.109302e+04   5.909651e+04  -2.190268e+05   1.093145e+10   4.734810e+09  -1.771590e+09   2.349415e+05   2.852882e-26   0.000000e+00   0.000000e+00
     2576000   2.575999e-05   4.318200e+01   2.631362e+00   2.687987e+01  -6.023284e+04   5.947577e+04  -2.191624e+05   1.057272e+10   4.745334e+09  -1.617950e+09   2.349415e+05   2.692882e-26   0.000000e+00   0.000000e+00
     2584000   2.583999e-05   4.317721e+01   2.636135e+00   2.686233e+01  -5.940144e+04   5.985553e+04  -2.192859e+05   1.021216e+10   4.747239e+09  -1.470545e+09   2.349415e+05   2.536890e-26   0.000000e+00   0.000000e+00
     2592000   2.591999e-05   4.317249e+01   2.640939e+00   2.684478e+01  -5.859894e+04   6.023510e+04  -2.193978e+05   9.850063e+09   4.740579e+09  -1.329344e+09   2.349415e+05   2.384997e-26   0.000000e+00   0.000000e+00
     2600000   2.599999e-05   4.316784e+01   2.645773e+00   2.682723e+01  -5.782547e+04   6.061380e+04  -2.194987e+05   9.486718e+09   4.725411e+09  -1.194312e+09   2.349415e+05   2.237287e-26   0.000000e+00   0.000000e+00
     2608000   2.607999e-05   4.316324e+01   2.650637e+00   2.680966e+01  -5.708110e+04   6.099094e+04  -2.195891e+05   9.122405e+09   4.701796e+09  -1.065403e+09   2.349415e+05   2.093841e-26   0.000000e+00   0.000000e+00
     2616000   2.615999e-05   4.315870e+01   2.655532e+00   2.679209e+01  -5.636445e+04   6.136654e+04  -2.196695e+05   8.796911e+09   4.688322e+09  -9.474591e+08   2.349415e+05   1.971969e-26   0.000000e+00   0.000000e+00
     2624000   2.623999e-05   4.315422e+01   2.660456e+00   2.677452e+01  -5.567548e+04   6.174000e+04  -2.197406e+05   8.427151e+09   4.646793e+09  -8.295858e+08   2.349415e+05   1.834965e-26   0.000000e+00   0.000000e+00
     2632000   2.631999e-05   4.314980e+01   2.665410e+00   2.675693e+01  -5.501611e+04   6.210981e+04  -2.198024e+05   8.057128e+09   4.597235e+09  -7.176414e+08   2.349415e+05   1.702584e-26   0.000000e+00   0.000000e+00
     2640000   2.639999e-05   4.314542e+01   2.670393e+00   2.673935e+01  -5.438635e+04   6.247534e+04  -2.198556e+05   7.687099e+09   4.539699e+09  -6.115598e+08   2.349415e+05   1.574891e-26   0.000000e+00   0.000000e+00
     2648000   2.647999e-05   4.314109e+01   2.675406e+00   2.672176e+01  -5.378617e+04   6.283595e+04  -2.199004e+05   7.317317e+09   4.474235e+09  -5.112696e+08   2.349415e+05   1.451947e-26   0.000000e+00   0.000000e+00
     2656000   2.655999e-05   4.313681e+01   2.680447e+00   2.670416e+01  -5.321557e+04   6.319101e+04  -2.199375e+05   6.948031e+09   4.400901e+09  -4.166942e+08   2.349415e+05   1.333810e-26   0.000000e+00   0.000000e+00
     2664000   2.663999e-05   4.313258e+01   2.685516e+00   2.668657e+01  -5.267401e+04   6.353964e+04  -2.199674e+05   6.594486e+09   4.321525e+09  -3.308240e+08   2.349415e+05   1.224763e-26   0.000000e+00   0.000000e+00
     2672000   2.671999e-05   4.312838e+01   2.690613e+00   2.666897e+01  -5.216039e+04   6.388247e+04  -2.199905e+05   6.246003e+09   4.248164e+09  -2.473348e+08   2.349415e+05   1.123441e-26   0.000000e+00   0.000000e+00
     2680000   2.679999e-05   4.312423e+01   2.695737e+00   2.665137e+01  -5.167462e+04   6.421914e+04  -2.200071e+05   5.898553e+09   4.167277e+09  -1.690266e+08   2.349415e+05   1.026422e-26   0.000000e+00   0.000000e+00
     2688000   2.687999e-05   4.312012e+01   2.700888e+00   2.663377e+01  -5.121690e+04   6.454886e+04  -2.200177e+05   5.530435e+09   4.066254e+09  -9.444762e+07   2.349415e+05   9.269292e-27   0.000000e+00   0.000000e+00
     2696000   2.695999e-05   4.311604e+01   2.706065e+00   2.661617e+01  -5.078823e+04   6.487036e+04  -2.200225e+05   5.186617e+09   3.969888e+09  -2.677672e+07   2.349415e+05   8.390668e-27   0.000000e+00   0.000000e+00
     2704000   2.703999e-05   4.311199e+01   2.711267e+00   2.659856e+01  -5.038698e+04   6.518387e+04  -2.200221e+05   4.847269e+09   3.868980e+09   3.615743e+07   2.349415e+05   7.565524e-27   0.000000e+00   0.000000e+00
     2712000   2.711999e-05   4.310797e+01   2.716494e+00   2.658096e+01  -5.001265e+04   6.548922e+04  -2.200168e+05   4.511451e+09   3.763507e+09   9.471616e+07   2.349415e+05   6.790579e-27   0.000000e+00   0.000000e+00
     2720000   2.719999e-05   4.310399e+01   2.721745e+00   2.656336e+01  -4.966510e+04   6.578584e+04  -2.200071e+05   4.177548e+09   3.651020e+09   1.486625e+08   2.349415e+05   6.058505e-27   0.000000e+00   0.000000e+00
     2728000   2.727999e-05   4.310003e+01   2.727019e+00   2.654576e+01  -4.934419e+04   6.607319e+04  -2.199932e+05   3.845750e+09   3.531602e+09   1.980905e+08   2.349415e+05   5.369598e-27   0.000000e+00   0.000000e+00
     2736000   2.735999e-05   4.309609e+01   2.732316e+00   2.652816e+01  -4.904969e+04   6.634978e+04  -2.199758e+05   3.519446e+09   3.396104e+09   2.395848e+08   2.349415e+05   4.715873e-27   0.000000e+00   0.000000e+00
     2744000   2.743999e-05   4.309218e+01   2.737635e+00   2.651057e+01  -4.878101e+04   6.661640e+04  -2.199549e+05   3.197799e+09   3.268273e+09   2.806415e+08   2.349415e+05   4.127581e-27   0.000000e+00   0.000000e+00
     2752000   2.751999e-05   4.308828e+01   2.742975e+00   2.649297e+01  -4.853836e+04   6.687244e+04  -2.199309e+05   2.868131e+09   3.131591e+09   3.192028e+08   2.349415e+05   3.566779e-27   0.000000e+00   0.000000e+00
     2760000   2.759999e-05   4.308441e+01   2.748334e+00   2.647538e+01  -4.832129e+04   6.711745e+04  -2.199041e+05   2.559213e+09   2.992429e+09   3.509693e+08   2.349415e+05   3.073599e-27   0.000000e+00   0.000000e+00
     2768000   2.767999e-05   4.308055e+01   2.753713e+00   2.645779e+01  -4.812881e+04   6.735106e+04  -2.198749e+05   2.253129e+09   2.847038e+09   3.788997e+08   2.349415e+05   2.620923e-27   0.000000e+00   0.000000e+00
     2776000   2.775999e-05   4.307671e+01   2.759110e+00   2.644020e+01  -4.796071e+04   6.757281e+04  -2.198436e+05   1.950034e+09   2.695503e+09   4.030936e+08   2.349415e+05   2.208894e-27   0.000000e+00   0.000000e+00
     2784000   2.783999e-05   4.307288e+01   2.764525e+00   2.642261e+01  -4.781673e+04   6.778218e+04  -2.198105e+05   1.650082e+09   2.537909e+09   4.236530e+08   2.349415e+05   1.837639e-27   0.000000e+00   0.000000e+00
     2792000   2.791999e-05   4.306906e+01   2.769955e+00   2.640503e+01  -4.769661e+04   6.797871e+04  -2.197759e+05   1.353420e+09   2.374344e+09   4.406819e+08   2.349415e+05   1.507261e-27   0.000000e+00   0.000000e+00
     2800000   2.799999e-05   4.306525e+01   2.775401e+00   2.638745e+01  -4.760089e+04   6.816120e+04  -2.197401e+05   1.048968e+09   2.196231e+09   4.540175e+08   2.349415e+05   1.205639e-27   0.000000e+00   0.000000e+00
     2808000   2.807999e-05   4.306144e+01   2.780861e+00   2.636987e+01  -4.752828e+04   6.833037e+04  -2.197033e+05   7.667134e+08   2.032090e+09   4.661417e+08   2.349415e+05   9.705331e-28   0.000000e+00   0.000000e+00
     2816000   2.815999e-05   4.305764e+01   2.786333e+00   2.635229e+01  -4.747812e+04   6.848618e+04  -2.196656e+05   4.879518e+08   1.862370e+09   4.751746e+08   2.349415e+05   7.734152e-28   0.000000e+00   0.000000e+00
     2824000   2.823999e-05   4.305384e+01   2.791818e+00   2.633472e+01  -4.745012e+04   6.862820e+04  -2.196273e+05   2.128084e+08   1.687163e+09   4.812204e+08   2.349415e+05   6.143132e-28   0.000000e+00   0.000000e+00
     2832000   2.831999e-05   4.305005e+01   2.797313e+00   2.631715e+01  -4.744398e+04   6.875598e+04  -2.195887e+05  -5.859643e+07   1.506565e+09   4.843847e+08   2.349415e+05   4.932384e-28   0.000000e+00   0.000000e+00
     2840000   2.839999e-05   4.304625e+01   2.802819e+00   2.629959e+01  -4.745907e+04   6.886896e+04  -2.195500e+05  -3.263022e+08   1.320483e+09   4.847472e+08   2.349415e+05   4.101040e-28   0.000000e+00   0.000000e+00
     2848000   2.847999e-05   4.304245e+01   2.808332e+00   2.628203e+01  -4.749564e+04   6.896684e+04  -2.195114e+05  -5.873760e+08   1.125650e+09   4.807510e+08   2.349415e+05   3.625218e-28   0.000000e+00   0.000000e+00
     2856000   2.855999e-05   4.303865e+01   2.813853e+00   2.626447e+01  -4.755294e+04   6.904893e+04  -2.194732e+05  -8.443152e+08   9.257569e+08   4.741909e+08   2.349415e+05   3.529843e-28   0.000000e+00   0.000000e+00
     2864000   2.863999e-05   4.303485e+01   2.819379e+00   2.624691e+01  -4.763062e+04   6.911483e+04  -2.194356e+05  -1.097012e+09   7.208943e+08   4.651744e+08   2.349415e+05   3.814503e-28   0.000000e+00   0.000000e+00
     2872000   2.871999e-05   4.303103e+01   2.824911e+00   2.622936e+01  -4.772835e+04   6.916414e+04  -2.193988e+05  -1.345361e+09   5.111542e+08   4.538101e+08   2.349415e+05   4.478650e-28   0.000000e+00   0.000000e+00
     2880000   2.879999e-05   4.302721e+01   2.830445e+00   2.621181e+01  -4.784577e+04   6.919648e+04  -2.193630e+05  -1.589263e+09   2.966296e+08   4.402073e+08   2.349415e+05   5.521597e-28   0.000000e+00   0.000000e+00
     2888000   2.887999e-05   4.302338e+01   2.835982e+00   2.619426e+01  -4.798338e+04   6.921055e+04  -2.193285e+05  -1.861030e+09   4.309077e+07   4.207424e+08   2.349415e+05   7.163372e-28   0.000000e+00   0.000000e+00
     2896000   2.895999e-05   4.301953e+01   2.841518e+00   2.617671e+01  -4.814154e+04   6.920528e+04  -2.192955e+05  -2.092275e+09  -1.757251e+08   4.038577e+08   2.349415e+05   8.991006e-28   0.000000e+00   0.000000e+00
     2904000   2.903999e-05   4.301567e+01   2.847054e+00   2.615917e+01  -4.831802e+04   6.918232e+04  -2.192640e+05  -2.318889e+09  -3.989783e+08   3.851149e+08   2.349415e+05   1.118026e-27   0.000000e+00   0.000000e+00
     2912000   2.911999e-05   4.301180e+01   2.852587e+00   2.614163e+01  -4.851244e+04   6.914132e+04  -2.192340e+05  -2.540786e+09  -6.265720e+08   3.646225e+08   2.349415e+05   1.372992e-27   0.000000e+00   0.000000e+00
     2920000   2.919999e-05   4.300791e+01   2.858116e+00   2.612409e+01  -4.872442e+04   6.908195e+04  -2.192057e+05  -2.757883e+09  -8.584092e+08   3.424893e+08   2.349415e+05   1.663862e-27   0.000000e+00   0.000000e+00
     2928000   2.927999e-05   4.300400e+01   2.863640e+00   2.610656e+01  -4.895357e+04   6.900386e+04  -2.191792e+05  -2.970102e+09  -1.094392e+09   3.188246e+08   2.349415e+05   1.990491e-27   0.000000e+00   0.000000e+00
     2936000   2.935999e-05   4.300008e+01   2.869156e+00   2.608902e+01  -4.919528e+04   6.890970e+04  -2.191547e+05  -3.091471e+09  -1.275137e+09   2.930184e+08   2.349415e+05   2.216309e-27   0.000000e+00   0.000000e+00
     2944000   2.943999e-05   4.299613e+01   2.874665e+00   2.607149e+01  -4.945569e+04   6.879467e+04  -2.191322e+05  -3.354317e+09  -1.561437e+09   2.668314e+08   2.349415e+05   2.706363e-27   0.000000e+00   0.000000e+00
     2952000   2.951999e-05   4.299216e+01   2.880163e+00   2.605396e+01  -4.973173e+04   6.865984e+04  -2.191120e+05  -3.545963e+09  -1.809885e+09   2.376882e+08   2.349415e+05   3.128289e-27   0.000000e+00   0.000000e+00
     2960000   2.959999e-05   4.298817e+01   2.885650e+00   2.603644e+01  -5.002290e+04   6.850498e+04  -2.190942e+05  -3.732431e+09  -2.061981e+09   2.074491e+08   2.349415e+05   3.584537e-27   0.000000e+00   0.000000e+00
     2968000   2.967999e-05   4.298416e+01   2.891123e+00   2.601891e+01  -5.032878e+04   6.832982e+04  -2.190789e+05  -3.913660e+09  -2.317628e+09   1.762216e+08   2.349415e+05   4.074914e-27   0.000000e+00   0.000000e+00
     2976000   2.975999e-05   4.298012e+01   2.896582e+00   2.600138e+01  -5.064895e+04   6.813407e+04  -2.190661e+05  -4.089590e+09  -2.576728e+09   1.441129e+08   2.349415e+05   4.599221e-27   0.000000e+00   0.000000e+00
     2984000   2.983999e-05   4.297606e+01   2.902024e+00   2.598386e+01  -5.098054e+04   6.791631e+04  -2.190568e+05  -4.279799e+09  -2.850332e+09   1.123097e+08   2.349415e+05   5.202752e-27   0.000000e+00   0.000000e+00
     2992000   2.991999e-05   4.297196e+01   2.907448e+00   2.596633e+01  -5.132906e+04   6.767816e+04  -2.190491e+05  -4.432343e+09  -3.103727e+09   7.967703e+07   2.349415e+05   5.759628e-27   0.000000e+00   0.000000e+00
     3000000   2.999999e-05   4.296784e+01   2.912852e+00   2.594881e+01  -5.168958e+04   6.741963e+04  -2.190440e+05  -4.579738e+09  -3.359939e+09   4.655955e+07   2.349415e+05   6.345764e-27   0.000000e+00   0.000000e+00
     3008000   3.007999e-05   4.296369e+01   2.918235e+00   2.593129e+01  -5.206169e+04   6.714050e+04  -2.190416e+05  -4.721951e+09  -3.618869e+09   1.305567e+07   2.349415e+05   6.960935e-27   0.000000e+00   0.000000e+00
     3016000   3.015999e-05   4.295951e+01   2.923594e+00   2.591376e+01  -5.244496e+04   6.684054e+04  -2.190420e+05  -4.858952e+09  -3.880419e+09  -2.073669e+07   2.349415e+05   7.604909e-27   0.000000e+00   0.000000e+00
     3024000   3.023999e-05   4.295530e+01   2.928929e+00   2.589624e+01  -5.283859e+04   6.652002e+04  -2.190449e+05  -4.968551e+09  -4.118190e+09  -5.209525e+07   2.349415e+05   8.191237e-27   0.000000e+00   0.000000e+00
     3032000   3.031999e-05   4.295106e+01   2.934237e+00   2.587872e+01  -5.324130e+04   6.617986e+04  -2.190504e+05  -5.098156e+09  -4.386099e+09  -8.600495e+07   2.349415e+05   8.896860e-27   0.000000e+00   0.000000e+00
     3040000   3.039999e-05   4.294678e+01   2.939517e+00   2.586119e+01  -5.365415e+04   6.581817e+04  -2.190587e+05  -5.222333e+09  -4.656550e+09  -1.199963e+08   2.349415e+05   9.631279e-27   0.000000e+00   0.000000e+00
     3048000   3.047999e-05   4.294247e+01   2.944767e+00   2.584367e+01  -5.407673e+04   6.543474e+04  -2.190696e+05  -5.341044e+09  -4.929449e+09  -1.539764e+08   2.349415e+05   1.039425e-26   0.000000e+00   0.000000e+00
     3056000   3.055999e-05   4.293813e+01   2.949986e+00   2.582614e+01  -5.450858e+04   6.502939e+04  -2.190833e+05  -5.454255e+09  -5.204701e+09  -1.878529e+08   2.349415e+05   1.118550e-26   0.000000e+00   0.000000e+00
     3064000   3.063999e-05   4.293375e+01   2.955171e+00   2.580861e+01  -5.494926e+04   6.460193e+04  -2.190997e+05  -5.561930e+09  -5.482212e+09  -2.215343e+08   2.349415e+05   1.200480e-26   0.000000e+00   0.000000e+00
     3072000   3.071999e-05   4.292934e+01   2.960321e+00   2.579108e+01  -5.539836e+04   6.415133e+04  -2.191190e+05  -5.662319e+09  -5.779351e+09  -2.604546e+08   2.349415e+05   1.288823e-26   0.000000e+00   0.000000e+00
     3080000   3.079999e-05   4.292489e+01   2.965435e+00   2.577355e+01  -5.585491e+04   6.367826e+04  -2.191411e+05  -5.750557e+09  -6.047520e+09  -2.915905e+08   2.349415e+05   1.371345e-26   0.000000e+00   0.000000e+00
     3088000   3.087999e-05   4.292040e+01   2.970509e+00   2.575602e+01  -5.631831e+04   6.318368e+04  -2.191656e+05  -5.833595e+09  -6.317323e+09  -3.221957e+08   2.349415e+05   1.456246e-26   0.000000e+00   0.000000e+00
     3096000   3.095999e-05   4.291588e+01   2.975544e+00   2.573849e+01  -5.678814e+04   6.266745e+04  -2.191926e+05  -5.911425e+09  -6.588669e+09  -3.521878e+08   2.349415e+05   1.543498e-26   0.000000e+00   0.000000e+00
     3104000   3.103999e-05   4.291131e+01   2.980536e+00   2.572095e+01  -5.726400e+04   6.212945e+04  -2.192220e+05  -5.984040e+09  -6.861466e+09  -3.814850e+08   2.349415e+05   1.633072e-26   0.000000e+00   0.000000e+00
     3112000   3.111999e-05   4.290671e+01   2.985484e+00   2.570341e+01  -5.774545e+04   6.156957e+04  -2.192536e+05  -6.051431e+09  -7.135622e+09  -4.100066e+08   2.349415e+05   1.724941e-26   0.000000e+00   0.000000e+00
     3120000   3.119999e-05   4.290207e+01   2.990386e+00   2.568587e+01  -5.823529e+04   6.098636e+04  -2.192871e+05  -6.163299e+09  -7.437509e+09  -4.316988e+08   2.349415e+05   1.838700e-26   0.000000e+00   0.000000e+00
     3128000   3.127999e-05   4.289740e+01   2.995241e+00   2.566833e+01  -5.872483e+04   6.038308e+04  -2.193235e+05  -6.091956e+09  -7.651693e+09  -4.754836e+08   2.349415e+05   1.885848e-26   0.000000e+00   0.000000e+00
     3136000   3.135999e-05   4.289268e+01   3.000047e+00   2.565078e+01  -5.921481e+04   5.975939e+04  -2.193626e+05  -6.271359e+09  -8.031704e+09  -4.951320e+08   2.349415e+05   2.047063e-26   0.000000e+00   0.000000e+00
     3144000   3.143999e-05   4.288792e+01   3.004802e+00   2.563323e+01  -5.971807e+04   5.910572e+04  -2.194032e+05  -6.309184e+09  -8.310012e+09  -5.214057e+08   2.349415e+05   2.146397e-26   0.000000e+00   0.000000e+00
     3152000   3.151999e-05   4.288312e+01   3.009503e+00   2.561567e+01  -6.022414e+04   5.842976e+04  -2.194460e+05  -6.341827e+09  -8.589088e+09  -5.465057e+08   2.349415e+05   2.247801e-26   0.000000e+00   0.000000e+00
     3160000   3.159999e-05   4.287829e+01   3.014150e+00   2.559812e+01  -6.073235e+04   5.773162e+04  -2.194907e+05  -6.338355e+09  -8.849413e+09  -5.738235e+08   2.349415e+05   2.336822e-26   0.000000e+00   0.000000e+00
     3168000   3.167999e-05   4.287341e+01   3.018740e+00   2.558056e+01  -6.124039e+04   5.701236e+04  -2.195375e+05  -6.361641e+09  -9.132160e+09  -5.969725e+08   2.349415e+05   2.443166e-26   0.000000e+00   0.000000e+00
     3176000   3.175999e-05   4.286849e+01   3.023271e+00   2.556299e+01  -6.175007e+04   5.627045e+04  -2.195861e+05  -6.379572e+09  -9.415535e+09  -6.187942e+08   2.349415e+05   2.551553e-26   0.000000e+00   0.000000e+00
     3184000   3.183999e-05   4.286353e+01   3.027742e+00   2.554542e+01  -6.226098e+04   5.550585e+04  -2.196365e+05  -6.392147e+09  -9.699449e+09  -6.392207e+08   2.349415e+05   2.661953e-26   0.000000e+00   0.000000e+00
     3192000   3.191999e-05   4.285853e+01   3.032151e+00   2.552785e+01  -6.277267e+04   5.471853e+04  -2.196884e+05  -6.399365e+09  -9.983814e+09  -6.581857e+08   2.349415e+05   2.774337e-26   0.000000e+00   0.000000e+00
     3200000   3.199999e-05   4.285348e+01   3.036497e+00   2.551027e+01  -6.328473e+04   5.390843e+04  -2.197417e+05  -6.401223e+09  -1.026854e+10  -6.756239e+08   2.349415e+05   2.888674e-26   0.000000e+00   0.000000e+00
     3208000   3.207999e-05   4.284840e+01   3.040776e+00   2.549269e+01  -6.379643e+04   5.307496e+04  -2.197967e+05  -6.387565e+09  -1.056959e+10  -6.982743e+08   2.349415e+05   3.009233e-26   0.000000e+00   0.000000e+00
     3216000   3.215999e-05   4.284328e+01   3.044988e+00   2.547510e+01  -6.430689e+04   5.221832e+04  -2.198531e+05  -6.373252e+09  -1.084628e+10  -7.119856e+08   2.349415e+05   3.122564e-26   0.000000e+00   0.000000e+00
     3224000   3.223999e-05   4.283811e+01   3.049130e+00   2.545751e+01  -6.481602e+04   5.133955e+04  -2.199105e+05  -6.354033e+09  -1.112282e+10  -7.239263e+08   2.349415e+05   3.237574e-26   0.000000e+00   0.000000e+00
     3232000   3.231999e-05   4.283291e+01   3.053202e+00   2.543992e+01  -6.532341e+04   5.043867e+04  -2.199689e+05  -6.329922e+09  -1.139911e+10  -7.340393e+08   2.349415e+05   3.354236e-26   0.000000e+00   0.000000e+00
     3240000   3.239999e-05   4.282766e+01   3.057200e+00   2.542232e+01  -6.582868e+04   4.951570e+04  -2.200279e+05  -6.300938e+09  -1.167510e+10  -7.422688e+08   2.349415e+05   3.472519e-26   0.000000e+00   0.000000e+00
     3248000   3.247999e-05   4.282237e+01   3.061124e+00   2.540471e+01  -6.633143e+04   4.857066e+04  -2.200876e+05  -6.267096e+09  -1.195068e+10  -7.485606e+08   2.349415e+05   3.592393e-26   0.000000e+00   0.000000e+00
     3256000   3.255999e-05   4.281705e+01   3.064971e+00   2.538710e+01  -6.683189e+04   4.760308e+04  -2.201476e+05  -6.239115e+09  -1.223600e+10  -7.517753e+08   2.349415e+05   3.721332e-26   0.000000e+00   0.000000e+00
     3264000   3.263999e-05   4.281168e+01   3.068740e+00   2.536949e+01  -6.732934e+04   4.661306e+04  -2.202078e+05  -6.196098e+09  -1.251439e+10  -7.545457e+08   2.349415e+05   3.846407e-26   0.000000e+00   0.000000e+00
     3272000   3.271999e-05   4.280627e+01   3.072428e+00   2.535187e+01  -6.782313e+04   4.560079e+04  -2.202682e+05  -6.147968e+09  -1.279225e+10  -7.552810e+08   2.349415e+05   3.973041e-26   0.000000e+00   0.000000e+00
     3280000   3.279999e-05   4.280083e+01   3.076035e+00   2.533425e+01  -6.831287e+04   4.456632e+04  -2.203286e+05  -6.094732e+09  -1.306950e+10  -7.539327e+08   2.349415e+05   4.101203e-26   0.000000e+00   0.000000e+00
     3288000   3.287999e-05   4.279534e+01   3.079559e+00   2.531662e+01  -6.879269e+04   4.351573e+04  -2.203893e+05  -5.959827e+09  -1.325916e+10  -7.577124e+08   2.349415e+05   4.167542e-26   0.000000e+00   0.000000e+00
     3296000   3.295999e-05   4.278982e+01   3.082997e+00   2.529898e+01  -6.926799e+04   4.244281e+04  -2.204497e+05  -6.046089e+09  -1.374358e+10  -7.462843e+08   2.349415e+05   4.444840e-26   0.000000e+00   0.000000e+00
     3304000   3.303999e-05   4.278426e+01   3.086348e+00   2.528135e+01  -6.974812e+04   4.133320e+04  -2.205091e+05  -5.956573e+09  -1.399643e+10  -7.394691e+08   2.349415e+05   4.561458e-26   0.000000e+00   0.000000e+00
     3312000   3.311999e-05   4.277866e+01   3.089610e+00   2.526370e+01  -7.022093e+04   4.020343e+04  -2.205679e+05  -5.863131e+09  -1.424745e+10  -7.303149e+08   2.349415e+05   4.678909e-26   0.000000e+00   0.000000e+00
     3320000   3.319999e-05   4.277303e+01   3.092780e+00   2.524606e+01  -7.068611e+04   3.905365e+04  -2.206259e+05  -5.765813e+09  -1.449657e+10  -7.187899e+08   2.349415e+05   4.797161e-26   0.000000e+00   0.000000e+00
     3328000   3.327999e-05   4.276735e+01   3.095858e+00   2.522840e+01  -7.114336e+04   3.788403e+04  -2.206829e+05  -5.664670e+09  -1.474375e+10  -7.048642e+08   2.349415e+05   4.916182e-26   0.000000e+00   0.000000e+00
     3336000   3.335999e-05   4.276164e+01   3.098841e+00   2.521075e+01  -7.159236e+04   3.669471e+04  -2.207386e+05  -5.559755e+09  -1.498892e+10  -6.885093e+08   2.349415e+05   5.035941e-26   0.000000e+00   0.000000e+00
     3344000   3.343999e-05   4.275590e+01   3.101729e+00   2.519308e+01  -7.203263e+04   3.548660e+04  -2.207929e+05  -5.460651e+09  -1.524275e+10  -6.683685e+08   2.349415e+05   5.164846e-26   0.000000e+00   0.000000e+00
     3352000   3.351999e-05   4.275012e+01   3.104518e+00   2.517542e+01  -7.246489e+04   3.425733e+04  -2.208456e+05  -5.345313e+09  -1.548859e+10  -6.486571e+08   2.349415e+05   5.288414e-26   0.000000e+00   0.000000e+00
     3360000   3.359999e-05   4.274430e+01   3.107209e+00   2.515775e+01  -7.288777e+04   3.300849e+04  -2.208966e+05  -5.225937e+09  -1.573217e+10  -6.264969e+08   2.349415e+05   5.412606e-26   0.000000e+00   0.000000e+00
     3368000   3.367999e-05   4.273846e+01   3.109799e+00   2.514008e+01  -7.330093e+04   3.174025e+04  -2.209458e+05  -5.102574e+09  -1.597342e+10  -6.018649e+08   2.349415e+05   5.537385e-26   0.000000e+00   0.000000e+00
     3376000   3.375999e-05   4.273258e+01   3.112287e+00   2.512240e+01  -7.370407e+04   3.045280e+04  -2.209929e+05  -4.975275e+09  -1.621226e+10  -5.747400e+08   2.349415e+05   5.662714e-26   0.000000e+00   0.000000e+00
     3384000   3.383999e-05   4.272666e+01   3.114671e+00   2.510472e+01  -7.409687e+04   2.914635e+04  -2.210377e+05  -4.844090e+09  -1.644862e+10  -5.451026e+08   2.349415e+05   5.788558e-26   0.000000e+00   0.000000e+00
     3392000   3.391999e-05   4.272072e+01   3.116950e+00   2.508703e+01  -7.447921e+04   2.782069e+04  -2.210800e+05  -4.718232e+09  -1.669987e+10  -5.120076e+08   2.349415e+05   5.927999e-26   0.000000e+00   0.000000e+00
     3400000   3.399999e-05   4.271475e+01   3.119122e+00   2.506934e+01  -7.485175e+04   2.647426e+04  -2.211195e+05  -4.594263e+09  -1.696044e+10  -4.754419e+08   2.349415e+05   6.077085e-26   0.000000e+00   0.000000e+00
     3408000   3.407999e-05   4.270874e+01   3.121185e+00   2.505165e+01  -7.521415e+04   2.510708e+04  -2.211560e+05  -4.464766e+09  -1.721880e+10  -4.363581e+08   2.349415e+05   6.226988e-26   0.000000e+00   0.000000e+00
     3416000   3.415999e-05   4.270271e+01   3.123139e+00   2.503396e+01  -7.556596e+04   2.371931e+04  -2.211893e+05  -4.329761e+09  -1.747483e+10  -3.947368e+08   2.349415e+05   6.377656e-26   0.000000e+00   0.000000e+00
     3424000   3.423999e-05   4.269665e+01   3.124980e+00   2.501626e+01  -7.590654e+04   2.231203e+04  -2.212191e+05  -4.185243e+09  -1.771282e+10  -3.504445e+08   2.349415e+05   6.517508e-26   0.000000e+00   0.000000e+00
     3432000   3.431999e-05   4.269057e+01   3.126708e+00   2.499856e+01  -7.623579e+04   2.088400e+04  -2.212453e+05  -4.057860e+09  -1.803230e+10  -3.038970e+08   2.349415e+05   6.720865e-26   0.000000e+00   0.000000e+00
     3440000   3.439999e-05   4.268446e+01   3.128321e+00   2.498086e+01  -7.655398e+04   1.943249e+04  -2.212677e+05  -3.896218e+09  -1.825492e+10  -2.552154e+08   2.349415e+05   6.853920e-26   0.000000e+00   0.000000e+00
     3448000   3.447999e-05   4.267832e+01   3.129817e+00   2.496316e+01  -7.685908e+04   1.796329e+04  -2.212861e+05  -3.730626e+09  -1.847436e+10  -2.039504e+08   2.349415e+05   6.987136e-26   0.000000e+00   0.000000e+00
     3456000   3.455999e-05   4.267216e+01   3.131194e+00   2.494546e+01  -7.715078e+04   1.647668e+04  -2.213002e+05  -3.561134e+09  -1.869054e+10  -1.501006e+08   2.349415e+05   7.120470e-26   0.000000e+00   0.000000e+00
     3464000   3.463999e-05   4.266598e+01   3.132452e+00   2.492775e+01  -7.742876e+04   1.497290e+04  -2.213100e+05  -3.387793e+09  -1.890337e+10  -9.366634e+07   2.349415e+05   7.253878e-26   0.000000e+00   0.000000e+00
     3472000   3.471999e-05   4.265977e+01   3.133590e+00   2.491005e+01  -7.769272e+04   1.345222e+04  -2.213152e+05  -3.210657e+09  -1.911279e+10  -3.465012e+07   2.349415e+05   7.387316e-26   0.000000e+00   0.000000e+00
     3480000   3.479999e-05   4.265355e+01   3.134604e+00   2.489234e+01  -7.794216e+04   1.191590e+04  -2.213155e+05  -3.025313e+09  -1.929898e+10   2.634684e+07   2.349415e+05   7.505235e-26   0.000000e+00   0.000000e+00
     3488000   3.487999e-05   4.264730e+01   3.135496e+00   2.487464e+01  -7.817704e+04   1.036239e+04  -2.213108e+05  -2.845612e+09  -1.953801e+10   9.035738e+07   2.349415e+05   7.667214e-26   0.000000e+00   0.000000e+00
     3496000   3.495999e-05   4.264104e+01   3.136262e+00   2.485693e+01  -7.839730e+04   8.789899e+03  -2.213010e+05  -2.660069e+09  -1.977374e+10   1.569314e+08   2.349415e+05   7.829700e-26   0.000000e+00   0.000000e+00
     3504000   3.503999e-05   4.263476e+01   3.136902e+00   2.483923e+01  -7.860249e+04   7.198684e+03  -2.212857e+05  -2.468699e+09  -2.000601e+10   2.260649e+08   2.349415e+05   7.992638e-26   0.000000e+00   0.000000e+00
     3512000   3.511999e-05   4.262846e+01   3.137413e+00   2.482153e+01  -7.879214e+04   5.589032e+03  -2.212647e+05  -2.271524e+09  -2.023467e+10   2.977513e+08   2.349415e+05   8.155968e-26   0.000000e+00   0.000000e+00
     3520000   3.519999e-05   4.262215e+01   3.137795e+00   2.480383e+01  -7.896578e+04   3.961235e+03  -2.212380e+05  -2.068564e+09  -2.045958e+10   3.719812e+08   2.349415e+05   8.319630e-26   0.000000e+00   0.000000e+00
     3528000   3.527999e-05   4.261583e+01   3.138046e+00   2.478613e+01  -7.912288e+04   2.314756e+03  -2.212052e+05  -1.857969e+09  -2.067856e+10   4.481710e+08   2.349415e+05   8.481774e-26   0.000000e+00   0.000000e+00
     3536000   3.535999e-05   4.260949e+01   3.138165e+00   2.476844e+01  -7.926296e+04   6.533539e+02  -2.211662e+05  -1.643721e+09  -2.085574e+10   5.274571e+08   2.349415e+05   8.613281e-26   0.000000e+00   0.000000e+00
     3544000   3.543999e-05   4.260315e+01   3.138151e+00   2.475074e+01  -7.938578e+04  -1.022048e+03  -2.211207e+05  -1.426320e+09  -2.102855e+10   6.092477e+08   2.349415e+05   8.744335e-26   0.000000e+00   0.000000e+00
     3552000   3.551999e-05   4.259679e+01   3.138001e+00   2.473306e+01  -7.949108e+04  -2.705403e+03  -2.210687e+05  -1.207065e+09  -2.106265e+10   6.917732e+08   2.349415e+05   8.763312e-26   0.000000e+00   0.000000e+00
     3560000   3.559999e-05   4.259043e+01   3.137717e+00   2.471537e+01  -7.957893e+04  -4.398081e+03  -2.210099e+05  -9.885883e+08  -2.125359e+10   7.788849e+08   2.349415e+05   8.915314e-26   0.000000e+00   0.000000e+00
     3568000   3.567999e-05   4.258406e+01   3.137297e+00   2.469770e+01  -7.964929e+04  -6.106705e+03  -2.209439e+05  -7.807516e+08  -2.151927e+10   8.762109e+08   2.349415e+05   9.134751e-26   0.000000e+00   0.000000e+00
     3576000   3.575999e-05   4.257768e+01   3.136740e+00   2.468002e+01  -7.970250e+04  -7.834861e+03  -2.208702e+05  -5.490161e+08  -2.168392e+10   9.672819e+08   2.349415e+05   9.271897e-26   0.000000e+00   0.000000e+00
     3584000   3.583999e-05   4.257131e+01   3.136043e+00   2.466236e+01  -7.973703e+04  -9.576020e+03  -2.207891e+05  -3.137006e+08  -2.184431e+10   1.060697e+09   2.349415e+05   9.408938e-26   0.000000e+00   0.000000e+00
     3592000   3.591999e-05   4.256493e+01   3.135207e+00   2.464470e+01  -7.975260e+04  -1.132984e+04  -2.207004e+05  -7.482330e+07  -2.200034e+10   1.156422e+09   2.349415e+05   9.545837e-26   0.000000e+00   0.000000e+00
     3600000   3.599999e-05   4.255855e+01   3.134230e+00   2.462704e+01  -7.974891e+04  -1.309596e+04  -2.206040e+05   1.675972e+08  -2.215193e+10   1.254420e+09   2.349415e+05   9.682562e-26   0.000000e+00   0.000000e+00
     3608000   3.607999e-05   4.255217e+01   3.133112e+00   2.460940e+01  -7.972568e+04  -1.487403e+04  -2.204997e+05   4.135421e+08  -2.229898e+10   1.354654e+09   2.349415e+05   9.819077e-26   0.000000e+00   0.000000e+00
     3616000   3.615999e-05   4.254579e+01   3.131850e+00   2.459176e+01  -7.968273e+04  -1.666261e+04  -2.203873e+05   6.607426e+08  -2.241641e+10   1.455897e+09   2.349415e+05   9.933166e-26   0.000000e+00   0.000000e+00
     3624000   3.623999e-05   4.253942e+01   3.130445e+00   2.457414e+01  -7.961976e+04  -1.846204e+04  -2.202666e+05   9.139849e+08  -2.256845e+10   1.561214e+09   2.349415e+05   1.008178e-25   0.000000e+00   0.000000e+00
     3632000   3.631999e-05   4.253305e+01   3.128896e+00   2.455652e+01  -7.953637e+04  -2.027343e+04  -2.201374e+05   1.171546e+09  -2.271546e+10   1.668660e+09   2.349415e+05   1.023010e-25   0.000000e+00   0.000000e+00
     3640000   3.639999e-05   4.252669e+01   3.127201e+00   2.453892e+01  -7.943220e+04  -2.209638e+04  -2.199995e+05   1.433392e+09  -2.285730e+10   1.778189e+09   2.349415e+05   1.037807e-25   0.000000e+00   0.000000e+00
     3648000   3.647999e-05   4.252034e+01   3.125360e+00   2.452132e+01  -7.930691e+04  -2.393046e+04  -2.198528e+05   1.699489e+09  -2.299386e+10   1.889751e+09   2.349415e+05   1.052567e-25   0.000000e+00   0.000000e+00
     3656000   3.655999e-05   4.251401e+01   3.123372e+00   2.450374e+01  -7.916017e+04  -2.577525e+04  -2.196971e+05   1.969800e+09  -2.312500e+10   2.003293e+09   2.349415e+05   1.067282e-25   0.000000e+00   0.000000e+00
     3664000   3.663999e-05   4.250768e+01   3.121236e+00   2.448617e+01  -7.899241e+04  -2.762941e+04  -2.195321e+05   2.230091e+09  -2.323103e+10   2.121303e+09   2.349415e+05   1.080056e-25   0.000000e+00   0.000000e+00
     3672000   3.671999e-05   4.250137e+01   3.118951e+00   2.446862e+01  -7.880309e+04  -2.949221e+04  -2.193577e+05   2.503402e+09  -2.333789e+10   2.238374e+09   2.349415e+05   1.093392e-25   0.000000e+00   0.000000e+00
     3680000   3.679999e-05   4.249507e+01   3.116517e+00   2.445107e+01  -7.859061e+04  -3.136609e+04  -2.191739e+05   2.795156e+09  -2.347529e+10   2.357257e+09   2.349415e+05   1.110157e-25   0.000000e+00   0.000000e+00
     3688000   3.687999e-05   4.248879e+01   3.113932e+00   2.443355e+01  -7.835620e+04  -3.324717e+04  -2.189805e+05   3.065521e+09  -2.355084e+10   2.478717e+09   2.349415e+05   1.121417e-25   0.000000e+00   0.000000e+00
     3696000   3.695999e-05   4.248253e+01   3.111197e+00   2.441604e+01  -7.810007e+04  -3.513408e+04  -2.187773e+05   3.337980e+09  -2.362102e+10   2.601735e+09   2.349415e+05   1.132588e-25   0.000000e+00   0.000000e+00
     3704000   3.703999e-05   4.247630e+01   3.108311e+00   2.439854e+01  -7.782212e+04  -3.702617e+04  -2.185642e+05   3.604515e+09  -2.365482e+10   2.723825e+09   2.349415e+05   1.140648e-25   0.000000e+00   0.000000e+00
     3712000   3.711999e-05   4.247008e+01   3.105273e+00   2.438107e+01  -7.752242e+04  -3.892203e+04  -2.183412e+05   3.888437e+09  -2.374051e+10   2.851418e+09   2.349415e+05   1.154220e-25   0.000000e+00   0.000000e+00
     3720000   3.719999e-05   4.246389e+01   3.102083e+00   2.436361e+01  -7.719987e+04  -4.082450e+04  -2.181079e+05   4.176002e+09  -2.382033e+10   2.980452e+09   2.349415e+05   1.167727e-25   0.000000e+00   0.000000e+00
     3728000   3.727999e-05   4.245773e+01   3.098741e+00   2.434617e+01  -7.685547e+04  -4.273111e+04  -2.178642e+05   4.422784e+09  -2.382673e+10   3.113048e+09   2.349415e+05   1.174090e-25   0.000000e+00   0.000000e+00
     3736000   3.735999e-05   4.245160e+01   3.095246e+00   2.432875e+01  -7.649000e+04  -4.464005e+04  -2.176099e+05   4.714375e+09  -2.389566e+10   3.244773e+09   2.349415e+05   1.187446e-25   0.000000e+00   0.000000e+00
     3744000   3.743999e-05   4.244549e+01   3.091598e+00   2.431135e+01  -7.610107e+04  -4.655425e+04  -2.173450e+05   5.009291e+09  -2.395830e+10   3.377774e+09   2.349415e+05   1.200714e-25   0.000000e+00   0.000000e+00
     3752000   3.751999e-05   4.243942e+01   3.087797e+00   2.429398e+01  -7.568851e+04  -4.847244e+04  -2.170696e+05   5.303235e+09  -2.398638e+10   3.507071e+09   2.349415e+05   1.211075e-25   0.000000e+00   0.000000e+00
     3760000   3.759999e-05   4.243339e+01   3.083843e+00   2.427662e+01  -7.525246e+04  -5.039327e+04  -2.167836e+05   5.598526e+09  -2.403340e+10   3.643324e+09   2.349415e+05   1.223763e-25   0.000000e+00   0.000000e+00
     3768000   3.767999e-05   4.242738e+01   3.079734e+00   2.425929e+01  -7.479266e+04  -5.231761e+04  -2.164866e+05   5.896833e+09  -2.407407e+10   3.780610e+09   2.349416e+05   1.236360e-25   0.000000e+00   0.000000e+00
     3776000   3.775999e-05   4.242142e+01   3.075472e+00   2.424198e+01  -7.430888e+04  -5.424495e+04  -2.161786e+05   6.198112e+09  -2.410825e+10   3.918841e+09   2.349416e+05   1.248859e-25   0.000000e+00   0.000000e+00
     3784000   3.783999e-05   4.241549e+01   3.071055e+00   2.422470e+01  -7.380089e+04  -5.617476e+04  -2.158596e+05   6.502315e+09  -2.413585e+10   4.057927e+09   2.349416e+05   1.261258e-25   0.000000e+00   0.000000e+00
     3792000   3.791999e-05   4.240961e+01   3.066484e+00   2.420745e+01  -7.326843e+04  -5.810651e+04  -2.155294e+05   6.809394e+09  -2.415674e+10   4.197774e+09   2.349416e+05   1.273553e-25   0.000000e+00   0.000000e+00
     3800000   3.799999e-05   4.240377e+01   3.061758e+00   2.419022e+01  -7.271030e+04  -6.004060e+04  -2.151880e+05   7.140839e+09  -2.419189e+10   4.337030e+09   2.349416e+05   1.288327e-25   0.000000e+00   0.000000e+00
     3808000   3.807999e-05   4.239798e+01   3.056877e+00   2.417302e+01  -7.212549e+04  -6.197760e+04  -2.148353e+05   7.489522e+09  -2.424199e+10   4.479096e+09   2.349416e+05   1.305596e-25   0.000000e+00   0.000000e+00
     3816000   3.815999e-05   4.239223e+01   3.051841e+00   2.415585e+01  -7.151437e+04  -6.391620e+04  -2.144713e+05   7.788718e+09  -2.422176e+10   4.621366e+09   2.349416e+05   1.315204e-25   0.000000e+00   0.000000e+00
     3824000   3.823999e-05   4.238654e+01   3.046651e+00   2.413870e+01  -7.087926e+04  -6.585291e+04  -2.140959e+05   8.089317e+09  -2.419502e+10   4.763944e+09   2.349416e+05   1.324678e-25   0.000000e+00   0.000000e+00
     3832000   3.831999e-05   4.238089e+01   3.041305e+00   2.412159e+01  -7.022004e+04  -6.778722e+04  -2.137091e+05   8.391275e+09  -2.416171e+10   4.906729e+09   2.349416e+05   1.334013e-25   0.000000e+00   0.000000e+00
     3840000   3.839999e-05   4.237530e+01   3.035805e+00   2.410451e+01  -6.953662e+04  -6.971861e+04  -2.133108e+05   8.694542e+09  -2.412175e+10   5.049620e+09   2.349416e+05   1.343207e-25   0.000000e+00   0.000000e+00
     3848000   3.847999e-05   4.236977e+01   3.030150e+00   2.408746e+01  -6.883295e+04  -7.164520e+04  -2.129003e+05   8.939977e+09  -2.406025e+10   5.206330e+09   2.349416e+05   1.349052e-25   0.000000e+00   0.000000e+00
     3856000   3.855999e-05   4.236429e+01   3.024342e+00   2.407045e+01  -6.810439e+04  -7.356874e+04  -2.124782e+05   9.274696e+09  -2.402708e+10   5.346374e+09   2.349416e+05   1.360813e-25   0.000000e+00   0.000000e+00
     3864000   3.863999e-05   4.235887e+01   3.018379e+00   2.405346e+01  -6.734892e+04  -7.548932e+04  -2.120449e+05   9.612291e+09  -2.398601e+10   5.486118e+09   2.349416e+05   1.372452e-25   0.000000e+00   0.000000e+00
     3872000   3.871999e-05   4.235351e+01   3.012263e+00   2.403652e+01  -6.656634e+04  -7.740629e+04  -2.116004e+05   9.952678e+09  -2.393690e+10   5.625444e+09   2.349416e+05   1.383966e-25   0.000000e+00   0.000000e+00
     3880000   3.879999e-05   4.234822e+01   3.005994e+00   2.401961e+01  -6.575642e+04  -7.931900e+04  -2.111448e+05   1.029577e+10  -2.387962e+10   5.764231e+09   2.349416e+05   1.395351e-25   0.000000e+00   0.000000e+00
     3888000   3.887999e-05   4.234299e+01   2.999573e+00   2.400274e+01  -6.491890e+04  -8.122675e+04  -2.106782e+05   1.064922e+10  -2.380352e+10   5.895913e+09   2.349416e+05   1.405795e-25   0.000000e+00   0.000000e+00
     3896000   3.895999e-05   4.233784e+01   2.992998e+00   2.398590e+01  -6.405119e+04  -8.312962e+04  -2.102010e+05   1.101157e+10  -2.374646e+10   6.035762e+09   2.349416e+05   1.419178e-25   0.000000e+00   0.000000e+00
     3904000   3.903999e-05   4.233275e+01   2.986272e+00   2.396910e+01  -6.315759e+04  -8.502562e+04  -2.097124e+05   1.132865e+10  -2.365223e+10   6.177734e+09   2.349416e+05   1.427735e-25   0.000000e+00   0.000000e+00
     3912000   3.911999e-05   4.232773e+01   2.979394e+00   2.395235e+01  -6.223857e+04  -8.691378e+04  -2.092126e+05   1.164692e+10  -2.355053e+10   6.318792e+09   2.349416e+05   1.436143e-25   0.000000e+00   0.000000e+00
     3920000   3.919999e-05   4.232279e+01   2.972366e+00   2.393563e+01  -6.129405e+04  -8.879350e+04  -2.087015e+05   1.196630e+10  -2.344128e+10   6.458813e+09   2.349416e+05   1.444397e-25   0.000000e+00   0.000000e+00
     3928000   3.927999e-05   4.231792e+01   2.965188e+00   2.391896e+01  -6.032393e+04  -9.066418e+04  -2.081792e+05   1.228671e+10  -2.332441e+10   6.597673e+09   2.349416e+05   1.452497e-25   0.000000e+00   0.000000e+00
     3936000   3.935999e-05   4.231314e+01   2.957860e+00   2.390232e+01  -5.932814e+04  -9.252520e+04  -2.076459e+05   1.260808e+10  -2.319981e+10   6.735245e+09   2.349416e+05   1.460438e-25   0.000000e+00   0.000000e+00
     3944000   3.943999e-05   4.230843e+01   2.950384e+00   2.388573e+01  -5.830645e+04  -9.437567e+04  -2.071017e+05   1.294368e+10  -2.307265e+10   6.870000e+09   2.349416e+05   1.469336e-25   0.000000e+00   0.000000e+00
     3952000   3.951999e-05   4.230381e+01   2.942760e+00   2.386919e+01  -5.725698e+04  -9.621674e+04  -2.065467e+05   1.329361e+10  -2.295256e+10   7.006945e+09   2.349416e+05   1.480260e-25   0.000000e+00   0.000000e+00
     3960000   3.959999e-05   4.229927e+01   2.934989e+00   2.385268e+01  -5.617965e+04  -9.804760e+04  -2.059807e+05   1.362750e+10  -2.280574e+10   7.138785e+09   2.349416e+05   1.488394e-25   0.000000e+00   0.000000e+00
     3968000   3.967999e-05   4.229482e+01   2.927073e+00   2.383623e+01  -5.507521e+04  -9.986675e+04  -2.054042e+05   1.398404e+10  -2.267133e+10   7.273125e+09   2.349416e+05   1.499542e-25   0.000000e+00   0.000000e+00
     3976000   3.975999e-05   4.229046e+01   2.919011e+00   2.381982e+01  -5.394215e+04  -1.016748e+05  -2.048171e+05   1.434256e+10  -2.252729e+10   7.405536e+09   2.349416e+05   1.510534e-25   0.000000e+00   0.000000e+00
     3984000   3.983999e-05   4.228619e+01   2.910805e+00   2.380346e+01  -5.278034e+04  -1.034709e+05  -2.042194e+05   1.470292e+10  -2.237348e+10   7.535865e+09   2.349416e+05   1.521367e-25   0.000000e+00   0.000000e+00
     3992000   3.991999e-05   4.228202e+01   2.902456e+00   2.378715e+01  -5.158851e+04  -1.052559e+05  -2.036108e+05   1.505814e+10  -2.222507e+10   7.673882e+09   2.349416e+05   1.533271e-25   0.000000e+00   0.000000e+00
     4000000   3.999999e-05   4.227794e+01   2.893965e+00   2.377088e+01  -5.038351e+04  -1.070232e+05  -2.029903e+05   1.516703e+10  -2.198316e+10   7.825660e+09   2.349416e+05   1.523337e-25   0.000000e+00   0.000000e+00
     4008000   4.007999e-05   4.227396e+01   2.885333e+00   2.375467e+01  -4.915652e+04  -1.087743e+05  -2.023594e+05   1.550789e+10  -2.179242e+10   7.946922e+09   2.349416e+05   1.531241e-25   0.000000e+00   0.000000e+00
     4016000   4.015999e-05   4.227007e+01   2.876561e+00   2.373850e+01  -4.790223e+04  -1.105098e+05  -2.017189e+05   1.584938e+10  -2.159245e+10   8.065425e+09   2.349416e+05   1.538970e-25   0.000000e+00   0.000000e+00
     4024000   4.023999e-05   4.226629e+01   2.867652e+00   2.372239e+01  -4.662060e+04  -1.122289e+05  -2.010690e+05   1.619132e+10  -2.138315e+10   8.181020e+09   2.349416e+05   1.546521e-25   0.000000e+00   0.000000e+00
     4032000   4.031999e-05   4.226262e+01   2.858605e+00   2.370633e+01  -4.531161e+04  -1.139308e+05  -2.004100e+05   1.653356e+10  -2.116444e+10   8.293558e+09   2.349416e+05   1.553893e-25   0.000000e+00   0.000000e+00
     4040000   4.039999e-05   4.225904e+01   2.849423e+00   2.369033e+01  -4.397155e+04  -1.156142e+05  -1.997434e+05   1.694398e+10  -2.092339e+10   8.380655e+09   2.349416e+05   1.563819e-25   0.000000e+00   0.000000e+00
     4048000   4.047999e-05   4.225558e+01   2.840107e+00   2.367437e+01  -4.260339e+04  -1.172789e+05  -1.990682e+05   1.725996e+10  -2.069254e+10   8.496871e+09   2.349416e+05   1.570038e-25   0.000000e+00   0.000000e+00
     4056000   4.055999e-05   4.225223e+01   2.830659e+00   2.365848e+01  -4.120997e+04  -1.189248e+05  -1.983839e+05   1.757540e+10  -2.045265e+10   8.609754e+09   2.349416e+05   1.576036e-25   0.000000e+00   0.000000e+00
     4064000   4.063999e-05   4.224899e+01   2.821080e+00   2.364263e+01  -3.979134e+04  -1.205511e+05  -1.976908e+05   1.789013e+10  -2.020369e+10   8.719153e+09   2.349416e+05   1.581810e-25   0.000000e+00   0.000000e+00
     4072000   4.071999e-05   4.224586e+01   2.811371e+00   2.362685e+01  -3.834757e+04  -1.221571e+05  -1.969890e+05   1.820396e+10  -1.994560e+10   8.824918e+09   2.349416e+05   1.587358e-25   0.000000e+00   0.000000e+00
     4080000   4.079999e-05   4.224285e+01   2.801535e+00   2.361112e+01  -3.687874e+04  -1.237421e+05  -1.962789e+05   1.851669e+10  -1.967836e+10   8.926899e+09   2.349416e+05   1.592678e-25   0.000000e+00   0.000000e+00
     4088000   4.087999e-05   4.223996e+01   2.791573e+00   2.359544e+01  -3.538584e+04  -1.253053e+05  -1.955607e+05   1.887317e+10  -1.940960e+10   9.021627e+09   2.349416e+05   1.601576e-25   0.000000e+00   0.000000e+00
     4096000   4.095999e-05   4.223719e+01   2.781487e+00   2.357983e+01  -3.386402e+04  -1.268466e+05  -1.948351e+05   1.917196e+10  -1.911980e+10   9.115567e+09   2.349416e+05   1.605323e-25   0.000000e+00   0.000000e+00
     4104000   4.103999e-05   4.223454e+01   2.771278e+00   2.356427e+01  -3.231838e+04  -1.283643e+05  -1.941023e+05   1.946869e+10  -1.882114e+10   9.205235e+09   2.349416e+05   1.608819e-25   0.000000e+00   0.000000e+00
     4112000   4.111999e-05   4.223202e+01   2.760949e+00   2.354877e+01  -3.074909e+04  -1.298577e+05  -1.933624e+05   1.976318e+10  -1.851364e+10   9.290487e+09   2.349416e+05   1.612063e-25   0.000000e+00   0.000000e+00
     4120000   4.119999e-05   4.222962e+01   2.750502e+00   2.353333e+01  -2.915633e+04  -1.313262e+05  -1.926159e+05   2.005519e+10  -1.819730e+10   9.371180e+09   2.349416e+05   1.615053e-25   0.000000e+00   0.000000e+00
     4128000   4.127999e-05   4.222736e+01   2.739938e+00   2.351795e+01  -2.754033e+04  -1.327690e+05  -1.918632e+05   2.034451e+10  -1.787214e+10   9.447173e+09   2.349416e+05   1.617787e-25   0.000000e+00   0.000000e+00
     4136000   4.135999e-05   4.222522e+01   2.729260e+00   2.350263e+01  -2.590129e+04  -1.341855e+05  -1.911045e+05   2.063092e+10  -1.753819e+10   9.518327e+09   2.349416e+05   1.620265e-25   0.000000e+00   0.000000e+00
     4144000   4.143999e-05   4.222321e+01   2.718469e+00   2.348737e+01  -2.424087e+04  -1.355746e+05  -1.903404e+05   2.090134e+10  -1.719525e+10   9.585794e+09   2.349416e+05   1.621462e-25   0.000000e+00   0.000000e+00
     4152000   4.151999e-05   4.222134e+01   2.707568e+00   2.347218e+01  -2.255671e+04  -1.369366e+05  -1.895709e+05   2.120230e+10  -1.685339e+10   9.651184e+09   2.349416e+05   1.625964e-25   0.000000e+00   0.000000e+00
     4160000   4.159999e-05   4.221960e+01   2.696560e+00   2.345704e+01  -2.084623e+04  -1.382710e+05  -1.887965e+05   2.159229e+10  -1.650574e+10   9.704304e+09   2.349416e+05   1.638002e-25   0.000000e+00   0.000000e+00
     4168000   4.167999e-05   4.221801e+01   2.685446e+00   2.344197e+01  -1.910768e+04  -1.395768e+05  -1.880180e+05   2.187087e+10  -1.613838e+10   9.757760e+09   2.349416e+05   1.640276e-25   0.000000e+00   0.000000e+00
     4176000   4.175999e-05   4.221655e+01   2.674228e+00   2.342696e+01  -1.734698e+04  -1.408529e+05  -1.872354e+05   2.214572e+10  -1.576210e+10   9.805665e+09   2.349416e+05   1.642306e-25   0.000000e+00   0.000000e+00
     4184000   4.183999e-05   4.221523e+01   2.662910e+00   2.341201e+01  -1.556446e+04  -1.420985e+05  -1.864492e+05   2.241660e+10  -1.537695e+10   9.847886e+09   2.349416e+05   1.644090e-25   0.000000e+00   0.000000e+00
     4192000   4.191999e-05   4.221406e+01   2.651493e+00   2.339713e+01  -1.376186e+04  -1.433129e+05  -1.856599e+05   2.259466e+10  -1.497624e+10   9.885465e+09   2.349416e+05   1.637390e-25   0.000000e+00   0.000000e+00
     4200000   4.199999e-05   4.221303e+01   2.639981e+00   2.338231e+01  -1.194236e+04  -1.444952e+05  -1.848677e+05   2.289212e+10  -1.458041e+10   9.917387e+09   2.349416e+05   1.642235e-25   0.000000e+00   0.000000e+00
     4208000   4.207999e-05   4.221215e+01   2.628375e+00   2.336755e+01  -1.009923e+04  -1.456455e+05  -1.840733e+05   2.318558e+10  -1.417412e+10   9.942951e+09   2.349416e+05   1.646851e-25   0.000000e+00   0.000000e+00
     4216000   4.215999e-05   4.221141e+01   2.616678e+00   2.335286e+01  -8.232783e+03  -1.467628e+05  -1.832770e+05   2.347468e+10  -1.375743e+10   9.962010e+09   2.349416e+05   1.651237e-25   0.000000e+00   0.000000e+00
     4224000   4.223999e-05   4.221083e+01   2.604894e+00   2.333823e+01  -6.343399e+03  -1.478464e+05  -1.824795e+05   2.375907e+10  -1.333039e+10   9.974418e+09   2.349416e+05   1.655391e-25   0.000000e+00   0.000000e+00
     4232000   4.231999e-05   4.221040e+01   2.593024e+00   2.332366e+01  -4.430010e+03  -1.488952e+05  -1.816815e+05   2.405883e+10  -1.288858e+10   9.976022e+09   2.349416e+05   1.660864e-25   0.000000e+00   0.000000e+00
     4240000   4.239999e-05   4.221012e+01   2.581072e+00   2.330916e+01  -2.495757e+03  -1.499083e+05  -1.808835e+05   2.429646e+10  -1.243775e+10   9.972585e+09   2.349416e+05   1.660872e-25   0.000000e+00   0.000000e+00
     4248000   4.247999e-05   4.221000e+01   2.569040e+00   2.329472e+01  -5.453538e+02  -1.508850e+05  -1.800861e+05   2.444103e+10  -1.197788e+10   9.961598e+09   2.349416e+05   1.652217e-25   0.000000e+00   0.000000e+00
     4256000   4.255999e-05   4.221004e+01   2.556931e+00   2.328034e+01   1.419501e+03  -1.518249e+05  -1.792896e+05   2.467929e+10  -1.151837e+10   9.949256e+09   2.349416e+05   1.653516e-25   0.000000e+00   0.000000e+00
     4264000   4.263999e-05   4.221023e+01   2.544749e+00   2.326603e+01   3.403168e+03  -1.527277e+05  -1.784944e+05   2.491131e+10  -1.104994e+10   9.929729e+09   2.349416e+05   1.654590e-25   0.000000e+00   0.000000e+00
     4272000   4.271999e-05   4.221058e+01   2.532496e+00   2.325178e+01   5.405136e+03  -1.535926e+05  -1.777010e+05   2.513675e+10  -1.057276e+10   9.902905e+09   2.349416e+05   1.655442e-25   0.000000e+00   0.000000e+00
     4280000   4.279999e-05   4.221109e+01   2.520175e+00   2.323760e+01   7.424865e+03  -1.544191e+05  -1.769101e+05   2.535526e+10  -1.008695e+10   9.868675e+09   2.349416e+05   1.656071e-25   0.000000e+00   0.000000e+00
     4288000   4.287999e-05   4.221177e+01   2.507790e+00   2.322348e+01   9.461786e+03  -1.552063e+05  -1.761223e+05   2.556649e+10  -9.592689e+09   9.826935e+09   2.349416e+05   1.656478e-25   0.000000e+00   0.000000e+00
