     timestep     time              x             y              z              vx             vy             vz             ax             ay             az         v_magnitude      ELoss        Electronic      Nuclear
           0   0.000000e+00   3.824389e+01   1.000000e-01   4.113383e+01   1.437879e+05  -5.388554e+04   1.777263e+05   0.000000e+00   0.000000e+00   0.000000e+00   2.348729e+05   0.000000e+00   0.000000e+00   0.000000e+00
        8000   7.999000e-08   3.825543e+01   9.577018e-02   4.114805e+01   1.445699e+05  -5.185951e+04   1.776947e+05   9.573966e+09   2.534348e+10  -3.928044e+08   2.348729e+05   1.442975e-25   0.000000e+00   0.000000e+00
       16000   1.599900e-07   3.826702e+01   9.170255e-02   4.116226e+01   1.453198e+05  -4.983076e+04   1.776635e+05   9.175652e+09   2.537422e+10  -3.882642e+08   2.348729e+05   1.431353e-25   0.000000e+00   0.000000e+00
       24000   2.399900e-07   3.827868e+01   8.779732e-02   4.117648e+01   1.460380e+05  -4.779980e+04   1.776326e+05   8.779863e+09   2.539866e+10  -3.835782e+08   2.348729e+05   1.419816e-25   0.000000e+00   0.000000e+00
       32000   3.199900e-07   3.829039e+01   8.405463e-02   4.119068e+01   1.467247e+05  -4.576714e+04   1.776021e+05   8.386704e+09   2.541689e+10  -3.787738e+08   2.348729e+05   1.408363e-25   0.000000e+00   0.000000e+00
       40000   3.999900e-07   3.830215e+01   8.047467e-02   4.120489e+01   1.473821e+05  -4.372792e+04   1.775715e+05   8.086021e+09   2.567808e+10  -3.878942e+08   2.348729e+05   1.424873e-25   0.000000e+00   0.000000e+00
       48000   4.799900e-07   3.831397e+01   7.705862e-02   4.121910e+01   1.480136e+05  -4.167309e+04   1.775404e+05   7.701624e+09   2.569165e+10  -3.902623e+08   2.348729e+05   1.414319e-25   0.000000e+00   0.000000e+00
       56000   5.599900e-07   3.832584e+01   7.380700e-02   4.123330e+01   1.486145e+05  -3.961740e+04   1.775091e+05   7.319948e+09   2.569972e+10  -3.925825e+08   2.348729e+05   1.403867e-25   0.000000e+00   0.000000e+00
       64000   6.399900e-07   3.833775e+01   7.071985e-02   4.124750e+01   1.491849e+05  -3.756128e+04   1.774776e+05   6.941069e+09   2.570237e+10  -3.948756e+08   2.348729e+05   1.393518e-25   0.000000e+00   0.000000e+00
       72000   7.199900e-07   3.834970e+01   6.779719e-02   4.126169e+01   1.497251e+05  -3.550516e+04   1.774459e+05   6.565057e+09   2.569970e+10  -3.971623e+08   2.348729e+05   1.383269e-25   0.000000e+00   0.000000e+00
       80000   7.999900e-07   3.836170e+01   6.503901e-02   4.127589e+01   1.502354e+05  -3.344947e+04   1.774140e+05   6.191982e+09   2.569181e+10  -3.994627e+08   2.348729e+05   1.373121e-25   0.000000e+00   0.000000e+00
       88000   8.799900e-07   3.837374e+01   6.244525e-02   4.129008e+01   1.507159e+05  -3.139461e+04   1.773820e+05   5.821910e+09   2.567880e+10  -4.017963e+08   2.348729e+05   1.363072e-25   0.000000e+00   0.000000e+00
       96000   9.599900e-07   3.838582e+01   6.001585e-02   4.130427e+01   1.511666e+05  -2.934048e+04   1.773501e+05   5.441960e+09   2.568429e+10  -3.893224e+08   2.348729e+05   1.355195e-25   0.000000e+00   0.000000e+00
      104000   1.039990e-06   3.839793e+01   5.775079e-02   4.131846e+01   1.515873e+05  -2.728602e+04   1.773190e+05   5.075640e+09   2.567657e+10  -3.879139e+08   2.348729e+05   1.346840e-25   0.000000e+00   0.000000e+00
      112000   1.119990e-06   3.841007e+01   5.565005e-02   4.133264e+01   1.519792e+05  -2.523261e+04   1.772877e+05   4.720424e+09   2.567004e+10  -3.930190e+08   2.348729e+05   1.339348e-25   0.000000e+00   0.000000e+00
      120000   1.199990e-06   3.842224e+01   5.371359e-02   4.134682e+01   1.523426e+05  -2.317872e+04   1.772562e+05   4.364741e+09   2.567652e+10  -3.936697e+08   2.348729e+05   1.333652e-25   0.000000e+00   0.000000e+00
      128000   1.279990e-06   3.843444e+01   5.194146e-02   4.136100e+01   1.526776e+05  -2.112449e+04   1.772247e+05   4.010921e+09   2.567858e+10  -3.945511e+08   2.348729e+05   1.328036e-25   0.000000e+00   0.000000e+00
      136000   1.359990e-06   3.844667e+01   5.033367e-02   4.137518e+01   1.529844e+05  -1.907026e+04   1.771931e+05   3.659013e+09   2.567628e+10  -3.956806e+08   2.348729e+05   1.322500e-25   0.000000e+00   0.000000e+00
      144000   1.439990e-06   3.845892e+01   4.889021e-02   4.138935e+01   1.532631e+05  -1.701640e+04   1.771613e+05   3.309069e+09   2.566967e+10  -3.970750e+08   2.348729e+05   1.317042e-25   0.000000e+00   0.000000e+00
      152000   1.519990e-06   3.847119e+01   4.761101e-02   4.140352e+01   1.535136e+05  -1.496499e+04   1.771296e+05   2.946993e+09   2.556541e+10  -3.941236e+08   2.348729e+05   1.302085e-25   0.000000e+00   0.000000e+00
      160000   1.599990e-06   3.848348e+01   4.649556e-02   4.141769e+01   1.537355e+05  -1.292194e+04   1.770980e+05   2.601677e+09   2.551014e+10  -3.970864e+08   2.348729e+05   1.292775e-25   0.000000e+00   0.000000e+00
      168000   1.679990e-06   3.849579e+01   4.554338e-02   4.143186e+01   1.539300e+05  -1.088348e+04   1.770661e+05   2.260058e+09   2.545071e+10  -4.003702e+08   2.348729e+05   1.283562e-25   0.000000e+00   0.000000e+00
      176000   1.759990e-06   3.850811e+01   4.475413e-02   4.144602e+01   1.540965e+05  -8.847793e+03   1.770347e+05   1.906536e+09   2.543884e+10  -3.880954e+08   2.348729e+05   1.279461e-25   0.000000e+00   0.000000e+00
      184000   1.839990e-06   3.852044e+01   4.412767e-02   4.146019e+01   1.542354e+05  -6.814026e+03   1.770036e+05   1.567347e+09   2.540467e+10  -3.877086e+08   2.348729e+05   1.273728e-25   0.000000e+00   0.000000e+00
      192000   1.919990e-06   3.853279e+01   4.366381e-02   4.147434e+01   1.543473e+05  -4.783153e+03   1.769726e+05   1.230603e+09   2.536650e+10  -3.876418e+08   2.348729e+05   1.268068e-25   0.000000e+00   0.000000e+00
      200000   1.999990e-06   3.854514e+01   4.336228e-02   4.148850e+01   1.544324e+05  -2.755491e+03   1.769416e+05   8.963463e+08   2.532442e+10  -3.879092e+08   2.348729e+05   1.262477e-25   0.000000e+00   0.000000e+00
      208000   2.079990e-06   3.855750e+01   4.322283e-02   4.150266e+01   1.544912e+05  -7.321682e+02   1.769102e+05   5.898365e+08   2.522097e+10  -4.106726e+08   2.348729e+05   1.251340e-25   0.000000e+00   0.000000e+00
      216000   2.159990e-06   3.856986e+01   4.324488e-02   4.151681e+01   1.545255e+05   1.282283e+03   1.768771e+05   2.690529e+08   2.513969e+10  -4.172695e+08   2.348729e+05   1.242764e-25   0.000000e+00   0.000000e+00
      224000   2.239990e-06   3.858222e+01   4.342782e-02   4.153096e+01   1.545343e+05   3.290084e+03   1.768434e+05  -4.786064e+07   2.505473e+10  -4.242723e+08   2.348729e+05   1.234255e-25   0.000000e+00   0.000000e+00
      232000   2.319990e-06   3.859458e+01   4.377111e-02   4.154510e+01   1.545180e+05   5.290943e+03   1.768092e+05  -3.608760e+08   2.496618e+10  -4.316891e+08   2.348729e+05   1.225813e-25   0.000000e+00   0.000000e+00
      240000   2.399990e-06   3.860694e+01   4.427421e-02   4.155925e+01   1.544750e+05   7.286291e+03   1.767758e+05  -7.097865e+08   2.491629e+10  -4.067122e+08   2.348729e+05   1.221614e-25   0.000000e+00   0.000000e+00
      248000   2.479990e-06   3.861930e+01   4.493676e-02   4.157339e+01   1.544056e+05   9.276370e+03   1.767431e+05  -1.023760e+09   2.483512e+10  -4.090643e+08   2.348729e+05   1.214750e-25   0.000000e+00   0.000000e+00
      256000   2.559990e-06   3.863165e+01   4.575825e-02   4.158752e+01   1.543113e+05   1.125982e+04   1.767103e+05  -1.334408e+09   2.475050e+10  -4.117802e+08   2.348729e+05   1.207946e-25   0.000000e+00   0.000000e+00
      264000   2.639990e-06   3.864399e+01   4.673815e-02   4.160166e+01   1.541925e+05   1.323645e+04   1.766770e+05  -1.613115e+09   2.467261e+10  -4.405864e+08   2.348729e+05   1.202043e-25   0.000000e+00   0.000000e+00
      272000   2.719990e-06   3.865632e+01   4.787593e-02   4.161579e+01   1.540514e+05   1.520708e+04   1.766414e+05  -1.912920e+09   2.459253e+10  -4.488545e+08   2.348729e+05   1.196381e-25   0.000000e+00   0.000000e+00
      280000   2.799990e-06   3.866863e+01   4.917111e-02   4.162992e+01   1.538865e+05   1.717117e+04   1.766052e+05  -2.209642e+09   2.450920e+10  -4.575825e+08   2.348729e+05   1.190757e-25   0.000000e+00   0.000000e+00
      288000   2.879990e-06   3.868094e+01   5.062314e-02   4.164405e+01   1.536980e+05   1.912846e+04   1.765682e+05  -2.503250e+09   2.442268e+10  -4.667756e+08   2.348729e+05   1.185172e-25   0.000000e+00   0.000000e+00
      296000   2.959990e-06   3.869322e+01   5.223147e-02   4.165817e+01   1.534861e+05   2.107871e+04   1.765305e+05  -2.793720e+09   2.433304e+10  -4.764388e+08   2.348729e+05   1.179624e-25   0.000000e+00   0.000000e+00
      304000   3.039990e-06   3.870549e+01   5.399554e-02   4.167229e+01   1.532501e+05   2.302187e+04   1.764927e+05  -3.107790e+09   2.424333e+10  -4.637681e+08   2.348729e+05   1.174679e-25   0.000000e+00   0.000000e+00
      312000   3.119990e-06   3.871774e+01   5.591476e-02   4.168641e+01   1.529900e+05   2.495706e+04   1.764554e+05  -3.394898e+09   2.413595e+10  -4.702100e+08   2.348729e+05   1.168149e-25   0.000000e+00   0.000000e+00
      320000   3.199990e-06   3.872997e+01   5.798844e-02   4.170053e+01   1.527070e+05   2.688363e+04   1.764175e+05  -3.673581e+09   2.405665e+10  -4.860217e+08   2.348729e+05   1.164539e-25   0.000000e+00   0.000000e+00
      328000   3.279990e-06   3.874218e+01   6.021601e-02   4.171464e+01   1.524019e+05   2.880421e+04   1.763782e+05  -3.954317e+09   2.395737e+10  -4.956494e+08   2.348729e+05   1.159396e-25   0.000000e+00   0.000000e+00
      336000   3.359990e-06   3.875436e+01   6.259690e-02   4.172875e+01   1.520744e+05   3.071674e+04   1.763381e+05  -4.231987e+09   2.385534e+10  -5.057063e+08   2.348729e+05   1.154295e-25   0.000000e+00   0.000000e+00
      344000   3.439990e-06   3.876651e+01   6.513046e-02   4.174285e+01   1.517249e+05   3.262100e+04   1.762973e+05  -4.506575e+09   2.375063e+10  -5.161959e+08   2.348729e+05   1.149235e-25   0.000000e+00   0.000000e+00
      352000   3.519990e-06   3.877863e+01   6.781603e-02   4.175695e+01   1.513535e+05   3.451677e+04   1.762555e+05  -4.778067e+09   2.364331e+10  -5.271207e+08   2.348729e+05   1.144214e-25   0.000000e+00   0.000000e+00
      360000   3.599990e-06   3.879072e+01   7.065291e-02   4.177105e+01   1.509605e+05   3.640386e+04   1.762129e+05  -5.046450e+09   2.353344e+10  -5.384833e+08   2.348729e+05   1.139232e-25   0.000000e+00   0.000000e+00
      368000   3.679990e-06   3.880278e+01   7.364040e-02   4.178515e+01   1.505463e+05   3.828083e+04   1.761695e+05  -5.302928e+09   2.335167e+10  -5.425434e+08   2.348729e+05   1.127707e-25   0.000000e+00   0.000000e+00
      376000   3.759990e-06   3.881481e+01   7.677744e-02   4.179924e+01   1.501117e+05   4.014329e+04   1.761257e+05  -5.559061e+09   2.320953e+10  -5.519964e+08   2.348729e+05   1.120187e-25   0.000000e+00   0.000000e+00
      384000   3.839990e-06   3.882680e+01   8.006325e-02   4.181333e+01   1.496551e+05   4.200070e+04   1.760812e+05  -5.839005e+09   2.316366e+10  -5.625099e+08   2.348729e+05   1.122300e-25   0.000000e+00   0.000000e+00
      392000   3.919990e-06   3.883875e+01   8.349730e-02   4.182741e+01   1.491777e+05   4.384911e+04   1.760357e+05  -6.095205e+09   2.304629e+10  -5.753679e+08   2.348729e+05   1.117679e-25   0.000000e+00   0.000000e+00
      400000   3.999990e-06   3.885067e+01   8.707885e-02   4.184149e+01   1.486799e+05   4.568805e+04   1.759892e+05  -6.348331e+09   2.292679e+10  -5.887025e+08   2.348729e+05   1.113102e-25   0.000000e+00   0.000000e+00
      408000   4.079990e-06   3.886254e+01   9.080714e-02   4.185557e+01   1.481620e+05   4.751734e+04   1.759415e+05  -6.598384e+09   2.280520e+10  -6.025129e+08   2.348729e+05   1.108568e-25   0.000000e+00   0.000000e+00
      416000   4.159990e-06   3.887437e+01   9.468137e-02   4.186965e+01   1.476243e+05   4.933683e+04   1.758927e+05  -6.845365e+09   2.268159e+10  -6.167980e+08   2.348729e+05   1.104076e-25   0.000000e+00   0.000000e+00
      424000   4.239990e-06   3.888616e+01   9.870076e-02   4.188371e+01   1.470668e+05   5.114634e+04   1.758428e+05  -7.089273e+09   2.255601e+10  -6.315561e+08   2.348729e+05   1.099626e-25   0.000000e+00   0.000000e+00
      432000   4.319990e-06   3.889790e+01   1.028644e-01   4.189778e+01   1.464916e+05   5.294259e+04   1.757913e+05  -7.297377e+09   2.236444e+10  -6.543041e+08   2.348729e+05   1.088654e-25   0.000000e+00   0.000000e+00
      440000   4.399990e-06   3.890960e+01   1.071714e-01   4.191184e+01   1.458965e+05   5.472909e+04   1.757391e+05  -7.555308e+09   2.225971e+10  -6.598140e+08   2.348729e+05   1.087012e-25   0.000000e+00   0.000000e+00
      448000   4.479990e-06   3.892125e+01   1.116207e-01   4.192590e+01   1.452834e+05   5.650340e+04   1.756855e+05  -7.771368e+09   2.209797e+10  -6.805035e+08   2.348729e+05   1.079474e-25   0.000000e+00   0.000000e+00
      456000   4.559990e-06   3.893285e+01   1.162116e-01   4.193995e+01   1.446532e+05   5.826472e+04   1.756302e+05  -7.983170e+09   2.193476e+10  -7.016238e+08   2.348729e+05   1.071964e-25   0.000000e+00   0.000000e+00
      464000   4.639990e-06   3.894439e+01   1.209428e-01   4.195400e+01   1.440062e+05   6.001293e+04   1.755733e+05  -8.190729e+09   2.177014e+10  -7.231684e+08   2.348729e+05   1.064482e-25   0.000000e+00   0.000000e+00
      472000   4.719990e-06   3.895589e+01   1.258133e-01   4.196804e+01   1.433428e+05   6.174791e+04   1.755145e+05  -8.394062e+09   2.160421e+10  -7.451307e+08   2.348729e+05   1.057026e-25   0.000000e+00   0.000000e+00
      480000   4.799990e-06   3.896733e+01   1.308221e-01   4.198208e+01   1.426632e+05   6.346957e+04   1.754540e+05  -8.593186e+09   2.143703e+10  -7.675038e+08   2.348729e+05   1.049598e-25   0.000000e+00   0.000000e+00
      488000   4.879990e-06   3.897871e+01   1.359680e-01   4.199612e+01   1.419680e+05   6.517780e+04   1.753917e+05  -8.788120e+09   2.126867e+10  -7.902804e+08   2.348729e+05   1.042195e-25   0.000000e+00   0.000000e+00
      496000   4.959990e-06   3.899004e+01   1.412502e-01   4.201014e+01   1.412559e+05   6.687357e+04   1.753283e+05  -9.005354e+09   2.111922e+10  -7.999461e+08   2.348729e+05   1.037371e-25   0.000000e+00   0.000000e+00
      504000   5.039990e-06   3.900131e+01   1.466675e-01   4.202417e+01   1.405272e+05   6.855725e+04   1.752636e+05  -9.250710e+09   2.103445e+10  -8.106817e+08   2.348729e+05   1.039186e-25   0.000000e+00   0.000000e+00
      512000   5.119990e-06   3.901252e+01   1.522192e-01   4.203819e+01   1.397793e+05   7.023353e+04   1.751979e+05  -9.445622e+09   2.087258e+10  -8.313305e+08   2.348729e+05   1.033081e-25   0.000000e+00   0.000000e+00
      520000   5.199990e-06   3.902368e+01   1.579045e-01   4.205220e+01   1.390160e+05   7.189684e+04   1.751305e+05  -9.636919e+09   2.070981e+10  -8.523864e+08   2.348730e+05   1.027022e-25   0.000000e+00   0.000000e+00
      528000   5.279990e-06   3.903477e+01   1.637223e-01   4.206621e+01   1.382375e+05   7.354708e+04   1.750615e+05  -9.824628e+09   2.054620e+10  -8.738424e+08   2.348730e+05   1.021008e-25   0.000000e+00   0.000000e+00
      536000   5.359990e-06   3.904579e+01   1.696717e-01   4.208021e+01   1.374441e+05   7.518421e+04   1.749907e+05  -1.000878e+10   2.038182e+10  -8.956915e+08   2.348730e+05   1.015039e-25   0.000000e+00   0.000000e+00
      544000   5.439990e-06   3.905676e+01   1.757515e-01   4.209421e+01   1.366362e+05   7.680815e+04   1.749182e+05  -1.018940e+10   2.021670e+10  -9.179263e+08   2.348730e+05   1.009113e-25   0.000000e+00   0.000000e+00
      552000   5.519990e-06   3.906766e+01   1.819605e-01   4.210820e+01   1.358156e+05   7.841474e+04   1.748444e+05  -1.032846e+10   1.995844e+10  -9.280539e+08   2.348730e+05   9.943630e-26   0.000000e+00   0.000000e+00
      560000   5.599990e-06   3.907849e+01   1.882974e-01   4.212218e+01   1.349826e+05   8.000413e+04   1.747694e+05  -1.049659e+10   1.977617e+10  -9.458945e+08   2.348730e+05   9.870754e-26   0.000000e+00   0.000000e+00
      568000   5.679990e-06   3.908925e+01   1.947608e-01   4.213616e+01   1.341363e+05   8.157892e+04   1.746930e+05  -1.066073e+10   1.959351e+10  -9.641058e+08   2.348730e+05   9.798349e-26   0.000000e+00   0.000000e+00
      576000   5.759990e-06   3.909995e+01   2.013496e-01   4.215013e+01   1.332756e+05   8.314220e+04   1.746147e+05  -1.090859e+10   1.960430e+10  -1.008456e+09   2.348730e+05   9.913466e-26   0.000000e+00   0.000000e+00
      584000   5.839990e-06   3.911058e+01   2.080635e-01   4.216410e+01   1.323963e+05   8.470127e+04   1.745343e+05  -1.107404e+10   1.939904e+10  -1.013883e+09   2.348730e+05   9.827806e-26   0.000000e+00   0.000000e+00
      592000   5.919990e-06   3.912113e+01   2.149015e-01   4.217806e+01   1.315038e+05   8.624604e+04   1.744525e+05  -1.123684e+10   1.922026e+10  -1.031679e+09   2.348730e+05   9.764202e-26   0.000000e+00   0.000000e+00
      600000   5.999990e-06   3.913162e+01   2.218625e-01   4.219201e+01   1.305985e+05   8.777650e+04   1.743692e+05  -1.139594e+10   1.904099e+10  -1.049808e+09   2.348730e+05   9.700901e-26   0.000000e+00   0.000000e+00
      608000   6.079990e-06   3.914203e+01   2.289453e-01   4.220596e+01   1.296819e+05   8.929224e+04   1.742837e+05  -1.150726e+10   1.885057e+10  -1.095465e+09   2.348730e+05   9.611116e-26   0.000000e+00   0.000000e+00
      616000   6.159990e-06   3.915236e+01   2.361488e-01   4.221989e+01   1.287560e+05   9.079300e+04   1.741948e+05  -1.164171e+10   1.866853e+10  -1.125336e+09   2.348730e+05   9.539348e-26   0.000000e+00   0.000000e+00
      624000   6.239990e-06   3.916263e+01   2.434718e-01   4.223383e+01   1.278194e+05   9.227920e+04   1.741036e+05  -1.177238e+10   1.848649e+10  -1.155489e+09   2.348730e+05   9.467891e-26   0.000000e+00   0.000000e+00
      632000   6.319990e-06   3.917282e+01   2.509131e-01   4.224775e+01   1.268725e+05   9.375084e+04   1.740099e+05  -1.189932e+10   1.830450e+10  -1.185911e+09   2.348730e+05   9.396743e-26   0.000000e+00   0.000000e+00
      640000   6.399990e-06   3.918293e+01   2.584716e-01   4.226167e+01   1.259156e+05   9.520792e+04   1.739139e+05  -1.202257e+10   1.812260e+10  -1.216592e+09   2.348730e+05   9.325904e-26   0.000000e+00   0.000000e+00
      648000   6.479990e-06   3.919296e+01   2.661460e-01   4.227558e+01   1.249490e+05   9.665046e+04   1.738153e+05  -1.214215e+10   1.794086e+10  -1.247520e+09   2.348730e+05   9.255373e-26   0.000000e+00   0.000000e+00
      656000   6.559990e-06   3.920292e+01   2.739353e-01   4.228948e+01   1.239689e+05   9.808195e+04   1.737152e+05  -1.243583e+10   1.791163e+10  -1.238504e+09   2.348730e+05   9.376202e-26   0.000000e+00   0.000000e+00
      664000   6.639990e-06   3.921280e+01   2.818390e-01   4.230337e+01   1.229682e+05   9.950862e+04   1.736150e+05  -1.257234e+10   1.775062e+10  -1.269112e+09   2.348730e+05   9.331953e-26   0.000000e+00   0.000000e+00
      672000   6.719990e-06   3.922259e+01   2.898563e-01   4.231726e+01   1.219571e+05   1.009218e+05   1.735124e+05  -1.270353e+10   1.758005e+10  -1.296280e+09   2.348730e+05   9.280046e-26   0.000000e+00   0.000000e+00
      680000   6.799990e-06   3.923231e+01   2.979861e-01   4.233113e+01   1.209357e+05   1.023214e+05   1.734076e+05  -1.283177e+10   1.740940e+10  -1.323651e+09   2.348730e+05   9.228457e-26   0.000000e+00   0.000000e+00
      688000   6.879990e-06   3.924194e+01   3.062274e-01   4.234500e+01   1.199044e+05   1.037082e+05   1.732999e+05  -1.294980e+10   1.725216e+10  -1.364384e+09   2.348730e+05   9.183297e-26   0.000000e+00   0.000000e+00
      696000   6.959990e-06   3.925149e+01   3.145791e-01   4.235886e+01   1.188638e+05   1.050815e+05   1.731895e+05  -1.306462e+10   1.707966e+10  -1.396390e+09   2.348730e+05   9.127335e-26   0.000000e+00   0.000000e+00
      704000   7.039990e-06   3.926096e+01   3.230401e-01   4.237271e+01   1.178141e+05   1.064409e+05   1.730765e+05  -1.317627e+10   1.690729e+10  -1.428691e+09   2.348730e+05   9.071564e-26   0.000000e+00   0.000000e+00
      712000   7.119990e-06   3.927034e+01   3.316093e-01   4.238655e+01   1.167557e+05   1.077866e+05   1.729609e+05  -1.328477e+10   1.673510e+10  -1.461277e+09   2.348730e+05   9.015984e-26   0.000000e+00   0.000000e+00
      720000   7.199990e-06   3.927964e+01   3.402856e-01   4.240039e+01   1.156884e+05   1.091187e+05   1.728427e+05  -1.348531e+10   1.662087e+10  -1.466928e+09   2.348730e+05   9.046935e-26   0.000000e+00   0.000000e+00
      728000   7.279990e-06   3.928885e+01   3.490681e-01   4.241421e+01   1.146041e+05   1.104424e+05   1.727243e+05  -1.362198e+10   1.647145e+10  -1.493751e+09   2.348730e+05   9.024126e-26   0.000000e+00   0.000000e+00
      736000   7.359990e-06   3.929798e+01   3.579560e-01   4.242802e+01   1.135090e+05   1.117541e+05   1.726037e+05  -1.375647e+10   1.632146e+10  -1.520841e+09   2.348730e+05   9.001427e-26   0.000000e+00   0.000000e+00
      744000   7.439990e-06   3.930701e+01   3.669482e-01   4.244183e+01   1.124096e+05   1.130479e+05   1.724807e+05  -1.377759e+10   1.607005e+10  -1.553490e+09   2.348730e+05   8.854759e-26   0.000000e+00   0.000000e+00
      752000   7.519990e-06   3.931596e+01   3.760433e-01   4.245562e+01   1.113030e+05   1.143269e+05   1.723552e+05  -1.388688e+10   1.590474e+10  -1.582108e+09   2.348730e+05   8.812055e-26   0.000000e+00   0.000000e+00
      760000   7.599990e-06   3.932482e+01   3.852402e-01   4.246940e+01   1.101877e+05   1.155926e+05   1.722275e+05  -1.399351e+10   1.573924e+10  -1.610785e+09   2.348730e+05   8.769349e-26   0.000000e+00   0.000000e+00
      768000   7.679990e-06   3.933359e+01   3.945378e-01   4.248318e+01   1.090641e+05   1.168452e+05   1.720975e+05  -1.409753e+10   1.557355e+10  -1.639509e+09   2.348730e+05   8.726641e-26   0.000000e+00   0.000000e+00
      776000   7.759990e-06   3.934227e+01   4.039351e-01   4.249694e+01   1.079328e+05   1.180844e+05   1.719648e+05  -1.418184e+10   1.540966e+10  -1.680280e+09   2.348730e+05   8.676355e-26   0.000000e+00   0.000000e+00
      784000   7.839990e-06   3.935086e+01   4.134309e-01   4.251069e+01   1.067952e+05   1.193090e+05   1.718298e+05  -1.426348e+10   1.521220e+10  -1.697474e+09   2.348730e+05   8.604294e-26   0.000000e+00   0.000000e+00
      792000   7.919990e-06   3.935936e+01   4.230241e-01   4.252443e+01   1.056506e+05   1.205187e+05   1.716931e+05  -1.435155e+10   1.503150e+10  -1.720064e+09   2.348730e+05   8.547925e-26   0.000000e+00   0.000000e+00
      800000   7.999990e-06   3.936777e+01   4.327135e-01   4.253816e+01   1.044990e+05   1.217140e+05   1.715546e+05  -1.443669e+10   1.485119e+10  -1.742731e+09   2.348730e+05   8.491735e-26   0.000000e+00   0.000000e+00
      808000   8.079990e-06   3.937608e+01   4.424980e-01   4.255188e+01   1.033408e+05   1.228949e+05   1.714142e+05  -1.451893e+10   1.467130e+10  -1.765465e+09   2.348730e+05   8.435722e-26   0.000000e+00   0.000000e+00
      816000   8.159990e-06   3.938430e+01   4.523763e-01   4.256559e+01   1.021761e+05   1.240614e+05   1.712721e+05  -1.459832e+10   1.449186e+10  -1.788258e+09   2.348730e+05   8.379888e-26   0.000000e+00   0.000000e+00
      824000   8.239990e-06   3.939243e+01   4.623474e-01   4.257928e+01   1.010051e+05   1.252136e+05   1.711281e+05  -1.467487e+10   1.431291e+10  -1.811100e+09   2.348730e+05   8.324231e-26   0.000000e+00   0.000000e+00
      832000   8.319990e-06   3.940046e+01   4.724101e-01   4.259297e+01   9.982761e+04   1.263521e+05   1.709822e+05  -1.486714e+10   1.427051e+10  -1.865420e+09   2.348730e+05   8.415976e-26   0.000000e+00   0.000000e+00
      840000   8.399990e-06   3.940840e+01   4.825637e-01   4.260664e+01   9.863529e+04   1.274864e+05   1.708321e+05  -1.494257e+10   1.408771e+10  -1.885606e+09   2.348730e+05   8.359764e-26   0.000000e+00   0.000000e+00
      848000   8.479990e-06   3.941624e+01   4.928076e-01   4.262030e+01   9.743598e+04   1.286074e+05   1.706801e+05  -1.503998e+10   1.393641e+10  -1.915200e+09   2.348730e+05   8.336045e-26   0.000000e+00   0.000000e+00
      856000   8.559990e-06   3.942399e+01   5.031406e-01   4.263395e+01   9.622857e+04   1.297163e+05   1.705258e+05  -1.515195e+10   1.379047e+10  -1.939851e+09   2.348730e+05   8.324824e-26   0.000000e+00   0.000000e+00
      864000   8.639990e-06   3.943164e+01   5.135619e-01   4.264758e+01   9.501237e+04   1.308136e+05   1.703695e+05  -1.525292e+10   1.364110e+10  -1.967616e+09   2.348730e+05   8.306761e-26   0.000000e+00   0.000000e+00
      872000   8.719990e-06   3.943919e+01   5.240705e-01   4.266121e+01   9.378815e+04   1.318989e+05   1.702110e+05  -1.535208e+10   1.349131e+10  -1.995414e+09   2.348730e+05   8.288694e-26   0.000000e+00   0.000000e+00
      880000   8.799990e-06   3.944664e+01   5.346654e-01   4.267482e+01   9.255608e+04   1.329722e+05   1.700502e+05  -1.544945e+10   1.334111e+10  -2.023231e+09   2.348730e+05   8.270622e-26   0.000000e+00   0.000000e+00
      888000   8.879990e-06   3.945400e+01   5.453457e-01   4.268842e+01   9.131629e+04   1.340335e+05   1.698873e+05  -1.554504e+10   1.319050e+10  -2.051056e+09   2.348730e+05   8.252543e-26   0.000000e+00   0.000000e+00
      896000   8.959990e-06   3.946126e+01   5.561104e-01   4.270200e+01   9.007158e+04   1.350812e+05   1.697218e+05  -1.540786e+10   1.291710e+10  -2.103696e+09   2.348730e+05   8.033081e-26   0.000000e+00   0.000000e+00
      904000   9.039990e-06   3.946841e+01   5.669581e-01   4.271557e+01   8.883795e+04   1.361075e+05   1.695520e+05  -1.543240e+10   1.274030e+10  -2.141313e+09   2.348730e+05   7.961935e-26   0.000000e+00   0.000000e+00
      912000   9.119990e-06   3.947547e+01   5.778872e-01   4.272913e+01   8.760247e+04   1.371197e+05   1.693792e+05  -1.545415e+10   1.256470e+10  -2.178797e+09   2.348730e+05   7.890978e-26   0.000000e+00   0.000000e+00
      920000   9.199990e-06   3.948243e+01   5.888968e-01   4.274267e+01   8.636536e+04   1.381179e+05   1.692034e+05  -1.547314e+10   1.239032e+10  -2.216138e+09   2.348730e+05   7.820214e-26   0.000000e+00   0.000000e+00
      928000   9.279990e-06   3.948929e+01   5.999857e-01   4.275620e+01   8.512684e+04   1.391022e+05   1.690246e+05  -1.548943e+10   1.221719e+10  -2.253326e+09   2.348730e+05   7.749649e-26   0.000000e+00   0.000000e+00
      936000   9.359990e-06   3.949605e+01   6.111536e-01   4.276972e+01   8.384352e+04   1.400938e+05   1.688470e+05  -1.609933e+10   1.232798e+10  -2.234240e+09   2.348730e+05   8.180106e-26   0.000000e+00   0.000000e+00
      944000   9.439990e-06   3.950270e+01   6.224004e-01   4.278322e+01   8.256301e+04   1.410681e+05   1.686667e+05  -1.582120e+10   1.198044e+10  -2.275538e+09   2.348730e+05   7.843211e-26   0.000000e+00   0.000000e+00
      952000   9.519990e-06   3.950926e+01   6.337239e-01   4.279670e+01   8.129762e+04   1.420189e+05   1.684834e+05  -1.581320e+10   1.179020e+10  -2.307953e+09   2.348730e+05   7.752268e-26   0.000000e+00   0.000000e+00
      960000   9.599990e-06   3.951571e+01   6.451231e-01   4.281017e+01   8.002518e+04   1.429583e+05   1.682980e+05  -1.596775e+10   1.167964e+10  -2.328459e+09   2.348730e+05   7.799671e-26   0.000000e+00   0.000000e+00
      968000   9.679990e-06   3.952206e+01   6.565970e-01   4.282363e+01   7.874440e+04   1.438869e+05   1.681107e+05  -1.605143e+10   1.153552e+10  -2.354669e+09   2.348730e+05   7.788984e-26   0.000000e+00   0.000000e+00
      976000   9.759990e-06   3.952831e+01   6.681447e-01   4.283707e+01   7.745700e+04   1.448039e+05   1.679213e+05  -1.613346e+10   1.139085e+10  -2.380797e+09   2.348730e+05   7.778119e-26   0.000000e+00   0.000000e+00
      984000   9.839990e-06   3.953445e+01   6.797653e-01   4.285050e+01   7.616309e+04   1.457094e+05   1.677298e+05  -1.621385e+10   1.124566e+10  -2.406831e+09   2.348730e+05   7.767076e-26   0.000000e+00   0.000000e+00
      992000   9.919990e-06   3.954049e+01   6.914579e-01   4.286391e+01   7.486282e+04   1.466032e+05   1.675362e+05  -1.629259e+10   1.109995e+10  -2.432758e+09   2.348730e+05   7.755854e-26   0.000000e+00   0.000000e+00
     1000000   9.999990e-06   3.954643e+01   7.032215e-01   4.287730e+01   7.356062e+04   1.474831e+05   1.673406e+05  -1.617115e+10   1.085019e+10  -2.454016e+09   2.348730e+05   7.572651e-26   0.000000e+00   0.000000e+00
     1008000   1.007999e-05   3.955226e+01   7.150547e-01   4.289068e+01   7.226440e+04   1.483451e+05   1.671434e+05  -1.623433e+10   1.070017e+10  -2.477814e+09   2.348730e+05   7.551646e-26   0.000000e+00   0.000000e+00
     1016000   1.015999e-05   3.955799e+01   7.269564e-01   4.290405e+01   7.096262e+04   1.491956e+05   1.669440e+05  -1.631551e+10   1.056738e+10  -2.508697e+09   2.348730e+05   7.551105e-26   0.000000e+00   0.000000e+00
     1024000   1.023999e-05   3.956362e+01   7.389257e-01   4.291739e+01   6.965581e+04   1.500346e+05   1.667424e+05  -1.635456e+10   1.040708e+10  -2.532216e+09   2.348730e+05   7.512422e-26   0.000000e+00   0.000000e+00
     1032000   1.031999e-05   3.956914e+01   7.509616e-01   4.293072e+01   6.834594e+04   1.508608e+05   1.665389e+05  -1.639186e+10   1.024726e+10  -2.555491e+09   2.348730e+05   7.473873e-26   0.000000e+00   0.000000e+00
     1040000   1.039999e-05   3.957455e+01   7.630630e-01   4.294404e+01   6.703315e+04   1.516742e+05   1.663335e+05  -1.642742e+10   1.008793e+10  -2.578514e+09   2.348730e+05   7.435456e-26   0.000000e+00   0.000000e+00
     1048000   1.047999e-05   3.957986e+01   7.752291e-01   4.295734e+01   6.571759e+04   1.524748e+05   1.661263e+05  -1.646128e+10   9.929111e+09  -2.601274e+09   2.348730e+05   7.397172e-26   0.000000e+00   0.000000e+00
     1056000   1.055999e-05   3.958507e+01   7.874587e-01   4.297062e+01   6.439939e+04   1.532628e+05   1.659173e+05  -1.649346e+10   9.770796e+09  -2.623762e+09   2.348730e+05   7.359019e-26   0.000000e+00   0.000000e+00
     1064000   1.063999e-05   3.959017e+01   7.997508e-01   4.298388e+01   6.307869e+04   1.540382e+05   1.657065e+05  -1.652397e+10   9.612995e+09  -2.645969e+09   2.348730e+05   7.320998e-26   0.000000e+00   0.000000e+00
     1072000   1.071999e-05   3.959516e+01   8.121043e-01   4.299713e+01   6.176368e+04   1.547979e+05   1.654938e+05  -1.644482e+10   9.417530e+09  -2.671508e+09   2.348730e+05   7.199260e-26   0.000000e+00   0.000000e+00
     1080000   1.079999e-05   3.960005e+01   8.245182e-01   4.301036e+01   6.044137e+04   1.555474e+05   1.652791e+05  -1.657184e+10   9.304445e+09  -2.696372e+09   2.348730e+05   7.242701e-26   0.000000e+00   0.000000e+00
     1088000   1.087999e-05   3.960483e+01   8.369916e-01   4.302358e+01   5.911455e+04   1.562856e+05   1.650624e+05  -1.659854e+10   9.151634e+09  -2.720487e+09   2.348730e+05   7.207242e-26   0.000000e+00   0.000000e+00
     1096000   1.095999e-05   3.960951e+01   8.495236e-01   4.303677e+01   5.778564e+04   1.570117e+05   1.648438e+05  -1.662385e+10   8.999360e+09  -2.744300e+09   2.348730e+05   7.172002e-26   0.000000e+00   0.000000e+00
     1104000   1.103999e-05   3.961408e+01   8.621132e-01   4.304995e+01   5.645477e+04   1.577256e+05   1.646233e+05  -1.664780e+10   8.847621e+09  -2.767801e+09   2.348730e+05   7.136979e-26   0.000000e+00   0.000000e+00
     1112000   1.111999e-05   3.961854e+01   8.747594e-01   4.306311e+01   5.512203e+04   1.584273e+05   1.644010e+05  -1.667041e+10   8.696416e+09  -2.790979e+09   2.348730e+05   7.102172e-26   0.000000e+00   0.000000e+00
     1120000   1.119999e-05   3.962290e+01   8.874612e-01   4.307626e+01   5.378754e+04   1.591170e+05   1.641768e+05  -1.669169e+10   8.545745e+09  -2.813826e+09   2.348730e+05   7.067581e-26   0.000000e+00   0.000000e+00
     1128000   1.127999e-05   3.962715e+01   9.002178e-01   4.308938e+01   5.245123e+04   1.597947e+05   1.639508e+05  -1.683013e+10   8.430439e+09  -2.832405e+09   2.348730e+05   7.122385e-26   0.000000e+00   0.000000e+00
     1136000   1.135999e-05   3.963129e+01   9.130281e-01   4.310249e+01   5.110390e+04   1.604631e+05   1.637233e+05  -1.683527e+10   8.275706e+09  -2.856003e+09   2.348730e+05   7.077617e-26   0.000000e+00   0.000000e+00
     1144000   1.143999e-05   3.963532e+01   9.258915e-01   4.311558e+01   4.975733e+04   1.611188e+05   1.634939e+05  -1.682863e+10   8.117673e+09  -2.878142e+09   2.348730e+05   7.024796e-26   0.000000e+00   0.000000e+00
     1152000   1.151999e-05   3.963925e+01   9.388068e-01   4.312865e+01   4.841136e+04   1.617620e+05   1.632628e+05  -1.682045e+10   7.960677e+09  -2.899806e+09   2.348730e+05   6.972229e-26   0.000000e+00   0.000000e+00
     1160000   1.159999e-05   3.964307e+01   9.517731e-01   4.314170e+01   4.706610e+04   1.623926e+05   1.630299e+05  -1.681075e+10   7.804721e+09  -2.920988e+09   2.348730e+05   6.919914e-26   0.000000e+00   0.000000e+00
     1168000   1.167999e-05   3.964678e+01   9.647893e-01   4.315473e+01   4.572168e+04   1.630107e+05   1.627954e+05  -1.679957e+10   7.649805e+09  -2.941681e+09   2.348730e+05   6.867854e-26   0.000000e+00   0.000000e+00
     1176000   1.175999e-05   3.965038e+01   9.778545e-01   4.316775e+01   4.437821e+04   1.636166e+05   1.625593e+05  -1.678694e+10   7.495930e+09  -2.961876e+09   2.348730e+05   6.816048e-26   0.000000e+00   0.000000e+00
     1184000   1.183999e-05   3.965388e+01   9.909676e-01   4.318074e+01   4.303581e+04   1.642101e+05   1.623216e+05  -1.677288e+10   7.343095e+09  -2.981567e+09   2.348730e+05   6.764497e-26   0.000000e+00   0.000000e+00
     1192000   1.191999e-05   3.965727e+01   1.004128e+00   4.319372e+01   4.168929e+04   1.647925e+05   1.620826e+05  -1.696951e+10   7.230690e+09  -2.986829e+09   2.348730e+05   6.863327e-26   0.000000e+00   0.000000e+00
     1200000   1.199999e-05   3.966055e+01   1.017334e+00   4.320667e+01   4.033427e+04   1.653645e+05   1.618427e+05  -1.690360e+10   7.068945e+09  -3.010050e+09   2.348730e+05   6.776719e-26   0.000000e+00   0.000000e+00
     1208000   1.207999e-05   3.966372e+01   1.030586e+00   4.321961e+01   3.898306e+04   1.659237e+05   1.616013e+05  -1.687651e+10   6.911594e+09  -3.025322e+09   2.348730e+05   6.717299e-26   0.000000e+00   0.000000e+00
     1216000   1.215999e-05   3.966679e+01   1.043882e+00   4.323253e+01   3.763408e+04   1.664704e+05   1.613587e+05  -1.684774e+10   6.755581e+09  -3.040131e+09   2.348730e+05   6.658084e-26   0.000000e+00   0.000000e+00
     1224000   1.223999e-05   3.966975e+01   1.057221e+00   4.324543e+01   3.628746e+04   1.670046e+05   1.611149e+05  -1.681734e+10   6.600911e+09  -3.054472e+09   2.348730e+05   6.599075e-26   0.000000e+00   0.000000e+00
     1232000   1.231999e-05   3.967259e+01   1.070602e+00   4.325831e+01   3.494335e+04   1.675266e+05   1.608700e+05  -1.678533e+10   6.447588e+09  -3.068339e+09   2.348730e+05   6.540277e-26   0.000000e+00   0.000000e+00
     1240000   1.239999e-05   3.967534e+01   1.084025e+00   4.327117e+01   3.360185e+04   1.680363e+05   1.606240e+05  -1.675175e+10   6.295618e+09  -3.081728e+09   2.348730e+05   6.481693e-26   0.000000e+00   0.000000e+00
     1248000   1.247999e-05   3.967797e+01   1.097488e+00   4.328401e+01   3.226311e+04   1.685339e+05   1.603769e+05  -1.671662e+10   6.145004e+09  -3.094635e+09   2.348730e+05   6.423324e-26   0.000000e+00   0.000000e+00
     1256000   1.255999e-05   3.968050e+01   1.110990e+00   4.329683e+01   3.091703e+04   1.690214e+05   1.601289e+05  -1.684504e+10   6.024218e+09  -3.106370e+09   2.348730e+05   6.480578e-26   0.000000e+00   0.000000e+00
     1264000   1.263999e-05   3.968292e+01   1.124531e+00   4.330963e+01   2.956731e+04   1.694979e+05   1.598799e+05  -1.688038e+10   5.887156e+09  -3.119529e+09   2.348730e+05   6.473520e-26   0.000000e+00   0.000000e+00
     1272000   1.271999e-05   3.968523e+01   1.138109e+00   4.332241e+01   2.821696e+04   1.699632e+05   1.596297e+05  -1.687827e+10   5.745183e+09  -3.133581e+09   2.348730e+05   6.441389e-26   0.000000e+00   0.000000e+00
     1280000   1.279999e-05   3.968743e+01   1.151724e+00   4.333517e+01   2.686683e+04   1.704171e+05   1.593785e+05  -1.687478e+10   5.603633e+09  -3.147099e+09   2.348730e+05   6.409166e-26   0.000000e+00   0.000000e+00
     1288000   1.287999e-05   3.968953e+01   1.165376e+00   4.334791e+01   2.551703e+04   1.708598e+05   1.591262e+05  -1.686992e+10   5.462516e+09  -3.160075e+09   2.348730e+05   6.376851e-26   0.000000e+00   0.000000e+00
     1296000   1.295999e-05   3.969151e+01   1.179062e+00   4.336063e+01   2.416768e+04   1.712911e+05   1.588729e+05  -1.686369e+10   5.321840e+09  -3.172502e+09   2.348730e+05   6.344448e-26   0.000000e+00   0.000000e+00
     1304000   1.303999e-05   3.969339e+01   1.192782e+00   4.337333e+01   2.281888e+04   1.717113e+05   1.586186e+05  -1.685611e+10   5.181614e+09  -3.184374e+09   2.348730e+05   6.311957e-26   0.000000e+00   0.000000e+00
     1312000   1.311999e-05   3.969517e+01   1.206535e+00   4.338601e+01   2.147681e+04   1.721201e+05   1.583627e+05  -1.668466e+10   5.040849e+09  -3.216005e+09   2.348730e+05   6.174616e-26   0.000000e+00   0.000000e+00
     1320000   1.319999e-05   3.969683e+01   1.220321e+00   4.339867e+01   2.014287e+04   1.725180e+05   1.581048e+05  -1.666356e+10   4.906674e+09  -3.230987e+09   2.348730e+05   6.136450e-26   0.000000e+00   0.000000e+00
     1328000   1.327999e-05   3.969839e+01   1.234138e+00   4.341131e+01   1.880051e+04   1.729058e+05   1.578464e+05  -1.679721e+10   4.779836e+09  -3.235183e+09   2.348730e+05   6.200737e-26   0.000000e+00   0.000000e+00
     1336000   1.335999e-05   3.969984e+01   1.247985e+00   4.342392e+01   1.745642e+04   1.732827e+05   1.575871e+05  -1.680499e+10   4.644227e+09  -3.245228e+09   2.348730e+05   6.182035e-26   0.000000e+00   0.000000e+00
     1344000   1.343999e-05   3.970118e+01   1.261863e+00   4.343652e+01   1.612144e+04   1.736481e+05   1.573269e+05  -1.665684e+10   4.498223e+09  -3.258010e+09   2.348730e+05   6.059991e-26   0.000000e+00   0.000000e+00
     1352000   1.351999e-05   3.970242e+01   1.275769e+00   4.344910e+01   1.479027e+04   1.740026e+05   1.570659e+05  -1.662214e+10   4.362824e+09  -3.268014e+09   2.348730e+05   6.014989e-26   0.000000e+00   0.000000e+00
     1360000   1.359999e-05   3.970355e+01   1.289703e+00   4.346165e+01   1.346193e+04   1.743462e+05   1.568041e+05  -1.658617e+10   4.228449e+09  -3.277525e+09   2.348730e+05   5.970042e-26   0.000000e+00   0.000000e+00
     1368000   1.367999e-05   3.970457e+01   1.303664e+00   4.347418e+01   1.213497e+04   1.746792e+05   1.565416e+05  -1.662801e+10   4.096245e+09  -3.281845e+09   2.348730e+05   5.976278e-26   0.000000e+00   0.000000e+00
     1376000   1.375999e-05   3.970549e+01   1.317651e+00   4.348670e+01   1.080459e+04   1.750015e+05   1.562788e+05  -1.663152e+10   3.963070e+09  -3.287993e+09   2.348730e+05   5.958272e-26   0.000000e+00   0.000000e+00
     1384000   1.383999e-05   3.970630e+01   1.331664e+00   4.349919e+01   9.473958e+03   1.753133e+05   1.560155e+05  -1.663402e+10   3.829924e+09  -3.293540e+09   2.348730e+05   5.940230e-26   0.000000e+00   0.000000e+00
     1392000   1.391999e-05   3.970701e+01   1.345701e+00   4.351166e+01   8.147047e+03   1.756144e+05   1.557515e+05  -1.656852e+10   3.697943e+09  -3.302854e+09   2.348730e+05   5.879163e-26   0.000000e+00   0.000000e+00
     1400000   1.399999e-05   3.970760e+01   1.359762e+00   4.352411e+01   6.822837e+03   1.759049e+05   1.554871e+05  -1.653657e+10   3.565059e+09  -3.307556e+09   2.348730e+05   5.840009e-26   0.000000e+00   0.000000e+00
     1408000   1.407999e-05   3.970810e+01   1.373846e+00   4.353654e+01   5.501224e+03   1.761849e+05   1.552223e+05  -1.650361e+10   3.432996e+09  -3.311695e+09   2.348730e+05   5.800976e-26   0.000000e+00   0.000000e+00
     1416000   1.415999e-05   3.970849e+01   1.387951e+00   4.354894e+01   4.182287e+03   1.764542e+05   1.549573e+05  -1.646966e+10   3.301752e+09  -3.315266e+09   2.348730e+05   5.762065e-26   0.000000e+00   0.000000e+00
     1424000   1.423999e-05   3.970877e+01   1.402078e+00   4.356133e+01   2.865441e+03   1.767132e+05   1.546918e+05  -1.649220e+10   3.176324e+09  -3.322981e+09   2.348730e+05   5.761703e-26   0.000000e+00   0.000000e+00
     1432000   1.431999e-05   3.970894e+01   1.416225e+00   4.357370e+01   1.546953e+03   1.769621e+05   1.544259e+05  -1.646984e+10   3.045578e+09  -3.325030e+09   2.348730e+05   5.731497e-26   0.000000e+00   0.000000e+00
     1440000   1.439999e-05   3.970901e+01   1.430392e+00   4.358604e+01   2.302892e+02   1.772005e+05   1.541599e+05  -1.644661e+10   2.915283e+09  -3.326413e+09   2.348730e+05   5.701379e-26   0.000000e+00   0.000000e+00
     1448000   1.447999e-05   3.970898e+01   1.444577e+00   4.359836e+01  -1.084481e+03   1.774285e+05   1.538937e+05  -1.642251e+10   2.785440e+09  -3.327124e+09   2.348730e+05   5.671351e-26   0.000000e+00   0.000000e+00
     1456000   1.455999e-05   3.970884e+01   1.458780e+00   4.361066e+01  -2.398401e+03   1.776463e+05   1.536274e+05  -1.641268e+10   2.658391e+09  -3.330230e+09   2.348730e+05   5.651816e-26   0.000000e+00   0.000000e+00
     1464000   1.463999e-05   3.970860e+01   1.473000e+00   4.362294e+01  -3.710306e+03   1.778539e+05   1.533609e+05  -1.638482e+10   2.531776e+09  -3.332506e+09   2.348730e+05   5.621237e-26   0.000000e+00   0.000000e+00
     1472000   1.471999e-05   3.970825e+01   1.487236e+00   4.363520e+01  -5.019950e+03   1.780514e+05   1.530942e+05  -1.635617e+10   2.405696e+09  -3.334167e+09   2.348730e+05   5.590780e-26   0.000000e+00   0.000000e+00
     1480000   1.479999e-05   3.970779e+01   1.501488e+00   4.364744e+01  -6.327204e+03   1.782388e+05   1.528274e+05  -1.631705e+10   2.281498e+09  -3.336378e+09   2.348730e+05   5.554511e-26   0.000000e+00   0.000000e+00
     1488000   1.487999e-05   3.970724e+01   1.515754e+00   4.365965e+01  -7.630110e+03   1.784164e+05   1.525605e+05  -1.625546e+10   2.158529e+09  -3.337333e+09   2.348730e+05   5.504466e-26   0.000000e+00   0.000000e+00
     1496000   1.495999e-05   3.970657e+01   1.530034e+00   4.367185e+01  -8.928053e+03   1.785842e+05   1.522935e+05  -1.619298e+10   2.036783e+09  -3.337676e+09   2.348730e+05   5.454622e-26   0.000000e+00   0.000000e+00
     1504000   1.503999e-05   3.970581e+01   1.544327e+00   4.368402e+01  -1.022096e+04   1.787423e+05   1.520265e+05  -1.612964e+10   1.916258e+09  -3.337407e+09   2.348730e+05   5.404980e-26   0.000000e+00   0.000000e+00
     1512000   1.511999e-05   3.970494e+01   1.558633e+00   4.369617e+01  -1.150877e+04   1.788909e+05   1.517595e+05  -1.606546e+10   1.796952e+09  -3.336524e+09   2.348730e+05   5.355541e-26   0.000000e+00   0.000000e+00
     1520000   1.519999e-05   3.970397e+01   1.572950e+00   4.370830e+01  -1.280025e+04   1.790292e+05   1.514927e+05  -1.618020e+10   1.663441e+09  -3.332914e+09   2.348730e+05   5.418709e-26   0.000000e+00   0.000000e+00
     1528000   1.527999e-05   3.970289e+01   1.587277e+00   4.372041e+01  -1.409418e+04   1.791573e+05   1.512262e+05  -1.616804e+10   1.538862e+09  -3.329918e+09   2.348730e+05   5.402743e-26   0.000000e+00   0.000000e+00
     1536000   1.535999e-05   3.970171e+01   1.601615e+00   4.373250e+01  -1.538633e+04   1.792755e+05   1.509599e+05  -1.606396e+10   1.425036e+09  -3.329603e+09   2.348730e+05   5.330135e-26   0.000000e+00   0.000000e+00
     1544000   1.543999e-05   3.970043e+01   1.615961e+00   4.374456e+01  -1.666802e+04   1.793849e+05   1.506937e+05  -1.597821e+10   1.310725e+09  -3.327591e+09   2.348730e+05   5.269720e-26   0.000000e+00   0.000000e+00
     1552000   1.551999e-05   3.969904e+01   1.630316e+00   4.375661e+01  -1.794764e+04   1.794838e+05   1.504286e+05  -1.599083e+10   1.169100e+09  -3.302759e+09   2.348730e+05   5.267504e-26   0.000000e+00   0.000000e+00
     1560000   1.559999e-05   3.969756e+01   1.644678e+00   4.376863e+01  -1.922470e+04   1.795725e+05   1.501648e+05  -1.593569e+10   1.047721e+09  -3.293036e+09   2.348730e+05   5.226352e-26   0.000000e+00   0.000000e+00
     1568000   1.567999e-05   3.969597e+01   1.659047e+00   4.378063e+01  -2.049732e+04   1.796515e+05   1.499018e+05  -1.587965e+10   9.273177e+08  -3.282694e+09   2.348730e+05   5.185297e-26   0.000000e+00   0.000000e+00
     1576000   1.575999e-05   3.969428e+01   1.673422e+00   4.379262e+01  -2.176542e+04   1.797209e+05   1.496396e+05  -1.582273e+10   8.078905e+08  -3.271732e+09   2.348730e+05   5.144341e-26   0.000000e+00   0.000000e+00
     1584000   1.583999e-05   3.969249e+01   1.687802e+00   4.380458e+01  -2.303089e+04   1.797816e+05   1.493771e+05  -1.583658e+10   7.145214e+08  -3.301616e+09   2.348730e+05   5.154023e-26   0.000000e+00   0.000000e+00
     1592000   1.591999e-05   3.969059e+01   1.702187e+00   4.381652e+01  -2.429600e+04   1.798340e+05   1.491133e+05  -1.572158e+10   6.032316e+08  -3.289113e+09   2.348730e+05   5.078191e-26   0.000000e+00   0.000000e+00
     1600000   1.599999e-05   3.968860e+01   1.716576e+00   4.382843e+01  -2.555077e+04   1.798778e+05   1.488506e+05  -1.564753e+10   4.916269e+08  -3.280045e+09   2.348730e+05   5.028957e-26   0.000000e+00   0.000000e+00
     1608000   1.607999e-05   3.968650e+01   1.730967e+00   4.384033e+01  -2.679959e+04   1.799127e+05   1.485885e+05  -1.557285e+10   3.812942e+08  -3.270394e+09   2.348730e+05   4.979992e-26   0.000000e+00   0.000000e+00
     1616000   1.615999e-05   3.968431e+01   1.745361e+00   4.385221e+01  -2.804241e+04   1.799388e+05   1.483273e+05  -1.549756e+10   2.722264e+08  -3.260159e+09   2.348730e+05   4.931298e-26   0.000000e+00   0.000000e+00
     1624000   1.623999e-05   3.968202e+01   1.759757e+00   4.386406e+01  -2.927918e+04   1.799563e+05   1.480669e+05  -1.542169e+10   1.644167e+08  -3.249340e+09   2.348730e+05   4.882875e-26   0.000000e+00   0.000000e+00
     1632000   1.631999e-05   3.967963e+01   1.774154e+00   4.387590e+01  -3.050986e+04   1.799651e+05   1.478074e+05  -1.534524e+10   5.785824e+07  -3.237937e+09   2.348730e+05   4.834724e-26   0.000000e+00   0.000000e+00
     1640000   1.639999e-05   3.967714e+01   1.788551e+00   4.388771e+01  -3.173441e+04   1.799655e+05   1.475489e+05  -1.526824e+10  -4.745600e+07  -3.225953e+09   2.348730e+05   4.786845e-26   0.000000e+00   0.000000e+00
     1648000   1.647999e-05   3.967455e+01   1.802948e+00   4.389951e+01  -3.295847e+04   1.799563e+05   1.472916e+05  -1.553976e+10  -2.294910e+08  -3.196827e+09   2.348730e+05   4.948578e-26   0.000000e+00   0.000000e+00
     1656000   1.655999e-05   3.967186e+01   1.817344e+00   4.391128e+01  -3.418677e+04   1.799365e+05   1.470356e+05  -1.530608e+10  -2.992574e+08  -3.192531e+09   2.348730e+05   4.807087e-26   0.000000e+00   0.000000e+00
     1664000   1.663999e-05   3.966908e+01   1.831738e+00   4.392303e+01  -3.540793e+04   1.799083e+05   1.467808e+05  -1.522301e+10  -4.042284e+08  -3.176770e+09   2.348730e+05   4.756714e-26   0.000000e+00   0.000000e+00
     1672000   1.671999e-05   3.966620e+01   1.846129e+00   4.393477e+01  -3.662243e+04   1.798719e+05   1.465273e+05  -1.513942e+10  -5.078944e+08  -3.160394e+09   2.348730e+05   4.706646e-26   0.000000e+00   0.000000e+00
     1680000   1.679999e-05   3.966322e+01   1.860517e+00   4.394648e+01  -3.783023e+04   1.798271e+05   1.462752e+05  -1.505533e+10  -6.102624e+08  -3.143408e+09   2.348730e+05   4.656882e-26   0.000000e+00   0.000000e+00
     1688000   1.687999e-05   3.966014e+01   1.874901e+00   4.395817e+01  -3.903127e+04   1.797742e+05   1.460244e+05  -1.497076e+10  -7.113395e+08  -3.125812e+09   2.348730e+05   4.607424e-26   0.000000e+00   0.000000e+00
     1696000   1.695999e-05   3.965697e+01   1.889281e+00   4.396984e+01  -4.022553e+04   1.797133e+05   1.457751e+05  -1.488571e+10  -8.111325e+08  -3.107611e+09   2.348730e+05   4.558272e-26   0.000000e+00   0.000000e+00
     1704000   1.703999e-05   3.965371e+01   1.903655e+00   4.398149e+01  -4.141581e+04   1.796439e+05   1.455272e+05  -1.493806e+10  -9.406542e+08  -3.090053e+09   2.348730e+05   4.591279e-26   0.000000e+00   0.000000e+00
     1712000   1.711999e-05   3.965035e+01   1.918024e+00   4.399313e+01  -4.260690e+04   1.795647e+05   1.452808e+05  -1.483909e+10  -1.037687e+09  -3.069320e+09   2.348730e+05   4.534614e-26   0.000000e+00   0.000000e+00
     1720000   1.719999e-05   3.964689e+01   1.932385e+00   4.400474e+01  -4.379326e+04   1.794772e+05   1.450360e+05  -1.484376e+10  -1.156877e+09  -3.050422e+09   2.348730e+05   4.540204e-26   0.000000e+00   0.000000e+00
     1728000   1.727999e-05   3.964334e+01   1.946740e+00   4.401633e+01  -4.497791e+04   1.793805e+05   1.447928e+05  -1.477237e+10  -1.259082e+09  -3.028970e+09   2.348730e+05   4.500935e-26   0.000000e+00   0.000000e+00
     1736000   1.735999e-05   3.963970e+01   1.961086e+00   4.402791e+01  -4.615681e+04   1.792757e+05   1.445514e+05  -1.470004e+10  -1.360205e+09  -3.006911e+09   2.348730e+05   4.461627e-26   0.000000e+00   0.000000e+00
     1744000   1.743999e-05   3.963596e+01   1.975424e+00   4.403946e+01  -4.732989e+04   1.791629e+05   1.443118e+05  -1.462680e+10  -1.460239e+09  -2.984247e+09   2.348730e+05   4.422283e-26   0.000000e+00   0.000000e+00
     1752000   1.751999e-05   3.963212e+01   1.989752e+00   4.405100e+01  -4.849707e+04   1.790421e+05   1.440739e+05  -1.455265e+10  -1.559177e+09  -2.960983e+09   2.348730e+05   4.382907e-26   0.000000e+00   0.000000e+00
     1760000   1.759999e-05   3.962820e+01   2.004070e+00   4.406251e+01  -4.965542e+04   1.789144e+05   1.438379e+05  -1.435805e+10  -1.617873e+09  -2.944231e+09   2.348730e+05   4.274035e-26   0.000000e+00   0.000000e+00
     1768000   1.767999e-05   3.962418e+01   2.018378e+00   4.407401e+01  -5.080296e+04   1.787806e+05   1.436033e+05  -1.433036e+10  -1.726801e+09  -2.919878e+09   2.348730e+05   4.262778e-26   0.000000e+00   0.000000e+00
     1776000   1.775999e-05   3.962007e+01   2.032675e+00   4.408549e+01  -5.194825e+04   1.786381e+05   1.433707e+05  -1.430189e+10  -1.835785e+09  -2.894699e+09   2.348730e+05   4.251510e-26   0.000000e+00   0.000000e+00
     1784000   1.783999e-05   3.961587e+01   2.046960e+00   4.409695e+01  -5.309124e+04   1.784869e+05   1.431402e+05  -1.427264e+10  -1.944818e+09  -2.868693e+09   2.348730e+05   4.240233e-26   0.000000e+00   0.000000e+00
     1792000   1.791999e-05   3.961157e+01   2.061233e+00   4.410839e+01  -5.422948e+04   1.783279e+05   1.429114e+05  -1.419219e+10  -2.033016e+09  -2.848543e+09   2.348730e+05   4.199856e-26   0.000000e+00   0.000000e+00
     1800000   1.799999e-05   3.960719e+01   2.075492e+00   4.411981e+01  -5.536254e+04   1.781613e+05   1.426845e+05  -1.413439e+10  -2.131767e+09  -2.822417e+09   2.348730e+05   4.172847e-26   0.000000e+00   0.000000e+00
     1808000   1.807999e-05   3.960272e+01   2.089738e+00   4.413122e+01  -5.649096e+04   1.779869e+05   1.424598e+05  -1.407580e+10  -2.229930e+09  -2.795561e+09   2.348730e+05   4.145809e-26   0.000000e+00   0.000000e+00
     1816000   1.815999e-05   3.959815e+01   2.103970e+00   4.414261e+01  -5.761595e+04   1.778043e+05   1.422371e+05  -1.404160e+10  -2.335634e+09  -2.768140e+09   2.348730e+05   4.133393e-26   0.000000e+00   0.000000e+00
     1824000   1.823999e-05   3.959350e+01   2.118187e+00   4.415398e+01  -5.873627e+04   1.776137e+05   1.420168e+05  -1.396645e+10  -2.427346e+09  -2.740558e+09   2.348730e+05   4.097623e-26   0.000000e+00   0.000000e+00
     1832000   1.831999e-05   3.958875e+01   2.132388e+00   4.416533e+01  -5.985057e+04   1.774159e+05   1.417986e+05  -1.389094e+10  -2.518267e+09  -2.712283e+09   2.348730e+05   4.062084e-26   0.000000e+00   0.000000e+00
     1840000   1.839999e-05   3.958392e+01   2.146573e+00   4.417667e+01  -6.095881e+04   1.772108e+05   1.415828e+05  -1.381507e+10  -2.608400e+09  -2.683318e+09   2.348730e+05   4.026777e-26   0.000000e+00   0.000000e+00
     1848000   1.847999e-05   3.957900e+01   2.160741e+00   4.418798e+01  -6.206097e+04   1.769986e+05   1.413693e+05  -1.373885e+10  -2.697747e+09  -2.653665e+09   2.348730e+05   3.991702e-26   0.000000e+00   0.000000e+00
     1856000   1.855999e-05   3.957399e+01   2.174893e+00   4.419929e+01  -6.315702e+04   1.767792e+05   1.411582e+05  -1.366228e+10  -2.786313e+09  -2.623327e+09   2.348730e+05   3.956859e-26   0.000000e+00   0.000000e+00
     1864000   1.863999e-05   3.956890e+01   2.189026e+00   4.421057e+01  -6.424349e+04   1.765550e+05   1.409484e+05  -1.352828e+10  -2.839593e+09  -2.609165e+09   2.348731e+05   3.889681e-26   0.000000e+00   0.000000e+00
     1872000   1.871999e-05   3.956371e+01   2.203141e+00   4.422184e+01  -6.532500e+04   1.763234e+05   1.407411e+05  -1.361219e+10  -2.996082e+09  -2.564532e+09   2.348731e+05   3.947858e-26   0.000000e+00   0.000000e+00
     1880000   1.879999e-05   3.955844e+01   2.217237e+00   4.423309e+01  -6.641006e+04   1.760805e+05   1.405372e+05  -1.351441e+10  -3.075708e+09  -2.532559e+09   2.348731e+05   3.902021e-26   0.000000e+00   0.000000e+00
     1888000   1.887999e-05   3.955309e+01   2.231314e+00   4.424432e+01  -6.748729e+04   1.758313e+05   1.403359e+05  -1.341617e+10  -3.153990e+09  -2.500064e+09   2.348731e+05   3.856386e-26   0.000000e+00   0.000000e+00
     1896000   1.895999e-05   3.954765e+01   2.245370e+00   4.425554e+01  -6.855664e+04   1.755759e+05   1.401372e+05  -1.331747e+10  -3.230930e+09  -2.467052e+09   2.348731e+05   3.810956e-26   0.000000e+00   0.000000e+00
     1904000   1.903999e-05   3.954212e+01   2.259406e+00   4.426675e+01  -6.961807e+04   1.753144e+05   1.399412e+05  -1.321834e+10  -3.306531e+09  -2.433528e+09   2.348731e+05   3.765733e-26   0.000000e+00   0.000000e+00
     1912000   1.911999e-05   3.953651e+01   2.273420e+00   4.427793e+01  -7.067156e+04   1.750469e+05   1.397479e+05  -1.311878e+10  -3.380795e+09  -2.399500e+09   2.348731e+05   3.720721e-26   0.000000e+00   0.000000e+00
     1920000   1.919999e-05   3.953081e+01   2.287413e+00   4.428910e+01  -7.171706e+04   1.747735e+05   1.395573e+05  -1.301881e+10  -3.453724e+09  -2.364973e+09   2.348731e+05   3.675923e-26   0.000000e+00   0.000000e+00
     1928000   1.927999e-05   3.952503e+01   2.301384e+00   4.430026e+01  -7.275552e+04   1.744939e+05   1.393695e+05  -1.305479e+10  -3.580285e+09  -2.332418e+09   2.348731e+05   3.708857e-26   0.000000e+00   0.000000e+00
     1936000   1.935999e-05   3.951917e+01   2.315332e+00   4.431140e+01  -7.379568e+04   1.742046e+05   1.391844e+05  -1.294925e+10  -3.651402e+09  -2.295557e+09   2.348731e+05   3.661668e-26   0.000000e+00   0.000000e+00
     1944000   1.943999e-05   3.951323e+01   2.329257e+00   4.432253e+01  -7.482739e+04   1.739097e+05   1.390022e+05  -1.284330e+10  -3.721117e+09  -2.258169e+09   2.348731e+05   3.614711e-26   0.000000e+00   0.000000e+00
     1952000   1.951999e-05   3.950720e+01   2.343157e+00   4.433364e+01  -7.585060e+04   1.736093e+05   1.388231e+05  -1.273696e+10  -3.789429e+09  -2.220263e+09   2.348731e+05   3.567987e-26   0.000000e+00   0.000000e+00
     1960000   1.959999e-05   3.950109e+01   2.357034e+00   4.434474e+01  -7.686529e+04   1.733035e+05   1.386470e+05  -1.263022e+10  -3.856341e+09  -2.181847e+09   2.348731e+05   3.521498e-26   0.000000e+00   0.000000e+00
     1968000   1.967999e-05   3.949490e+01   2.370886e+00   4.435583e+01  -7.788756e+04   1.729851e+05   1.384739e+05  -1.278957e+10  -4.042115e+09  -2.144238e+09   2.348731e+05   3.626761e-26   0.000000e+00   0.000000e+00
     1976000   1.975999e-05   3.948863e+01   2.384711e+00   4.436690e+01  -7.890849e+04   1.726581e+05   1.383040e+05  -1.273353e+10  -4.134375e+09  -2.103692e+09   2.348731e+05   3.610089e-26   0.000000e+00   0.000000e+00
     1984000   1.983999e-05   3.948227e+01   2.398511e+00   4.437796e+01  -7.992490e+04   1.723237e+05   1.381373e+05  -1.267662e+10  -4.226251e+09  -2.062387e+09   2.348731e+05   3.593377e-26   0.000000e+00   0.000000e+00
     1992000   1.991999e-05   3.947584e+01   2.412283e+00   4.438900e+01  -8.092085e+04   1.719890e+05   1.379745e+05  -1.239439e+10  -4.216359e+09  -2.013385e+09   2.348731e+05   3.448729e-26   0.000000e+00   0.000000e+00
     2000000   1.999999e-05   3.946933e+01   2.426029e+00   4.440003e+01  -8.190989e+04   1.716482e+05   1.378151e+05  -1.231236e+10  -4.280631e+09  -1.986279e+09   2.348731e+05   3.417495e-26   0.000000e+00   0.000000e+00
     2008000   2.007999e-05   3.946274e+01   2.439747e+00   4.441105e+01  -8.289133e+04   1.713029e+05   1.376579e+05  -1.222358e+10  -4.352894e+09  -1.943685e+09   2.348731e+05   3.383651e-26   0.000000e+00   0.000000e+00
     2016000   2.015999e-05   3.945607e+01   2.453437e+00   4.442206e+01  -8.386564e+04   1.709518e+05   1.375042e+05  -1.213427e+10  -4.424193e+09  -1.900476e+09   2.348731e+05   3.349929e-26   0.000000e+00   0.000000e+00
     2024000   2.023999e-05   3.944932e+01   2.467099e+00   4.443305e+01  -8.483280e+04   1.705950e+05   1.373539e+05  -1.204445e+10  -4.494521e+09  -1.856660e+09   2.348731e+05   3.316331e-26   0.000000e+00   0.000000e+00
     2032000   2.031999e-05   3.944249e+01   2.480732e+00   4.444403e+01  -8.579274e+04   1.702327e+05   1.372071e+05  -1.195410e+10  -4.563875e+09  -1.812245e+09   2.348731e+05   3.282860e-26   0.000000e+00   0.000000e+00
     2040000   2.039999e-05   3.943559e+01   2.494336e+00   4.445501e+01  -8.674544e+04   1.698648e+05   1.370639e+05  -1.186325e+10  -4.632250e+09  -1.767239e+09   2.348731e+05   3.249518e-26   0.000000e+00   0.000000e+00
     2048000   2.047999e-05   3.942861e+01   2.507910e+00   4.446597e+01  -8.769623e+04   1.694886e+05   1.369246e+05  -1.188394e+10  -4.761713e+09  -1.717144e+09   2.348731e+05   3.279653e-26   0.000000e+00   0.000000e+00
     2056000   2.055999e-05   3.942156e+01   2.521454e+00   4.447691e+01  -8.864282e+04   1.691052e+05   1.367890e+05  -1.178084e+10  -4.822496e+09  -1.672473e+09   2.348731e+05   3.240168e-26   0.000000e+00   0.000000e+00
     2064000   2.063999e-05   3.941443e+01   2.534967e+00   4.448785e+01  -8.958115e+04   1.687170e+05   1.366570e+05  -1.167730e+10  -4.882030e+09  -1.627309e+09   2.348731e+05   3.200856e-26   0.000000e+00   0.000000e+00
     2072000   2.071999e-05   3.940723e+01   2.548449e+00   4.449878e+01  -9.051118e+04   1.683241e+05   1.365287e+05  -1.157335e+10  -4.940315e+09  -1.581660e+09   2.348731e+05   3.161721e-26   0.000000e+00   0.000000e+00
     2080000   2.079999e-05   3.939995e+01   2.561899e+00   4.450970e+01  -9.143395e+04   1.679259e+05   1.364041e+05  -1.165834e+10  -5.103965e+09  -1.531322e+09   2.348731e+05   3.229757e-26   0.000000e+00   0.000000e+00
     2088000   2.087999e-05   3.939260e+01   2.575316e+00   4.452060e+01  -9.236395e+04   1.675143e+05   1.362836e+05  -1.159150e+10  -5.185070e+09  -1.482656e+09   2.348731e+05   3.212731e-26   0.000000e+00   0.000000e+00
     2096000   2.095999e-05   3.938517e+01   2.588701e+00   4.453150e+01  -9.328857e+04   1.670963e+05   1.361669e+05  -1.152371e+10  -5.265580e+09  -1.433312e+09   2.348731e+05   3.195639e-26   0.000000e+00   0.000000e+00
     2104000   2.103999e-05   3.937767e+01   2.602052e+00   4.454239e+01  -9.420505e+04   1.666733e+05   1.360543e+05  -1.123666e+10  -5.223198e+09  -1.381663e+09   2.348731e+05   3.055626e-26   0.000000e+00   0.000000e+00
     2112000   2.111999e-05   3.937010e+01   2.615369e+00   4.455327e+01  -9.510067e+04   1.662526e+05   1.359459e+05  -1.115370e+10  -5.293736e+09  -1.328654e+09   2.348731e+05   3.030870e-26   0.000000e+00   0.000000e+00
     2120000   2.119999e-05   3.936245e+01   2.628652e+00   4.456414e+01  -9.598962e+04   1.658263e+05   1.358417e+05  -1.107017e+10  -5.363517e+09  -1.275071e+09   2.348731e+05   3.006259e-26   0.000000e+00   0.000000e+00
     2128000   2.127999e-05   3.935474e+01   2.641901e+00   4.457501e+01  -9.687188e+04   1.653945e+05   1.357419e+05  -1.098609e+10  -5.432536e+09  -1.220924e+09   2.348731e+05   2.981796e-26   0.000000e+00   0.000000e+00
     2136000   2.135999e-05   3.934696e+01   2.655115e+00   4.458586e+01  -9.774738e+04   1.649572e+05   1.356464e+05  -1.090145e+10  -5.500784e+09  -1.166218e+09   2.348731e+05   2.957482e-26   0.000000e+00   0.000000e+00
     2144000   2.143999e-05   3.933910e+01   2.668294e+00   4.459671e+01  -9.861609e+04   1.645144e+05   1.355553e+05  -1.081625e+10  -5.568257e+09  -1.110962e+09   2.348731e+05   2.933319e-26   0.000000e+00   0.000000e+00
     2152000   2.151999e-05   3.933118e+01   2.681437e+00   4.460755e+01  -9.946934e+04   1.640720e+05   1.354680e+05  -1.057323e+10  -5.529622e+09  -1.066338e+09   2.348731e+05   2.820805e-26   0.000000e+00   0.000000e+00
     2160000   2.159999e-05   3.932319e+01   2.694545e+00   4.461838e+01  -1.003115e+05   1.636273e+05   1.353849e+05  -1.048004e+10  -5.587892e+09  -1.011455e+09   2.348731e+05   2.792735e-26   0.000000e+00   0.000000e+00
     2168000   2.167999e-05   3.931513e+01   2.707617e+00   4.462921e+01  -1.011490e+05   1.631762e+05   1.353062e+05  -1.044512e+10  -5.681024e+09  -9.571193e+08   2.348731e+05   2.796898e-26   0.000000e+00   0.000000e+00
     2176000   2.175999e-05   3.930700e+01   2.720653e+00   4.464003e+01  -1.019805e+05   1.627196e+05   1.352318e+05  -1.034313e+10  -5.732612e+09  -9.020632e+08   2.348731e+05   2.764784e-26   0.000000e+00   0.000000e+00
     2184000   2.183999e-05   3.929881e+01   2.733652e+00   4.465085e+01  -1.028040e+05   1.622589e+05   1.351618e+05  -1.025455e+10  -5.789974e+09  -8.488524e+08   2.348731e+05   2.740080e-26   0.000000e+00   0.000000e+00
     2192000   2.191999e-05   3.929055e+01   2.746615e+00   4.466166e+01  -1.036202e+05   1.617939e+05   1.350961e+05  -1.014884e+10  -5.836736e+09  -7.940620e+08   2.348731e+05   2.706601e-26   0.000000e+00   0.000000e+00
     2200000   2.199999e-05   3.928223e+01   2.759539e+00   4.467246e+01  -1.044278e+05   1.613251e+05   1.350348e+05  -1.004278e+10  -5.882335e+09  -7.388942e+08   2.348731e+05   2.673351e-26   0.000000e+00   0.000000e+00
     2208000   2.207999e-05   3.927385e+01   2.772426e+00   4.468326e+01  -1.052270e+05   1.608527e+05   1.349779e+05  -9.936390e+09  -5.926768e+09  -6.833601e+08   2.348731e+05   2.640331e-26   0.000000e+00   0.000000e+00
     2216000   2.215999e-05   3.926540e+01   2.785276e+00   4.469406e+01  -1.060177e+05   1.603768e+05   1.349255e+05  -9.829664e+09  -5.970033e+09  -6.274704e+08   2.348731e+05   2.607543e-26   0.000000e+00   0.000000e+00
     2224000   2.223999e-05   3.925688e+01   2.798087e+00   4.470485e+01  -1.067999e+05   1.598973e+05   1.348777e+05  -9.729204e+09  -6.019416e+09  -5.678333e+08   2.348731e+05   2.579156e-26   0.000000e+00   0.000000e+00
     2232000   2.231999e-05   3.924831e+01   2.810859e+00   4.471564e+01  -1.075776e+05   1.594118e+05   1.348343e+05  -9.673563e+09  -6.092413e+09  -5.151154e+08   2.348731e+05   2.574193e-26   0.000000e+00   0.000000e+00
     2240000   2.239999e-05   3.923967e+01   2.823592e+00   4.472643e+01  -1.083470e+05   1.589230e+05   1.347953e+05  -9.560346e+09  -6.126598e+09  -4.612617e+08   2.348731e+05   2.538567e-26   0.000000e+00   0.000000e+00
     2248000   2.247999e-05   3.923097e+01   2.836287e+00   4.473721e+01  -1.091073e+05   1.584316e+05   1.347605e+05  -9.446878e+09  -6.159477e+09  -4.071388e+08   2.348731e+05   2.503191e-26   0.000000e+00   0.000000e+00
     2256000   2.255999e-05   3.922221e+01   2.848941e+00   4.474799e+01  -1.098585e+05   1.579375e+05   1.347301e+05  -9.333166e+09  -6.191049e+09  -3.527585e+08   2.348731e+05   2.468067e-26   0.000000e+00   0.000000e+00
     2264000   2.263999e-05   3.921340e+01   2.861557e+00   4.475877e+01  -1.106006e+05   1.574410e+05   1.347041e+05  -9.219219e+09  -6.221313e+09  -2.981329e+08   2.348731e+05   2.433198e-26   0.000000e+00   0.000000e+00
     2272000   2.271999e-05   3.920452e+01   2.874132e+00   4.476954e+01  -1.113335e+05   1.569422e+05   1.346824e+05  -9.105043e+09  -6.250269e+09  -2.432742e+08   2.348731e+05   2.398588e-26   0.000000e+00   0.000000e+00
     2280000   2.279999e-05   3.919558e+01   2.886667e+00   4.478031e+01  -1.120528e+05   1.564437e+05   1.346659e+05  -8.872386e+09  -6.209521e+09  -1.688195e+08   2.348731e+05   2.305793e-26   0.000000e+00   0.000000e+00
     2288000   2.287999e-05   3.918659e+01   2.899163e+00   4.479109e+01  -1.127576e+05   1.559461e+05   1.346547e+05  -8.748992e+09  -6.229677e+09  -1.115511e+08   2.348731e+05   2.267666e-26   0.000000e+00   0.000000e+00
     2296000   2.295999e-05   3.917754e+01   2.911619e+00   4.480186e+01  -1.134589e+05   1.554432e+05   1.346471e+05  -8.695560e+09  -6.290563e+09  -6.507600e+07   2.348731e+05   2.264165e-26   0.000000e+00   0.000000e+00
     2304000   2.303999e-05   3.916844e+01   2.924034e+00   4.481263e+01  -1.141509e+05   1.549382e+05   1.346443e+05  -8.604115e+09  -6.335766e+09  -3.821765e+06   2.348731e+05   2.244205e-26   0.000000e+00   0.000000e+00
     2312000   2.311999e-05   3.915928e+01   2.936409e+00   4.482340e+01  -1.148356e+05   1.544295e+05   1.346465e+05  -8.512077e+09  -6.380047e+09   5.777784e+07   2.348731e+05   2.224373e-26   0.000000e+00   0.000000e+00
     2320000   2.319999e-05   3.915006e+01   2.948742e+00   4.483417e+01  -1.155128e+05   1.539174e+05   1.346536e+05  -8.419447e+09  -6.423398e+09   1.197112e+08   2.348731e+05   2.204670e-26   0.000000e+00   0.000000e+00
     2328000   2.327999e-05   3.914080e+01   2.961035e+00   4.484495e+01  -1.161827e+05   1.534018e+05   1.346656e+05  -8.326226e+09  -6.465808e+09   1.819665e+08   2.348731e+05   2.185100e-26   0.000000e+00   0.000000e+00
     2336000   2.335999e-05   3.913147e+01   2.973287e+00   4.485572e+01  -1.168450e+05   1.528829e+05   1.346827e+05  -8.232417e+09  -6.507269e+09   2.445318e+08   2.348731e+05   2.165664e-26   0.000000e+00   0.000000e+00
     2344000   2.343999e-05   3.912210e+01   2.985496e+00   4.486650e+01  -1.174998e+05   1.523607e+05   1.347048e+05  -8.138022e+09  -6.547770e+09   3.073951e+08   2.348731e+05   2.146365e-26   0.000000e+00   0.000000e+00
     2352000   2.351999e-05   3.911267e+01   2.997664e+00   4.487727e+01  -1.181471e+05   1.518353e+05   1.347319e+05  -8.043041e+09  -6.587303e+09   3.705440e+08   2.348731e+05   2.127204e-26   0.000000e+00   0.000000e+00
     2360000   2.359999e-05   3.910320e+01   3.009790e+00   4.488805e+01  -1.187815e+05   1.513102e+05   1.347648e+05  -7.869442e+09  -6.573010e+09   4.438834e+08   2.348731e+05   2.070382e-26   0.000000e+00   0.000000e+00
     2368000   2.367999e-05   3.909367e+01   3.021874e+00   4.489884e+01  -1.194044e+05   1.507862e+05   1.348016e+05  -7.711551e+09  -6.539793e+09   4.845495e+08   2.348731e+05   2.014208e-26   0.000000e+00   0.000000e+00
     2376000   2.375999e-05   3.908409e+01   3.033916e+00   4.490962e+01  -1.200214e+05   1.502571e+05   1.348444e+05  -7.671397e+09  -6.637594e+09   5.681753e+08   2.348731e+05   2.029128e-26   0.000000e+00   0.000000e+00
     2384000   2.383999e-05   3.907447e+01   3.045915e+00   4.492041e+01  -1.206314e+05   1.497247e+05   1.348923e+05  -7.578299e+09  -6.672972e+09   6.296079e+08   2.348731e+05   2.011924e-26   0.000000e+00   0.000000e+00
     2392000   2.391999e-05   3.906479e+01   3.057872e+00   4.493121e+01  -1.212339e+05   1.491895e+05   1.349452e+05  -7.484698e+09  -6.707458e+09   6.912757e+08   2.348731e+05   1.994882e-26   0.000000e+00   0.000000e+00
     2400000   2.399999e-05   3.905507e+01   3.069785e+00   4.494200e+01  -1.218289e+05   1.486515e+05   1.350030e+05  -7.390594e+09  -6.741045e+09   7.531672e+08   2.348731e+05   1.978002e-26   0.000000e+00   0.000000e+00
     2408000   2.407999e-05   3.904530e+01   3.081656e+00   4.495281e+01  -1.224164e+05   1.481109e+05   1.350657e+05  -7.295990e+09  -6.773724e+09   8.152706e+08   2.348731e+05   1.961287e-26   0.000000e+00   0.000000e+00
     2416000   2.415999e-05   3.903548e+01   3.093483e+00   4.496361e+01  -1.229962e+05   1.475678e+05   1.351334e+05  -7.200884e+09  -6.805485e+09   8.775741e+08   2.348731e+05   1.944737e-26   0.000000e+00   0.000000e+00
     2424000   2.423999e-05   3.902562e+01   3.105267e+00   4.497443e+01  -1.235651e+05   1.470250e+05   1.352061e+05  -7.002035e+09  -6.748796e+09   9.395681e+08   2.348731e+05   1.876337e-26   0.000000e+00   0.000000e+00
     2432000   2.431999e-05   3.901571e+01   3.117007e+00   4.498525e+01  -1.241200e+05   1.464851e+05   1.352838e+05  -6.869975e+09  -6.746546e+09   1.002106e+09   2.348731e+05   1.842118e-26   0.000000e+00   0.000000e+00
     2440000   2.439999e-05   3.900576e+01   3.128704e+00   4.499607e+01  -1.246643e+05   1.459456e+05   1.353664e+05  -6.738033e+09  -6.742875e+09   1.064529e+09   2.348731e+05   1.808388e-26   0.000000e+00   0.000000e+00
     2448000   2.447999e-05   3.899577e+01   3.140358e+00   4.500691e+01  -1.252014e+05   1.454033e+05   1.354542e+05  -6.690409e+09  -6.813964e+09   1.130461e+09   2.348731e+05   1.817604e-26   0.000000e+00   0.000000e+00
     2456000   2.455999e-05   3.898573e+01   3.151969e+00   4.501775e+01  -1.257324e+05   1.448575e+05   1.355472e+05  -6.584541e+09  -6.831210e+09   1.192671e+09   2.348731e+05   1.797446e-26   0.000000e+00   0.000000e+00
     2464000   2.463999e-05   3.897565e+01   3.163535e+00   4.502859e+01  -1.262549e+05   1.443104e+05   1.356451e+05  -6.478261e+09  -6.847331e+09   1.254964e+09   2.348731e+05   1.777488e-26   0.000000e+00   0.000000e+00
     2472000   2.471999e-05   3.896553e+01   3.175058e+00   4.503945e+01  -1.267689e+05   1.437620e+05   1.357480e+05  -6.371576e+09  -6.862320e+09   1.317324e+09   2.348731e+05   1.757734e-26   0.000000e+00   0.000000e+00
     2480000   2.479999e-05   3.895537e+01   3.186537e+00   4.505031e+01  -1.272743e+05   1.432124e+05   1.358558e+05  -6.264489e+09  -6.876171e+09   1.379738e+09   2.348731e+05   1.738185e-26   0.000000e+00   0.000000e+00
     2488000   2.487999e-05   3.894517e+01   3.197972e+00   4.506119e+01  -1.277712e+05   1.426618e+05   1.359687e+05  -6.157006e+09  -6.888877e+09   1.442190e+09   2.348731e+05   1.718844e-26   0.000000e+00   0.000000e+00
     2496000   2.495999e-05   3.893492e+01   3.209363e+00   4.507207e+01  -1.282496e+05   1.421193e+05   1.360864e+05  -5.897078e+09  -6.758878e+09   1.501033e+09   2.348731e+05   1.625788e-26   0.000000e+00   0.000000e+00
     2504000   2.503999e-05   3.892465e+01   3.220711e+00   4.508296e+01  -1.287168e+05   1.415785e+05   1.362089e+05  -5.783472e+09  -6.760453e+09   1.561615e+09   2.348731e+05   1.603770e-26   0.000000e+00   0.000000e+00
     2512000   2.511999e-05   3.891433e+01   3.232016e+00   4.509386e+01  -1.291749e+05   1.410377e+05   1.363363e+05  -5.669633e+09  -6.760807e+09   1.622129e+09   2.348731e+05   1.582023e-26   0.000000e+00   0.000000e+00
     2520000   2.519999e-05   3.890398e+01   3.243277e+00   4.510477e+01  -1.296235e+05   1.404969e+05   1.364687e+05  -5.545329e+09  -6.758634e+09   1.690960e+09   2.348731e+05   1.558526e-26   0.000000e+00   0.000000e+00
     2528000   2.527999e-05   3.889359e+01   3.254495e+00   4.511570e+01  -1.300607e+05   1.399584e+05   1.366060e+05  -5.390892e+09  -6.711673e+09   1.743793e+09   2.348731e+05   1.516461e-26   0.000000e+00   0.000000e+00
     2536000   2.535999e-05   3.888317e+01   3.265671e+00   4.512663e+01  -1.304872e+05   1.394218e+05   1.367480e+05  -5.271569e+09  -6.703955e+09   1.804822e+09   2.348731e+05   1.493674e-26   0.000000e+00   0.000000e+00
     2544000   2.543999e-05   3.887271e+01   3.276803e+00   4.513758e+01  -1.309042e+05   1.388858e+05   1.368948e+05  -5.152163e+09  -6.694993e+09   1.865672e+09   2.348731e+05   1.471239e-26   0.000000e+00   0.000000e+00
     2552000   2.551999e-05   3.886222e+01   3.287892e+00   4.514853e+01  -1.313115e+05   1.383506e+05   1.370465e+05  -5.032681e+09  -6.684787e+09   1.926325e+09   2.348731e+05   1.449156e-26   0.000000e+00   0.000000e+00
     2560000   2.559999e-05   3.885170e+01   3.298939e+00   4.515950e+01  -1.317094e+05   1.378163e+05   1.372030e+05  -4.913126e+09  -6.673336e+09   1.986767e+09   2.348731e+05   1.427425e-26   0.000000e+00   0.000000e+00
     2568000   2.567999e-05   3.884115e+01   3.309943e+00   4.517049e+01  -1.320949e+05   1.372844e+05   1.373655e+05  -4.752805e+09  -6.636654e+09   2.062299e+09   2.348731e+05   1.393380e-26   0.000000e+00   0.000000e+00
     2576000   2.575999e-05   3.883057e+01   3.320905e+00   4.518148e+01  -1.324701e+05   1.367543e+05   1.375329e+05  -4.626652e+09  -6.616035e+09   2.122250e+09   2.348731e+05   1.369682e-26   0.000000e+00   0.000000e+00
     2584000   2.583999e-05   3.881996e+01   3.331824e+00   4.519249e+01  -1.328352e+05   1.362259e+05   1.377050e+05  -4.500484e+09  -6.593997e+09   2.181848e+09   2.348731e+05   1.346367e-26   0.000000e+00   0.000000e+00
     2592000   2.591999e-05   3.880931e+01   3.342701e+00   4.520352e+01  -1.331925e+05   1.356973e+05   1.378817e+05  -4.469277e+09  -6.654251e+09   2.231554e+09   2.348731e+05   1.360866e-26   0.000000e+00   0.000000e+00
     2600000   2.599999e-05   3.879865e+01   3.353535e+00   4.521455e+01  -1.335459e+05   1.351651e+05   1.380626e+05  -4.354215e+09  -6.638084e+09   2.287009e+09   2.348731e+05   1.341610e-26   0.000000e+00   0.000000e+00
     2608000   2.607999e-05   3.878795e+01   3.364327e+00   4.522561e+01  -1.338911e+05   1.346331e+05   1.382478e+05  -4.277242e+09  -6.660838e+09   2.344234e+09   2.348731e+05   1.339708e-26   0.000000e+00   0.000000e+00
     2616000   2.615999e-05   3.877722e+01   3.375077e+00   4.523667e+01  -1.342302e+05   1.340993e+05   1.384376e+05  -4.199514e+09  -6.682823e+09   2.401523e+09   2.348731e+05   1.337867e-26   0.000000e+00   0.000000e+00
     2624000   2.623999e-05   3.876647e+01   3.385783e+00   4.524776e+01  -1.345630e+05   1.335639e+05   1.386321e+05  -4.121035e+09  -6.704027e+09   2.458865e+09   2.348731e+05   1.336090e-26   0.000000e+00   0.000000e+00
     2632000   2.631999e-05   3.875569e+01   3.396447e+00   4.525886e+01  -1.348895e+05   1.330267e+05   1.388311e+05  -4.041804e+09  -6.724434e+09   2.516244e+09   2.348731e+05   1.334375e-26   0.000000e+00   0.000000e+00
     2640000   2.639999e-05   3.874489e+01   3.407067e+00   4.526997e+01  -1.352061e+05   1.324906e+05   1.390356e+05  -3.883647e+09  -6.684207e+09   2.592880e+09   2.348731e+05   1.306832e-26   0.000000e+00   0.000000e+00
     2648000   2.647999e-05   3.873406e+01   3.417645e+00   4.528110e+01  -1.355123e+05   1.319564e+05   1.392455e+05  -3.770703e+09  -6.671798e+09   2.652943e+09   2.348731e+05   1.292774e-26   0.000000e+00   0.000000e+00
     2656000   2.655999e-05   3.872321e+01   3.428180e+00   4.529225e+01  -1.358094e+05   1.314232e+05   1.394601e+05  -3.657540e+09  -6.658217e+09   2.712719e+09   2.348731e+05   1.278997e-26   0.000000e+00   0.000000e+00
     2664000   2.663999e-05   3.871233e+01   3.438673e+00   4.530341e+01  -1.360979e+05   1.308907e+05   1.396794e+05  -3.560453e+09  -6.657482e+09   2.769436e+09   2.348731e+05   1.271142e-26   0.000000e+00   0.000000e+00
     2672000   2.671999e-05   3.870143e+01   3.449123e+00   4.531460e+01  -1.363781e+05   1.303588e+05   1.399033e+05  -3.445057e+09  -6.639520e+09   2.828313e+09   2.348731e+05   1.257036e-26   0.000000e+00   0.000000e+00
     2680000   2.679999e-05   3.869051e+01   3.459531e+00   4.532580e+01  -1.366450e+05   1.298321e+05   1.401326e+05  -3.264459e+09  -6.561517e+09   2.896003e+09   2.348731e+05   1.220594e-26   0.000000e+00   0.000000e+00
     2688000   2.687999e-05   3.867957e+01   3.469896e+00   4.533702e+01  -1.369010e+05   1.293086e+05   1.403666e+05  -3.135833e+09  -6.527222e+09   2.954604e+09   2.348731e+05   1.202328e-26   0.000000e+00   0.000000e+00
     2696000   2.695999e-05   3.866861e+01   3.480220e+00   4.534826e+01  -1.371467e+05   1.287878e+05   1.406053e+05  -3.007278e+09  -6.491576e+09   3.012676e+09   2.348731e+05   1.184495e-26   0.000000e+00   0.000000e+00
     2704000   2.703999e-05   3.865763e+01   3.490502e+00   4.535952e+01  -1.373821e+05   1.282699e+05   1.408486e+05  -2.878801e+09  -6.454581e+09   3.070201e+09   2.348731e+05   1.167094e-26   0.000000e+00   0.000000e+00
     2712000   2.711999e-05   3.864663e+01   3.500743e+00   4.537079e+01  -1.376076e+05   1.277548e+05   1.410964e+05  -2.803825e+09  -6.461766e+09   3.116270e+09   2.348731e+05   1.166145e-26   0.000000e+00   0.000000e+00
     2720000   2.719999e-05   3.863561e+01   3.510943e+00   4.538209e+01  -1.378269e+05   1.272393e+05   1.413480e+05  -2.678946e+09  -6.425146e+09   3.171613e+09   2.348731e+05   1.150251e-26   0.000000e+00   0.000000e+00
     2728000   2.727999e-05   3.862457e+01   3.521102e+00   4.539341e+01  -1.380362e+05   1.267268e+05   1.416039e+05  -2.554046e+09  -6.387160e+09   3.226424e+09   2.348731e+05   1.134730e-26   0.000000e+00   0.000000e+00
     2736000   2.735999e-05   3.861352e+01   3.531219e+00   4.540475e+01  -1.382340e+05   1.262191e+05   1.418642e+05  -2.379614e+09  -6.294782e+09   3.281864e+09   2.348731e+05   1.101879e-26   0.000000e+00   0.000000e+00
     2744000   2.743999e-05   3.860246e+01   3.541297e+00   4.541611e+01  -1.384190e+05   1.257176e+05   1.421290e+05  -2.244731e+09  -6.243829e+09   3.336733e+09   2.348731e+05   1.084199e-26   0.000000e+00   0.000000e+00
     2752000   2.751999e-05   3.859138e+01   3.551334e+00   4.542749e+01  -1.385933e+05   1.252192e+05   1.423988e+05  -2.114342e+09  -6.209987e+09   3.402952e+09   2.348731e+05   1.073515e-26   0.000000e+00   0.000000e+00
     2760000   2.759999e-05   3.858028e+01   3.561332e+00   4.543889e+01  -1.387573e+05   1.247242e+05   1.426732e+05  -1.985733e+09  -6.162906e+09   3.456357e+09   2.348731e+05   1.058900e-26   0.000000e+00   0.000000e+00
     2768000   2.767999e-05   3.856918e+01   3.571290e+00   4.545032e+01  -1.389110e+05   1.242331e+05   1.429518e+05  -1.857249e+09  -6.114485e+09   3.509083e+09   2.348731e+05   1.044728e-26   0.000000e+00   0.000000e+00
     2776000   2.775999e-05   3.855806e+01   3.581209e+00   4.546176e+01  -1.390544e+05   1.237460e+05   1.432346e+05  -1.728900e+09  -6.064728e+09   3.561115e+09   2.348731e+05   1.031000e-26   0.000000e+00   0.000000e+00
     2784000   2.783999e-05   3.854693e+01   3.591090e+00   4.547323e+01  -1.391876e+05   1.232628e+05   1.435216e+05  -1.600692e+09  -6.013640e+09   3.612435e+09   2.348731e+05   1.017716e-26   0.000000e+00   0.000000e+00
     2792000   2.791999e-05   3.853579e+01   3.600932e+00   4.548473e+01  -1.393111e+05   1.227834e+05   1.438125e+05  -1.542108e+09  -6.020409e+09   3.646234e+09   2.348731e+05   1.020520e-26   0.000000e+00   0.000000e+00
     2800000   2.799999e-05   3.852464e+01   3.610735e+00   4.549624e+01  -1.394300e+05   1.223030e+05   1.441062e+05  -1.431844e+09  -5.989294e+09   3.697737e+09   2.348731e+05   1.014164e-26   0.000000e+00   0.000000e+00
     2808000   2.807999e-05   3.851348e+01   3.620500e+00   4.550779e+01  -1.395410e+05   1.218240e+05   1.444043e+05  -1.325018e+09  -5.965981e+09   3.752698e+09   2.348731e+05   1.010947e-26   0.000000e+00   0.000000e+00
     2816000   2.815999e-05   3.850231e+01   3.630227e+00   4.551935e+01  -1.396412e+05   1.213495e+05   1.447066e+05  -1.181464e+09  -5.894687e+09   3.803124e+09   2.348731e+05   9.947422e-27   0.000000e+00   0.000000e+00
     2824000   2.823999e-05   3.849114e+01   3.639916e+00   4.553094e+01  -1.397358e+05   1.208740e+05   1.450129e+05  -1.138211e+09  -5.941686e+09   3.855841e+09   2.348731e+05   1.011640e-26   0.000000e+00   0.000000e+00
     2832000   2.831999e-05   3.847995e+01   3.649567e+00   4.554255e+01  -1.398220e+05   1.204004e+05   1.453234e+05  -1.016997e+09  -5.896460e+09   3.906723e+09   2.348731e+05   1.003745e-26   0.000000e+00   0.000000e+00
     2840000   2.839999e-05   3.846876e+01   3.659180e+00   4.555419e+01  -1.398985e+05   1.199306e+05   1.456380e+05  -8.957168e+08  -5.849920e+09   3.956903e+09   2.348731e+05   9.961959e-27   0.000000e+00   0.000000e+00
     2848000   2.847999e-05   3.845757e+01   3.668756e+00   4.556585e+01  -1.399653e+05   1.194645e+05   1.459565e+05  -7.743821e+08  -5.802068e+09   4.006364e+09   2.348731e+05   9.889949e-27   0.000000e+00   0.000000e+00
     2856000   2.855999e-05   3.844637e+01   3.678295e+00   4.557754e+01  -1.400224e+05   1.190023e+05   1.462790e+05  -6.530047e+08  -5.752906e+09   4.055088e+09   2.348731e+05   9.821443e-27   0.000000e+00   0.000000e+00
     2864000   2.863999e-05   3.843517e+01   3.687796e+00   4.558926e+01  -1.400698e+05   1.185441e+05   1.466053e+05  -5.315965e+08  -5.702440e+09   4.103059e+09   2.348731e+05   9.756462e-27   0.000000e+00   0.000000e+00
     2872000   2.871999e-05   3.842396e+01   3.697262e+00   4.560100e+01  -1.401073e+05   1.180902e+05   1.469354e+05  -3.860710e+08  -5.608993e+09   4.139754e+09   2.348731e+05   9.581900e-27   0.000000e+00   0.000000e+00
     2880000   2.879999e-05   3.841275e+01   3.706691e+00   4.561277e+01  -1.401315e+05   1.176457e+05   1.472685e+05  -2.338792e+08  -5.519204e+09   4.186485e+09   2.348731e+05   9.443430e-27   0.000000e+00   0.000000e+00
     2888000   2.887999e-05   3.840154e+01   3.716085e+00   4.562456e+01  -1.401455e+05   1.172063e+05   1.476051e+05  -1.165933e+08  -5.464848e+09   4.228683e+09   2.348731e+05   9.387792e-27   0.000000e+00   0.000000e+00
     2896000   2.895999e-05   3.839033e+01   3.725444e+00   4.563639e+01  -1.401466e+05   1.167755e+05   1.479452e+05   6.238125e+07  -5.336683e+09   4.271425e+09   2.348731e+05   9.185190e-27   0.000000e+00   0.000000e+00
     2904000   2.903999e-05   3.837912e+01   3.734769e+00   4.564823e+01  -1.401359e+05   1.163520e+05   1.482885e+05   2.048047e+08  -5.249197e+09   4.312240e+09   2.348731e+05   9.079492e-27   0.000000e+00   0.000000e+00
     2912000   2.911999e-05   3.836791e+01   3.744061e+00   4.566011e+01  -1.401139e+05   1.159356e+05   1.486351e+05   3.466702e+08  -5.160418e+09   4.351934e+09   2.348731e+05   8.980816e-27   0.000000e+00   0.000000e+00
     2920000   2.919999e-05   3.835670e+01   3.753319e+00   4.567202e+01  -1.400805e+05   1.155264e+05   1.489848e+05   4.879736e+08  -5.070360e+09   4.390491e+09   2.348731e+05   8.889150e-27   0.000000e+00   0.000000e+00
     2928000   2.927999e-05   3.834549e+01   3.762545e+00   4.568395e+01  -1.400358e+05   1.151244e+05   1.493375e+05   6.287109e+08  -4.979035e+09   4.427895e+09   2.348731e+05   8.804480e-27   0.000000e+00   0.000000e+00
     2936000   2.935999e-05   3.833429e+01   3.771739e+00   4.569591e+01  -1.399799e+05   1.147298e+05   1.496932e+05   7.688781e+08  -4.886457e+09   4.464130e+09   2.348731e+05   8.726793e-27   0.000000e+00   0.000000e+00
     2944000   2.943999e-05   3.832310e+01   3.780902e+00   4.570790e+01  -1.399194e+05   1.143353e+05   1.500512e+05   7.751040e+08  -4.942735e+09   4.489014e+09   2.348731e+05   8.881196e-27   0.000000e+00   0.000000e+00
     2952000   2.951999e-05   3.831191e+01   3.790033e+00   4.571992e+01  -1.398529e+05   1.139422e+05   1.504118e+05   8.881756e+08  -4.884708e+09   4.526167e+09   2.348731e+05   8.871910e-27   0.000000e+00   0.000000e+00
     2960000   2.959999e-05   3.830072e+01   3.799133e+00   4.573197e+01  -1.397773e+05   1.135538e+05   1.507753e+05   1.001166e+09  -4.825564e+09   4.562430e+09   2.348731e+05   8.865767e-27   0.000000e+00   0.000000e+00
     2968000   2.967999e-05   3.828954e+01   3.808202e+00   4.574404e+01  -1.396886e+05   1.131750e+05   1.511419e+05   1.184377e+09  -4.681027e+09   4.599779e+09   2.348731e+05   8.741656e-27   0.000000e+00   0.000000e+00
     2976000   2.975999e-05   3.827837e+01   3.817241e+00   4.575615e+01  -1.395880e+05   1.128046e+05   1.515113e+05   1.330769e+09  -4.579232e+09   4.635415e+09   2.348731e+05   8.693429e-27   0.000000e+00   0.000000e+00
     2984000   2.983999e-05   3.826721e+01   3.826251e+00   4.576828e+01  -1.394757e+05   1.124424e+05   1.518836e+05   1.476581e+09  -4.476112e+09   4.669710e+09   2.348731e+05   8.653069e-27   0.000000e+00   0.000000e+00
     2992000   2.991999e-05   3.825605e+01   3.835232e+00   4.578045e+01  -1.393517e+05   1.120884e+05   1.522585e+05   1.621806e+09  -4.371687e+09   4.702645e+09   2.348731e+05   8.620579e-27   0.000000e+00   0.000000e+00
     3000000   2.999999e-05   3.824491e+01   3.844185e+00   4.579265e+01  -1.392162e+05   1.117429e+05   1.526359e+05   1.766438e+09  -4.265975e+09   4.734204e+09   2.348731e+05   8.595962e-27   0.000000e+00   0.000000e+00
     3008000   3.007999e-05   3.823378e+01   3.853111e+00   4.580487e+01  -1.390715e+05   1.114025e+05   1.530162e+05   1.826446e+09  -4.275395e+09   4.772677e+09   2.348731e+05   8.726044e-27   0.000000e+00   0.000000e+00
     3016000   3.015999e-05   3.822266e+01   3.862010e+00   4.581713e+01  -1.389212e+05   1.110629e+05   1.533991e+05   1.931607e+09  -4.215404e+09   4.801309e+09   2.348731e+05   8.757484e-27   0.000000e+00   0.000000e+00
     3024000   3.023999e-05   3.821155e+01   3.870881e+00   4.582942e+01  -1.387625e+05   1.107281e+05   1.537844e+05   2.036720e+09  -4.154336e+09   4.828986e+09   2.348731e+05   8.791397e-27   0.000000e+00   0.000000e+00
     3032000   3.031999e-05   3.820046e+01   3.879726e+00   4.584173e+01  -1.385954e+05   1.103982e+05   1.541717e+05   2.141771e+09  -4.092194e+09   4.855694e+09   2.348731e+05   8.827793e-27   0.000000e+00   0.000000e+00
     3040000   3.039999e-05   3.818938e+01   3.888546e+00   4.585408e+01  -1.384151e+05   1.100815e+05   1.545597e+05   2.312660e+09  -3.917366e+09   4.861143e+09   2.348731e+05   8.712582e-27   0.000000e+00   0.000000e+00
     3048000   3.047999e-05   3.817831e+01   3.897340e+00   4.586646e+01  -1.382255e+05   1.097711e+05   1.549496e+05   2.426130e+09  -3.840742e+09   4.885177e+09   2.348731e+05   8.747469e-27   0.000000e+00   0.000000e+00
     3056000   3.055999e-05   3.816726e+01   3.906109e+00   4.587888e+01  -1.380264e+05   1.094668e+05   1.553419e+05   2.558026e+09  -3.751988e+09   4.916858e+09   2.348731e+05   8.805270e-27   0.000000e+00   0.000000e+00
     3064000   3.063999e-05   3.815623e+01   3.914855e+00   4.589132e+01  -1.378161e+05   1.091714e+05   1.557359e+05   2.697746e+09  -3.634503e+09   4.935130e+09   2.348731e+05   8.814419e-27   0.000000e+00   0.000000e+00
     3072000   3.071999e-05   3.814521e+01   3.923577e+00   4.590379e+01  -1.375941e+05   1.088859e+05   1.561317e+05   2.862532e+09  -3.496768e+09   4.961305e+09   2.348731e+05   8.852366e-27   0.000000e+00   0.000000e+00
     3080000   3.079999e-05   3.813421e+01   3.932277e+00   4.591630e+01  -1.373602e+05   1.086099e+05   1.565293e+05   2.983895e+09  -3.402129e+09   4.979093e+09   2.348731e+05   8.898254e-27   0.000000e+00   0.000000e+00
     3088000   3.087999e-05   3.812323e+01   3.940955e+00   4.592884e+01  -1.371167e+05   1.083416e+05   1.569283e+05   3.104809e+09  -3.306450e+09   4.995578e+09   2.348731e+05   8.949118e-27   0.000000e+00   0.000000e+00
     3096000   3.095999e-05   3.811228e+01   3.949611e+00   4.594141e+01  -1.368635e+05   1.080809e+05   1.573285e+05   3.225264e+09  -3.209744e+09   5.010746e+09   2.348731e+05   9.004962e-27   0.000000e+00   0.000000e+00
     3104000   3.103999e-05   3.810134e+01   3.958248e+00   4.595401e+01  -1.366006e+05   1.078281e+05   1.577300e+05   3.345250e+09  -3.112023e+09   5.024582e+09   2.348731e+05   9.065789e-27   0.000000e+00   0.000000e+00
     3112000   3.111999e-05   3.809042e+01   3.966864e+00   4.596665e+01  -1.363252e+05   1.075889e+05   1.581311e+05   3.511652e+09  -2.924585e+09   5.017228e+09   2.348731e+05   9.053144e-27   0.000000e+00   0.000000e+00
     3120000   3.119999e-05   3.807952e+01   3.975462e+00   4.597931e+01  -1.360392e+05   1.073594e+05   1.585328e+05   3.637835e+09  -2.812041e+09   5.026009e+09   2.348731e+05   9.120898e-27   0.000000e+00   0.000000e+00
     3128000   3.127999e-05   3.806865e+01   3.984042e+00   4.599201e+01  -1.357431e+05   1.071390e+05   1.589352e+05   3.763392e+09  -2.698500e+09   5.033305e+09   2.348731e+05   9.195002e-27   0.000000e+00   0.000000e+00
     3136000   3.135999e-05   3.805781e+01   3.992605e+00   4.600474e+01  -1.354389e+05   1.069243e+05   1.593388e+05   3.823963e+09  -2.697564e+09   5.060595e+09   2.348731e+05   9.338489e-27   0.000000e+00   0.000000e+00
     3144000   3.143999e-05   3.804698e+01   4.001150e+00   4.601750e+01  -1.351279e+05   1.067134e+05   1.597437e+05   3.974400e+09  -2.537961e+09   5.057397e+09   2.348731e+05   9.398478e-27   0.000000e+00   0.000000e+00
     3152000   3.151999e-05   3.803619e+01   4.009679e+00   4.603030e+01  -1.348056e+05   1.065140e+05   1.601485e+05   4.082576e+09  -2.445823e+09   5.063233e+09   2.348731e+05   9.491144e-27   0.000000e+00   0.000000e+00
     3160000   3.159999e-05   3.802541e+01   4.018193e+00   4.604313e+01  -1.344747e+05   1.063221e+05   1.605538e+05   4.190348e+09  -2.352757e+09   5.067750e+09   2.348731e+05   9.587610e-27   0.000000e+00   0.000000e+00
     3168000   3.167999e-05   3.801467e+01   4.026691e+00   4.605599e+01  -1.341352e+05   1.061376e+05   1.609593e+05   4.297703e+09  -2.258774e+09   5.070937e+09   2.348731e+05   9.687884e-27   0.000000e+00   0.000000e+00
     3176000   3.175999e-05   3.800395e+01   4.035175e+00   4.606888e+01  -1.337871e+05   1.059607e+05   1.613651e+05   4.404629e+09  -2.163886e+09   5.072782e+09   2.348731e+05   9.791975e-27   0.000000e+00   0.000000e+00
     3184000   3.183999e-05   3.799326e+01   4.043645e+00   4.608181e+01  -1.334272e+05   1.057960e+05   1.617707e+05   4.576859e+09  -1.976149e+09   5.067337e+09   2.348731e+05   9.932403e-27   0.000000e+00   0.000000e+00
     3192000   3.191999e-05   3.798261e+01   4.052102e+00   4.609477e+01  -1.330567e+05   1.056420e+05   1.621760e+05   4.685442e+09  -1.874353e+09   5.065116e+09   2.348731e+05   1.004862e-26   0.000000e+00   0.000000e+00
     3200000   3.199999e-05   3.797198e+01   4.060548e+00   4.610776e+01  -1.326798e+05   1.054918e+05   1.625820e+05   4.743844e+09  -1.865339e+09   5.081688e+09   2.348731e+05   1.018329e-26   0.000000e+00   0.000000e+00
     3208000   3.207999e-05   3.796138e+01   4.068981e+00   4.612078e+01  -1.322962e+05   1.053463e+05   1.629884e+05   4.847026e+09  -1.771233e+09   5.079112e+09   2.348731e+05   1.030540e-26   0.000000e+00   0.000000e+00
     3216000   3.215999e-05   3.795081e+01   4.077403e+00   4.613383e+01  -1.319043e+05   1.052084e+05   1.633946e+05   4.949759e+09  -1.676283e+09   5.075162e+09   2.348731e+05   1.043100e-26   0.000000e+00   0.000000e+00
     3224000   3.223999e-05   3.794027e+01   4.085815e+00   4.614692e+01  -1.315043e+05   1.050781e+05   1.638004e+05   5.052031e+09  -1.580499e+09   5.069828e+09   2.348731e+05   1.056011e-26   0.000000e+00   0.000000e+00
     3232000   3.231999e-05   3.792977e+01   4.094216e+00   4.616004e+01  -1.310960e+05   1.049556e+05   1.642057e+05   5.153830e+09  -1.483893e+09   5.063099e+09   2.348731e+05   1.069274e-26   0.000000e+00   0.000000e+00
     3240000   3.239999e-05   3.791930e+01   4.102608e+00   4.617319e+01  -1.306796e+05   1.048411e+05   1.646103e+05   5.257260e+09  -1.370472e+09   5.046459e+09   2.348731e+05   1.080769e-26   0.000000e+00   0.000000e+00
     3248000   3.247999e-05   3.790886e+01   4.110991e+00   4.618638e+01  -1.302550e+05   1.047354e+05   1.650136e+05   5.356926e+09  -1.272126e+09   5.035972e+09   2.348731e+05   1.094376e-26   0.000000e+00   0.000000e+00
     3256000   3.255999e-05   3.789846e+01   4.119366e+00   4.619960e+01  -1.298233e+05   1.046367e+05   1.654160e+05   5.392611e+09  -1.248687e+09   5.022160e+09   2.348731e+05   1.098024e-26   0.000000e+00   0.000000e+00
     3264000   3.263999e-05   3.788809e+01   4.127733e+00   4.621285e+01  -1.293817e+05   1.045481e+05   1.658175e+05   5.584656e+09  -1.038441e+09   5.012257e+09   2.348731e+05   1.128056e-26   0.000000e+00   0.000000e+00
     3272000   3.271999e-05   3.787776e+01   4.136094e+00   4.622613e+01  -1.289299e+05   1.044704e+05   1.662179e+05   5.709724e+09  -9.049636e+08   4.997637e+09   2.348731e+05   1.147847e-26   0.000000e+00   0.000000e+00
     3280000   3.279999e-05   3.786746e+01   4.144449e+00   4.623944e+01  -1.284681e+05   1.044034e+05   1.666170e+05   5.834010e+09  -7.707499e+08   4.981207e+09   2.348731e+05   1.168404e-26   0.000000e+00   0.000000e+00
     3288000   3.287999e-05   3.785720e+01   4.152799e+00   4.625279e+01  -1.279965e+05   1.043471e+05   1.670148e+05   5.957507e+09  -6.358241e+08   4.962954e+09   2.348731e+05   1.189730e-26   0.000000e+00   0.000000e+00
     3296000   3.295999e-05   3.784698e+01   4.161144e+00   4.626616e+01  -1.275150e+05   1.043017e+05   1.674111e+05   6.080207e+09  -5.002113e+08   4.942868e+09   2.348731e+05   1.211823e-26   0.000000e+00   0.000000e+00
     3304000   3.303999e-05   3.783680e+01   4.169487e+00   4.627957e+01  -1.270237e+05   1.042671e+05   1.678056e+05   6.202103e+09  -3.639368e+08   4.920938e+09   2.348731e+05   1.234685e-26   0.000000e+00   0.000000e+00
     3312000   3.311999e-05   3.782666e+01   4.177827e+00   4.629301e+01  -1.265226e+05   1.042434e+05   1.681984e+05   6.323187e+09  -2.270259e+08   4.897152e+09   2.348731e+05   1.258315e-26   0.000000e+00   0.000000e+00
     3320000   3.319999e-05   3.781656e+01   4.186166e+00   4.630648e+01  -1.260166e+05   1.042251e+05   1.685892e+05   6.315341e+09  -2.461437e+08   4.872751e+09   2.348731e+05   1.251859e-26   0.000000e+00   0.000000e+00
     3328000   3.327999e-05   3.780649e+01   4.194504e+00   4.631999e+01  -1.255077e+05   1.042095e+05   1.689779e+05   6.406905e+09  -1.425940e+08   4.846647e+09   2.348731e+05   1.268978e-26   0.000000e+00   0.000000e+00
     3336000   3.335999e-05   3.779647e+01   4.202840e+00   4.633352e+01  -1.249902e+05   1.042036e+05   1.693647e+05   6.549373e+09   1.267373e+07   4.825606e+09   2.348731e+05   1.300862e-26   0.000000e+00   0.000000e+00
     3344000   3.343999e-05   3.778650e+01   4.211176e+00   4.634708e+01  -1.244611e+05   1.042105e+05   1.697497e+05   6.677411e+09   1.587927e+08   4.798423e+09   2.348731e+05   1.329501e-26   0.000000e+00   0.000000e+00
     3352000   3.351999e-05   3.777656e+01   4.219514e+00   4.636068e+01  -1.239218e+05   1.042290e+05   1.701324e+05   6.804533e+09   3.053982e+08   4.769223e+09   2.348731e+05   1.359035e-26   0.000000e+00   0.000000e+00
     3360000   3.359999e-05   3.776667e+01   4.227853e+00   4.637431e+01  -1.233724e+05   1.042594e+05   1.705127e+05   6.930735e+09   4.524610e+08   4.737998e+09   2.348731e+05   1.389462e-26   0.000000e+00   0.000000e+00
     3368000   3.367999e-05   3.775682e+01   4.236196e+00   4.638796e+01  -1.228129e+05   1.043015e+05   1.708905e+05   7.056012e+09   5.999517e+08   4.704736e+09   2.348731e+05   1.420782e-26   0.000000e+00   0.000000e+00
     3376000   3.375999e-05   3.774702e+01   4.244542e+00   4.640165e+01  -1.222436e+05   1.043555e+05   1.712653e+05   7.169494e+09   7.575540e+08   4.655762e+09   2.348731e+05   1.447708e-26   0.000000e+00   0.000000e+00
     3384000   3.383999e-05   3.773726e+01   4.252893e+00   4.641536e+01  -1.216656e+05   1.044217e+05   1.716361e+05   7.279866e+09   8.974730e+08   4.614381e+09   2.348731e+05   1.476068e-26   0.000000e+00   0.000000e+00
     3392000   3.391999e-05   3.772755e+01   4.261250e+00   4.642911e+01  -1.210788e+05   1.044991e+05   1.720036e+05   7.389258e+09   1.037696e+09   4.571098e+09   2.348731e+05   1.505128e-26   0.000000e+00   0.000000e+00
     3400000   3.399999e-05   3.771789e+01   4.269613e+00   4.644288e+01  -1.204833e+05   1.045877e+05   1.723675e+05   7.497663e+09   1.178197e+09   4.525908e+09   2.348731e+05   1.534889e-26   0.000000e+00   0.000000e+00
     3408000   3.407999e-05   3.770828e+01   4.277984e+00   4.645669e+01  -1.198792e+05   1.046876e+05   1.727277e+05   7.605075e+09   1.318951e+09   4.478805e+09   2.348731e+05   1.565347e-26   0.000000e+00   0.000000e+00
     3416000   3.415999e-05   3.769871e+01   4.286363e+00   4.647052e+01  -1.192683e+05   1.047963e+05   1.730842e+05   7.544584e+09   1.233804e+09   4.451779e+09   2.348731e+05   1.538318e-26   0.000000e+00   0.000000e+00
     3424000   3.423999e-05   3.768919e+01   4.294751e+00   4.648438e+01  -1.186615e+05   1.048995e+05   1.734385e+05   7.627435e+09   1.344717e+09   4.405152e+09   2.348731e+05   1.560531e-26   0.000000e+00   0.000000e+00
     3432000   3.431999e-05   3.767972e+01   4.303148e+00   4.649827e+01  -1.180393e+05   1.050221e+05   1.737885e+05   8.004957e+09   1.815894e+09   4.339706e+09   2.348731e+05   1.694554e-26   0.000000e+00   0.000000e+00
     3440000   3.439999e-05   3.767031e+01   4.311555e+00   4.651219e+01  -1.174030e+05   1.051637e+05   1.741336e+05   7.985539e+09   1.817906e+09   4.286071e+09   2.348731e+05   1.679501e-26   0.000000e+00   0.000000e+00
     3448000   3.447999e-05   3.766094e+01   4.319974e+00   4.652613e+01  -1.167605e+05   1.053142e+05   1.744743e+05   8.076255e+09   1.946117e+09   4.230048e+09   2.348731e+05   1.708249e-26   0.000000e+00   0.000000e+00
     3456000   3.455999e-05   3.765163e+01   4.328406e+00   4.654010e+01  -1.161108e+05   1.054751e+05   1.748104e+05   8.166016e+09   2.074583e+09   4.172216e+09   2.348731e+05   1.737508e-26   0.000000e+00   0.000000e+00
     3464000   3.463999e-05   3.764236e+01   4.336850e+00   4.655410e+01  -1.154539e+05   1.056462e+05   1.751418e+05   8.254810e+09   2.203285e+09   4.112569e+09   2.348731e+05   1.767277e-26   0.000000e+00   0.000000e+00
     3472000   3.471999e-05   3.763315e+01   4.345309e+00   4.656813e+01  -1.147900e+05   1.058276e+05   1.754683e+05   8.342629e+09   2.332200e+09   4.051104e+09   2.348731e+05   1.797557e-26   0.000000e+00   0.000000e+00
     3480000   3.479999e-05   3.762400e+01   4.353783e+00   4.658218e+01  -1.141191e+05   1.060193e+05   1.757899e+05   8.429459e+09   2.461307e+09   3.987815e+09   2.348731e+05   1.828347e-26   0.000000e+00   0.000000e+00
     3488000   3.487999e-05   3.761489e+01   4.362273e+00   4.659625e+01  -1.134413e+05   1.062214e+05   1.761063e+05   8.515292e+09   2.590584e+09   3.922696e+09   2.348731e+05   1.859647e-26   0.000000e+00   0.000000e+00
     3496000   3.495999e-05   3.760585e+01   4.370779e+00   4.661035e+01  -1.127553e+05   1.064353e+05   1.764175e+05   8.629745e+09   2.749577e+09   3.856752e+09   2.348731e+05   1.904823e-26   0.000000e+00   0.000000e+00
     3504000   3.503999e-05   3.759685e+01   4.379303e+00   4.662448e+01  -1.120576e+05   1.066640e+05   1.767236e+05   8.851988e+09   3.005465e+09   3.798920e+09   2.348731e+05   2.001433e-26   0.000000e+00   0.000000e+00
     3512000   3.511999e-05   3.758792e+01   4.387846e+00   4.663863e+01  -1.113445e+05   1.069112e+05   1.770248e+05   8.976104e+09   3.173119e+09   3.729417e+09   2.348731e+05   2.055004e-26   0.000000e+00   0.000000e+00
     3520000   3.519999e-05   3.757904e+01   4.396409e+00   4.665280e+01  -1.106215e+05   1.071717e+05   1.773203e+05   9.099256e+09   3.340603e+09   3.657541e+09   2.348731e+05   2.109766e-26   0.000000e+00   0.000000e+00
     3528000   3.527999e-05   3.757022e+01   4.404993e+00   4.666700e+01  -1.098971e+05   1.074382e+05   1.776092e+05   9.030982e+09   3.339472e+09   3.567907e+09   2.348731e+05   2.072558e-26   0.000000e+00   0.000000e+00
     3536000   3.535999e-05   3.756146e+01   4.413599e+00   4.668122e+01  -1.091709e+05   1.077110e+05   1.778916e+05   9.123187e+09   3.481011e+09   3.491143e+09   2.348731e+05   2.113784e-26   0.000000e+00   0.000000e+00
     3544000   3.543999e-05   3.755275e+01   4.422227e+00   4.669546e+01  -1.084374e+05   1.079951e+05   1.781677e+05   9.214219e+09   3.622340e+09   3.412359e+09   2.348731e+05   2.155639e-26   0.000000e+00   0.000000e+00
     3552000   3.551999e-05   3.754411e+01   4.430879e+00   4.670973e+01  -1.076946e+05   1.082918e+05   1.784380e+05   9.339961e+09   3.783076e+09   3.341148e+09   2.348731e+05   2.215442e-26   0.000000e+00   0.000000e+00
     3560000   3.559999e-05   3.753552e+01   4.439554e+00   4.672401e+01  -1.069442e+05   1.085997e+05   1.787020e+05   9.419058e+09   3.913274e+09   3.258690e+09   2.348731e+05   2.253607e-26   0.000000e+00   0.000000e+00
     3568000   3.567999e-05   3.752699e+01   4.448255e+00   4.673832e+01  -1.061875e+05   1.089180e+05   1.789593e+05   9.497019e+09   4.043299e+09   3.174343e+09   2.348731e+05   2.292264e-26   0.000000e+00   0.000000e+00
     3576000   3.575999e-05   3.751853e+01   4.456982e+00   4.675265e+01  -1.054247e+05   1.092466e+05   1.792099e+05   9.573831e+09   4.173127e+09   3.088108e+09   2.348731e+05   2.331410e-26   0.000000e+00   0.000000e+00
     3584000   3.583999e-05   3.751013e+01   4.465735e+00   4.676699e+01  -1.046558e+05   1.095857e+05   1.794534e+05   9.649480e+09   4.302733e+09   2.999983e+09   2.348731e+05   2.371042e-26   0.000000e+00   0.000000e+00
     3592000   3.591999e-05   3.750179e+01   4.474516e+00   4.678136e+01  -1.038808e+05   1.099351e+05   1.796898e+05   9.723955e+09   4.432092e+09   2.909966e+09   2.348731e+05   2.411155e-26   0.000000e+00   0.000000e+00
     3600000   3.599999e-05   3.749351e+01   4.483325e+00   4.679574e+01  -1.030957e+05   1.103001e+05   1.799181e+05   9.863964e+09   4.644818e+09   2.804661e+09   2.348731e+05   2.491188e-26   0.000000e+00   0.000000e+00
     3608000   3.607999e-05   3.748529e+01   4.492164e+00   4.681014e+01  -1.023059e+05   1.106733e+05   1.801396e+05   9.893623e+09   4.707398e+09   2.726738e+09   2.348731e+05   2.505738e-26   0.000000e+00   0.000000e+00
     3616000   3.615999e-05   3.747714e+01   4.501033e+00   4.682456e+01  -1.015120e+05   1.110548e+05   1.803539e+05   9.951154e+09   4.845930e+09   2.617071e+09   2.348731e+05   2.542674e-26   0.000000e+00   0.000000e+00
     3624000   3.623999e-05   3.746905e+01   4.509933e+00   4.683900e+01  -1.007135e+05   1.114470e+05   1.805595e+05   1.001023e+10   4.958562e+09   2.522990e+09   2.348731e+05   2.578053e-26   0.000000e+00   0.000000e+00
     3632000   3.631999e-05   3.746102e+01   4.518865e+00   4.685345e+01  -9.991038e+04   1.118482e+05   1.807575e+05   1.006817e+10   5.071042e+09   2.427170e+09   2.348731e+05   2.613772e-26   0.000000e+00   0.000000e+00
     3640000   3.639999e-05   3.745306e+01   4.527829e+00   4.686792e+01  -9.910264e+04   1.122584e+05   1.809478e+05   1.012496e+10   5.183348e+09   2.329611e+09   2.348731e+05   2.649830e-26   0.000000e+00   0.000000e+00
     3648000   3.647999e-05   3.744517e+01   4.536826e+00   4.688241e+01  -9.829041e+04   1.126775e+05   1.811302e+05   1.018060e+10   5.295456e+09   2.230317e+09   2.348731e+05   2.686226e-26   0.000000e+00   0.000000e+00
     3656000   3.655999e-05   3.743734e+01   4.545857e+00   4.689690e+01  -9.747378e+04   1.131056e+05   1.813046e+05   1.023505e+10   5.407343e+09   2.129287e+09   2.348731e+05   2.722959e-26   0.000000e+00   0.000000e+00
     3664000   3.663999e-05   3.742957e+01   4.554923e+00   4.691141e+01  -9.665015e+04   1.135453e+05   1.814706e+05   1.033676e+10   5.567929e+09   2.021478e+09   2.348731e+05   2.789935e-26   0.000000e+00   0.000000e+00
     3672000   3.671999e-05   3.742187e+01   4.564025e+00   4.692594e+01  -9.582053e+04   1.139959e+05   1.816280e+05   1.040336e+10   5.696185e+09   1.913334e+09   2.348731e+05   2.837117e-26   0.000000e+00   0.000000e+00
     3680000   3.679999e-05   3.741424e+01   4.573163e+00   4.694047e+01  -9.498564e+04   1.144567e+05   1.817767e+05   1.046873e+10   5.824026e+09   1.803212e+09   2.348731e+05   2.884841e-26   0.000000e+00   0.000000e+00
     3688000   3.687999e-05   3.740667e+01   4.582338e+00   4.695502e+01  -9.414557e+04   1.149277e+05   1.819164e+05   1.053288e+10   5.951425e+09   1.691113e+09   2.348731e+05   2.933108e-26   0.000000e+00   0.000000e+00
     3696000   3.695999e-05   3.739918e+01   4.591552e+00   4.696958e+01  -9.329988e+04   1.154092e+05   1.820473e+05   1.065723e+10   6.103766e+09   1.592386e+09   2.348731e+05   3.014632e-26   0.000000e+00   0.000000e+00
     3704000   3.703999e-05   3.739175e+01   4.600804e+00   4.698415e+01  -9.244460e+04   1.159028e+05   1.821700e+05   1.070384e+10   6.244839e+09   1.458636e+09   2.348731e+05   3.060422e-26   0.000000e+00   0.000000e+00
     3712000   3.711999e-05   3.738439e+01   4.610096e+00   4.699873e+01  -9.158543e+04   1.164077e+05   1.822820e+05   1.077504e+10   6.378781e+09   1.340225e+09   2.348731e+05   3.117202e-26   0.000000e+00   0.000000e+00
     3720000   3.719999e-05   3.737709e+01   4.619429e+00   4.701331e+01  -9.072911e+04   1.169149e+05   1.823856e+05   1.073042e+10   6.396498e+09   1.237583e+09   2.348731e+05   3.097590e-26   0.000000e+00   0.000000e+00
     3728000   3.727999e-05   3.736987e+01   4.628803e+00   4.702791e+01  -8.986778e+04   1.174320e+05   1.824798e+05   1.080258e+10   6.529441e+09   1.118153e+09   2.348731e+05   3.156378e-26   0.000000e+00   0.000000e+00
     3736000   3.735999e-05   3.736271e+01   4.638219e+00   4.704251e+01  -8.900073e+04   1.179596e+05   1.825644e+05   1.087340e+10   6.661549e+09   9.966287e+08   2.348731e+05   3.215756e-26   0.000000e+00   0.000000e+00
     3744000   3.743999e-05   3.735563e+01   4.647677e+00   4.705712e+01  -8.812807e+04   1.184978e+05   1.826392e+05   1.094289e+10   6.792792e+09   8.730138e+08   2.348731e+05   3.275719e-26   0.000000e+00   0.000000e+00
     3752000   3.751999e-05   3.734861e+01   4.657179e+00   4.707173e+01  -8.724990e+04   1.190464e+05   1.827041e+05   1.101102e+10   6.923143e+09   7.473119e+08   2.348731e+05   3.336259e-26   0.000000e+00   0.000000e+00
     3760000   3.759999e-05   3.734167e+01   4.666725e+00   4.708635e+01  -8.636634e+04   1.196055e+05   1.827587e+05   1.107779e+10   7.052572e+09   6.195271e+08   2.348731e+05   3.397372e-26   0.000000e+00   0.000000e+00
     3768000   3.767999e-05   3.733480e+01   4.676316e+00   4.710097e+01  -8.547758e+04   1.201749e+05   1.828030e+05   1.112530e+10   7.190768e+09   4.749143e+08   2.348731e+05   3.453685e-26   0.000000e+00   0.000000e+00
     3776000   3.775999e-05   3.732799e+01   4.685953e+00   4.711560e+01  -8.458512e+04   1.207551e+05   1.828358e+05   1.118613e+10   7.314408e+09   3.441897e+08   2.348731e+05   3.513511e-26   0.000000e+00   0.000000e+00
     3784000   3.783999e-05   3.732126e+01   4.695637e+00   4.713023e+01  -8.368784e+04   1.213451e+05   1.828581e+05   1.124561e+10   7.437178e+09   2.114077e+08   2.348731e+05   3.573887e-26   0.000000e+00   0.000000e+00
     3792000   3.791999e-05   3.731460e+01   4.705368e+00   4.714486e+01  -8.278313e+04   1.219470e+05   1.828695e+05   1.137218e+10   7.607864e+09   7.475463e+07   2.348731e+05   3.679859e-26   0.000000e+00   0.000000e+00
     3800000   3.799999e-05   3.730802e+01   4.715149e+00   4.715949e+01  -8.187011e+04   1.225611e+05   1.828700e+05   1.145307e+10   7.745045e+09  -6.329606e+07   2.348731e+05   3.757521e-26   0.000000e+00   0.000000e+00
     3808000   3.807999e-05   3.730150e+01   4.724978e+00   4.717412e+01  -8.095066e+04   1.231861e+05   1.828593e+05   1.153292e+10   7.881108e+09  -2.036731e+08   2.348731e+05   3.836127e-26   0.000000e+00   0.000000e+00
     3816000   3.815999e-05   3.729507e+01   4.734858e+00   4.718874e+01  -8.003508e+04   1.238149e+05   1.828377e+05   1.143655e+10   7.893567e+09  -3.391764e+08   2.348731e+05   3.797925e-26   0.000000e+00   0.000000e+00
     3824000   3.823999e-05   3.728870e+01   4.744789e+00   4.720337e+01  -7.911400e+04   1.244537e+05   1.828049e+05   1.170766e+10   8.152396e+09  -4.833216e+08   2.348731e+05   4.005228e-26   0.000000e+00   0.000000e+00
     3832000   3.831999e-05   3.728241e+01   4.754772e+00   4.721799e+01  -7.817490e+04   1.251108e+05   1.827604e+05   1.176956e+10   8.275089e+09  -6.304262e+08   2.348731e+05   4.076628e-26   0.000000e+00   0.000000e+00
     3840000   3.839999e-05   3.727619e+01   4.764807e+00   4.723261e+01  -7.723090e+04   1.257777e+05   1.827040e+05   1.183036e+10   8.396686e+09  -7.796456e+08   2.348731e+05   4.148817e-26   0.000000e+00   0.000000e+00
     3848000   3.847999e-05   3.727005e+01   4.774896e+00   4.724722e+01  -7.628207e+04   1.264542e+05   1.826355e+05   1.189006e+10   8.517153e+09  -9.309767e+08   2.348731e+05   4.221792e-26   0.000000e+00   0.000000e+00
     3856000   3.855999e-05   3.726399e+01   4.785040e+00   4.726183e+01  -7.532852e+04   1.271404e+05   1.825549e+05   1.194866e+10   8.636457e+09  -1.084416e+09   2.348731e+05   4.295554e-26   0.000000e+00   0.000000e+00
     3864000   3.863999e-05   3.725800e+01   4.795239e+00   4.727643e+01  -7.437032e+04   1.278360e+05   1.824620e+05   1.200614e+10   8.754563e+09  -1.239961e+09   2.348731e+05   4.370102e-26   0.000000e+00   0.000000e+00
     3872000   3.871999e-05   3.725209e+01   4.805494e+00   4.729103e+01  -7.341706e+04   1.285365e+05   1.823559e+05   1.183718e+10   8.763098e+09  -1.411112e+09   2.348731e+05   4.302774e-26   0.000000e+00   0.000000e+00
     3880000   3.879999e-05   3.724625e+01   4.815805e+00   4.730561e+01  -7.246647e+04   1.292428e+05   1.822369e+05   1.194402e+10   8.903473e+09  -1.564814e+09   2.348731e+05   4.410453e-26   0.000000e+00   0.000000e+00
     3888000   3.887999e-05   3.724049e+01   4.826173e+00   4.732018e+01  -7.150887e+04   1.299599e+05   1.821051e+05   1.199560e+10   9.023461e+09  -1.729189e+09   2.348731e+05   4.487648e-26   0.000000e+00   0.000000e+00
     3896000   3.895999e-05   3.723481e+01   4.836599e+00   4.733475e+01  -7.054721e+04   1.306866e+05   1.819601e+05   1.204568e+10   9.142024e+09  -1.895736e+09   2.348731e+05   4.565513e-26   0.000000e+00   0.000000e+00
     3904000   3.903999e-05   3.722920e+01   4.847083e+00   4.734930e+01  -6.958160e+04   1.314226e+05   1.818017e+05   1.209423e+10   9.259127e+09  -2.064447e+09   2.348731e+05   4.644041e-26   0.000000e+00   0.000000e+00
     3912000   3.911999e-05   3.722368e+01   4.857627e+00   4.736383e+01  -6.861217e+04   1.321680e+05   1.816298e+05   1.214125e+10   9.374737e+09  -2.235315e+09   2.348731e+05   4.723227e-26   0.000000e+00   0.000000e+00
     3920000   3.919999e-05   3.721823e+01   4.868230e+00   4.737836e+01  -6.763904e+04   1.329225e+05   1.814440e+05   1.218673e+10   9.488818e+09  -2.408329e+09   2.348731e+05   4.803062e-26   0.000000e+00   0.000000e+00
     3928000   3.927999e-05   3.721285e+01   4.878895e+00   4.739286e+01  -6.666234e+04   1.336861e+05   1.812444e+05   1.223063e+10   9.601339e+09  -2.583480e+09   2.348731e+05   4.883541e-26   0.000000e+00   0.000000e+00
     3936000   3.935999e-05   3.720756e+01   4.889620e+00   4.740736e+01  -6.568498e+04   1.344569e+05   1.810309e+05   1.220003e+10   9.666021e+09  -2.752583e+09   2.348731e+05   4.911081e-26   0.000000e+00   0.000000e+00
     3944000   3.943999e-05   3.720235e+01   4.900408e+00   4.742183e+01  -6.470798e+04   1.352342e+05   1.808037e+05   1.223069e+10   9.768260e+09  -2.929013e+09   2.348731e+05   4.984566e-26   0.000000e+00   0.000000e+00
     3952000   3.951999e-05   3.719721e+01   4.911258e+00   4.743628e+01  -6.372824e+04   1.360199e+05   1.805621e+05   1.225973e+10   9.873476e+09  -3.110814e+09   2.348731e+05   5.060751e-26   0.000000e+00   0.000000e+00
     3960000   3.959999e-05   3.719215e+01   4.922171e+00   4.745072e+01  -6.274674e+04   1.368136e+05   1.803060e+05   1.227732e+10   9.970891e+09  -3.293233e+09   2.348731e+05   5.130194e-26   0.000000e+00   0.000000e+00
     3968000   3.967999e-05   3.718717e+01   4.933148e+00   4.746513e+01  -6.176391e+04   1.376152e+05   1.800352e+05   1.229308e+10   1.006679e+10  -3.477498e+09   2.348731e+05   5.200104e-26   0.000000e+00   0.000000e+00
     3976000   3.975999e-05   3.718227e+01   4.944190e+00   4.747952e+01  -6.077990e+04   1.384243e+05   1.797495e+05   1.230701e+10   1.016115e+10  -3.663593e+09   2.348731e+05   5.270475e-26   0.000000e+00   0.000000e+00
     3984000   3.983999e-05   3.717744e+01   4.955296e+00   4.749389e+01  -5.979484e+04   1.392409e+05   1.794489e+05   1.231906e+10   1.025394e+10  -3.851503e+09   2.348731e+05   5.341302e-26   0.000000e+00   0.000000e+00
     3992000   3.991999e-05   3.717270e+01   4.966469e+00   4.750824e+01  -5.881023e+04   1.400629e+05   1.791344e+05   1.229809e+10   1.029884e+10  -4.015022e+09   2.348731e+05   5.374580e-26   0.000000e+00   0.000000e+00
     4000000   3.999999e-05   3.716803e+01   4.977707e+00   4.752255e+01  -5.782633e+04   1.408900e+05   1.788058e+05   1.229911e+10   1.037869e+10  -4.200306e+09   2.348731e+05   5.437447e-26   0.000000e+00   0.000000e+00
     4008000   4.007999e-05   3.716345e+01   4.989011e+00   4.753684e+01  -5.684242e+04   1.417234e+05   1.784623e+05   1.229825e+10   1.045695e+10  -4.387086e+09   2.348731e+05   5.500607e-26   0.000000e+00   0.000000e+00
     4016000   4.015999e-05   3.715894e+01   5.000383e+00   4.755111e+01  -5.585866e+04   1.425631e+05   1.781037e+05   1.229576e+10   1.054719e+10  -4.586161e+09   2.348731e+05   5.571777e-26   0.000000e+00   0.000000e+00
     4024000   4.023999e-05   3.715451e+01   5.011821e+00   4.756534e+01  -5.487412e+04   1.434105e+05   1.777291e+05   1.231755e+10   1.063622e+10  -4.779335e+09   2.348731e+05   5.654947e-26   0.000000e+00   0.000000e+00
     4032000   4.031999e-05   3.715016e+01   5.023328e+00   4.757954e+01  -5.388790e+04   1.442648e+05   1.773390e+05   1.233758e+10   1.072336e+10  -4.974401e+09   2.348731e+05   5.738640e-26   0.000000e+00   0.000000e+00
     4040000   4.039999e-05   3.714589e+01   5.034904e+00   4.759371e+01  -5.290015e+04   1.451261e+05   1.769332e+05   1.235583e+10   1.080860e+10  -5.171343e+09   2.348731e+05   5.822848e-26   0.000000e+00   0.000000e+00
     4048000   4.047999e-05   3.714170e+01   5.046549e+00   4.760785e+01  -5.191029e+04   1.459940e+05   1.765119e+05   1.238561e+10   1.088769e+10  -5.362782e+09   2.348731e+05   5.910704e-26   0.000000e+00   0.000000e+00
     4056000   4.055999e-05   3.713758e+01   5.058263e+00   4.762196e+01  -5.091927e+04   1.468682e+05   1.760748e+05   1.238953e+10   1.096558e+10  -5.563695e+09   2.348731e+05   5.989219e-26   0.000000e+00   0.000000e+00
     4064000   4.063999e-05   3.713355e+01   5.070048e+00   4.763602e+01  -4.992802e+04   1.477485e+05   1.756216e+05   1.239153e+10   1.104155e+10  -5.766289e+09   2.348731e+05   6.068177e-26   0.000000e+00   0.000000e+00
     4072000   4.071999e-05   3.712959e+01   5.081903e+00   4.765005e+01  -4.893668e+04   1.486348e+05   1.751522e+05   1.239161e+10   1.111557e+10  -5.970541e+09   2.348731e+05   6.147571e-26   0.000000e+00   0.000000e+00
     4080000   4.079999e-05   3.712572e+01   5.093830e+00   4.766405e+01  -4.794541e+04   1.495269e+05   1.746663e+05   1.238973e+10   1.118761e+10  -6.176432e+09   2.348731e+05   6.227395e-26   0.000000e+00   0.000000e+00
     4088000   4.087999e-05   3.712192e+01   5.105828e+00   4.767800e+01  -4.695387e+04   1.504251e+05   1.741637e+05   1.240340e+10   1.126988e+10  -6.389870e+09   2.348731e+05   6.323096e-26   0.000000e+00   0.000000e+00
     4096000   4.095999e-05   3.711821e+01   5.117898e+00   4.769191e+01  -4.596107e+04   1.513297e+05   1.736441e+05   1.241628e+10   1.134458e+10  -6.600303e+09   2.348731e+05   6.416315e-26   0.000000e+00   0.000000e+00
     4104000   4.103999e-05   3.711457e+01   5.130041e+00   4.770578e+01  -4.496810e+04   1.522398e+05   1.731078e+05   1.239959e+10   1.140124e+10  -6.805775e+09   2.348731e+05   6.487653e-26   0.000000e+00   0.000000e+00
     4112000   4.111999e-05   3.711101e+01   5.142256e+00   4.771961e+01  -4.397658e+04   1.531543e+05   1.725549e+05   1.238816e+10   1.146332e+10  -7.017274e+09   2.348731e+05   6.567452e-26   0.000000e+00   0.000000e+00
     4120000   4.119999e-05   3.710753e+01   5.154545e+00   4.773339e+01  -4.298605e+04   1.540738e+05   1.719850e+05   1.237470e+10   1.152327e+10  -7.230231e+09   2.348731e+05   6.647622e-26   0.000000e+00   0.000000e+00
     4128000   4.127999e-05   3.710413e+01   5.166908e+00   4.774713e+01  -4.199668e+04   1.549980e+05   1.713980e+05   1.235917e+10   1.158105e+10  -7.444620e+09   2.348731e+05   6.728156e-26   0.000000e+00   0.000000e+00
     4136000   4.135999e-05   3.710081e+01   5.179345e+00   4.776081e+01  -4.100864e+04   1.559267e+05   1.707938e+05   1.234155e+10   1.163665e+10  -7.660415e+09   2.348731e+05   6.809048e-26   0.000000e+00   0.000000e+00
     4144000   4.143999e-05   3.709757e+01   5.191857e+00   4.777445e+01  -4.002269e+04   1.568600e+05   1.701720e+05   1.231153e+10   1.169273e+10  -7.882481e+09   2.348731e+05   6.888059e-26   0.000000e+00   0.000000e+00
     4152000   4.151999e-05   3.709441e+01   5.204443e+00   4.778804e+01  -3.903802e+04   1.577976e+05   1.695326e+05   1.230919e+10   1.174978e+10  -8.102027e+09   2.348731e+05   6.982198e-26   0.000000e+00   0.000000e+00
     4160000   4.159999e-05   3.709133e+01   5.217104e+00   4.780158e+01  -3.805435e+04   1.587396e+05   1.688757e+05   1.231848e+10   1.180064e+10  -8.316490e+09   2.348731e+05   7.079449e-26   0.000000e+00   0.000000e+00
     4168000   4.167999e-05   3.708832e+01   5.229841e+00   4.781506e+01  -3.707029e+04   1.596854e+05   1.682015e+05   1.228254e+10   1.184458e+10  -8.537884e+09   2.348731e+05   7.155837e-26   0.000000e+00   0.000000e+00
     4176000   4.175999e-05   3.708539e+01   5.242654e+00   4.782849e+01  -3.608920e+04   1.606346e+05   1.675096e+05   1.224424e+10   1.188628e+10  -8.760452e+09   2.348731e+05   7.232505e-26   0.000000e+00   0.000000e+00
     4184000   4.183999e-05   3.708255e+01   5.255543e+00   4.784186e+01  -3.511128e+04   1.615871e+05   1.667998e+05   1.220356e+10   1.192572e+10  -8.984164e+09   2.348731e+05   7.309444e-26   0.000000e+00   0.000000e+00
     4192000   4.191999e-05   3.707978e+01   5.268508e+00   4.785518e+01  -3.413670e+04   1.625427e+05   1.660721e+05   1.216047e+10   1.196287e+10  -9.208985e+09   2.348731e+05   7.386650e-26   0.000000e+00   0.000000e+00
     4200000   4.199999e-05   3.707708e+01   5.281550e+00   4.786843e+01  -3.316567e+04   1.635011e+05   1.653263e+05   1.211494e+10   1.199770e+10  -9.434880e+09   2.348731e+05   7.464113e-26   0.000000e+00   0.000000e+00
     4208000   4.207999e-05   3.707447e+01   5.294668e+00   4.788163e+01  -3.219837e+04   1.644623e+05   1.645625e+05   1.206695e+10   1.203019e+10  -9.661815e+09   2.348731e+05   7.541828e-26   0.000000e+00   0.000000e+00
     4216000   4.215999e-05   3.707193e+01   5.307864e+00   4.789476e+01  -3.124001e+04   1.654252e+05   1.637802e+05   1.191526e+10   1.204617e+10  -9.894372e+09   2.348731e+05   7.567276e-26   0.000000e+00   0.000000e+00
     4224000   4.223999e-05   3.706947e+01   5.321136e+00   4.790783e+01  -3.028633e+04   1.663903e+05   1.629798e+05   1.192268e+10   1.208036e+10  -1.011755e+10   2.348731e+05   7.674757e-26   0.000000e+00   0.000000e+00
     4232000   4.231999e-05   3.706709e+01   5.334486e+00   4.792084e+01  -2.933357e+04   1.673579e+05   1.621612e+05   1.189589e+10   1.211011e+10  -1.034631e+10   2.348731e+05   7.768383e-26   0.000000e+00   0.000000e+00
     4240000   4.239999e-05   3.706478e+01   5.347914e+00   4.793378e+01  -2.838305e+04   1.683278e+05   1.613243e+05   1.186674e+10   1.213725e+10  -1.057632e+10   2.348731e+05   7.862293e-26   0.000000e+00   0.000000e+00
     4248000   4.247999e-05   3.706255e+01   5.361419e+00   4.794665e+01  -2.743496e+04   1.692998e+05   1.604690e+05   1.183518e+10   1.216173e+10  -1.080755e+10   2.348731e+05   7.956477e-26   0.000000e+00   0.000000e+00
     4256000   4.255999e-05   3.706039e+01   5.375002e+00   4.795945e+01  -2.648949e+04   1.702736e+05   1.595951e+05   1.180120e+10   1.218354e+10  -1.103996e+10   2.348731e+05   8.050925e-26   0.000000e+00   0.000000e+00
     4264000   4.263999e-05   3.705831e+01   5.388663e+00   4.797219e+01  -2.554683e+04   1.712491e+05   1.587025e+05   1.176474e+10   1.220263e+10  -1.127350e+10   2.348731e+05   8.145625e-26   0.000000e+00   0.000000e+00
     4272000   4.271999e-05   3.705630e+01   5.402402e+00   4.798484e+01  -2.460717e+04   1.722262e+05   1.577910e+05   1.172793e+10   1.223910e+10  -1.152980e+10   2.348731e+05   8.261024e-26   0.000000e+00   0.000000e+00
     4280000   4.279999e-05   3.705437e+01   5.416219e+00   4.799743e+01  -2.367053e+04   1.732061e+05   1.568590e+05   1.168755e+10   1.225687e+10  -1.177050e+10   2.348731e+05   8.361235e-26   0.000000e+00   0.000000e+00
     4288000   4.287999e-05   3.705251e+01   5.430115e+00   4.800994e+01  -2.273870e+04   1.741870e+05   1.559078e+05   1.161791e+10   1.226737e+10  -1.201117e+10   2.348731e+05   8.446900e-26   0.000000e+00   0.000000e+00
