     timestep     time              x             y              z              vx             vy             vz             ax             ay             az         v_magnitude      ELoss        Electronic      Nuclear
           0   0.000000e+00   1.000000e-01   1.524173e+01   1.956487e+00  -6.956120e+03   6.253596e+04  -1.333288e+05   0.000000e+00   0.000000e+00   0.000000e+00   1.474304e+05   0.000000e+00   0.000000e+00   0.000000e+00
        8000   7.999000e-08   9.713892e-02   1.524341e+01   1.945435e+00  -3.390478e+04  -2.948184e+04  -1.404228e+05   8.454465e+11  -1.107730e+12   2.829900e+10   1.474357e+05   1.504640e-22   0.000000e+00   0.000000e+00
       16000   1.599900e-07   9.826423e-02   1.523985e+01   1.934514e+00   6.133239e+04  -2.801455e+04  -1.311196e+05   7.984159e+11   1.125156e+12   1.329229e+11   1.474409e+05   1.488068e-22   0.000000e+00   0.000000e+00
       24000   2.399900e-07   1.031969e-01   1.524161e+01   1.924222e+00   3.238577e+04   6.241365e+04  -1.295995e+05  -1.290873e+12   4.452777e+11  -1.082817e+11   1.474461e+05   1.453496e-22   0.000000e+00   0.000000e+00
       32000   3.199900e-07   1.019936e-01   1.524551e+01   1.913415e+00  -4.500022e+04   9.574772e+03  -1.400898e+05  -5.952197e+10  -1.358137e+12  -7.383754e+10   1.474511e+05   1.435918e-22   0.000000e+00   0.000000e+00
       40000   3.999900e-07   1.004898e-01   1.524293e+01   1.902252e+00   2.677836e+04  -5.065359e+04  -1.358692e+05   1.311214e+12   2.984002e+11   1.470445e+11   1.474561e+05   1.417743e-22   0.000000e+00   0.000000e+00
       48000   4.799900e-07   1.052751e-01   1.524176e+01   1.891795e+00   6.548014e+04   3.401437e+04  -1.276720e+05  -6.231024e+11   1.187555e+12  -3.327845e+09   1.474611e+05   1.393518e-22   0.000000e+00   0.000000e+00
       56000   5.599900e-07   1.070833e-01   1.524631e+01   1.881318e+00  -2.524603e+04   5.032023e+04  -1.362964e+05  -9.769536e+11  -8.921329e+11  -1.485429e+11   1.474659e+05   1.373344e-22   0.000000e+00   0.000000e+00
       64000   6.399900e-07   1.041734e-01   1.524657e+01   1.870127e+00  -1.824365e+04  -4.148817e+04  -1.403335e+05   1.094300e+12  -7.367789e+11   7.543552e+10   1.474707e+05   1.352992e-22   0.000000e+00   0.000000e+00
       72000   7.199900e-07   1.065475e-01   1.524326e+01   1.859298e+00   6.856886e+04  -1.365744e+04  -1.298490e+05   4.571210e+11   1.226112e+12   1.122955e+11   1.474754e+05   1.336726e-22   0.000000e+00   0.000000e+00
       80000   7.999900e-07   1.111584e-01   1.524589e+01   1.849013e+00   2.220746e+04   6.462724e+04  -1.306924e+05  -1.280303e+12   1.799405e+11  -1.286999e+11   1.474800e+05   1.308285e-22   0.000000e+00   0.000000e+00
       88000   8.799900e-07   1.095463e-01   1.524941e+01   1.838102e+00  -4.296037e+04   2.806920e+03  -1.410611e+05   1.044495e+11  -1.285645e+12  -5.751101e+10   1.474846e+05   1.292078e-22   0.000000e+00   0.000000e+00
       96000   9.599900e-07   1.084281e-01   1.524666e+01   1.826908e+00   3.075090e+04  -4.842904e+04  -1.358750e+05   1.223881e+12   3.538459e+11   1.507456e+11   1.474890e+05   1.275657e-22   0.000000e+00   0.000000e+00
      104000   1.039990e-06   1.133091e-01   1.524563e+01   1.816453e+00   6.588240e+04   3.349876e+04  -1.276388e+05  -5.785632e+11   1.131008e+12  -1.926489e+09   1.474935e+05   1.251012e-22   0.000000e+00   0.000000e+00
      112000   1.119990e-06   1.153674e-01   1.525016e+01   1.805985e+00  -2.013324e+04   5.293205e+04  -1.361927e+05  -9.861156e+11  -7.698535e+11  -1.535479e+11   1.474978e+05   1.231515e-22   0.000000e+00   0.000000e+00
      120000   1.199990e-06   1.125640e-01   1.525091e+01   1.794763e+00  -2.304626e+04  -3.507044e+04  -1.414065e+05   9.265928e+11  -8.396809e+11   5.712478e+10   1.475021e+05   1.214707e-22   0.000000e+00   0.000000e+00
      128000   1.279990e-06   1.143275e-01   1.524750e+01   1.783821e+00   6.343517e+04  -2.362308e+04  -1.310574e+05   6.656026e+11   1.043336e+12   1.339895e+11   1.475063e+05   1.201310e-22   0.000000e+00   0.000000e+00
      136000   1.359990e-06   1.194058e-01   1.524926e+01   1.773542e+00   3.846138e+04   5.984454e+04  -1.292234e+05  -1.119026e+12   4.999900e+11  -1.016282e+11   1.475105e+05   1.172697e-22   0.000000e+00   0.000000e+00
      144000   1.439990e-06   1.189361e-01   1.525351e+01   1.762758e+00  -3.890414e+04   2.299464e+04  -1.404217e+05  -3.160388e+11  -1.175944e+12  -1.051128e+11   1.475145e+05   1.158212e-22   0.000000e+00   0.000000e+00
      152000   1.519990e-06   1.168787e-01   1.525192e+01   1.751449e+00   8.668907e+03  -4.859771e+04  -1.390138e+05   1.196095e+12  -1.595827e+11   1.302709e+11   1.475186e+05   1.142228e-22   0.000000e+00   0.000000e+00
      160000   1.599990e-06   1.207973e-01   1.524951e+01   1.740792e+00   7.255074e+04   7.441102e+03  -1.282338e+05   3.250613e+09   1.202090e+12   7.148041e+10   1.475225e+05   1.124504e-22   0.000000e+00   0.000000e+00
      168000   1.679990e-06   1.247517e-01   1.525312e+01   1.730489e+00   9.831747e+03   6.420542e+04  -1.324577e+05  -1.173800e+12  -1.324120e+11  -1.514163e+11   1.475264e+05   1.099842e-22   0.000000e+00   0.000000e+00
      176000   1.759990e-06   1.228130e-01   1.525609e+01   1.719428e+00  -3.809835e+04  -4.288792e+03  -1.424615e+05   2.673602e+11  -1.151916e+12  -3.691980e+10   1.475302e+05   1.085545e-22   0.000000e+00   0.000000e+00
      184000   1.839990e-06   1.222066e-01   1.525325e+01   1.708178e+00   3.463660e+04  -4.528173e+04  -1.360741e+05   1.104843e+12   3.714023e+11   1.575349e+11   1.475340e+05   1.072941e-22   0.000000e+00   0.000000e+00
      192000   1.919990e-06   1.271898e-01   1.525228e+01   1.697726e+00   6.798113e+04   3.057573e+04  -1.273227e+05  -4.641730e+11   1.064744e+12   7.750639e+09   1.475377e+05   1.046443e-22   0.000000e+00   0.000000e+00
      200000   1.999990e-06   1.298416e-01   1.525671e+01   1.687308e+00  -9.164473e+03   5.762872e+04  -1.355116e+05  -1.000675e+12  -5.433378e+11  -1.634874e+11   1.475413e+05   1.026401e-22   0.000000e+00   0.000000e+00
      208000   2.079990e-06   1.274098e-01   1.525839e+01   1.676063e+00  -2.903809e+04  -2.129791e+04  -1.430828e+05   6.155507e+11  -9.618855e+11   1.816210e+10   1.475449e+05   1.011839e-22   0.000000e+00   0.000000e+00
      216000   2.159990e-06   1.281001e-01   1.525517e+01   1.664908e+00   5.034215e+04  -3.644855e+04  -1.338197e+05   9.071706e+11   6.648288e+11   1.600958e+11   1.475484e+05   1.001128e-22   0.000000e+00   0.000000e+00
      224000   2.239990e-06   1.334360e-01   1.525534e+01   1.654571e+00   6.058747e+04   4.344255e+04  -1.273321e+05  -7.022720e+11   8.733500e+11  -3.629015e+10   1.475519e+05   9.753109e-23   0.000000e+00   0.000000e+00
      232000   2.319990e-06   1.351932e-01   1.525998e+01   1.644046e+00  -1.825864e+04   5.026311e+04  -1.375238e+05  -8.186888e+11  -7.348874e+11  -1.599865e+11   1.475552e+05   9.588007e-23   0.000000e+00   0.000000e+00
      240000   2.399990e-06   1.327425e-01   1.526087e+01   1.632701e+00  -2.099034e+04  -2.888778e+04  -1.431727e+05   7.601882e+11  -7.983988e+11   4.955680e+10   1.475586e+05   9.447832e-23   0.000000e+00   0.000000e+00
      248000   2.479990e-06   1.341947e-01   1.525764e+01   1.621610e+00   5.734431e+04  -2.998821e+04  -1.326154e+05   7.656422e+11   7.707538e+11   1.566911e+11   1.475619e+05   9.347699e-23   0.000000e+00   0.000000e+00
      256000   2.559990e-06   1.396131e-01   1.525838e+01   1.611328e+00   5.672671e+04   4.825289e+04  -1.273938e+05  -7.702324e+11   7.580965e+11  -5.592200e+10   1.475651e+05   9.086441e-23   0.000000e+00   0.000000e+00
      264000   2.639990e-06   1.410621e-01   1.526305e+01   1.600755e+00  -1.991669e+04   4.726422e+04  -1.383683e+05  -7.297451e+11  -7.708609e+11  -1.583567e+11   1.475682e+05   8.937335e-23   0.000000e+00   0.000000e+00
      272000   2.719990e-06   1.387169e-01   1.526375e+01   1.589361e+00  -1.794598e+04  -2.947664e+04  -1.434795e+05   7.629275e+11  -7.389240e+11   5.630215e+10   1.475713e+05   8.777907e-23   0.000000e+00   0.000000e+00
      280000   2.799990e-06   1.403306e-01   1.526059e+01   1.578260e+00   5.787092e+04  -2.889366e+04  -1.326435e+05   7.346321e+11   7.444163e+11   1.582718e+11   1.475744e+05   8.682463e-23   0.000000e+00   0.000000e+00
      288000   2.879990e-06   1.457898e-01   1.526130e+01   1.567984e+00   5.844837e+04   4.685160e+04  -1.271526e+05  -7.159624e+11   7.559585e+11  -5.064651e+10   1.475774e+05   8.432566e-23   0.000000e+00   0.000000e+00
      296000   2.959990e-06   1.475220e-01   1.526598e+01   1.557442e+00  -1.564456e+04   4.996237e+04  -1.379817e+05  -7.535378e+11  -6.878667e+11  -1.637127e+11   1.475803e+05   8.286526e-23   0.000000e+00   0.000000e+00
      304000   3.039990e-06   1.453005e-01   1.526706e+01   1.546043e+00  -2.033309e+04  -2.419818e+04  -1.441589e+05   6.550505e+11  -7.883812e+11   3.987034e+10   1.475831e+05   8.166124e-23   0.000000e+00   0.000000e+00
      312000   3.119990e-06   1.465106e-01   1.526400e+01   1.534852e+00   5.263888e+04  -3.308598e+04  -1.338510e+05   8.047123e+11   6.048591e+11   1.668750e+11   1.475860e+05   8.081363e-23   0.000000e+00   0.000000e+00
      320000   3.199990e-06   1.519721e-01   1.526411e+01   1.524541e+00   6.515352e+04   3.914736e+04  -1.265107e+05  -5.466629e+11   8.439637e+11  -2.045819e+10   1.475888e+05   7.850938e-23   0.000000e+00   0.000000e+00
      328000   3.279990e-06   1.545641e-01   1.526868e+01   1.514120e+00  -4.584458e+03   5.683135e+04  -1.361338e+05  -8.532529e+11  -4.823777e+11  -1.727152e+11   1.475915e+05   7.688409e-23   0.000000e+00   0.000000e+00
      336000   3.359990e-06   1.526392e-01   1.527072e+01   1.502787e+00  -2.590891e+04  -1.158146e+04  -1.448400e+05   4.185327e+11  -8.953224e+11  -3.344048e+09   1.475941e+05   7.581758e-23   0.000000e+00   0.000000e+00
      344000   3.439990e-06   1.529215e-01   1.526801e+01   1.491434e+00   3.974670e+04  -3.932497e+04  -1.365963e+05   9.099538e+11   3.271264e+11   1.705301e+11   1.475968e+05   7.483638e-23   0.000000e+00   0.000000e+00
      352000   3.519990e-06   1.580534e-01   1.526702e+01   1.480990e+00   7.271228e+04   2.314062e+04  -1.263448e+05  -2.338661e+11   9.404217e+11   3.757650e+10   1.475994e+05   7.300652e-23   0.000000e+00   0.000000e+00
      360000   3.599990e-06   1.619560e-01   1.527105e+01   1.470743e+00   1.518317e+04   6.293852e+04  -1.326444e+05  -9.337129e+11  -1.247260e+11  -1.661280e+11   1.476019e+05   7.102749e-23   0.000000e+00   0.000000e+00
      368000   3.679990e-06   1.608725e-01   1.527444e+01   1.459611e+00  -2.893859e+04   1.027103e+04  -1.443749e+05   2.930738e+10  -9.467439e+11  -7.328957e+10   1.476043e+05   7.006566e-23   0.000000e+00   0.000000e+00
      376000   3.759990e-06   1.599342e-01   1.527275e+01   1.448084e+00   1.787679e+04  -4.073046e+04  -1.407452e+05   9.272470e+11  -1.021970e+11   1.472861e+11   1.476068e+05   6.924266e-23   0.000000e+00   0.000000e+00
      384000   3.839990e-06   1.639772e-01   1.527050e+01   1.437350e+00   7.340211e+04  -1.596560e+03  -1.280549e+05   2.191031e+11   9.032369e+11   1.142619e+11   1.476092e+05   6.807860e-23   0.000000e+00   0.000000e+00
      392000   3.919990e-06   1.692167e-01   1.527311e+01   1.427230e+00   4.295816e+04   5.933045e+04  -1.281548e+05  -8.407867e+11   3.558364e+11  -1.171645e+11   1.476115e+05   6.578034e-23   0.000000e+00   0.000000e+00
      400000   3.999990e-06   1.699319e-01   1.527766e+01   1.416478e+00  -1.974134e+04   3.865628e+04  -1.410879e+05  -4.552749e+11  -7.774336e+11  -1.493628e+11   1.476138e+05   6.475105e-23   0.000000e+00   0.000000e+00
      408000   4.079990e-06   1.681781e-01   1.527801e+01   1.404919e+00  -8.346238e+03  -2.717995e+04  -1.448519e+05   6.871782e+11  -5.875982e+11   7.060529e+10   1.476160e+05   6.385879e-23   0.000000e+00   0.000000e+00
      416000   4.159990e-06   1.701392e-01   1.527517e+01   1.393742e+00   5.723099e+04  -2.802917e+04  -1.331545e+05   6.794252e+11   5.641888e+11   1.731998e+11   1.476182e+05   6.288672e-23   0.000000e+00   0.000000e+00
      424000   4.239990e-06   1.758060e-01   1.527538e+01   1.383507e+00   6.924984e+04   3.632655e+04  -1.252063e+05  -4.224716e+11   7.782005e+11  -7.943604e+09   1.476204e+05   6.088664e-23   0.000000e+00   0.000000e+00
      432000   4.319990e-06   1.791887e-01   1.527984e+01   1.373227e+00   9.932201e+03   6.080678e+04  -1.341502e+05  -8.143718e+11  -2.613328e+11  -1.788066e+11   1.476225e+05   5.928291e-23   0.000000e+00   0.000000e+00
      440000   4.399990e-06   1.781304e-01   1.528289e+01   1.361974e+00  -2.370310e+04   7.175060e+03  -1.455324e+05   1.062451e+11  -8.591533e+11  -5.971415e+10   1.476245e+05   5.847155e-23   0.000000e+00   0.000000e+00
      448000   4.479990e-06   1.776422e-01   1.528124e+01   1.350393e+00   2.165169e+04  -3.775404e+04  -1.410654e+05   8.448929e+11  -8.883354e+10   1.534022e+11   1.476266e+05   5.787279e-23   0.000000e+00   0.000000e+00
      456000   4.559990e-06   1.817864e-01   1.527910e+01   1.339655e+00   7.391262e+04  -3.629966e+03  -1.277417e+05   2.612077e+11   8.050099e+11   1.282045e+11   1.476286e+05   5.689914e-23   0.000000e+00   0.000000e+00
      464000   4.639990e-06   1.873812e-01   1.528137e+01   1.329619e+00   5.268928e+04   5.550568e+04  -1.262447e+05  -7.039569e+11   4.470894e+11  -9.728747e+10   1.476305e+05   5.474191e-23   0.000000e+00   0.000000e+00
      472000   4.719990e-06   1.891146e-01   1.528611e+01   1.319049e+00  -7.495674e+03   4.897211e+04  -1.390715e+05  -5.697681e+11  -5.801257e+11  -1.736237e+11   1.476324e+05   5.368838e-23   0.000000e+00   0.000000e+00
      480000   4.799990e-06   1.877024e-01   1.528767e+01   1.307522e+00  -1.413965e+04  -1.175575e+04  -1.464846e+05   4.249207e+11  -7.080406e+11   1.575929e+10   1.476343e+05   5.297528e-23   0.000000e+00   0.000000e+00
      488000   4.879990e-06   1.886305e-01   1.528531e+01   1.296082e+00   4.212375e+04  -3.436319e+04  -1.372632e+05   7.728591e+11   2.240221e+11   1.810449e+11   1.476361e+05   5.283268e-23   0.000000e+00   0.000000e+00
      496000   4.959990e-06   1.938415e-01   1.528418e+01   1.285646e+00   7.730987e+04   1.413530e+04  -1.249813e+05  -1.642143e+10   8.096778e+11   8.136313e+10   1.476379e+05   5.145123e-23   0.000000e+00   0.000000e+00
      504000   5.039990e-06   1.989778e-01   1.528755e+01   1.275661e+00   4.094668e+04   6.176136e+04  -1.276964e+05  -7.565400e+11   2.124955e+11  -1.398642e+11   1.476397e+05   4.947970e-23   0.000000e+00   0.000000e+00
      512000   5.119990e-06   1.999186e-01   1.529210e+01   1.264898e+00  -1.230687e+04   3.991724e+04  -1.416091e+05  -3.840490e+11  -6.730071e+11  -1.563769e+11   1.476414e+05   4.853449e-23   0.000000e+00   0.000000e+00
      520000   5.199990e-06   1.987109e-01   1.529291e+01   1.253263e+00  -5.350770e+03  -1.829784e+04  -1.464071e+05   5.301108e+11  -5.780405e+11   5.282674e+10   1.476431e+05   4.799600e-23   0.000000e+00   0.000000e+00
      528000   5.279990e-06   2.004557e-01   1.529049e+01   1.241922e+00   5.110292e+04  -2.987915e+04  -1.352579e+05   6.865488e+11   3.209723e+11   1.884413e+11   1.476448e+05   4.737136e-23   0.000000e+00   0.000000e+00
      536000   5.359990e-06   2.060572e-01   1.528987e+01   1.231637e+00   7.821775e+04   2.021120e+04  -1.235838e+05  -9.544511e+10   7.603060e+11   6.388611e+10   1.476464e+05   4.592581e-23   0.000000e+00   0.000000e+00
      544000   5.439990e-06   2.111397e-01   1.529350e+01   1.221707e+00   4.028186e+04   6.243267e+04  -1.275910e+05  -7.211380e+11   1.570270e+11  -1.508793e+11   1.476480e+05   4.407842e-23   0.000000e+00   0.000000e+00
      552000   5.519990e-06   2.121830e-01   1.529803e+01   1.210933e+00  -9.110192e+03   3.990590e+04  -1.418622e+05  -3.502747e+11  -6.409547e+11  -1.578460e+11   1.476495e+05   4.337770e-23   0.000000e+00   0.000000e+00
      560000   5.599990e-06   2.112511e-01   1.529897e+01   1.199272e+00  -2.751285e+03  -1.541226e+04  -1.468186e+05   4.859355e+11  -5.631026e+11   4.996765e+10   1.476510e+05   4.316756e-23   0.000000e+00   0.000000e+00
      568000   5.679990e-06   2.130528e-01   1.529673e+01   1.187894e+00   5.032150e+04  -2.935302e+04  -1.356739e+05   6.716428e+11   2.555652e+11   1.937803e+11   1.476525e+05   4.303283e-23   0.000000e+00   0.000000e+00
      576000   5.759990e-06   2.186556e-01   1.529593e+01   1.177612e+00   8.044091e+04   1.569819e+04  -1.228191e+05  -8.617126e+09   7.274909e+11   8.729711e+10   1.476540e+05   4.171094e-23   0.000000e+00   0.000000e+00
      584000   5.839990e-06   2.242255e-01   1.529924e+01   1.167823e+00   5.001447e+04   6.073751e+04  -1.249465e+05  -6.521981e+11   2.609899e+11  -1.342381e+11   1.476554e+05   3.973537e-23   0.000000e+00   0.000000e+00
      592000   5.919990e-06   2.261080e-01   1.530404e+01   1.157276e+00  -1.125011e+02   4.872209e+04  -1.393867e+05  -4.452339e+11  -5.214307e+11  -1.819408e+11   1.476568e+05   3.909334e-23   0.000000e+00   0.000000e+00
      600000   5.999990e-06   2.254622e-01   1.530590e+01   1.145698e+00  -5.528395e+03  -3.700806e+03  -1.475082e+05   3.237035e+11  -6.287460e+11   3.608649e+09   1.476581e+05   3.885263e-23   0.000000e+00   0.000000e+00
      608000   6.079990e-06   2.266503e-01   1.530419e+01   1.134142e+00   4.009735e+04  -3.001534e+04  -1.389050e+05   6.807148e+11   4.625922e+10   1.864682e+11   1.476595e+05   3.886613e-23   0.000000e+00   0.000000e+00
      616000   6.159990e-06   2.317211e-01   1.530272e+01   1.123651e+00   8.022429e+04   1.709773e+03  -1.239551e+05   2.088991e+11   6.519778e+11   1.441540e+11   1.476608e+05   3.802886e-23   0.000000e+00   0.000000e+00
      624000   6.239990e-06   2.379980e-01   1.530498e+01   1.113981e+00   6.711842e+04   5.212913e+04  -1.207550e+05  -4.933868e+11   4.642615e+11  -7.385565e+10   1.476621e+05   3.608180e-23   0.000000e+00   0.000000e+00
      632000   6.319990e-06   2.414696e-01   1.530990e+01   1.103890e+00   1.849145e+04   6.079610e+04  -1.332905e+05  -5.804433e+11  -2.682706e+11  -2.029217e+11   1.476633e+05   3.496634e-23   0.000000e+00   0.000000e+00
      640000   6.399990e-06   2.416245e-01   1.531329e+01   1.092640e+00  -6.279458e+03   1.855327e+04  -1.463597e+05   3.022011e+10  -6.644953e+11  -8.556194e+10   1.476646e+05   3.494568e-23   0.000000e+00   0.000000e+00
      648000   6.479990e-06   2.419462e-01   1.531287e+01   1.080901e+00   2.205347e+04  -2.351650e+04  -1.441034e+05   5.978045e+11  -2.721189e+11   1.358638e+11   1.476658e+05   3.495321e-23   0.000000e+00   0.000000e+00
      656000   6.559990e-06   2.457003e-01   1.531089e+01   1.069944e+00   7.011930e+04  -1.658100e+04  -1.288949e+05   4.751486e+11   4.237457e+11   2.039374e+11   1.476670e+05   3.472386e-23   0.000000e+00   0.000000e+00
      664000   6.639990e-06   2.521983e-01   1.531134e+01   1.060161e+00   8.352521e+04   3.060406e+04  -1.178678e+05  -1.710919e+11   6.291206e+11   4.207163e+10   1.476682e+05   3.316425e-23   0.000000e+00   0.000000e+00
      672000   6.719990e-06   2.577257e-01   1.531542e+01   1.050620e+00   4.882297e+04   6.451736e+04  -1.235316e+05  -5.999239e+11   1.314208e+11  -1.685011e+11   1.476693e+05   3.151257e-23   0.000000e+00   0.000000e+00
      680000   6.799990e-06   2.598032e-01   1.532026e+01   1.040110e+00   6.614189e+03   4.805631e+04  -1.394754e+05  -3.435893e+11  -4.957167e+11  -1.871216e+11   1.476704e+05   3.098693e-23   0.000000e+00   0.000000e+00
      688000   6.879990e-06   2.598950e-01   1.532225e+01   1.028522e+00   4.301067e+03   8.615258e+02  -1.476063e+05   2.897764e+11  -5.609298e+11   5.142775e+09   1.476715e+05   3.097460e-23   0.000000e+00   0.000000e+00
      696000   6.959990e-06   2.616582e-01   1.532100e+01   1.016965e+00   4.402460e+04  -2.484422e+04  -1.387508e+05   6.023574e+11  -1.892376e+10   1.944831e+11   1.476726e+05   3.115977e-23   0.000000e+00   0.000000e+00
      704000   7.039990e-06   2.669163e-01   1.531963e+01   1.006538e+00   8.301684e+04  -1.945550e+03  -1.221144e+05   2.785506e+11   5.324907e+11   1.808507e+11   1.476736e+05   3.060307e-23   0.000000e+00   0.000000e+00
      712000   7.119990e-06   2.738037e-01   1.532134e+01   9.971610e-01   8.107819e+04   4.473593e+04  -1.150341e+05  -3.172006e+11   5.217028e+11  -2.071498e+10   1.476747e+05   2.900095e-23   0.000000e+00   0.000000e+00
      720000   7.199990e-06   2.788586e-01   1.532610e+01   9.876613e-01   4.198121e+04   6.663571e+04  -1.249214e+05  -5.612834e+11  -2.457923e+10  -2.017650e+11   1.476757e+05   2.769056e-23   0.000000e+00   0.000000e+00
      728000   7.279990e-06   2.806565e-01   1.533072e+01   9.769918e-01   7.711183e+03   4.201707e+04  -1.413630e+05  -2.126981e+11  -5.280254e+11  -1.685714e+11   1.476766e+05   2.738896e-23   0.000000e+00   0.000000e+00
      736000   7.359990e-06   2.812130e-01   1.533227e+01   9.653430e-01   1.383967e+04  -2.536840e+03  -1.470058e+05   3.496498e+11  -4.797502e+11   4.117218e+10   1.476776e+05   2.751694e-23   0.000000e+00   0.000000e+00
      744000   7.439990e-06   2.838056e-01   1.533102e+01   9.539359e-01   5.377775e+04  -2.152649e+04  -1.358437e+05   5.563450e+11   4.681969e+10   2.128001e+11   1.476785e+05   2.774154e-23   0.000000e+00   0.000000e+00
      752000   7.519990e-06   2.896542e-01   1.533004e+01   9.437752e-01   8.789006e+04   3.379791e+03  -1.186303e+05   2.218332e+11   5.175865e+11   1.790670e+11   1.476795e+05   2.713399e-23   0.000000e+00   0.000000e+00
      760000   7.599990e-06   2.968125e-01   1.533208e+01   9.346628e-01   8.385921e+04   4.726932e+04  -1.119944e+05  -3.090294e+11   4.814538e+11  -2.821790e+10   1.476804e+05   2.549643e-23   0.000000e+00   0.000000e+00
      768000   7.679990e-06   3.021730e-01   1.533695e+01   9.253849e-01   4.728153e+04   6.776725e+04  -1.224002e+05  -5.202526e+11  -1.240798e+10  -2.078618e+11   1.476813e+05   2.440322e-23   0.000000e+00   0.000000e+00
      776000   7.759990e-06   3.044927e-01   1.534176e+01   9.148931e-01   1.479695e+04   4.606062e+04  -1.395331e+05  -2.195449e+11  -4.790049e+11  -1.814262e+11   1.476821e+05   2.413436e-23   0.000000e+00   0.000000e+00
      784000   7.839990e-06   3.055224e-01   1.534376e+01   9.033395e-01   1.781888e+04   4.005544e+03  -1.465493e+05   2.871531e+11  -4.801088e+11   2.177094e+10   1.476830e+05   2.435795e-23   0.000000e+00   0.000000e+00
      792000   7.919990e-06   3.082416e-01   1.534294e+01   8.919177e-01   5.340712e+04  -1.858268e+04  -1.364290e+05   5.260678e+11  -3.634848e+10   2.108642e+11   1.476838e+05   2.506521e-23   0.000000e+00   0.000000e+00
      800000   7.999990e-06   3.140605e-01   1.534190e+01   8.817404e-01   8.883184e+04  -1.065474e+03  -1.179769e+05   2.878799e+11   4.362220e+11   2.127954e+11   1.476847e+05   2.474813e-23   0.000000e+00   0.000000e+00
      808000   8.079990e-06   3.215860e-01   1.534342e+01   8.728186e-01   9.278068e+04   4.026855e+04  -1.076160e+05  -1.933290e+11   5.118968e+11   2.483965e+10   1.476856e+05   2.331737e-23   0.000000e+00   0.000000e+00
      816000   8.159990e-06   3.279838e-01   1.534797e+01   8.640433e-01   6.328926e+04   6.834147e+04  -1.146088e+05  -4.793916e+11   1.341537e+11  -1.847581e+11   1.476863e+05   2.191223e-23   0.000000e+00   0.000000e+00
      824000   8.239990e-06   3.315623e-01   1.535332e+01   8.541811e-01   2.831300e+04   5.881903e+04  -1.324771e+05  -3.219045e+11  -3.496492e+11  -2.240604e+11   1.476871e+05   2.145622e-23   0.000000e+00   0.000000e+00
      832000   8.319990e-06   3.332412e-01   1.535662e+01   8.429999e-01   1.969024e+04   2.131834e+04  -1.448086e+05   1.229735e+11  -5.104505e+11  -5.844522e+10   1.476878e+05   2.169092e-23   0.000000e+00   0.000000e+00
      840000   8.399990e-06   3.356446e-01   1.535689e+01   8.314756e-01   4.492173e+04  -1.053240e+04  -1.402962e+05   4.574207e+11  -2.236528e+11   1.632323e+11   1.476886e+05   2.221970e-23   0.000000e+00   0.000000e+00
      848000   8.479990e-06   3.407583e-01   1.535584e+01   8.209217e-01   8.218347e+04  -9.384979e+03  -1.223518e+05   4.034016e+11   2.487202e+11   2.518626e+11   1.476894e+05   2.238561e-23   0.000000e+00   0.000000e+00
      856000   8.559990e-06   3.482712e-01   1.535626e+01   8.118642e-01   1.004743e+05   2.338744e+04  -1.056897e+05   2.207478e+10   5.077025e+11   1.333058e+11   1.476902e+05   2.145257e-23   0.000000e+00   0.000000e+00
      864000   8.639990e-06   3.559260e-01   1.535969e+01   8.035980e-01   8.574697e+04   6.025155e+04  -1.040663e+05  -3.583320e+11   3.448235e+11  -9.563418e+10   1.476909e+05   1.993187e-23   0.000000e+00   0.000000e+00
      872000   8.719990e-06   3.614612e-01   1.536518e+01   7.947667e-01   5.169907e+04   7.109184e+04  -1.186843e+05  -4.260532e+11  -9.313499e+10  -2.413983e+11   1.476916e+05   1.931154e-23   0.000000e+00   0.000000e+00
      880000   8.799990e-06   3.644735e-01   1.537012e+01   7.845056e-01   2.761735e+04   4.768302e+04  -1.370278e+05  -1.301066e+11  -4.456515e+11  -1.813187e+11   1.476922e+05   1.930702e-23   0.000000e+00   0.000000e+00
      888000   8.879990e-06   3.667122e-01   1.537242e+01   7.731709e-01   3.380161e+04   1.006136e+04  -1.434204e+05   2.727243e+11  -4.246924e+11   3.446493e+10   1.476929e+05   1.989167e-23   0.000000e+00   0.000000e+00
      896000   8.959990e-06   3.705735e-01   1.537219e+01   7.620454e-01   6.520079e+04  -1.091408e+04  -1.320725e+05   4.557292e+11  -6.261081e+10   2.301357e+11   1.476936e+05   2.056356e-23   0.000000e+00   0.000000e+00
      904000   9.039990e-06   3.771543e-01   1.537159e+01   7.522960e-01   9.700219e+04   1.285645e+03  -1.113667e+05   2.846058e+11   3.452919e+11   2.518587e+11   1.476943e+05   2.049303e-23   0.000000e+00   0.000000e+00
      912000   9.119990e-06   3.854405e-01   1.537304e+01   7.440512e-01   1.050144e+05   3.692307e+04  -9.706948e+04  -9.532892e+10   4.830254e+11   8.057513e+10   1.476950e+05   1.934560e-23   0.000000e+00   0.000000e+00
      920000   9.199990e-06   3.931684e-01   1.537738e+01   7.362874e-01   8.430038e+04   6.835636e+04  -1.001742e+05  -3.823622e+11   2.484360e+11  -1.522688e+11   1.476957e+05   1.796325e-23   0.000000e+00   0.000000e+00
      928000   9.279990e-06   3.986248e-01   1.538320e+01   7.276181e-01   5.249791e+04   7.159787e+04  -1.180335e+05  -3.539740e+11  -1.710328e+11  -2.612030e+11   1.476963e+05   1.731580e-23   0.000000e+00   0.000000e+00
      936000   9.359990e-06   4.019784e-01   1.538801e+01   7.173938e-01   3.565054e+04   4.471166e+04  -1.361774e+05  -3.673880e+10  -4.501626e+11  -1.574385e+11   1.476969e+05   1.778269e-23   0.000000e+00   0.000000e+00
      944000   9.439990e-06   4.051117e-01   1.539013e+01   7.062352e-01   4.735357e+04   9.437527e+03  -1.395820e+05   3.087524e+11  -3.702014e+11   7.969762e+10   1.476975e+05   1.855588e-23   0.000000e+00   0.000000e+00
      952000   9.519990e-06   4.100918e-01   1.539004e+01   6.955585e-01   7.868296e+04  -6.875857e+03  -1.248057e+05   4.221277e+11  -1.074162e+10   2.666994e+11   1.476982e+05   1.938834e-23   0.000000e+00   0.000000e+00
      960000   9.599990e-06   4.176017e-01   1.538988e+01   6.864833e-01   1.064205e+05   7.923768e+03  -1.021119e+05   2.267416e+11   3.559713e+11   2.639078e+11   1.476989e+05   1.925955e-23   0.000000e+00   0.000000e+00
      968000   9.679990e-06   4.264766e-01   1.539186e+01   6.789906e-01   1.107192e+05   4.291968e+04  -8.783109e+04  -1.235666e+11   4.610458e+11   6.950164e+10   1.476995e+05   1.808512e-23   0.000000e+00   0.000000e+00
      976000   9.759990e-06   4.346214e-01   1.539660e+01   6.719146e-01   8.964410e+04   7.243283e+04  -9.237288e+04  -3.645307e+11   2.281777e+11  -1.748633e+11   1.477001e+05   1.675310e-23   0.000000e+00   0.000000e+00
      984000   9.839990e-06   4.405922e-01   1.540271e+01   6.637945e-01   6.022137e+04   7.496913e+04  -1.121094e+05  -3.193358e+11  -1.679559e+11  -2.838697e+11   1.477007e+05   1.638325e-23   0.000000e+00   0.000000e+00
      992000   9.919990e-06   4.446598e-01   1.540782e+01   6.539826e-01   4.546525e+04   4.917727e+04  -1.316441e+05  -2.379910e+10  -4.318127e+11  -1.695446e+11   1.477013e+05   1.677250e-23   0.000000e+00   0.000000e+00
     1000000   9.999990e-06   4.485862e-01   1.541034e+01   6.431619e-01   5.696434e+04   1.481346e+04  -1.354676e+05   2.922442e+11  -3.696932e+11   8.244606e+10   1.477019e+05   1.779113e-23   0.000000e+00   0.000000e+00
     1008000   1.007999e-05   4.542652e-01   1.541065e+01   6.328425e-01   8.641676e+04  -2.550373e+03  -1.197567e+05   3.964623e+11  -3.607616e+10   2.868364e+11   1.477025e+05   1.871498e-23   0.000000e+00   0.000000e+00
     1016000   1.015999e-05   4.623260e-01   1.541075e+01   6.242500e-01   1.127154e+05   9.789449e+03  -9.495069e+04   2.198878e+11   3.250260e+11   2.945124e+11   1.477032e+05   1.871305e-23   0.000000e+00   0.000000e+00
     1024000   1.023999e-05   4.717120e-01   1.541280e+01   6.174271e-01   1.175550e+05   4.315840e+04  -7.832363e+04  -1.043914e+11   4.557536e+11   9.442345e+10   1.477038e+05   1.768678e-23   0.000000e+00   0.000000e+00
     1032000   1.031999e-05   4.804801e-01   1.541758e+01   6.111709e-01   9.849133e+04   7.377605e+04  -8.168931e+04  -3.379624e+11   2.601263e+11  -1.725733e+11   1.477044e+05   1.645409e-23   0.000000e+00   0.000000e+00
     1040000   1.039999e-05   4.872314e-01   1.542392e+01   6.038834e-01   7.069018e+04   7.968595e+04  -1.023221e+05  -3.084469e+11  -1.211129e+11  -3.074333e+11   1.477050e+05   1.588330e-23   0.000000e+00   0.000000e+00
     1048000   1.047999e-05   4.921455e-01   1.542954e+01   5.947593e-01   5.589176e+04   5.674566e+04  -1.243904e+05  -3.478816e+10  -4.123829e+11  -2.037733e+11   1.477055e+05   1.654175e-23   0.000000e+00   0.000000e+00
     1056000   1.055999e-05   4.968514e-01   1.543269e+01   5.844242e-01   6.583879e+04   2.236628e+04  -1.303154e+05   2.673916e+11  -3.898382e+11   6.816714e+10   1.477061e+05   1.773319e-23   0.000000e+00   0.000000e+00
     1064000   1.063999e-05   5.031592e-01   1.543351e+01   5.745048e-01   9.325375e+04   2.428046e+03  -1.145213e+05   3.727255e+11  -7.611396e+10   3.018730e+11   1.477068e+05   1.833403e-23   0.000000e+00   0.000000e+00
     1072000   1.071999e-05   5.117092e-01   1.543387e+01   5.664051e-01   1.183782e+05   1.144617e+04  -8.759601e+04   2.159955e+11   2.880249e+11   3.295077e+11   1.477074e+05   1.851646e-23   0.000000e+00   0.000000e+00
     1080000   1.079999e-05   5.215599e-01   1.543596e+01   5.602858e-01   1.237869e+05   4.302835e+04  -6.813969e+04  -8.771720e+10   4.513053e+11   1.256009e+11   1.477080e+05   1.765836e-23   0.000000e+00   0.000000e+00
     1088000   1.087999e-05   5.308912e-01   1.544076e+01   5.549199e-01   1.064192e+05   7.480435e+04  -6.997933e+04  -3.153271e+11   2.912375e+11  -1.682375e+11   1.477086e+05   1.652409e-23   0.000000e+00   0.000000e+00
     1096000   1.095999e-05   5.383414e-01   1.544731e+01   5.485485e-01   8.009063e+04   8.381674e+04  -9.153277e+04  -2.963748e+11  -8.047915e+10  -3.330436e+11   1.477092e+05   1.595494e-23   0.000000e+00   0.000000e+00
     1104000   1.103999e-05   5.440235e-01   1.545337e+01   5.401896e-01   6.535049e+04   6.365428e+04  -1.161706e+05  -4.586381e+10  -3.890447e+11  -2.389906e+11   1.477097e+05   1.637029e-23   0.000000e+00   0.000000e+00
     1112000   1.111999e-05   5.494342e-01   1.545711e+01   5.304087e-01   7.383939e+04   2.956436e+04  -1.244670e+05   2.444192e+11  -4.058375e+11   4.858456e+10   1.477103e+05   1.763207e-23   0.000000e+00   0.000000e+00
     1120000   1.119999e-05   5.563103e-01   1.545842e+01   5.209291e-01   9.958099e+04   6.988726e+03  -1.088729e+05   3.568079e+11  -1.204972e+11   3.185983e+11   1.477110e+05   1.891745e-23   0.000000e+00   0.000000e+00
     1128000   1.127999e-05   5.653262e-01   1.545901e+01   5.133673e-01   1.238353e+05   1.287743e+04  -7.948415e+04   2.101240e+11   2.594200e+11   3.693685e+11   1.477116e+05   1.927131e-23   0.000000e+00   0.000000e+00
     1136000   1.135999e-05   5.756039e-01   1.546116e+01   5.080213e-01   1.291067e+05   4.349793e+04  -5.708165e+04  -8.584768e+10   4.562003e+11   1.534270e+11   1.477123e+05   1.858311e-23   0.000000e+00   0.000000e+00
     1144000   1.143999e-05   5.853728e-01   1.546604e+01   5.035931e-01   1.121123e+05   7.665308e+04  -5.808824e+04  -3.079726e+11   3.164952e+11  -1.767905e+11   1.477129e+05   1.759146e-23   0.000000e+00   0.000000e+00
     1152000   1.151999e-05   5.933087e-01   1.547281e+01   4.981092e-01   8.665906e+04   8.742710e+04  -8.164557e+04  -2.801732e+11  -6.830319e+10  -3.705443e+11   1.477135e+05   1.714012e-23   0.000000e+00   0.000000e+00
     1160000   1.159999e-05   5.995782e-01   1.547918e+01   4.904262e-01   7.356555e+04   6.736068e+04  -1.089501e+05  -2.245713e+10  -3.975358e+11  -2.609693e+11   1.477141e+05   1.762049e-23   0.000000e+00   0.000000e+00
     1168000   1.167999e-05   6.057062e-01   1.548319e+01   4.811932e-01   8.338163e+04   3.263362e+04  -1.174828e+05   2.531803e+11  -4.136945e+11   6.475710e+10   1.477148e+05   1.861519e-23   0.000000e+00   0.000000e+00
     1176000   1.175999e-05   6.133473e-01   1.548473e+01   4.723579e-01   1.087940e+05   9.935545e+03  -9.942339e+04   3.381800e+11  -1.135145e+11   3.586837e+11   1.477154e+05   1.989580e-23   0.000000e+00   0.000000e+00
     1184000   1.183999e-05   6.230093e-01   1.548560e+01   4.656737e-01   1.304165e+05   1.707467e+04  -6.723128e+04   1.651773e+11   2.813434e+11   3.918278e+11   1.477161e+05   2.021190e-23   0.000000e+00   0.000000e+00
     1192000   1.191999e-05   6.336593e-01   1.548815e+01   4.613308e-01   1.318175e+05   4.925012e+04  -4.493138e+04  -1.316523e+11   4.675606e+11   1.262106e+11   1.477168e+05   1.958300e-23   0.000000e+00   0.000000e+00
     1200000   1.199999e-05   6.435284e-01   1.549349e+01   4.577392e-01   1.124037e+05   8.188631e+04  -4.980451e+04  -3.168418e+11   2.894246e+11  -2.392694e+11   1.477175e+05   1.876917e-23   0.000000e+00   0.000000e+00
     1208000   1.207999e-05   6.515178e-01   1.550055e+01   4.527250e-01   8.841426e+04   8.911805e+04  -7.785590e+04  -2.369182e+11  -1.238638e+11  -4.108597e+11   1.477181e+05   1.868161e-23   0.000000e+00   0.000000e+00
     1216000   1.215999e-05   6.581077e-01   1.550688e+01   4.452821e-01   8.019577e+04   6.476347e+04  -1.058073e+05   4.821126e+10  -4.396689e+11  -2.325988e+11   1.477188e+05   1.941694e-23   0.000000e+00   0.000000e+00
     1224000   1.223999e-05   6.649868e-01   1.551059e+01   4.364682e-01   9.516690e+04   2.868305e+04  -1.092776e+05   2.983738e+11  -3.946844e+11   1.562247e+11   1.477195e+05   2.093119e-23   0.000000e+00   0.000000e+00
     1232000   1.231999e-05   6.736392e-01   1.551196e+01   4.285948e-01   1.212235e+05   1.062745e+04  -8.374489e+04   3.043237e+11  -2.152470e+10   4.377530e+11   1.477203e+05   2.213628e-23   0.000000e+00   0.000000e+00
     1240000   1.239999e-05   6.840996e-01   1.551321e+01   4.233294e-01   1.369798e+05   2.604090e+04  -4.878445e+04   6.002967e+10   3.801016e+11   3.713925e+11   1.477210e+05   2.223845e-23   0.000000e+00   0.000000e+00
     1248000   1.247999e-05   6.949173e-01   1.551672e+01   4.202675e-01   1.295126e+05   6.300150e+04  -3.284844e+04  -2.315467e+11   4.737492e+11  -4.386640e+09   1.477218e+05   2.162121e-23   0.000000e+00   0.000000e+00
     1256000   1.255999e-05   7.043674e-01   1.552304e+01   4.171781e-01   1.055692e+05   9.073398e+04  -4.944122e+04  -3.180263e+11   1.643768e+11  -3.774569e+11   1.477225e+05   2.104310e-23   0.000000e+00   0.000000e+00
     1264000   1.263999e-05   7.119427e-01   1.553033e+01   4.118589e-01   8.652346e+04   8.524739e+04  -8.407580e+04  -1.180272e+11  -2.914508e+11  -4.170079e+11   1.477233e+05   2.120923e-23   0.000000e+00   0.000000e+00
     1272000   1.271999e-05   7.188253e-01   1.553589e+01   4.040847e-01   8.976314e+04   5.102262e+04  -1.056488e+05   1.933744e+11  -4.957302e+11  -7.514000e+10   1.477240e+05   2.245487e-23   0.000000e+00   0.000000e+00
     1280000   1.279999e-05   7.268520e-01   1.553852e+01   3.958802e-01   1.128552e+05   1.792879e+04  -9.362105e+04   3.372203e+11  -2.637495e+11   3.559588e+11   1.477248e+05   2.410360e-23   0.000000e+00   0.000000e+00
     1288000   1.287999e-05   7.368693e-01   1.553960e+01   3.897888e-01   1.354782e+05   1.550037e+04  -5.681791e+04   1.821912e+11   2.103574e+11   4.917529e+11   1.477257e+05   2.482536e-23   0.000000e+00   0.000000e+00
     1296000   1.295999e-05   7.479613e-01   1.554193e+01   3.866021e-01   1.375149e+05   4.680384e+04  -2.687382e+04  -1.354034e+11   5.096276e+11   1.945907e+11   1.477266e+05   2.456564e-23   0.000000e+00   0.000000e+00
     1304000   1.303999e-05   7.582570e-01   1.554727e+01   3.845582e-01   1.172834e+05   8.441211e+04  -3.070157e+04  -3.264704e+11   3.506779e+11  -2.830864e+11   1.477274e+05   2.408192e-23   0.000000e+00   0.000000e+00
     1312000   1.311999e-05   7.666384e-01   1.555466e+01   3.808498e-01   9.388936e+04   9.377470e+04  -6.492093e+04  -2.057942e+11  -1.382232e+11  -4.973251e+11   1.477282e+05   2.401160e-23   0.000000e+00   0.000000e+00
     1320000   1.319999e-05   7.738175e-01   1.556124e+01   3.742284e-01   8.998121e+04   6.570144e+04  -9.700819e+04   1.179249e+11  -5.032303e+11  -2.314767e+11   1.477291e+05   2.494016e-23   0.000000e+00   0.000000e+00
     1328000   1.327999e-05   7.816905e-01   1.556486e+01   3.662614e-01   1.097691e+05   2.633389e+04  -9.529644e+04   3.334053e+11  -3.945426e+11   2.749772e+11   1.477300e+05   2.662843e-23   0.000000e+00   0.000000e+00
     1336000   1.335999e-05   7.915185e-01   1.556617e+01   3.599206e-01   1.345413e+05   1.310670e+04  -5.959273e+04   2.308982e+11   9.534916e+10   5.422052e+11   1.477309e+05   2.771422e-23   0.000000e+00   0.000000e+00
     1344000   1.343999e-05   8.026987e-01   1.556805e+01   3.567626e-01   1.405591e+05   3.941986e+04  -2.266996e+04  -9.318641e+10   5.038285e+11   2.981537e+11   1.477319e+05   2.732824e-23   0.000000e+00   0.000000e+00
     1352000   1.351999e-05   8.133343e-01   1.557289e+01   3.553502e-01   1.222058e+05   8.058938e+04  -1.990219e+04  -3.230524e+11   4.314795e+11  -2.366408e+11   1.477328e+05   2.694861e-23   0.000000e+00   0.000000e+00
     1360000   1.359999e-05   8.220875e-01   1.558024e+01   3.525537e-01   9.796012e+04   9.644071e+04  -5.411354e+04  -2.245428e+11  -7.387419e+10  -5.382050e+11   1.477338e+05   2.687151e-23   0.000000e+00   0.000000e+00
     1368000   1.367999e-05   8.295376e-01   1.558716e+01   3.466250e-01   9.284186e+04   7.058409e+04  -9.068532e+04   1.101651e+11  -5.128228e+11  -2.864054e+11   1.477347e+05   2.777459e-23   0.000000e+00   0.000000e+00
     1376000   1.375999e-05   8.376318e-01   1.559109e+01   3.390409e-01   1.125938e+05   2.869737e+04  -9.124112e+04   3.366740e+11  -4.348513e+11   2.786519e+11   1.477357e+05   2.955897e-23   0.000000e+00   0.000000e+00
     1384000   1.383999e-05   8.476853e-01   1.559249e+01   3.330937e-01   1.371220e+05   1.350332e+04  -5.330445e+04   2.172064e+11   9.398002e+10   5.824819e+11   1.477368e+05   3.074196e-23   0.000000e+00   0.000000e+00
     1392000   1.391999e-05   8.590003e-01   1.559445e+01   3.305398e-01   1.410418e+05   4.152880e+04  -1.445800e+04  -1.292792e+11   5.414623e+11   2.938539e+11   1.477379e+05   3.081628e-23   0.000000e+00   0.000000e+00
     1400000   1.399999e-05   8.695642e-01   1.559956e+01   3.296871e-01   1.201929e+05   8.457864e+04  -1.506358e+04  -3.394391e+11   4.273471e+11  -3.092009e+11   1.477389e+05   3.059934e-23   0.000000e+00   0.000000e+00
     1408000   1.407999e-05   8.781595e-01   1.560714e+01   3.270362e-01   9.686814e+04   9.706242e+04  -5.497781e+04  -1.804916e+11  -1.517256e+11  -5.859588e+11   1.477400e+05   3.102714e-23   0.000000e+00   0.000000e+00
     1416000   1.415999e-05   8.857175e-01   1.561384e+01   3.210045e-01   9.707981e+04   6.458438e+04  -9.072927e+04   1.865552e+11  -5.780481e+11  -2.119081e+11   1.477411e+05   3.218643e-23   0.000000e+00   0.000000e+00
     1424000   1.423999e-05   8.943546e-01   1.561719e+01   3.137632e-01   1.210860e+05   2.210493e+04  -8.171485e+04   3.509351e+11  -3.732456e+11   4.189985e+11   1.477423e+05   3.406756e-23   0.000000e+00   0.000000e+00
     1432000   1.431999e-05   9.050153e-01   1.561840e+01   3.089541e-01   1.423440e+05   1.660834e+04  -3.592313e+04   1.240601e+11   2.534684e+11   6.086443e+11   1.477435e+05   3.500607e-23   0.000000e+00   0.000000e+00
     1440000   1.439999e-05   9.163886e-01   1.562108e+01   3.076550e-01   1.369623e+05   5.531370e+04  -3.197527e+03  -2.448108e+11   6.132257e+11   1.205424e+11   1.477447e+05   3.503965e-23   0.000000e+00   0.000000e+00
     1448000   1.447999e-05   9.263542e-01   1.562729e+01   3.070422e-01   1.109734e+05   9.530235e+04  -2.076567e+04  -3.327782e+11   2.756993e+11  -5.133111e+11   1.477459e+05   3.501929e-23   0.000000e+00   0.000000e+00
     1456000   1.455999e-05   9.344162e-01   1.563507e+01   3.034839e-01   9.477389e+04   9.015736e+04  -6.869332e+04  -2.495710e+10  -3.924950e+11  -5.496337e+11   1.477471e+05   3.552786e-23   0.000000e+00   0.000000e+00
     1464000   1.463999e-05   9.423402e-01   1.564060e+01   2.967881e-01   1.080296e+05   4.512394e+04  -9.012779e+04   3.195827e+11  -6.075756e+11   7.881490e+10   1.477484e+05   3.714002e-23   0.000000e+00   0.000000e+00
     1472000   1.471999e-05   9.520924e-01   1.564265e+01   2.905592e-01   1.352876e+05   1.303066e+04  -5.794357e+04   2.837358e+11  -1.016368e+11   6.395279e+11   1.477497e+05   3.887842e-23   0.000000e+00   0.000000e+00
     1480000   1.479999e-05   9.634635e-01   1.564413e+01   2.879956e-01   1.438019e+05   3.279110e+04  -8.725861e+03  -9.648196e+10   5.429165e+11   4.496379e+11   1.477511e+05   3.937781e-23   0.000000e+00   0.000000e+00
     1488000   1.487999e-05   9.742814e-01   1.564872e+01   2.879915e-01   1.230146e+05   8.182851e+04  -1.516637e+03  -3.621872e+11   5.391102e+11  -2.932716e+11   1.477524e+05   3.950193e-23   0.000000e+00   0.000000e+00
     1496000   1.495999e-05   9.830414e-01   1.565637e+01   2.863128e-01   9.855601e+04   1.001324e+05  -4.573199e+04  -1.738015e+11  -1.391935e+11  -6.794386e+11   1.477538e+05   3.976638e-23   0.000000e+00   0.000000e+00
     1504000   1.503999e-05   9.908211e-01   1.566322e+01   2.807817e-01   1.016285e+05   6.406087e+04  -8.602015e+04   2.426848e+11  -6.551688e+11  -2.012584e+11   1.477552e+05   4.112270e-23   0.000000e+00   0.000000e+00
     1512000   1.511999e-05   9.999783e-01   1.566635e+01   2.741254e-01   1.288102e+05   1.841326e+04  -7.000664e+04   3.528375e+11  -3.452822e+11   5.583147e+11   1.477567e+05   4.320698e-23   0.000000e+00   0.000000e+00
     1520000   1.519999e-05   1.011131e+00   1.566752e+01   2.706401e-01   1.453177e+05   2.131332e+04  -1.615528e+04   8.531492e+09   4.162871e+11   6.255905e+11   1.477582e+05   4.393165e-23   0.000000e+00   0.000000e+00
     1528000   1.527999e-05   1.022328e+00   1.567106e+01   2.706888e-01   1.297088e+05   7.040392e+04   7.201303e+03  -3.499399e+11   6.569252e+11  -1.186084e+11   1.477597e+05   4.419281e-23   0.000000e+00   0.000000e+00
     1536000   1.535999e-05   1.031553e+00   1.567829e+01   2.700602e-01   1.023779e+05   1.019066e+05  -3.110011e+04  -2.431038e+11   2.575269e+10  -7.160686e+11   1.477613e+05   4.453914e-23   0.000000e+00   0.000000e+00
     1544000   1.543999e-05   1.039418e+00   1.568567e+01   2.654064e-01   1.003024e+05   7.309060e+04  -8.019382e+04   1.999118e+11  -6.543894e+11  -3.464601e+11   1.477629e+05   4.576193e-23   0.000000e+00   0.000000e+00
     1552000   1.551999e-05   1.048408e+00   1.568936e+01   2.588224e-01   1.268415e+05   2.188102e+04  -7.257265e+04   3.750128e+11  -4.559060e+11   5.178997e+11   1.477645e+05   4.797868e-23   0.000000e+00   0.000000e+00
     1560000   1.559999e-05   1.059498e+00   1.569050e+01   2.551599e-01   1.457274e+05   1.805101e+04  -1.650810e+04   3.233836e+10   3.776642e+11   6.980508e+11   1.477662e+05   4.908829e-23   0.000000e+00   0.000000e+00
     1568000   1.567999e-05   1.070765e+00   1.569377e+01   2.554036e-01   1.305695e+05   6.817343e+04   1.180374e+04  -3.603447e+11   7.058763e+11  -9.027617e+10   1.477679e+05   4.950246e-23   0.000000e+00   0.000000e+00
     1576000   1.575999e-05   1.080021e+00   1.570097e+01   2.551335e-01   1.024145e+05   1.028390e+05  -2.777195e+04  -2.445212e+11   3.800087e+10  -7.612340e+11   1.477696e+05   4.985002e-23   0.000000e+00   0.000000e+00
     1584000   1.583999e-05   1.087925e+00   1.570838e+01   2.506212e-01   1.017247e+05   7.216170e+04  -7.925379e+04   2.316828e+11  -6.990487e+11  -3.392048e+11   1.477714e+05   5.114990e-23   0.000000e+00   0.000000e+00
     1592000   1.591999e-05   1.097119e+00   1.571189e+01   2.442404e-01   1.300921e+05   1.930822e+04  -6.738066e+04   3.749353e+11  -4.322000e+11   5.999383e+11   1.477732e+05   5.347713e-23   0.000000e+00   0.000000e+00
     1600000   1.599999e-05   1.108390e+00   1.571301e+01   2.412037e-01   1.460500e+05   2.127649e+04  -7.361310e+03  -3.522639e+10   4.790598e+11   6.847831e+11   1.477751e+05   5.444101e-23   0.000000e+00   0.000000e+00
     1608000   1.607999e-05   1.119461e+00   1.571680e+01   2.419553e-01   1.257377e+05   7.648329e+04   1.335594e+04  -3.982643e+11   6.980134e+11  -2.472654e+11   1.477770e+05   5.501122e-23   0.000000e+00   0.000000e+00
     1616000   1.615999e-05   1.128334e+00   1.572444e+01   2.413316e-01   9.937134e+04   1.030005e+05  -3.680818e+04  -1.592564e+11  -1.387709e+11  -8.184631e+11   1.477789e+05   5.559814e-23   0.000000e+00   0.000000e+00
     1624000   1.623999e-05   1.136338e+00   1.573130e+01   2.362041e-01   1.074681e+05   5.975603e+04  -8.196960e+04   3.321773e+11  -7.800333e+11  -1.332275e+11   1.477809e+05   5.731457e-23   0.000000e+00   0.000000e+00
     1632000   1.631999e-05   1.146168e+00   1.573387e+01   2.303629e-01   1.380219e+05   1.205990e+04  -5.142282e+04   3.124337e+11  -2.263148e+11   7.853652e+11   1.477829e+05   5.957989e-23   0.000000e+00   0.000000e+00
     1640000   1.639999e-05   1.157709e+00   1.573521e+01   2.288460e-01   1.434644e+05   3.414900e+04   9.603396e+03  -1.994767e+11   6.973813e+11   5.009365e+11   1.477850e+05   6.047174e-23   0.000000e+00   0.000000e+00
     1648000   1.647999e-05   1.168153e+00   1.574038e+01   2.300626e-01   1.148545e+05   9.281596e+04   5.888097e+03  -4.016232e+11   5.340575e+11  -5.830350e+11   1.477871e+05   6.120341e-23   0.000000e+00   0.000000e+00
     1656000   1.655999e-05   1.176409e+00   1.574845e+01   2.280889e-01   9.769467e+04   9.486455e+04  -5.742934e+04   4.501853e+10  -4.952966e+11  -7.417114e+11   1.477892e+05   6.206370e-23   0.000000e+00   0.000000e+00
     1664000   1.663999e-05   1.184916e+00   1.575382e+01   2.220854e-01   1.202395e+05   3.588815e+04  -7.808213e+04   4.261872e+11  -7.387583e+11   3.166355e+11   1.477914e+05   6.441393e-23   0.000000e+00   0.000000e+00
     1672000   1.671999e-05   1.195739e+00   1.575517e+01   2.178248e-01   1.459314e+05   1.115483e+04  -2.055671e+04   1.076112e+11   2.278164e+11   8.871363e+11   1.477937e+05   6.619328e-23   0.000000e+00   0.000000e+00
     1680000   1.679999e-05   1.207139e+00   1.575777e+01   2.183801e-01   1.321266e+05   6.240992e+04   2.216347e+04  -3.961652e+11   8.402107e+11  -3.829494e+09   1.477960e+05   6.716235e-23   0.000000e+00   0.000000e+00
     1688000   1.687999e-05   1.216395e+00   1.576492e+01   2.189010e-01   1.014695e+05   1.052767e+05  -2.156653e+04  -2.363750e+11   4.283662e+10  -9.034318e+11   1.477984e+05   6.801925e-23   0.000000e+00   0.000000e+00
     1696000   1.695999e-05   1.224384e+00   1.577229e+01   2.145505e-01   1.061456e+05   6.658980e+04  -7.838354e+04   3.348643e+11  -8.446356e+11  -2.641970e+11   1.478008e+05   6.969054e-23   0.000000e+00   0.000000e+00
     1704000   1.703999e-05   1.234177e+00   1.577510e+01   2.087973e-01   1.386371e+05   1.134441e+04  -4.996868e+04   3.324007e+11  -2.906006e+11   8.560779e+11   1.478032e+05   7.222004e-23   0.000000e+00   0.000000e+00
     1712000   1.711999e-05   1.245749e+00   1.577636e+01   2.076565e-01   1.425835e+05   3.517956e+04   1.670013e+04  -2.536333e+11   7.856677e+11   5.110083e+11   1.478058e+05   7.338438e-23   0.000000e+00   0.000000e+00
     1720000   1.719999e-05   1.255958e+00   1.578185e+01   2.092407e-01   1.106087e+05   9.788865e+04   5.552711e+03  -3.996919e+11   4.939044e+11  -7.435403e+11   1.478084e+05   7.446232e-23   0.000000e+00   0.000000e+00
     1728000   1.727999e-05   1.264039e+00   1.578995e+01   2.068479e-01   9.932220e+04   8.842750e+04  -6.452719e+04   1.728324e+11  -6.912254e+11  -6.813711e+11   1.478110e+05   7.566232e-23   0.000000e+00   0.000000e+00
     1736000   1.735999e-05   1.273044e+00   1.579437e+01   2.008402e-01   1.295272e+05   2.253826e+04  -6.755444e+04   4.399798e+11  -6.476976e+11   6.273653e+11   1.478136e+05   7.837043e-23   0.000000e+00   0.000000e+00
     1744000   1.743999e-05   1.284385e+00   1.579534e+01   1.981854e-01   1.465775e+05   1.867914e+04   3.974411e+03  -9.590689e+10   5.772442e+11   8.266958e+11   1.478164e+05   7.986468e-23   0.000000e+00   0.000000e+00
     1752000   1.751999e-05   1.295211e+00   1.579939e+01   1.999109e-01   1.189739e+05   8.519285e+04   2.092595e+04  -4.624562e+11   7.662385e+11  -4.896980e+11   1.478192e+05   8.103214e-23   0.000000e+00   0.000000e+00
     1760000   1.759999e-05   1.303585e+00   1.580749e+01   1.990294e-01   9.723844e+04   1.000428e+05  -4.886190e+04   3.096000e+10  -4.761828e+11  -9.135698e+11   1.478220e+05   8.271129e-23   0.000000e+00   0.000000e+00
     1768000   1.767999e-05   1.312129e+00   1.581306e+01   1.933409e-01   1.225583e+05   3.418691e+04  -7.525242e+04   4.767263e+11  -8.461870e+11   3.918451e+11   1.478250e+05   8.540255e-23   0.000000e+00   0.000000e+00
     1776000   1.775999e-05   1.323178e+00   1.581419e+01   1.897372e-01   1.472621e+05   1.111282e+04  -6.594781e+03   1.466489e+10   3.909811e+11   9.846062e+11   1.478280e+05   8.740645e-23   0.000000e+00   0.000000e+00
     1784000   1.783999e-05   1.334297e+00   1.581739e+01   1.912987e-01   1.238012e+05   7.589318e+04   2.770356e+04  -4.832465e+11   9.005974e+11  -3.072272e+11   1.478310e+05   8.869182e-23   0.000000e+00   0.000000e+00
     1792000   1.791999e-05   1.342889e+00   1.582529e+01   1.912390e-01   9.711371e+04   1.043844e+05  -3.908657e+04  -4.294856e+10  -3.410204e+11  -1.017732e+12   1.478341e+05   8.985782e-23   0.000000e+00   0.000000e+00
     1800000   1.799999e-05   1.351266e+00   1.583139e+01   1.858781e-01   1.197071e+05   4.004799e+04  -7.695597e+04   4.900414e+11  -9.333483e+11   2.764029e+11   1.478373e+05   9.249062e-23   0.000000e+00   0.000000e+00
     1808000   1.807999e-05   1.362189e+00   1.583264e+01   1.819795e-01   1.472713e+05   8.629506e+03  -9.670709e+03   5.055084e+10   3.201341e+11   1.054227e+12   1.478405e+05   9.473454e-23   0.000000e+00   0.000000e+00
     1816000   1.815999e-05   1.373368e+00   1.583558e+01   1.835527e-01   1.245585e+05   7.353704e+04   3.058259e+04  -4.979528e+11   9.559009e+11  -2.700076e+11   1.478439e+05   9.615402e-23   0.000000e+00   0.000000e+00
     1824000   1.823999e-05   1.381971e+00   1.584345e+01   1.837139e-01   9.688371e+04   1.051515e+05  -3.762334e+04  -3.977319e+10  -3.437723e+11  -1.063543e+12   1.478472e+05   9.742618e-23   0.000000e+00   0.000000e+00
     1832000   1.831999e-05   1.390376e+00   1.584953e+01   1.783963e-01   1.209021e+05   3.829863e+04  -7.599815e+04   5.079496e+11  -9.608674e+11   3.236840e+11   1.478506e+05   1.001695e-22   0.000000e+00   0.000000e+00
     1840000   1.839999e-05   1.401393e+00   1.585067e+01   1.747688e-01   1.475101e+05   9.169677e+03  -4.188631e+03   5.577687e+09   4.032085e+11   1.075973e+12   1.478542e+05   1.028443e-22   0.000000e+00   0.000000e+00
     1848000   1.847999e-05   1.412428e+00   1.585390e+01   1.766522e-01   1.210633e+05   7.921256e+04   3.051188e+04  -5.176852e+11   9.503260e+11  -4.126810e+11   1.478578e+05   1.044927e-22   0.000000e+00   0.000000e+00
     1856000   1.855999e-05   1.420819e+00   1.586197e+01   1.764116e-01   9.668124e+04   1.022539e+05  -4.538589e+04   5.271186e+10  -5.137693e+11  -1.045529e+12   1.478614e+05   1.059348e-22   0.000000e+00   0.000000e+00
     1864000   1.863999e-05   1.429487e+00   1.586742e+01   1.708557e-01   1.265300e+05   2.838428e+04  -7.105341e+04   5.184096e+11  -9.022358e+11   5.625498e+11   1.478652e+05   1.090072e-22   0.000000e+00   0.000000e+00
     1872000   1.871999e-05   1.440784e+00   1.586828e+01   1.681822e-01   1.467508e+05   1.500013e+04   1.021999e+04  -1.357559e+11   6.545456e+11   9.900484e+11   1.478690e+05   1.111801e-22   0.000000e+00   0.000000e+00
     1880000   1.879999e-05   1.451386e+00   1.587248e+01   1.705150e-01   1.131323e+05   9.216285e+04   2.394757e+04  -5.032274e+11   8.092400e+11  -7.364466e+11   1.478729e+05   1.130095e-22   0.000000e+00   0.000000e+00
     1888000   1.887999e-05   1.459452e+00   1.588075e+01   1.691183e-01   9.889037e+04   9.174127e+04  -6.059529e+04   2.379013e+11  -8.233551e+11  -8.585521e+11   1.478768e+05   1.146643e-22   0.000000e+00   0.000000e+00
     1896000   1.895999e-05   1.468720e+00   1.588487e+01   1.634178e-01   1.359014e+05   1.350257e+04  -5.672068e+04   4.571287e+11  -6.490103e+11   9.405030e+11   1.478809e+05   1.180293e-22   0.000000e+00   0.000000e+00
     1904000   1.903999e-05   1.480276e+00   1.588574e+01   1.624572e-01   1.416498e+05   3.121020e+04   2.883097e+04  -3.524439e+11   9.887639e+11   6.617704e+11   1.478850e+05   1.199907e-22   0.000000e+00   0.000000e+00
     1912000   1.911999e-05   1.490062e+00   1.589156e+01   1.647903e-01   1.027044e+05   1.063161e+05   4.461254e+03  -3.729786e+11   4.075412e+11  -1.122109e+12   1.478892e+05   1.219085e-22   0.000000e+00   0.000000e+00
     1920000   1.919999e-05   1.497998e+00   1.589940e+01   1.615259e-01   1.074460e+05   6.825468e+04  -7.529369e+04   4.638999e+11  -1.119359e+12  -3.529283e+11   1.478935e+05   1.241282e-22   0.000000e+00   0.000000e+00
     1928000   1.927999e-05   1.508237e+00   1.590167e+01   1.565257e-01   1.453516e+05   2.948762e+03  -2.716563e+04   2.358530e+11  -8.633024e+10   1.251977e+12   1.478978e+05   1.270817e-22   0.000000e+00   0.000000e+00
     1936000   1.935999e-05   1.519638e+00   1.590354e+01   1.577407e-01   1.286763e+05   6.125662e+04   3.956151e+04  -5.456073e+11   1.165185e+12  -2.911908e+10   1.479023e+05   1.290898e-22   0.000000e+00   0.000000e+00
     1944000   1.943999e-05   1.528341e+00   1.591115e+01   1.587921e-01   9.581501e+04   1.084468e+05  -3.058069e+04  -5.317205e+10  -3.075891e+11  -1.257936e+12   1.479068e+05   1.309412e-22   0.000000e+00   0.000000e+00
     1952000   1.951999e-05   1.536792e+00   1.591724e+01   1.536585e-01   1.242716e+05   3.285020e+04  -7.317933e+04   5.724337e+11  -1.074040e+12   4.897229e+11   1.479114e+05   1.341631e-22   0.000000e+00   0.000000e+00
     1960000   1.959999e-05   1.548047e+00   1.591805e+01   1.509545e-01   1.466758e+05   1.279302e+04   1.420262e+04  -1.690176e+11   7.181317e+11   1.099885e+12   1.479161e+05   1.367412e-22   0.000000e+00   0.000000e+00
     1968000   1.967999e-05   1.558467e+00   1.592240e+01   1.536205e-01   1.089682e+05   9.716753e+04   2.376931e+04  -5.126895e+11   8.038586e+11  -9.349983e+11   1.479209e+05   1.390291e-22   0.000000e+00   0.000000e+00
     1976000   1.975999e-05   1.566395e+00   1.593065e+01   1.517184e-01   1.019646e+05   8.264263e+04  -6.823077e+04   3.907313e+11  -1.071365e+12  -7.140151e+11   1.479257e+05   1.411472e-22   0.000000e+00   0.000000e+00
     1984000   1.983999e-05   1.576224e+00   1.593368e+01   1.463690e-01   1.430715e+05   3.452073e+03  -3.744468e+04   3.418032e+11  -3.423703e+11   1.273928e+12   1.479307e+05   1.447925e-22   0.000000e+00   0.000000e+00
     1992000   1.991999e-05   1.587699e+00   1.593508e+01   1.472016e-01   1.311095e+05   5.393642e+04   4.226272e+04  -5.577124e+11   1.247212e+12   1.388955e+11   1.479357e+05   1.470586e-22   0.000000e+00   0.000000e+00
     2000000   1.999999e-05   1.596480e+00   1.594249e+01   1.486833e-01   9.524688e+04   1.100848e+05  -2.637949e+04  -7.366770e+10  -2.610870e+11  -1.356260e+12   1.479409e+05   1.491870e-22   0.000000e+00   0.000000e+00
     2008000   2.007999e-05   1.604916e+00   1.594864e+01   1.436518e-01   1.252060e+05   3.110260e+04  -7.241628e+04   6.013589e+11  -1.132902e+12   5.528877e+11   1.479461e+05   1.521414e-22   0.000000e+00   0.000000e+00
     2016000   2.015999e-05   1.616231e+00   1.594935e+01   1.412968e-01   1.456697e+05   1.485182e+04   2.119836e+04  -2.460311e+11   8.567099e+11   1.091378e+12   1.479514e+05   1.548673e-22   0.000000e+00   0.000000e+00
     2024000   2.023999e-05   1.626361e+00   1.595417e+01   1.441443e-01   1.043193e+05   1.033276e+05   1.822374e+04  -4.753732e+11   6.831502e+11  -1.151109e+12   1.479568e+05   1.573854e-22   0.000000e+00   0.000000e+00
     2032000   2.031999e-05   1.634235e+00   1.596223e+01   1.415027e-01   1.066428e+05   7.065987e+04  -7.434614e+04   5.191250e+11  -1.256041e+12  -4.494016e+11   1.479623e+05   1.598436e-22   0.000000e+00   0.000000e+00
     2040000   2.039999e-05   1.644574e+00   1.596432e+01   1.367526e-01   1.469125e+05  -9.328974e+01  -1.764153e+04   1.726843e+11   3.968378e+10   1.436656e+12   1.479679e+05   1.634667e-22   0.000000e+00   0.000000e+00
     2048000   2.047999e-05   1.655720e+00   1.596662e+01   1.388021e-01   1.203084e+05   7.481843e+04   4.271153e+04  -6.319522e+11   1.249764e+12  -4.086691e+11   1.479736e+05   1.660466e-22   0.000000e+00   0.000000e+00
     2056000   2.055999e-05   1.663888e+00   1.597480e+01   1.389069e-01   9.602695e+04   1.002283e+05  -5.129341e+04   2.217498e+11  -8.238485e+11  -1.195096e+12   1.479794e+05   1.682342e-22   0.000000e+00   0.000000e+00
     2064000   2.063999e-05   1.673105e+00   1.597910e+01   1.334154e-01   1.382720e+05   8.359101e+03  -5.206377e+04   4.935785e+11  -7.359085e+11   1.192278e+12   1.479853e+05   1.721923e-22   0.000000e+00   0.000000e+00
     2072000   2.071999e-05   1.684624e+00   1.597996e+01   1.335234e-01   1.347512e+05   4.265017e+04   4.386925e+04  -5.565846e+11   1.323338e+12   4.235828e+11   1.479913e+05   1.748381e-22   0.000000e+00   0.000000e+00
     2080000   2.079999e-05   1.693542e+00   1.598700e+01   1.355845e-01   9.443048e+04   1.122466e+05  -1.966773e+04  -1.173429e+11  -1.628568e+11  -1.494001e+12   1.479974e+05   1.773422e-22   0.000000e+00   0.000000e+00
     2088000   2.087999e-05   1.701925e+00   1.599327e+01   1.307109e-01   1.260381e+05   2.913338e+04  -7.190774e+04   6.459521e+11  -1.231272e+12   6.330348e+11   1.480036e+05   1.821715e-22   0.000000e+00   0.000000e+00
     2096000   2.095999e-05   1.713288e+00   1.599385e+01   1.288011e-01   1.437400e+05   1.807497e+04   3.031593e+04  -3.567411e+11   1.057937e+12   1.061473e+12   1.480100e+05   1.852473e-22   0.000000e+00   0.000000e+00
     2104000   2.103999e-05   1.722999e+00   1.599932e+01   1.317635e-01   9.861513e+04   1.100834e+05   8.097712e+03  -3.849929e+11   4.506563e+11  -1.434918e+12   1.480165e+05   1.881583e-22   0.000000e+00   0.000000e+00
     2112000   2.111999e-05   1.730951e+00   1.600685e+01   1.281408e-01   1.150861e+05   5.129033e+04  -7.768728e+04   6.573779e+11  -1.418705e+12   3.687517e+10   1.480230e+05   1.909796e-22   0.000000e+00   0.000000e+00
     2120000   2.119999e-05   1.741906e+00   1.600788e+01   1.247149e-01   1.474873e+05   4.175627e+03   1.195218e+04  -1.342176e+11   6.605758e+11   1.427520e+12   1.480297e+05   1.945856e-22   0.000000e+00   0.000000e+00
     2128000   2.127999e-05   1.752240e+00   1.601194e+01   1.277854e-01   1.047970e+05   1.009020e+05   2.740759e+04  -5.569226e+11   9.011118e+11  -1.187073e+12   1.480365e+05   1.976581e-22   0.000000e+00   0.000000e+00
     2136000   2.135999e-05   1.760053e+00   1.602008e+01   1.254569e-01   1.070655e+05   6.930304e+04  -7.517250e+04   5.972107e+11  -1.415788e+12  -4.549997e+11   1.480434e+05   2.005527e-22   0.000000e+00   0.000000e+00
     2144000   2.143999e-05   1.770567e+00   1.602180e+01   1.210969e-01   1.479710e+05  -1.878659e+03  -4.468195e+03   5.188882e+10   2.858353e+11   1.592333e+12   1.480504e+05   2.046157e-22   0.000000e+00   0.000000e+00
     2152000   2.151999e-05   1.781304e+00   1.602484e+01   1.239099e-01   1.103830e+05   9.070407e+04   3.885086e+04  -6.500742e+11   1.183381e+12  -9.151338e+11   1.480575e+05   2.078017e-22   0.000000e+00   0.000000e+00
     2160000   2.159999e-05   1.789129e+00   1.603317e+01   1.226007e-01   1.020860e+05   8.135967e+04  -6.987280e+04   5.238620e+11  -1.338552e+12  -7.936154e+11   1.480647e+05   2.105966e-22   0.000000e+00   0.000000e+00
     2168000   2.167999e-05   1.799298e+00   1.603550e+01   1.177676e-01   1.471758e+05  -3.650247e+03  -1.585258e+04   1.781349e+11   1.271637e+10   1.649146e+12   1.480721e+05   2.149612e-22   0.000000e+00   0.000000e+00
     2176000   2.175999e-05   1.810249e+00   1.603792e+01   1.202827e-01   1.140480e+05   8.319874e+04   4.470548e+04  -6.952529e+11   1.339649e+12  -7.188578e+11   1.480796e+05   2.183593e-22   0.000000e+00   0.000000e+00
     2184000   2.183999e-05   1.818122e+00   1.604626e+01   1.195926e-01   9.966346e+04   8.758354e+04  -6.577335e+04   4.782965e+11  -1.280878e+12  -9.813008e+11   1.480872e+05   2.213177e-22   0.000000e+00   0.000000e+00
     2192000   2.191999e-05   1.828110e+00   1.604893e+01   1.145933e-01   1.465579e+05  -4.141230e+03  -2.087441e+04   2.360267e+11  -1.195215e+11   1.679455e+12   1.480949e+05   2.258889e-22   0.000000e+00   0.000000e+00
     2200000   2.199999e-05   1.839126e+00   1.605110e+01   1.169858e-01   1.150733e+05   8.050163e+04   4.703257e+04  -7.174876e+11   1.409910e+12  -6.571409e+11   1.481028e+05   2.293442e-22   0.000000e+00   0.000000e+00
     2208000   2.207999e-05   1.847002e+00   1.605943e+01   1.164809e-01   9.913311e+04   8.872324e+04  -6.509693e+04   4.819344e+11  -1.294997e+12  -1.031545e+12   1.481108e+05   2.324091e-22   0.000000e+00   0.000000e+00
     2216000   2.215999e-05   1.856983e+00   1.606210e+01   1.115006e-01   1.467346e+05  -4.850957e+03  -1.961222e+04   2.272021e+11  -1.023576e+11   1.723650e+12   1.481189e+05   2.371019e-22   0.000000e+00   0.000000e+00
     2224000   2.223999e-05   1.867941e+00   1.606435e+01   1.140126e-01   1.134303e+05   8.302274e+04   4.671661e+04  -7.250867e+11   1.411946e+12  -7.480441e+11   1.481271e+05   2.407125e-22   0.000000e+00   0.000000e+00
     2232000   2.231999e-05   1.875766e+00   1.607269e+01   1.132703e-01   1.004771e+05   8.489794e+04  -6.812355e+04   5.390031e+11  -1.393439e+12  -9.420207e+11   1.481355e+05   2.439207e-22   0.000000e+00   0.000000e+00
     2240000   2.239999e-05   1.885914e+00   1.607501e+01   1.084952e-01   1.475620e+05  -5.556835e+03  -1.188360e+04   1.460312e+11   7.471046e+10   1.775700e+12   1.481440e+05   2.486735e-22   0.000000e+00   0.000000e+00
     2248000   2.247999e-05   1.896679e+00   1.607768e+01   1.113385e-01   1.091856e+05   9.049182e+04   4.288299e+04  -7.057538e+11   1.321752e+12  -9.914726e+11   1.481526e+05   2.524657e-22   0.000000e+00   0.000000e+00
     2256000   2.255999e-05   1.904434e+00   1.608598e+01   1.099328e-01   1.042020e+05   7.539062e+04  -7.355271e+04   6.381385e+11  -1.546552e+12  -6.815905e+11   1.481614e+05   2.552701e-22   0.000000e+00   0.000000e+00
     2264000   2.263999e-05   1.914905e+00   1.608769e+01   1.056527e-01   1.480923e+05  -4.251567e+03   2.245470e+03  -1.479684e+10   4.143808e+11   1.775263e+12   1.481703e+05   2.599853e-22   0.000000e+00   0.000000e+00
     2272000   2.271999e-05   1.925301e+00   1.609118e+01   1.088906e-01   1.028974e+05   1.012690e+05   3.337422e+04  -6.281659e+11   1.081783e+12  -1.344773e+12   1.481793e+05   2.639109e-22   0.000000e+00   0.000000e+00
     2280000   2.279999e-05   1.933055e+00   1.609922e+01   1.064430e-01   1.109427e+05   5.943502e+04  -7.822422e+04   7.452965e+11  -1.678286e+12  -2.185765e+11   1.481885e+05   2.675916e-22   0.000000e+00   0.000000e+00
     2288000   2.287999e-05   1.943938e+00   1.610019e+01   1.031055e-01   1.466012e+05   2.369986e+03   2.156557e+04  -2.521748e+11   8.921009e+11   1.617839e+12   1.481978e+05   2.720824e-22   0.000000e+00   0.000000e+00
     2296000   2.295999e-05   1.953755e+00   1.610492e+01   1.065196e-01   9.594629e+04   1.119335e+05   1.518527e+04  -4.483244e+11   6.175147e+11  -1.716810e+12   1.482073e+05   2.762587e-22   0.000000e+00   0.000000e+00
     2304000   2.303999e-05   1.961716e+00   1.611220e+01   1.027823e-01   1.212775e+05   3.685954e+04  -7.682051e+04   7.976868e+11  -1.652785e+12   4.658220e+11   1.482169e+05   2.806178e-22   0.000000e+00   0.000000e+00
     2312000   2.311999e-05   1.972977e+00   1.611263e+01   1.010056e-01   1.407486e+05   1.869120e+04   4.256301e+04  -5.380780e+11   1.417840e+12   1.157554e+12   1.482266e+05   2.849400e-22   0.000000e+00   0.000000e+00
     2320000   2.319999e-05   1.982009e+00   1.611892e+01   1.039826e-01   9.098857e+04   1.162957e+05  -1.305569e+04  -1.294105e+11  -1.132766e+11  -1.913754e+12   1.482365e+05   2.890734e-22   0.000000e+00   0.000000e+00
     2328000   2.327999e-05   1.990520e+00   1.612473e+01   9.910456e-02   1.339893e+05   1.161748e+04  -6.236130e+04   7.024894e+11  -1.285966e+12   1.269198e+12   1.482466e+05   2.942830e-22   0.000000e+00   0.000000e+00
     2336000   2.335999e-05   2.001893e+00   1.612529e+01   9.944171e-02   1.286673e+05   4.707229e+04   5.664808e+04  -7.774376e+11   1.767260e+12   2.979799e+11   1.482568e+05   2.988930e-22   0.000000e+00   0.000000e+00
     2344000   2.343999e-05   2.010096e+00   1.613304e+01   1.009658e-01   9.226161e+04   1.059899e+05  -4.729782e+04   3.056222e+11  -1.006687e+12  -1.660544e+12   1.482671e+05   3.026807e-22   0.000000e+00   0.000000e+00
     2352000   2.351999e-05   2.019545e+00   1.613668e+01   9.577685e-02   1.449983e+05  -6.715381e+03  -3.027649e+04   3.748131e+11  -4.527684e+11   1.894157e+12   1.482777e+05   3.081359e-22   0.000000e+00   0.000000e+00
     2360000   2.359999e-05   2.030495e+00   1.613853e+01   9.824108e-02   1.113350e+05   8.328389e+04   5.155324e+04  -8.105666e+11   1.613184e+12  -8.548027e+11   1.482883e+05   3.126268e-22   0.000000e+00   0.000000e+00
     2368000   2.367999e-05   2.038193e+00   1.614684e+01   9.725192e-02   1.035648e+05   7.538546e+04  -7.472622e+04   7.169442e+11  -1.723460e+12  -7.455762e+11   1.482992e+05   3.166016e-22   0.000000e+00   0.000000e+00
     2376000   2.375999e-05   2.048757e+00   1.614825e+01   9.330921e-02   1.475062e+05  -4.117822e+03   1.486200e+04  -1.689402e+11   7.314523e+11   1.882167e+12   1.483102e+05   3.218141e-22   0.000000e+00   0.000000e+00
     2384000   2.383999e-05   2.058637e+00   1.615259e+01   9.684666e-02   9.476330e+04   1.125688e+05   1.863847e+04  -4.887596e+11   7.176453e+11  -1.847059e+12   1.483213e+05   3.265196e-22   0.000000e+00   0.000000e+00
     2392000   2.391999e-05   2.066591e+00   1.615975e+01   9.306284e-02   1.238495e+05   3.024689e+04  -7.582214e+04   8.493464e+11  -1.739013e+12   6.930577e+11   1.483326e+05   3.313010e-22   0.000000e+00   0.000000e+00
     2400000   2.399999e-05   2.077887e+00   1.616006e+01   9.204099e-02   1.354943e+05   2.878201e+04   5.309305e+04  -7.124659e+11   1.733729e+12   8.791677e+11   1.483441e+05   3.360943e-22   0.000000e+00   0.000000e+00
     2408000   2.407999e-05   2.086379e+00   1.616719e+01   9.444341e-02   8.972401e+04   1.129056e+05  -3.480457e+04   1.638612e+11  -7.294194e+11  -1.945050e+12   1.483557e+05   3.405204e-22   0.000000e+00   0.000000e+00
     2416000   2.415999e-05   2.095520e+00   1.617144e+01   8.926194e-02   1.434230e+05  -6.116502e+03  -3.748810e+04   4.743349e+11  -6.914622e+11   1.926364e+12   1.483675e+05   3.462114e-22   0.000000e+00   0.000000e+00
     2424000   2.423999e-05   2.106493e+00   1.617303e+01   9.158489e-02   1.111464e+05   8.183250e+04   5.446476e+04  -8.596425e+11   1.736177e+12  -8.534832e+11   1.483795e+05   3.515812e-22   0.000000e+00   0.000000e+00
     2432000   2.431999e-05   2.114145e+00   1.618131e+01   9.058508e-02   1.045678e+05   7.199771e+04  -7.682439e+04   7.882787e+11  -1.861266e+12  -6.719695e+11   1.483917e+05   3.559938e-22   0.000000e+00   0.000000e+00
     2440000   2.439999e-05   2.124829e+00   1.618243e+01   8.702734e-02   1.461922e+05  -1.398325e+03   2.548777e+04  -3.140537e+11   1.025495e+12   1.859412e+12   1.484040e+05   3.615813e-22   0.000000e+00   0.000000e+00
     2448000   2.447999e-05   2.134299e+00   1.618749e+01   9.057670e-02   9.043021e+04   1.176096e+05   4.222193e+03  -3.205345e+11   3.227149e+11  -2.113038e+12   1.484165e+05   3.666760e-22   0.000000e+00   0.000000e+00
     2456000   2.455999e-05   2.142559e+00   1.619376e+01   8.607312e-02   1.326894e+05   1.168715e+04  -6.548398e+04   7.961744e+11  -1.519303e+12   1.341400e+12   1.484292e+05   3.722108e-22   0.000000e+00   0.000000e+00
     2464000   2.463999e-05   2.153828e+00   1.619428e+01   8.668340e-02   1.237919e+05   5.370503e+04   6.185767e+04  -9.002527e+11   1.998030e+12   6.770082e+10   1.484421e+05   3.774286e-22   0.000000e+00   0.000000e+00
     2472000   2.471999e-05   2.161696e+00   1.620233e+01   8.752170e-02   9.511566e+04   9.466503e+04  -6.348591e+04   5.909494e+11  -1.561496e+12  -1.443773e+12   1.484551e+05   3.825842e-22   0.000000e+00   0.000000e+00
     2480000   2.479999e-05   2.171787e+00   1.620451e+01   8.296254e-02   1.480314e+05  -1.078390e+04   3.641016e+03  -2.243527e+10   4.247153e+11   2.183650e+12   1.484683e+05   3.887194e-22   0.000000e+00   0.000000e+00
     2488000   2.487999e-05   2.181783e+00   1.620829e+01   8.656087e-02   9.381311e+04   1.125216e+05   2.418335e+04  -5.591549e+11   8.916058e+11  -1.977337e+12   1.484818e+05   3.941521e-22   0.000000e+00   0.000000e+00
     2496000   2.495999e-05   2.189708e+00   1.621537e+01   8.279909e-02   1.262217e+05   2.362587e+04  -7.457064e+04   9.032763e+11  -1.837381e+12   9.461156e+11   1.484954e+05   3.996874e-22   0.000000e+00   0.000000e+00
     2504000   2.503999e-05   2.200968e+00   1.621566e+01   8.256769e-02   1.284995e+05   4.157045e+04   6.176360e+04  -8.856748e+11   2.038036e+12   4.717720e+11   1.485092e+05   4.055428e-22   0.000000e+00   0.000000e+00
     2512000   2.511999e-05   2.208961e+00   1.622345e+01   8.404247e-02   9.237854e+04   1.011126e+05  -5.745925e+04   5.201508e+11  -1.439335e+12  -1.697488e+12   1.485232e+05   4.105812e-22   0.000000e+00   0.000000e+00
     2520000   2.519999e-05   2.218865e+00   1.622595e+01   7.932235e-02   1.479942e+05  -1.266567e+04  -7.986603e+02   3.776727e+10   2.930804e+11   2.284115e+12   1.485373e+05   4.170117e-22   0.000000e+00   0.000000e+00
     2528000   2.527999e-05   2.228894e+00   1.622955e+01   8.292187e-02   9.334992e+04   1.125962e+05   2.599048e+04  -5.847952e+11   9.541319e+11  -2.031022e+12   1.485517e+05   4.228245e-22   0.000000e+00   0.000000e+00
     2536000   2.535999e-05   2.236813e+00   1.623658e+01   7.915260e-02   1.272781e+05   2.076363e+04  -7.376374e+04   9.202046e+11  -1.864103e+12   1.062336e+12   1.485663e+05   4.286335e-22   0.000000e+00   0.000000e+00
     2544000   2.543999e-05   2.248040e+00   1.623690e+01   7.924287e-02   1.253503e+05   4.739892e+04   6.416371e+04  -9.446115e+11   2.135363e+12   2.688228e+11   1.485810e+05   4.345487e-22   0.000000e+00   0.000000e+00
     2552000   2.551999e-05   2.255875e+00   1.624487e+01   8.026941e-02   9.463883e+04   9.414926e+04  -6.527010e+04   6.574669e+11  -1.702444e+12  -1.503258e+12   1.485960e+05   4.398314e-22   0.000000e+00   0.000000e+00
     2560000   2.559999e-05   2.266059e+00   1.624676e+01   7.595536e-02   1.475536e+05  -1.048692e+04   1.425608e+04  -1.664061e+11   7.280080e+11   2.261851e+12   1.486112e+05   4.464760e-22   0.000000e+00   0.000000e+00
     2568000   2.567999e-05   2.275640e+00   1.625125e+01   7.966166e-02   8.875892e+04   1.188618e+05   9.141751e+03  -3.771837e+11   4.607794e+11  -2.322659e+12   1.486266e+05   4.525250e-22   0.000000e+00   0.000000e+00
     2576000   2.575999e-05   2.283901e+00   1.625734e+01   7.516557e-02   1.356220e+05   3.621423e+03  -6.072930e+04   8.028154e+11  -1.512958e+12   1.701684e+12   1.486421e+05   4.589136e-22   0.000000e+00   0.000000e+00
     2584000   2.583999e-05   2.294970e+00   1.625814e+01   7.667067e-02   1.137499e+05   7.153997e+04   6.357801e+04  -1.003607e+12   2.130504e+12  -6.007885e+11   1.486579e+05   4.651479e-22   0.000000e+00   0.000000e+00
     2592000   2.591999e-05   2.302532e+00   1.626637e+01   7.605114e-02   1.046184e+05   6.901622e+04  -7.997299e+04   9.292616e+11  -2.166861e+12  -6.551028e+11   1.486739e+05   4.716080e-22   0.000000e+00   0.000000e+00
     2600000   2.599999e-05   2.313321e+00   1.626706e+01   7.318715e-02   1.416714e+05   5.801082e+03   4.476949e+04  -6.158619e+11   1.634065e+12   1.738492e+12   1.486901e+05   4.783156e-22   0.000000e+00   0.000000e+00
     2608000   2.607999e-05   2.321971e+00   1.627341e+01   7.631059e-02   8.614106e+04   1.176395e+05  -2.922878e+04   1.481488e+11  -6.979433e+11  -2.374559e+12   1.487066e+05   4.843939e-22   0.000000e+00   0.000000e+00
     2616000   2.615999e-05   2.331140e+00   1.627734e+01   7.128243e-02   1.461258e+05  -1.500896e+04  -2.325054e+04   3.470314e+11  -4.047322e+11   2.439620e+12   1.487232e+05   4.914677e-22   0.000000e+00   0.000000e+00
     2624000   2.623999e-05   2.341482e+00   1.627991e+01   7.460449e-02   9.549926e+04   1.069346e+05   3.960442e+04  -7.636574e+11   1.401712e+12  -1.941692e+12   1.487401e+05   4.980552e-22   0.000000e+00   0.000000e+00
     2632000   2.631999e-05   2.349235e+00   1.628723e+01   7.131108e-02   1.253367e+05   2.278074e+04  -7.681439e+04   1.005293e+12  -2.084157e+12   1.021391e+12   1.487572e+05   5.044318e-22   0.000000e+00   0.000000e+00
     2640000   2.639999e-05   2.360380e+00   1.628750e+01   7.150158e-02   1.220913e+05   5.138611e+04   6.772759e+04  -1.036903e+12   2.322704e+12   1.078869e+11   1.487745e+05   5.111896e-22   0.000000e+00   0.000000e+00
     2648000   2.647999e-05   2.368032e+00   1.629559e+01   7.202708e-02   9.819331e+04   8.318923e+04  -7.467728e+04   8.592403e+11  -2.091749e+12  -1.201234e+12   1.487920e+05   5.172192e-22   0.000000e+00   0.000000e+00
     2656000   2.655999e-05   2.378559e+00   1.629666e+01   6.856095e-02   1.438633e+05  -2.107716e+03   3.799026e+04  -5.219108e+11   1.461015e+12   2.059204e+12   1.488098e+05   5.244921e-22   0.000000e+00   0.000000e+00
     2664000   2.663999e-05   2.387339e+00   1.630261e+01   7.192634e-02   8.495758e+04   1.197736e+05  -2.421167e+04   9.031108e+10  -5.746476e+11  -2.528629e+12   1.488278e+05   5.313325e-22   0.000000e+00   0.000000e+00
     2672000   2.671999e-05   2.396428e+00   1.630664e+01   6.694176e-02   1.462240e+05  -1.655542e+04  -2.235175e+04   3.457529e+11  -4.038789e+11   2.557987e+12   1.488460e+05   5.388532e-22   0.000000e+00   0.000000e+00
     2680000   2.679999e-05   2.406642e+00   1.630936e+01   7.037081e-02   9.266406e+04   1.109690e+05   3.549468e+04  -7.246336e+11   1.298894e+12  -2.167097e+12   1.488644e+05   5.455062e-22   0.000000e+00   0.000000e+00
     2688000   2.687999e-05   2.414496e+00   1.631631e+01   6.670591e-02   1.299745e+05   1.214583e+04  -7.159116e+04   9.824287e+11  -1.984979e+12   1.445869e+12   1.488831e+05   5.525393e-22   0.000000e+00   0.000000e+00
     2696000   2.695999e-05   2.425533e+00   1.631682e+01   6.776803e-02   1.139195e+05   6.765677e+04   6.794650e+04  -1.095906e+12   2.369405e+12  -5.208569e+11   1.489020e+05   5.598320e-22   0.000000e+00   0.000000e+00
     2704000   2.703999e-05   2.433026e+00   1.632497e+01   6.712085e-02   1.065918e+05   6.229978e+04  -8.327334e+04   1.054118e+12  -2.417775e+12  -4.603904e+11   1.489212e+05   5.664855e-22   0.000000e+00   0.000000e+00
     2712000   2.711999e-05   2.443904e+00   1.632535e+01   6.502431e-02   1.355196e+05   1.757576e+04   5.923538e+04  -8.771805e+11   2.148436e+12   1.370589e+12   1.489406e+05   5.741405e-22   0.000000e+00   0.000000e+00
     2720000   2.719999e-05   2.451970e+00   1.633259e+01   6.727994e-02   8.883407e+04   1.054027e+05  -5.646169e+04   5.932732e+11  -1.619643e+12  -2.091423e+12   1.489602e+05   5.810542e-22   0.000000e+00   0.000000e+00
     2728000   2.727999e-05   2.461925e+00   1.633468e+01   6.291355e-02   1.470232e+05  -1.424841e+04   1.939627e+04  -2.495088e+11   9.075837e+11   2.561817e+12   1.489801e+05   5.890864e-22   0.000000e+00   0.000000e+00
     2736000   2.735999e-05   2.471080e+00   1.633965e+01   6.662573e-02   8.383081e+04   1.228621e+05  -8.851668e+03  -1.193486e+11  -1.154309e+11  -2.741018e+12   1.490002e+05   5.965137e-22   0.000000e+00   0.000000e+00
     2744000   2.743999e-05   2.479871e+00   1.634424e+01   6.173941e-02   1.450175e+05  -1.700483e+04  -2.979764e+04   4.631373e+11  -6.791440e+11   2.638978e+12   1.490206e+05   6.045252e-22   0.000000e+00   0.000000e+00
     2752000   2.751999e-05   2.490094e+00   1.634674e+01   6.509882e-02   9.150199e+04   1.115999e+05   3.723068e+04  -7.610149e+11   1.387691e+12  -2.287213e+12   1.490412e+05   6.123096e-22   0.000000e+00   0.000000e+00
     2760000   2.759999e-05   2.497964e+00   1.635351e+01   6.135272e-02   1.324028e+05   5.586054e+03  -6.824809e+04   9.802148e+11  -1.960167e+12   1.740052e+12   1.490621e+05   6.199771e-22   0.000000e+00   0.000000e+00
     2768000   2.767999e-05   2.508843e+00   1.635425e+01   6.300417e-02   1.068180e+05   8.043487e+04   6.592390e+04  -1.118991e+12   2.359161e+12  -1.064120e+12   1.490832e+05   6.295994e-22   0.000000e+00   0.000000e+00
     2776000   2.775999e-05   2.516296e+00   1.636221e+01   6.137321e-02   1.151983e+05   4.151944e+04  -8.507459e+04   1.165797e+12  -2.564313e+12   3.261686e+11   1.491047e+05   6.369917e-22   0.000000e+00   0.000000e+00
     2784000   2.783999e-05   2.527291e+00   1.636235e+01   6.076605e-02   1.237463e+05   4.266031e+04   7.145365e+04  -1.132340e+12   2.586020e+12   4.182288e+11   1.491264e+05   6.453739e-22   0.000000e+00   0.000000e+00
     2792000   2.791999e-05   2.534854e+00   1.637032e+01   6.139655e-02   9.910609e+04   7.790839e+04  -7.970887e+04   1.025882e+12  -2.439508e+12  -1.109905e+12   1.491484e+05   6.527701e-22   0.000000e+00   0.000000e+00
     2800000   2.799999e-05   2.545501e+00   1.637094e+01   5.871676e-02   1.374432e+05   9.535608e+03   5.718665e+04  -8.646406e+11   2.152910e+12   1.720560e+12   1.491706e+05   6.614826e-22   0.000000e+00   0.000000e+00
     2808000   2.807999e-05   2.553554e+00   1.637801e+01   6.115603e-02   8.776302e+04   1.057648e+05  -5.805218e+04   6.598907e+11  -1.761590e+12  -2.213259e+12   1.491931e+05   6.691549e-22   0.000000e+00   0.000000e+00
     2816000   2.815999e-05   2.563571e+00   1.637983e+01   5.704069e-02   1.454983e+05  -1.244551e+04   3.067137e+04  -4.338503e+11   1.293469e+12   2.585729e+12   1.492159e+05   6.780946e-22   0.000000e+00   0.000000e+00
     2824000   2.823999e-05   2.572295e+00   1.638549e+01   6.054603e-02   8.241765e+04   1.211565e+05  -2.829681e+04   1.927942e+11  -7.903829e+11  -2.825647e+12   1.492389e+05   6.861512e-22   0.000000e+00   0.000000e+00
     2832000   2.831999e-05   2.581593e+00   1.638880e+01   5.577191e-02   1.476790e+05  -2.168280e+04  -3.901042e+01   4.095979e+10   2.696322e+11   2.946605e+12   1.492623e+05   6.951538e-22   0.000000e+00   0.000000e+00
     2840000   2.839999e-05   2.590998e+00   1.639293e+01   5.958890e-02   8.249125e+04   1.244041e+05   2.257685e+03  -2.689008e+11   2.326510e+11  -2.955313e+12   1.492859e+05   7.035883e-22   0.000000e+00   0.000000e+00
     2848000   2.847999e-05   2.599632e+00   1.639770e+01   5.484444e-02   1.451414e+05  -1.998985e+04  -2.877131e+04   4.719155e+11  -7.102831e+11   2.871028e+12   1.493098e+05   7.125271e-22   0.000000e+00   0.000000e+00
     2856000   2.855999e-05   2.609622e+00   1.640046e+01   5.836544e-02   8.670812e+04   1.181721e+05   2.859461e+04  -6.569858e+11   1.137310e+12  -2.704773e+12   1.493338e+05   7.183903e-22   0.000000e+00   0.000000e+00
     2864000   2.863999e-05   2.617742e+00   1.640644e+01   5.413845e-02   1.396099e+05  -1.071816e+04  -5.198147e+04   8.102482e+11  -1.518053e+12   2.487385e+12   1.493582e+05   7.271427e-22   0.000000e+00   0.000000e+00
     2872000   2.871999e-05   2.628153e+00   1.640814e+01   5.700063e-02   9.279165e+04   1.064742e+05   4.866402e+04  -9.426608e+11   1.842176e+12  -2.231228e+12   1.493828e+05   7.363303e-22   0.000000e+00   0.000000e+00
     2880000   2.879999e-05   2.635907e+00   1.641501e+01   5.354700e-02   1.327286e+05   2.318056e+03  -6.855951e+04   1.045271e+12  -2.113976e+12   1.950764e+12   1.494077e+05   7.450361e-22   0.000000e+00   0.000000e+00
     2888000   2.887999e-05   2.646583e+00   1.641596e+01   5.559203e-02   9.952252e+04   9.246363e+04   6.225716e+04  -1.128973e+12   2.334451e+12  -1.660833e+12   1.494330e+05   7.544888e-22   0.000000e+00   0.000000e+00
     2896000   2.895999e-05   2.654115e+00   1.642340e+01   5.298689e-02   1.257739e+05   1.629551e+04  -7.907730e+04   1.188765e+12  -2.508320e+12   1.372648e+12   1.494585e+05   7.632135e-22   0.000000e+00   0.000000e+00
     2904000   2.903999e-05   2.664929e+00   1.642390e+01   5.421160e-02   1.058560e+05   7.864223e+04   7.039498e+04  -1.234477e+12   2.642912e+12  -1.094830e+12   1.494843e+05   7.729185e-22   0.000000e+00   0.000000e+00
     2912000   2.911999e-05   2.672346e+00   1.643167e+01   5.240000e-02   1.195714e+05   2.917568e+04  -8.488117e+04   1.263482e+12  -2.742115e+12   8.361701e+11   1.495104e+05   7.817259e-22   0.000000e+00   0.000000e+00
     2920000   2.919999e-05   2.683209e+00   1.643193e+01   5.290345e-02   1.111711e+05   6.661415e+04   7.459759e+04  -1.284098e+12   2.815670e+12  -5.993423e+11   1.495368e+05   7.916714e-22   0.000000e+00   0.000000e+00
     2928000   2.927999e-05   2.690582e+00   1.643984e+01   5.175355e-02   1.145678e+05   3.975115e+04  -8.754033e+04   1.294667e+12  -2.866199e+12   3.917283e+11   1.495635e+05   8.006098e-22   0.000000e+00   0.000000e+00
     2936000   2.935999e-05   2.701441e+00   1.644001e+01   5.168968e-02   1.151918e+05   5.724255e+04   7.636408e+04  -1.299674e+12   2.901910e+12  -2.134432e+11   1.495905e+05   8.097559e-22   0.000000e+00   0.000000e+00
     2944000   2.943999e-05   2.708814e+00   1.644794e+01   5.103177e-02   1.110253e+05   4.734696e+04  -8.841460e+04   1.302108e+12  -2.927188e+12   6.640175e+10   1.496178e+05   8.190273e-22   0.000000e+00   0.000000e+00
     2952000   2.951999e-05   2.719649e+00   1.644808e+01   5.058030e-02   1.177879e+05   5.086051e+04   7.702582e+04  -1.305229e+12   2.947419e+12   5.111154e+10   1.496455e+05   8.293188e-22   0.000000e+00   0.000000e+00
     2960000   2.959999e-05   2.727026e+00   1.645601e+01   5.023733e-02   1.088372e+05   5.191308e+04  -8.866581e+04   1.307090e+12  -2.963460e+12  -1.318148e+11   1.496734e+05   8.387635e-22   0.000000e+00   0.000000e+00
     2968000   2.967999e-05   2.737832e+00   1.645615e+01   4.957734e-02   1.189455e+05   4.768305e+04   7.738789e+04  -1.312144e+12   2.980073e+12   1.819537e+11   1.497017e+05   8.492781e-22   0.000000e+00   0.000000e+00
     2976000   2.975999e-05   2.745209e+00   1.646406e+01   4.936546e-02   1.080844e+05   5.324855e+04  -8.889040e+04   1.317621e+12  -2.996400e+12  -1.940291e+11   1.497302e+05   8.589102e-22   0.000000e+00   0.000000e+00
     2984000   2.983999e-05   2.755995e+00   1.646420e+01   4.867974e-02   1.186674e+05   4.776011e+04   7.787689e+04  -1.327085e+12   3.015083e+12   1.745039e+11   1.497591e+05   8.696423e-22   0.000000e+00   0.000000e+00
     2992000   2.991999e-05   2.763361e+00   1.647210e+01   4.841669e-02   1.087720e+05   5.131177e+04  -8.928780e+04   1.336839e+12  -3.033235e+12  -1.158055e+11   1.497883e+05   8.794733e-22   0.000000e+00   0.000000e+00
     3000000   2.999999e-05   2.774139e+00   1.647223e+01   4.788654e-02   1.169365e+05   5.113452e+04   7.846345e+04  -1.349569e+12   3.051503e+12   2.406368e+10   1.498179e+05   8.904192e-22   0.000000e+00   0.000000e+00
     3008000   3.007999e-05   2.781485e+00   1.648011e+01   4.739128e-02   1.109285e+05   4.605997e+04  -8.959752e+04   1.360550e+12  -3.064629e+12   1.077534e+11   1.498478e+05   9.004611e-22   0.000000e+00   0.000000e+00
     3016000   3.015999e-05   2.792256e+00   1.648026e+01   4.719666e-02   1.137189e+05   5.783635e+04   7.865351e+04  -1.371598e+12   3.071346e+12  -2.739214e+11   1.498780e+05   9.116157e-22   0.000000e+00   0.000000e+00
     3024000   3.023999e-05   2.799589e+00   1.648809e+01   4.629063e-02   1.145819e+05   3.750011e+04  -8.909154e+04   1.376783e+12  -3.063877e+12   4.797710e+11   1.499086e+05   9.218823e-22   0.000000e+00   0.000000e+00
     3032000   3.031999e-05   2.810338e+00   1.648831e+01   4.660832e-02   1.089315e+05   6.805524e+04   7.735792e+04  -1.379251e+12   3.037080e+12  -7.281578e+11   1.499395e+05   9.337455e-22   0.000000e+00   0.000000e+00
     3040000   3.039999e-05   2.817683e+00   1.649601e+01   4.510556e-02   1.198045e+05   2.558196e+04  -8.650821e+04   1.367025e+12  -2.982304e+12   1.009901e+12   1.499707e+05   9.442636e-22   0.000000e+00   0.000000e+00
     3048000   3.047999e-05   2.828366e+00   1.649641e+01   4.610348e-02   1.026929e+05   8.115371e+04   7.327312e+04  -1.343194e+12   2.893975e+12  -1.321101e+12   1.500023e+05   9.560285e-22   0.000000e+00   0.000000e+00
     3056000   3.055999e-05   2.835783e+00   1.650383e+01   4.386687e-02   1.262789e+05   1.114675e+04  -8.024754e+04   1.297438e+12  -2.762343e+12   1.656466e+12   1.500343e+05   9.671191e-22   0.000000e+00   0.000000e+00
     3064000   3.063999e-05   2.846323e+00   1.650459e+01   4.565727e-02   9.544728e+04   9.603513e+04   6.470748e+04  -1.233528e+12   2.579091e+12  -2.006330e+12   1.500666e+05   9.788419e-22   0.000000e+00   0.000000e+00
     3072000   3.071999e-05   2.853908e+00   1.651151e+01   4.261892e-02   1.334446e+05  -4.268094e+03  -6.858666e+04   1.139594e+12  -2.336494e+12   2.360834e+12   1.500993e+05   9.899250e-22   0.000000e+00   0.000000e+00
     3080000   3.079999e-05   2.864194e+00   1.651289e+01   4.522321e-02   8.792493e+04   1.109927e+05   4.989541e+04  -1.020051e+12   2.026040e+12  -2.706922e+12   1.501323e+05   1.001714e-21   0.000000e+00   0.000000e+00
     3088000   3.087999e-05   2.872074e+00   1.651903e+01   4.141739e-02   1.403651e+05  -1.848026e+04  -5.005860e+04   8.629323e+11  -1.646962e+12   3.025170e+12   1.501657e+05   1.013088e-21   0.000000e+00   0.000000e+00
     3096000   3.095999e-05   2.881966e+00   1.652132e+01   4.472592e-02   8.131265e+04   1.231891e+05   2.779537e+04  -6.771924e+11   1.191941e+12  -3.297038e+12   1.501995e+05   1.024877e-21   0.000000e+00   0.000000e+00
     3104000   3.103999e-05   2.890288e+00   1.652637e+01   4.034932e-02   1.455776e+05  -2.814837e+04  -2.418587e+04   4.518769e+11  -6.727355e+11   3.497525e+12   1.502336e+05   1.036575e-21   0.000000e+00   0.000000e+00
     3112000   3.111999e-05   2.899641e+00   1.652988e+01   4.406746e-02   7.729503e+04   1.288582e+05  -1.238923e+03  -2.021692e+11   8.764072e+10  -3.602924e+12   1.502681e+05   1.048329e-21   0.000000e+00   0.000000e+00
     3120000   3.119999e-05   2.908538e+00   1.653358e+01   3.952019e-02   1.472466e+05  -2.915612e+04   7.703735e+03  -7.993298e+10   5.401183e+11   3.589092e+12   1.503030e+05   1.060896e-21   0.000000e+00   0.000000e+00
     3128000   3.127999e-05   2.917240e+00   1.653852e+01   4.313642e-02   7.779729e+04   1.238452e+05  -3.480717e+04   3.726549e+11  -1.196568e+12  -3.428344e+12   1.503383e+05   1.073031e-21   0.000000e+00   0.000000e+00
     3136000   3.135999e-05   2.926789e+00   1.654074e+01   3.902196e-02   1.434319e+05  -1.764953e+04   4.157035e+04  -6.734463e+11   1.836239e+12   3.106474e+12   1.503739e+05   1.085729e-21   0.000000e+00   0.000000e+00
     3144000   3.143999e-05   2.934816e+00   1.654709e+01   4.185408e-02   8.452660e+04   1.049084e+05  -6.687785e+04   9.544881e+11  -2.430419e+12  -2.608155e+12   1.504100e+05   1.097936e-21   0.000000e+00   0.000000e+00
     3152000   3.151999e-05   2.944968e+00   1.654802e+01   3.890579e-02   1.329657e+05   8.366032e+03   6.988739e+04  -1.204149e+12   2.924807e+12   1.942830e+12   1.504464e+05   1.111259e-21   0.000000e+00   0.000000e+00
     3160000   3.159999e-05   2.952452e+00   1.655542e+01   4.022132e-02   9.790043e+04   7.195689e+04  -8.878579e+04   1.393309e+12  -3.275700e+12  -1.120032e+12   1.504832e+05   1.123659e-21   0.000000e+00   0.000000e+00
     3168000   3.167999e-05   2.962984e+00   1.655563e+01   3.910987e-02   1.164511e+05   4.662473e+04   8.319664e+04  -1.504679e+12   3.434145e+12   1.832576e+11   1.505205e+05   1.137535e-21   0.000000e+00   0.000000e+00
     3176000   3.175999e-05   2.970241e+00   1.656330e+01   3.837121e-02   1.160683e+05   3.007519e+04  -9.105694e+04   1.513664e+12  -3.358449e+12   8.186090e+11   1.505581e+05   1.150178e-21   0.000000e+00   0.000000e+00
     3184000   3.183999e-05   2.980752e+00   1.656373e+01   3.942349e-02   9.712847e+04   8.897087e+04   7.300306e+04  -1.410239e+12   3.024828e+12  -1.808186e+12   1.505962e+05   1.164288e-21   0.000000e+00   0.000000e+00
     3192000   3.191999e-05   2.988248e+00   1.657061e+01   3.658907e-02   1.343547e+05  -9.592311e+03  -6.743571e+04   1.181976e+12  -2.425789e+12   2.697791e+12   1.506346e+05   1.177148e-21   0.000000e+00   0.000000e+00
     3200000   3.199999e-05   2.998239e+00   1.657236e+01   3.949865e-02   8.092433e+04   1.217099e+05   3.661206e+04  -8.430666e+11   1.582303e+12  -3.392602e+12   1.506735e+05   1.191070e-21   0.000000e+00   0.000000e+00
     3208000   3.207999e-05   3.006460e+00   1.657741e+01   3.525570e-02   1.458856e+05  -3.201203e+04  -2.017324e+04   4.033772e+11  -5.591070e+11   3.796920e+12   1.507128e+05   1.205266e-21   0.000000e+00   0.000000e+00
     3216000   3.215999e-05   3.015510e+00   1.658132e+01   3.895839e-02   7.491880e+04   1.296210e+05  -1.766021e+04   8.799347e+10  -5.723194e+11  -3.835896e+12   1.507525e+05   1.218654e-21   0.000000e+00   0.000000e+00
     3224000   3.223999e-05   3.024749e+00   1.658401e+01   3.471005e-02   1.443741e+05  -2.376735e+04   3.646448e+04  -5.970680e+11   1.685254e+12   3.466588e+12   1.507927e+05   1.232624e-21   0.000000e+00   0.000000e+00
     3232000   3.231999e-05   3.032746e+00   1.659020e+01   3.758437e-02   8.379962e+04   1.039476e+05  -7.016543e+04   1.053647e+12  -2.658441e+12  -2.682190e+12   1.508332e+05   1.246080e-21   0.000000e+00   0.000000e+00
     3240000   3.239999e-05   3.042896e+00   1.659093e+01   3.500187e-02   1.277355e+05   1.750943e+04   7.835872e+04  -1.404180e+12   3.345495e+12   1.543432e+12   1.508742e+05   1.260920e-21   0.000000e+00   0.000000e+00
     3248000   3.247999e-05   3.050193e+00   1.659845e+01   3.552236e-02   1.061171e+05   5.034690e+04  -9.476228e+04   1.584268e+12  -3.629677e+12  -1.559920e+11   1.509157e+05   1.274805e-21   0.000000e+00   0.000000e+00
     3256000   3.255999e-05   3.060667e+00   1.659867e+01   3.575540e-02   1.015452e+05   7.693675e+04   8.097826e+04  -1.556598e+12   3.429802e+12  -1.304718e+12   1.509575e+05   1.290130e-21   0.000000e+00   0.000000e+00
     3264000   3.263999e-05   3.068037e+00   1.660571e+01   3.336924e-02   1.321653e+05  -7.326746e+03  -7.266084e+04   1.299660e+12  -2.723046e+12   2.636365e+12   1.509998e+05   1.304315e-21   0.000000e+00   0.000000e+00
     3272000   3.271999e-05   3.077962e+00   1.660739e+01   3.620832e-02   7.892737e+04   1.238039e+05   3.545323e+04  -8.355934e+11   1.569318e+12  -3.615304e+12   1.510426e+05   1.319432e-21   0.000000e+00   0.000000e+00
     3280000   3.279999e-05   3.086256e+00   1.661212e+01   3.196222e-02   1.466891e+05  -3.511154e+04  -8.741063e+03   2.127860e+11  -1.220205e+11   4.042267e+12   1.510858e+05   1.333907e-21   0.000000e+00   0.000000e+00
     3288000   3.287999e-05   3.094949e+00   1.661663e+01   3.556701e-02   7.490451e+04   1.257959e+05  -3.748089e+04   4.622797e+11  -1.403991e+12  -3.792735e+12   1.511294e+05   1.348484e-21   0.000000e+00   0.000000e+00
     3296000   3.295999e-05   3.104537e+00   1.661842e+01   3.187899e-02   1.379136e+05  -9.327744e+03   6.120657e+04  -1.081298e+12   2.723589e+12   2.854236e+12   1.511735e+05   1.362631e-21   0.000000e+00   0.000000e+00
     3304000   3.303999e-05   3.112049e+00   1.662542e+01   3.362736e-02   9.514454e+04   7.439090e+04  -9.099667e+04   1.513110e+12  -3.578603e+12  -1.345328e+12   1.512180e+05   1.377447e-21   0.000000e+00   0.000000e+00
     3312000   3.311999e-05   3.122425e+00   1.662563e+01   3.285017e-02   1.086748e+05   5.919131e+04   8.698658e+04  -1.662688e+12   3.755812e+12  -4.764896e+11   1.512630e+05   1.393911e-21   0.000000e+00   0.000000e+00
     3320000   3.319999e-05   3.129672e+00   1.663289e+01   3.115589e-02   1.274818e+05   9.347875e+02  -8.149687e+04   1.470196e+12  -3.162269e+12   2.261368e+12   1.513084e+05   1.409229e-21   0.000000e+00   0.000000e+00
     3328000   3.327999e-05   3.139647e+00   1.663426e+01   3.369695e-02   7.922151e+04   1.219684e+05   4.190219e+04  -9.569378e+11   1.864922e+12  -3.615011e+12   1.513543e+05   1.425329e-21   0.000000e+00   0.000000e+00
     3336000   3.335999e-05   3.147859e+00   1.663906e+01   2.955132e-02   1.466140e+05  -3.688860e+04  -8.106685e+03   2.057694e+11  -1.085666e+11   4.193717e+12   1.514007e+05   1.440856e-21   0.000000e+00   0.000000e+00
     3344000   3.343999e-05   3.156434e+00   1.664368e+01   3.309014e-02   7.482994e+04   1.239033e+05  -4.455124e+04   6.108033e+11  -1.733792e+12  -3.799990e+12   1.514475e+05   1.456267e-21   0.000000e+00   0.000000e+00
     3352000   3.351999e-05   3.166121e+00   1.664514e+01   2.973897e-02   1.334930e+05  -5.424142e+02   7.162413e+04  -1.306333e+12   3.200973e+12   2.461497e+12   1.514948e+05   1.472932e-21   0.000000e+00   0.000000e+00
     3360000   3.359999e-05   3.173446e+00   1.665236e+01   3.080156e-02   1.025750e+05   5.543262e+04  -9.680265e+04   1.683165e+12  -3.893796e+12  -4.480722e+11   1.515426e+05   1.488898e-21   0.000000e+00   0.000000e+00
     3368000   3.367999e-05   3.183770e+00   1.665262e+01   3.108816e-02   9.679489e+04   8.375229e+04   8.121644e+04  -1.623425e+12   3.567714e+12  -1.742024e+12   1.515909e+05   1.506492e-21   0.000000e+00   0.000000e+00
     3376000   3.375999e-05   3.191219e+00   1.665919e+01   2.827335e-02   1.380997e+05  -2.308968e+04  -5.822313e+04   1.107176e+12  -2.241885e+12   3.511994e+12   1.516397e+05   1.522803e-21   0.000000e+00   0.000000e+00
     3384000   3.383999e-05   3.200599e+00   1.666184e+01   3.163606e-02   7.189513e+04   1.335424e+05   2.655760e+03  -2.628228e+11   2.288104e+11  -4.319818e+12   1.516890e+05   1.539884e-21   0.000000e+00   0.000000e+00
     3392000   3.391999e-05   3.209527e+00   1.666486e+01   2.748776e-02   1.436955e+05  -2.813335e+04   3.980915e+04  -6.926346e+11   1.908926e+12   3.853956e+12   1.517387e+05   1.556848e-21   0.000000e+00   0.000000e+00
     3400000   3.399999e-05   3.217250e+00   1.667119e+01   2.996723e-02   8.773580e+04   8.922201e+04  -8.591722e+04   1.452748e+12  -3.514941e+12  -2.168876e+12   1.517890e+05   1.573691e-21   0.000000e+00   0.000000e+00
     3408000   3.407999e-05   3.227450e+00   1.667150e+01   2.876421e-02   1.094810e+05   5.397480e+04   9.031040e+04  -1.765581e+12   4.024721e+12  -2.628945e+11   1.518398e+05   1.592444e-21   0.000000e+00   0.000000e+00
     3416000   3.415999e-05   3.234658e+00   1.667862e+01   2.709547e-02   1.293704e+05  -6.126358e+03  -7.935165e+04   1.490073e+12  -3.196021e+12   2.673611e+12   1.518911e+05   1.609821e-21   0.000000e+00   0.000000e+00
     3424000   3.423999e-05   3.244353e+00   1.668038e+01   2.992813e-02   7.356994e+04   1.303889e+05   2.593945e+04  -6.923930e+11   1.231410e+12  -4.218477e+12   1.519430e+05   1.628052e-21   0.000000e+00   0.000000e+00
     3432000   3.431999e-05   3.252900e+00   1.668417e+01   2.574883e-02   1.458357e+05  -3.593578e+04   2.330511e+04  -3.813200e+11   1.224683e+12   4.283179e+12   1.519953e+05   1.645600e-21   0.000000e+00   0.000000e+00
     3440000   3.439999e-05   3.260808e+00   1.669000e+01   2.861410e-02   8.285772e+04   9.980100e+04  -7.932849e+04   1.334589e+12  -3.292679e+12  -2.751012e+12   1.520482e+05   1.663225e-21   0.000000e+00   0.000000e+00
     3448000   3.447999e-05   3.270891e+00   1.669044e+01   2.700995e-02   1.122662e+05   4.615923e+04   9.165438e+04  -1.800674e+12   4.142130e+12   1.217762e+11   1.521016e+05   1.682823e-21   0.000000e+00   0.000000e+00
     3456000   3.455999e-05   3.278057e+00   1.669757e+01   2.558212e-02   1.280914e+05  -4.696232e+03  -8.198682e+04   1.557526e+12  -3.363459e+12   2.623533e+12   1.521555e+05   1.701107e-21   0.000000e+00   0.000000e+00
     3464000   3.463999e-05   3.287706e+00   1.669932e+01   2.837391e-02   7.239715e+04   1.316353e+05   2.446806e+04  -6.715008e+11   1.180973e+12  -4.358114e+12   1.522100e+05   1.720247e-21   0.000000e+00   0.000000e+00
     3472000   3.471999e-05   3.296293e+00   1.670292e+01   2.424775e-02   1.449973e+05  -3.508435e+04   3.048786e+04  -5.252927e+11   1.547633e+12   4.286104e+12   1.522650e+05   1.738262e-21   0.000000e+00   0.000000e+00
     3480000   3.479999e-05   3.304040e+00   1.670897e+01   2.685875e-02   8.597299e+04   9.085439e+04  -8.692345e+04   1.513755e+12  -3.671183e+12  -2.342448e+12   1.523206e+05   1.757248e-21   0.000000e+00   0.000000e+00
     3488000   3.487999e-05   3.314144e+00   1.670929e+01   2.583674e-02   1.048473e+05   6.158093e+04   9.183411e+04  -1.848416e+12   4.193588e+12  -6.994006e+11   1.523767e+05   1.778057e-21   0.000000e+00   0.000000e+00
     3496000   3.495999e-05   3.321389e+00   1.671607e+01   2.371572e-02   1.349194e+05  -2.065640e+04  -6.786757e+04   1.330601e+12  -2.785514e+12   3.489818e+12   1.524334e+05   1.797300e-21   0.000000e+00   0.000000e+00
     3504000   3.503999e-05   3.330658e+00   1.671861e+01   2.694656e-02   6.899275e+04   1.359728e+05  -2.188211e+03  -1.700860e+11   1.260061e+10  -4.679927e+12   1.524906e+05   1.817077e-21   0.000000e+00   0.000000e+00
     3512000   3.511999e-05   3.339671e+00   1.672114e+01   2.309066e-02   1.390857e+05  -2.075973e+04   5.912052e+04  -1.105757e+12   2.826291e+12   3.597557e+12   1.525484e+05   1.836881e-21   0.000000e+00   0.000000e+00
     3520000   3.519999e-05   3.347014e+00   1.672793e+01   2.461812e-02   9.921213e+04   5.810865e+04  -1.003453e+05   1.846111e+12  -4.303450e+12  -6.690381e+11   1.526068e+05   1.856740e-21   0.000000e+00   0.000000e+00
     3528000   3.527999e-05   3.357093e+00   1.672831e+01   2.517202e-02   8.779907e+04   9.817669e+04   7.719779e+04  -1.645128e+12   3.574416e+12  -2.671805e+12   1.526658e+05   1.878606e-21   0.000000e+00   0.000000e+00
     3536000   3.535999e-05   3.364750e+00   1.673394e+01   2.178088e-02   1.447859e+05  -4.143796e+04  -2.539619e+04   5.554745e+11  -9.189699e+11   4.657260e+12   1.527253e+05   1.898497e-21   0.000000e+00   0.000000e+00
     3544000   3.543999e-05   3.373204e+00   1.673825e+01   2.518031e-02   7.210423e+04   1.234195e+05  -5.396300e+04   8.576334e+11  -2.303345e+12  -4.126332e+12   1.527854e+05   1.918658e-21   0.000000e+00   0.000000e+00
     3552000   3.551999e-05   3.382896e+00   1.673921e+01   2.263757e-02   1.200017e+05   2.418346e+04   9.152424e+04  -1.820880e+12   4.291737e+12   1.255981e+12   1.528461e+05   1.940539e-21   0.000000e+00   0.000000e+00
     3560000   3.559999e-05   3.389978e+00   1.674631e+01   2.187070e-02   1.240973e+05   3.857816e+02  -8.933310e+04   1.745015e+12  -3.836325e+12   2.404889e+12   1.529074e+05   1.961578e-21   0.000000e+00   0.000000e+00
     3568000   3.567999e-05   3.399517e+00   1.674798e+01   2.452326e-02   6.952008e+04   1.345242e+05   2.167500e+04  -6.331383e+11   1.088206e+12  -4.712175e+12   1.529693e+05   1.983486e-21   0.000000e+00   0.000000e+00
     3576000   3.575999e-05   3.408171e+00   1.675116e+01   2.057317e-02   1.420091e+05  -3.103254e+04   4.784501e+04  -8.921621e+11   2.375541e+12   4.193843e+12   1.530318e+05   2.004951e-21   0.000000e+00   0.000000e+00
     3584000   3.583999e-05   3.415576e+00   1.675764e+01   2.243318e-02   9.561067e+04   6.436498e+04  -1.007661e+05   1.884359e+12  -4.429659e+12  -1.043930e+12   1.530949e+05   2.026231e-21   0.000000e+00   0.000000e+00
     3592000   3.591999e-05   3.425563e+00   1.675803e+01   2.287803e-02   8.613429e+04   9.965390e+04   7.815088e+04  -1.693006e+12   3.689769e+12  -2.835909e+12   1.531587e+05   2.049698e-21   0.000000e+00   0.000000e+00
     3600000   3.599999e-05   3.433246e+00   1.676343e+01   1.945256e-02   1.455709e+05  -4.505859e+04  -1.600345e+04   3.836447e+11  -5.184706e+11   4.934026e+12   1.532230e+05   2.071293e-21   0.000000e+00   0.000000e+00
     3608000   3.607999e-05   3.441432e+00   1.676814e+01   2.267534e-02   7.463275e+04   1.144366e+05  -6.950837e+04   1.203441e+12  -3.066880e+12  -3.760657e+12   1.532879e+05   2.092804e-21   0.000000e+00   0.000000e+00
     3616000   3.615999e-05   3.451222e+00   1.676875e+01   2.089705e-02   1.088745e+05   4.758249e+04   9.695128e+04  -1.997256e+12   4.612160e+12  -1.810388e+10   1.533535e+05   2.116784e-21   0.000000e+00   0.000000e+00
     3624000   3.623999e-05   3.458369e+00   1.677544e+01   1.907825e-02   1.350090e+05  -2.546327e+04  -6.827737e+04   1.397235e+12  -2.945559e+12   3.857614e+12   1.534197e+05   2.139444e-21   0.000000e+00   0.000000e+00
     3632000   3.631999e-05   3.467330e+00   1.677829e+01   2.231261e-02   6.617828e+04   1.368624e+05  -2.114765e+04   2.150524e+11  -8.738752e+11  -4.994714e+12   1.534865e+05   2.162067e-21   0.000000e+00   0.000000e+00
     3640000   3.639999e-05   3.476570e+00   1.677999e+01   1.909217e-02   1.278705e+05   1.760336e+03   8.499913e+04  -1.703022e+12   4.119131e+12   2.479736e+12   1.535540e+05   2.185773e-21   0.000000e+00   0.000000e+00
     3648000   3.647999e-05   3.483620e+00   1.678697e+01   1.903129e-02   1.187109e+05   9.254450e+03  -9.706599e+04   1.932642e+12  -4.329242e+12   1.948141e+12   1.536220e+05   2.209245e-21   0.000000e+00   0.000000e+00
     3656000   3.655999e-05   3.493109e+00   1.678846e+01   2.145611e-02   6.769573e+04   1.358954e+05   2.388666e+04  -6.841717e+11   1.214475e+12  -4.959284e+12   1.536908e+05   2.233514e-21   0.000000e+00   0.000000e+00
     3664000   3.663999e-05   3.501740e+00   1.679146e+01   1.765989e-02   1.395403e+05  -2.823467e+04   5.808178e+04  -1.129464e+12   2.909720e+12   4.132604e+12   1.537602e+05   2.259373e-21   0.000000e+00   0.000000e+00
     3672000   3.671999e-05   3.508958e+00   1.679808e+01   1.897712e-02   1.031629e+05   4.378494e+04  -1.053758e+05   2.064882e+12  -4.776702e+12   3.416999e+10   1.538303e+05   2.283459e-21   0.000000e+00   0.000000e+00
     3680000   3.679999e-05   3.518701e+00   1.679884e+01   2.035401e-02   7.405885e+04   1.225911e+05   5.632262e+04  -1.323799e+12   2.752983e+12  -4.246582e+12   1.539010e+05   2.309447e-21   0.000000e+00   0.000000e+00
     3688000   3.687999e-05   3.526835e+00   1.680292e+01   1.656972e-02   1.447095e+05  -4.325748e+04   2.992436e+04  -5.444640e+11   1.612711e+12   4.973450e+12   1.539725e+05   2.334202e-21   0.000000e+00   0.000000e+00
     3696000   3.695999e-05   3.534303e+00   1.680894e+01   1.875189e-02   9.146542e+04   7.028796e+04  -1.020952e+05   1.974056e+12  -4.678026e+12  -1.454819e+12   1.540446e+05   2.358782e-21   0.000000e+00   0.000000e+00
     3704000   3.703999e-05   3.544111e+00   1.680940e+01   1.922252e-02   8.106821e+04   1.068490e+05   7.591711e+04  -1.706690e+12   3.709201e+12  -3.394286e+12   1.541174e+05   2.385964e-21   0.000000e+00   0.000000e+00
     3712000   3.711999e-05   3.551910e+00   1.681421e+01   1.569448e-02   1.460272e+05  -4.887622e+04   7.874732e+03  -9.030904e+10   5.786958e+11   5.302612e+12   1.541909e+05   2.410993e-21   0.000000e+00   0.000000e+00
     3720000   3.719999e-05   3.559592e+00   1.681970e+01   1.832985e-02   8.402962e+04   8.721303e+04  -9.555431e+04   1.830384e+12  -4.416226e+12  -2.424101e+12   1.542651e+05   2.436113e-21   0.000000e+00   0.000000e+00
     3728000   3.727999e-05   3.569374e+00   1.682010e+01   1.819243e-02   8.613112e+04   9.487380e+04   8.603031e+04  -1.906288e+12   4.225020e+12  -2.747434e+12   1.543400e+05   2.464239e-21   0.000000e+00   0.000000e+00
     3736000   3.735999e-05   3.576984e+00   1.682530e+01   1.491867e-02   1.458664e+05  -5.040304e+04  -5.164467e+03   1.786662e+11  -4.314954e+10   5.410660e+12   1.544155e+05   2.490094e-21   0.000000e+00   0.000000e+00
     3744000   3.743999e-05   3.584783e+00   1.683046e+01   1.773378e-02   8.032259e+04   9.533985e+04  -9.124862e+04   1.744189e+12  -4.251355e+12  -2.909870e+12   1.544918e+05   2.515901e-21   0.000000e+00   0.000000e+00
     3752000   3.751999e-05   3.594518e+00   1.683088e+01   1.732433e-02   8.804601e+04   8.973016e+04   8.993279e+04  -1.990636e+12   4.445704e+12  -2.483491e+12   1.545688e+05   2.544891e-21   0.000000e+00   0.000000e+00
     3760000   3.759999e-05   3.602057e+00   1.683617e+01   1.417034e-02   1.456862e+05  -5.117864e+04  -8.474233e+03   2.488277e+11  -2.055404e+11   5.483482e+12   1.546465e+05   2.571148e-21   0.000000e+00   0.000000e+00
     3768000   3.767999e-05   3.609856e+00   1.684126e+01   1.698596e-02   7.986118e+04   9.557863e+04  -9.179708e+04   1.768749e+12  -4.312362e+12  -2.954558e+12   1.547249e+05   2.597777e-21   0.000000e+00   0.000000e+00
     3776000   3.775999e-05   3.619554e+00   1.684169e+01   1.663409e-02   8.642187e+04   9.250936e+04   8.909297e+04  -1.989831e+12   4.435583e+12  -2.672043e+12   1.548040e+05   2.627698e-21   0.000000e+00   0.000000e+00
     3784000   3.783999e-05   3.627130e+00   1.684684e+01   1.342741e-02   1.458498e+05  -5.208971e+04  -1.870373e+03   1.131130e+11   1.107044e+11   5.571247e+12   1.548838e+05   2.655215e-21   0.000000e+00   0.000000e+00
     3792000   3.791999e-05   3.634813e+00   1.685210e+01   1.608470e-02   8.270644e+04   8.778873e+04  -9.729729e+04   1.909133e+12  -4.610393e+12  -2.540219e+12   1.549644e+05   2.682740e-21   0.000000e+00   0.000000e+00
     3800000   3.799999e-05   3.644477e+00   1.685257e+01   1.611177e-02   8.133856e+04   1.029214e+05   8.264629e+04  -1.882013e+12   4.146735e+12  -3.307963e+12   1.550458e+05   2.713547e-21   0.000000e+00   0.000000e+00
     3808000   3.807999e-05   3.652200e+00   1.685728e+01   1.272651e-02   1.456111e+05  -5.140772e+04   1.480922e+04  -2.385567e+11   9.237138e+11   5.573710e+12   1.551278e+05   2.741835e-21   0.000000e+00   0.000000e+00
     3816000   3.815999e-05   3.659669e+00   1.686295e+01   1.500833e-02   8.947292e+04   7.070925e+04  -1.052861e+05   2.116797e+12  -5.029169e+12  -1.581744e+12   1.552107e+05   2.770419e-21   0.000000e+00   0.000000e+00
     3824000   3.823999e-05   3.669260e+00   1.686355e+01   1.571336e-02   7.360647e+04   1.189289e+05   6.748569e+04  -1.596362e+12   3.421627e+12  -4.283894e+12   1.552943e+05   2.801965e-21   0.000000e+00   0.000000e+00
     3832000   3.831999e-05   3.677261e+00   1.686754e+01   1.215397e-02   1.430936e+05  -4.484632e+04   4.068844e+04  -7.979470e+11   2.199128e+12   5.238170e+12   1.553786e+05   2.831131e-21   0.000000e+00   0.000000e+00
     3840000   3.839999e-05   3.684467e+00   1.687370e+01   1.373569e-02   1.008220e+05   4.316146e+04  -1.101861e+05   2.275835e+12  -5.295519e+12   5.079301e+09   1.554637e+05   2.860986e-21   0.000000e+00   0.000000e+00
     3848000   3.847999e-05   3.693874e+00   1.687471e+01   1.533597e-02   6.526874e+04   1.355355e+05   3.957025e+04  -1.035920e+12   2.053517e+12  -5.316511e+12   1.555496e+05   2.892891e-21   0.000000e+00   0.000000e+00
     3856000   3.855999e-05   3.702284e+00   1.687767e+01   1.183090e-02   1.355536e+05  -2.630290e+04   7.180540e+04  -1.493356e+12   3.746963e+12   4.196406e+12   1.556363e+05   2.924106e-21   0.000000e+00   0.000000e+00
     3864000   3.863999e-05   3.709268e+00   1.688420e+01   1.229688e-02   1.164264e+05   6.477497e+03  -1.032125e+05   2.195324e+12  -4.971341e+12   2.161073e+12   1.557237e+05   2.955410e-21   0.000000e+00   0.000000e+00
     3872000   3.871999e-05   3.718299e+00   1.688606e+01   1.479959e-02   6.015880e+04   1.436938e+05  -3.221818e+03  -1.358360e+11  -7.244156e+10  -5.874469e+12   1.558120e+05   2.987237e-21   0.000000e+00   0.000000e+00
     3880000   3.879999e-05   3.727201e+00   1.688785e+01   1.186636e-02   1.203799e+05   9.725918e+03   9.858613e+04  -2.128804e+12   5.091551e+12   2.100639e+12   1.559010e+05   3.019688e-21   0.000000e+00   0.000000e+00
     3888000   3.887999e-05   3.734147e+00   1.689429e+01   1.084412e-02   1.333172e+05  -3.188894e+04  -7.444989e+04   1.645184e+12  -3.548550e+12   4.461239e+12   1.559909e+05   3.052051e-21   0.000000e+00   0.000000e+00
     3896000   3.895999e-05   3.742568e+00   1.689753e+01   1.386213e-02   6.371825e+04   1.311026e+05  -5.579917e+04   1.017011e+12  -2.709302e+12  -5.210645e+12   1.560816e+05   3.083722e-21   0.000000e+00   0.000000e+00
     3904000   3.903999e-05   3.751894e+00   1.689834e+01   1.223449e-02   9.756152e+04   6.226175e+04   1.048582e+05  -2.352055e+12   5.413533e+12  -1.022592e+12   1.561730e+05   3.118513e-21   0.000000e+00   0.000000e+00
     3912000   3.911999e-05   3.759137e+00   1.690391e+01   9.694530e-03   1.446502e+05  -5.585756e+04  -1.936815e+04   4.960320e+11  -7.842598e+11   5.947681e+12   1.562654e+05   3.152813e-21   0.000000e+00   0.000000e+00
     3920000   3.919999e-05   3.766802e+00   1.690881e+01   1.233839e-02   8.052149e+04   8.818022e+04  -1.009383e+05   2.065140e+12  -4.991911e+12  -2.717159e+12   1.563585e+05   3.185400e-21   0.000000e+00   0.000000e+00
     3928000   3.927999e-05   3.776237e+00   1.690941e+01   1.265464e-02   7.268878e+04   1.172680e+05   7.376966e+04  -1.767339e+12   3.843668e+12  -4.363637e+12   1.564525e+05   3.221647e-21   0.000000e+00   0.000000e+00
     3936000   3.935999e-05   3.784164e+00   1.691326e+01   9.256592e-03   1.411820e+05  -4.439821e+04   5.102466e+04  -1.050195e+12   2.781138e+12   5.333089e+12   1.565474e+05   3.255319e-21   0.000000e+00   0.000000e+00
     3944000   3.943999e-05   3.791200e+00   1.691944e+01   1.033067e-02   1.092134e+05   1.976669e+04  -1.105385e+05   2.384708e+12  -5.482714e+12   1.372287e+12   1.566430e+05   3.289959e-21   0.000000e+00   0.000000e+00
     3952000   3.951999e-05   3.800203e+00   1.692108e+01   1.255340e-02   5.826196e+04   1.454903e+05   2.327933e+03  -2.548519e+11   2.031554e+11  -6.155261e+12   1.567396e+05   3.325819e-21   0.000000e+00   0.000000e+00
     3960000   3.959999e-05   3.808994e+00   1.692288e+01   9.738619e-03   1.172798e+05   1.362745e+04   1.032355e+05  -2.281796e+12   5.443350e+12   1.877389e+12   1.568370e+05   3.362186e-21   0.000000e+00   0.000000e+00
     3968000   3.967999e-05   3.815932e+00   1.692907e+01   8.432207e-03   1.374232e+05  -4.398890e+04  -6.171316e+04   1.415758e+12  -2.984737e+12   5.273850e+12   1.569352e+05   3.398456e-21   0.000000e+00   0.000000e+00
     3976000   3.975999e-05   3.823989e+00   1.693288e+01   1.133870e-02   6.817058e+04   1.162463e+05  -8.061869e+04   1.613433e+12  -4.050009e+12  -4.480356e+12   1.570344e+05   3.433751e-21   0.000000e+00   0.000000e+00
     3984000   3.983999e-05   3.833309e+00   1.693350e+01   1.072442e-02   8.071385e+04   9.739052e+04   9.322863e+04  -2.191838e+12   4.918987e+12  -3.236734e+12   1.571344e+05   3.473116e-21   0.000000e+00   0.000000e+00
     3992000   3.991999e-05   3.840920e+00   1.693793e+01   7.587808e-03   1.438590e+05  -5.426144e+04   3.291229e+04  -6.542600e+11   1.889393e+12   5.986845e+12   1.572353e+05   3.509568e-21   0.000000e+00   0.000000e+00
     4000000   3.999999e-05   3.848018e+00   1.694381e+01   9.042579e-03   1.036028e+05   3.049287e+04  -1.144185e+05   2.493839e+12  -5.786651e+12   7.124290e+11   1.573371e+05   3.546920e-21   0.000000e+00   0.000000e+00
     4008000   4.007999e-05   3.856995e+00   1.694531e+01   1.104654e-02   5.695976e+04   1.466093e+05   6.970966e+03  -3.577501e+11   4.435148e+11  -6.346326e+12   1.574398e+05   3.585860e-21   0.000000e+00   0.000000e+00
     4016000   4.015999e-05   3.865699e+00   1.694712e+01   8.307561e-03   1.152372e+05   1.602141e+04   1.062244e+05  -2.386047e+12   5.681969e+12   1.735365e+12   1.575434e+05   3.624975e-21   0.000000e+00   0.000000e+00
     4024000   4.023999e-05   3.872635e+00   1.695313e+01   6.841466e-03   1.397329e+05  -5.115357e+04  -5.206633e+04   1.230155e+12  -2.533836e+12   5.782894e+12   1.576479e+05   3.663968e-21   0.000000e+00   0.000000e+00
     4032000   4.031999e-05   3.880455e+00   1.695729e+01   9.589415e-03   7.264645e+04   1.027907e+05  -9.509298e+04   1.984684e+12  -4.870702e+12  -3.753172e+12   1.577533e+05   3.701994e-21   0.000000e+00   0.000000e+00
     4040000   4.039999e-05   3.889693e+00   1.695795e+01   9.648732e-03   7.027272e+04   1.184031e+05   7.721491e+04  -1.891791e+12   4.144240e+12  -4.627705e+12   1.578597e+05   3.744302e-21   0.000000e+00   0.000000e+00
     4048000   4.047999e-05   3.897584e+00   1.696154e+01   6.424334e-03   1.376254e+05  -4.023596e+04   6.628648e+04  -1.434048e+12   3.660413e+12   5.205694e+12   1.579670e+05   3.783634e-21   0.000000e+00   0.000000e+00
     4056000   4.055999e-05   3.904464e+00   1.696768e+01   6.834698e-03   1.200937e+05  -9.620050e+03  -1.023364e+05   2.313340e+12  -5.230801e+12   3.202265e+12   1.580752e+05   3.825587e-21   0.000000e+00   0.000000e+00
     4064000   4.063999e-05   3.912928e+00   1.697021e+01   9.461136e-03   5.744925e+04   1.401249e+05  -4.568286e+04   8.376406e+11  -2.329681e+12  -6.102030e+12   1.581844e+05   3.866228e-21   0.000000e+00   0.000000e+00
     4072000   4.071999e-05   3.921956e+00   1.697115e+01   7.940304e-03   9.032127e+04   7.189087e+04   1.083095e+05  -2.542106e+12   5.851056e+12  -1.759709e+12   1.582946e+05   3.909997e-21   0.000000e+00   0.000000e+00
     4080000   4.079999e-05   3.929270e+00   1.697601e+01   5.233230e-03   1.449090e+05  -6.184487e+04   1.639992e+04  -2.888514e+11   1.054951e+12   6.557501e+12   1.584057e+05   3.951560e-21   0.000000e+00   0.000000e+00
     4088000   4.087999e-05   3.936382e+00   1.698157e+01   6.865399e-03   1.004791e+05   3.409511e+04  -1.177683e+05   2.623368e+12  -6.124514e+12   4.613426e+11   1.585178e+05   3.993628e-21   0.000000e+00   0.000000e+00
     4096000   4.095999e-05   3.945197e+00   1.698313e+01   8.806163e-03   5.421425e+04   1.490769e+05  -8.001588e+02  -1.842977e+11   3.403984e+10  -6.707800e+12   1.586309e+05   4.037447e-21   0.000000e+00   0.000000e+00
     4104000   4.103999e-05   3.953886e+00   1.698470e+01   6.430382e-03   1.059768e+05   3.395904e+04   1.132062e+05  -2.621817e+12   6.182491e+12   6.038095e+11   1.587449e+05   4.082042e-21   0.000000e+00   0.000000e+00
     4112000   4.111999e-05   3.960903e+00   1.699019e+01   4.432636e-03   1.441396e+05  -6.366133e+04  -2.018620e+04   5.442743e+11  -8.968436e+11   6.692043e+12   1.588599e+05   4.125935e-21   0.000000e+00   0.000000e+00
     4120000   4.119999e-05   3.968249e+00   1.699512e+01   6.624797e-03   8.748687e+04   6.331944e+04  -1.166621e+05   2.580854e+12  -6.138225e+12  -1.400122e+12   1.589760e+05   4.169330e-21   0.000000e+00   0.000000e+00
     4128000   4.127999e-05   3.977179e+00   1.699626e+01   7.959469e-03   5.529314e+04   1.468028e+05   2.649888e+04  -8.047295e+11   1.501528e+12  -6.621599e+12   1.590930e+05   4.215948e-21   0.000000e+00   0.000000e+00
     4136000   4.135999e-05   3.985612e+00   1.699830e+01   5.265662e-03   1.141777e+05   1.299420e+04   1.101941e+05  -2.545381e+12   6.083115e+12   1.924353e+12   1.592110e+05   4.261821e-21   0.000000e+00   0.000000e+00
     4144000   4.143999e-05   3.992511e+00   1.700398e+01   3.722856e-03   1.421227e+05  -6.133827e+04  -3.774708e+04   9.482143e+11  -1.859160e+12   6.578630e+12   1.593301e+05   4.308683e-21   0.000000e+00   0.000000e+00
     4152000   4.151999e-05   3.999959e+00   1.700857e+01   6.066131e-03   8.206973e+04   7.491826e+04  -1.143511e+05   2.535950e+12  -6.077801e+12  -2.166085e+12   1.594502e+05   4.354013e-21   0.000000e+00   0.000000e+00
     4160000   4.159999e-05   4.008873e+00   1.700961e+01   7.154736e-03   5.543570e+04   1.455651e+05   3.465098e+04  -9.938009e+11   1.955651e+12  -6.611563e+12   1.595713e+05   4.402580e-21   0.000000e+00   0.000000e+00
     4168000   4.167999e-05   4.017210e+00   1.701177e+01   4.450243e-03   1.149631e+05   9.596144e+03   1.104237e+05  -2.566907e+12   6.147814e+12   2.142603e+12   1.596934e+05   4.450247e-21   0.000000e+00   0.000000e+00
     4176000   4.175999e-05   4.024086e+00   1.701740e+01   2.953679e-03   1.422368e+05  -6.306422e+04  -3.650955e+04   9.276722e+11  -1.811402e+12   6.729458e+12   1.598166e+05   4.498249e-21   0.000000e+00   0.000000e+00
     4184000   4.183999e-05   4.031469e+00   1.702202e+01   5.209360e-03   8.382445e+04   6.934323e+04  -1.172435e+05   2.631108e+12  -6.288733e+12  -1.842563e+12   1.599408e+05   4.545219e-21   0.000000e+00   0.000000e+00
     4192000   4.191999e-05   4.040287e+00   1.702318e+01   6.458104e-03   5.313606e+04   1.490292e+05   2.424904e+04  -7.610247e+11   1.399714e+12  -6.913964e+12   1.600661e+05   4.595738e-21   0.000000e+00   0.000000e+00
     4200000   4.199999e-05   4.048685e+00   1.702509e+01   3.965447e-03   1.085454e+05   2.338696e+04   1.154667e+05  -2.721711e+12   6.467808e+12   1.252957e+12   1.601924e+05   4.645866e-21   0.000000e+00   0.000000e+00
     4208000   4.207999e-05   4.055623e+00   1.703044e+01   2.138026e-03   1.442062e+05  -6.812430e+04  -1.631254e+04   4.682512e+11  -7.186177e+11   7.109087e+12   1.603198e+05   4.695811e-21   0.000000e+00   0.000000e+00
     4216000   4.215999e-05   4.062797e+00   1.703542e+01   4.046803e-03   9.311131e+04   4.590468e+04  -1.223384e+05   2.802273e+12  -6.614692e+12  -3.534403e+11   1.604483e+05   4.745259e-21   0.000000e+00   0.000000e+00
     4224000   4.223999e-05   4.071411e+00   1.703696e+01   5.777015e-03   5.044719e+04   1.523320e+05  -5.939912e+03  -6.056736e+10  -2.580856e+11  -7.221029e+12   1.605778e+05   4.797186e-21   0.000000e+00   0.000000e+00
     4232000   4.231999e-05   4.079986e+00   1.703837e+01   3.826418e-03   9.423360e+04   5.562601e+04   1.176986e+05  -2.835895e+12   6.627942e+12  -8.574633e+11   1.607084e+05   4.850417e-21   0.000000e+00   0.000000e+00
     4240000   4.239999e-05   4.087128e+00   1.704310e+01   1.443119e-03   1.441075e+05  -6.729977e+04   2.394399e+04  -4.777248e+11   1.502379e+12   7.120171e+12   1.608401e+05   4.902159e-21   0.000000e+00   0.000000e+00
     4248000   4.247999e-05   4.094023e+00   1.704857e+01   2.582181e-03   1.102444e+05   4.482410e+03  -1.172108e+05   2.756650e+12  -6.369163e+12   2.344659e+12   1.609729e+05   4.954628e-21   0.000000e+00   0.000000e+00
     4256000   4.255999e-05   4.102251e+00   1.705094e+01   4.866409e-03   5.315757e+04   1.419012e+05  -5.471504e+04   1.107808e+12  -2.972227e+12  -6.641980e+12   1.611069e+05   5.010461e-21   0.000000e+00   0.000000e+00
     4264000   4.263999e-05   4.110999e+00   1.705187e+01   3.969986e-03   7.298421e+04   1.031821e+05   1.001286e+05  -2.503972e+12   5.679479e+12  -4.022062e+12   1.612420e+05   5.067600e-21   0.000000e+00   0.000000e+00
     4272000   4.271999e-05   4.118558e+00   1.705548e+01   1.177032e-03   1.344447e+05  -4.322035e+04   7.809962e+04  -1.797660e+12   4.529115e+12   5.608066e+12   1.613782e+05   5.121778e-21   0.000000e+00   0.000000e+00
     4280000   4.279999e-05   4.125273e+00   1.706118e+01   9.852254e-04   1.317089e+05  -4.562347e+04  -8.159996e+04   1.997116e+12  -4.408615e+12   5.681585e+12   1.615156e+05   5.177898e-21   0.000000e+00   0.000000e+00
     4288000   4.287999e-05   4.132890e+00   1.706487e+01   3.389419e-03   6.970645e+04   9.870834e+04  -1.073766e+05   2.429461e+12  -5.934338e+12  -3.883356e+12   1.616541e+05   5.232812e-21   0.000000e+00   0.000000e+00
