     timestep     time              x             y              z              vx             vy             vz             ax             ay             az         v_magnitude      ELoss        Electronic      Nuclear
           0   0.000000e+00   1.000000e-01   1.588999e+01   1.756718e+01   8.464111e+04   7.209332e+04   9.682020e+04   0.000000e+00   0.000000e+00   0.000000e+00   1.474304e+05   0.000000e+00   0.000000e+00   0.000000e+00
        8000   7.999000e-08   9.896826e-02   1.589047e+01   1.757426e+01  -9.279620e+04  -8.608982e+04   8.112044e+04   2.314194e+13  -2.420331e+13   9.251378e+11   1.503433e+05   9.037900e-20   0.000000e+00   0.000000e+00
       16000   1.599900e-07   9.917199e-02   1.588971e+01   1.758137e+01   7.212548e+04   9.575810e+04   9.570944e+04  -2.699883e+13   2.169301e+13  -1.232552e+12   1.534014e+05   1.007034e-19   0.000000e+00   0.000000e+00
       24000   2.399900e-07   9.795543e-02   1.589005e+01   1.758841e+01  -6.635397e+04  -1.159279e+05   8.175704e+04   3.152709e+13  -1.701132e+13   1.623349e+12   1.566089e+05   1.123811e-19   0.000000e+00   0.000000e+00
       32000   3.199900e-07   9.837785e-02   1.588954e+01   1.759551e+01   2.822510e+04   1.269269e+05   9.318773e+04  -3.578793e+13   9.588307e+12  -2.072445e+12   1.599721e+05   1.255600e-19   0.000000e+00   0.000000e+00
       40000   3.999900e-07   9.696430e-02   1.588949e+01   1.760249e+01  -2.767777e+03  -1.395751e+05   8.509221e+04   3.823204e+13   7.015963e+11   2.566990e+12   1.634918e+05   1.398855e-19   0.000000e+00   0.000000e+00
       48000   4.799900e-07   9.746196e-02   1.588951e+01   1.760961e+01  -5.476877e+04   1.312595e+05   8.785052e+04  -3.720126e+13  -1.351810e+13  -2.815504e+12   1.671717e+05   1.567915e-19   0.000000e+00   0.000000e+00
       56000   5.599900e-07   9.613094e-02   1.588881e+01   1.761656e+01   9.261079e+04  -1.108345e+05   9.159762e+04   3.042680e+13   2.748856e+13   2.682576e+12   1.710297e+05   1.759943e-19   0.000000e+00   0.000000e+00
       64000   6.399900e-07   9.625641e-02   1.588950e+01   1.762362e+01  -1.455835e+05   5.611301e+04   7.941926e+04  -1.635669e+13  -3.924043e+13  -2.030377e+12   1.750733e+05   1.978329e-19   0.000000e+00   0.000000e+00
       72000   7.199900e-07   9.564501e-02   1.588828e+01   1.763056e+01   1.496790e+05   1.388082e+04   9.775292e+04  -4.429320e+12   4.385720e+13   7.533168e+11   1.793101e+05   2.226649e-19   0.000000e+00   0.000000e+00
       80000   7.999900e-07   9.477540e-02   1.588912e+01   1.763750e+01  -1.338610e+05  -1.004658e+05   7.583718e+04   2.766369e+13  -3.633490e+13   9.697169e+11   1.837482e+05   2.510034e-19   0.000000e+00   0.000000e+00
       88000   8.799900e-07   9.522800e-02   1.588832e+01   1.764447e+01   4.510132e+04   1.572093e+05   9.351013e+04  -4.493755e+13   1.460607e+13  -2.642170e+12   1.883959e+05   2.832433e-19   0.000000e+00   0.000000e+00
       96000   9.599900e-07   9.363712e-02   1.588813e+01   1.765129e+01   5.378763e+04  -1.644906e+05   8.602250e+04   4.598711e+13   1.668829e+13   3.436082e+12   1.932619e+05   3.200778e-19   0.000000e+00   0.000000e+00
      104000   1.039990e-06   9.405633e-02   1.588872e+01   1.765822e+01  -1.619944e+05   8.447981e+04   7.723766e+04  -2.459507e+13  -4.439858e+13  -2.688405e+12   1.983549e+05   3.621597e-19   0.000000e+00   0.000000e+00
      112000   1.119990e-06   9.347407e-02   1.588739e+01   1.766501e+01   1.724105e+05   4.638328e+04   9.803363e+04  -1.369670e+13   5.087057e+13   3.026007e+11   2.036845e+05   4.102835e-19   0.000000e+00   0.000000e+00
      120000   1.199990e-06   9.226075e-02   1.588816e+01   1.767177e+01  -9.381149e+04  -1.714452e+05   7.480464e+04   4.825663e+13  -2.545496e+13   2.576433e+12   2.092601e+05   4.654739e-19   0.000000e+00   0.000000e+00
      128000   1.279990e-06   9.304428e-02   1.588796e+01   1.767860e+01  -8.188785e+04   1.805499e+05   8.342994e+04  -5.217192e+13  -2.165103e+13  -3.968478e+12   2.150917e+05   5.285605e-19   0.000000e+00   0.000000e+00
      136000   1.359990e-06   9.179583e-02   1.588684e+01   1.768524e+01   1.927450e+05  -5.151366e+04   9.550222e+04   1.425708e+13   5.691160e+13   2.284946e+12   2.211899e+05   6.009665e-19   0.000000e+00   0.000000e+00
      144000   1.439990e-06   9.103032e-02   1.588792e+01   1.769191e+01  -1.613927e+05  -1.446327e+05   6.942417e+04   4.088569e+13  -4.510159e+13   1.621517e+12   2.275652e+05   6.842692e-19   0.000000e+00   0.000000e+00
      152000   1.519990e-06   9.183440e-02   1.588737e+01   1.769861e+01  -5.030064e+04   2.125614e+05   8.456195e+04  -6.171584e+13  -1.267652e+13  -4.374565e+12   2.342290e+05   7.797152e-19   0.000000e+00   0.000000e+00
      160000   1.599990e-06   9.043021e-02   1.588630e+01   1.770505e+01   2.120043e+05  -6.574211e+04   9.439272e+04   1.844139e+13   6.285492e+13   2.813221e+12   2.412008e+05   8.910966e-19   0.000000e+00   0.000000e+00
      168000   1.679990e-06   8.959544e-02   1.588743e+01   1.771151e+01  -1.598724e+05  -1.786394e+05   6.539407e+04   5.097585e+13  -4.501108e+13   2.372977e+12   2.484907e+05   1.018692e-18   0.000000e+00   0.000000e+00
      176000   1.759990e-06   9.051374e-02   1.588712e+01   1.771799e+01  -1.160159e+05   2.148568e+05   7.725961e+04  -6.281495e+13  -3.185181e+13  -5.100869e+12   2.561097e+05   1.165344e-18   0.000000e+00   0.000000e+00
      184000   1.839990e-06   8.946659e-02   1.588573e+01   1.772424e+01   2.432964e+05   3.499514e+04   9.651870e+04  -1.062878e+13   7.250923e+13   1.058764e+12   2.640713e+05   1.334684e-18   0.000000e+00   0.000000e+00
      192000   1.919990e-06   8.802363e-02   1.588654e+01   1.773045e+01  -3.655931e+04  -2.609021e+05   6.920649e+04   7.533725e+13  -9.482884e+12   4.884929e+12   2.723894e+05   1.530548e-18   0.000000e+00   0.000000e+00
      200000   1.999990e-06   8.879249e-02   1.588716e+01   1.773672e+01  -2.599324e+05   8.750125e+04   6.151171e+04  -2.615688e+13  -7.444684e+13  -3.616120e+12   2.810783e+05   1.756453e-18   0.000000e+00   0.000000e+00
      208000   2.079990e-06   8.891478e-02   1.588568e+01   1.774282e+01   1.280195e+05   2.440562e+05   9.075499e+04  -7.181473e+13   3.941123e+13  -3.940392e+12   2.901532e+05   2.017649e-18   0.000000e+00   0.000000e+00
      216000   2.159990e-06   8.710693e-02   1.588517e+01   1.774872e+01   2.329971e+05  -1.673034e+05   8.660135e+04   4.855901e+13   6.977955e+13   4.997250e+12   2.996296e+05   2.319858e-18   0.000000e+00   0.000000e+00
      224000   2.239990e-06   8.646056e-02   1.588647e+01   1.775465e+01  -1.893966e+05  -2.385614e+05   5.497448e+04   6.943856e+13  -5.468042e+13   3.365469e+12   3.095235e+05   2.670458e-18   0.000000e+00   0.000000e+00
      232000   2.319990e-06   8.752378e-02   1.588653e+01   1.776057e+01  -2.490160e+05   1.915358e+05   6.008500e+04  -5.695708e+13  -7.183998e+13  -5.640798e+12   3.198517e+05   3.075435e-18   0.000000e+00   0.000000e+00
      240000   2.399990e-06   8.737269e-02   1.588492e+01   1.776625e+01   1.832308e+05   2.601768e+05   8.973198e+04  -7.713236e+13   5.600876e+13  -3.879791e+12   3.306317e+05   3.545068e-18   0.000000e+00   0.000000e+00
      248000   2.479990e-06   8.553985e-02   1.588445e+01   1.777173e+01   2.836975e+05  -1.710931e+05   8.441404e+04   5.015775e+13   8.528977e+13   5.461963e+12   3.418813e+05   4.089661e-18   0.000000e+00   0.000000e+00
      256000   2.559990e-06   8.465720e-02   1.588573e+01   1.777719e+01  -1.352617e+05  -3.227542e+05   5.079809e+04   9.500754e+13  -3.928839e+13   5.440742e+12   3.536191e+05   4.722669e-18   0.000000e+00   0.000000e+00
      264000   2.639990e-06   8.561548e-02   1.588635e+01   1.778262e+01  -3.564962e+05   6.974976e+04   4.361212e+04  -2.130124e+13  -1.047343e+14  -3.995051e+12   3.658642e+05   5.455725e-18   0.000000e+00   0.000000e+00
      272000   2.719990e-06   8.627979e-02   1.588508e+01   1.778784e+01  -1.807768e+04   3.712888e+05   7.199699e+04  -1.107909e+14  -3.584220e+12  -7.619840e+12   3.786367e+05   6.306390e-18   0.000000e+00   0.000000e+00
      280000   2.799990e-06   8.509627e-02   1.588368e+01   1.779278e+01   3.627870e+05   1.183155e+05   8.953931e+04  -3.552096e+13   1.098362e+14   2.733029e+11   3.919569e+05   7.294516e-18   0.000000e+00   0.000000e+00
      288000   2.879990e-06   8.328990e-02   1.588400e+01   1.779756e+01   2.349042e+05  -3.239050e+05   6.794469e+04   9.626647e+13   7.108492e+13   8.171941e+12   4.058459e+05   8.443481e-18   0.000000e+00   0.000000e+00
      296000   2.959990e-06   8.287466e-02   1.588544e+01   1.780227e+01  -2.285381e+05  -3.512550e+05   3.255683e+04   1.043787e+14  -6.783650e+13   5.586570e+12   4.203210e+05   9.774661e-18   0.000000e+00   0.000000e+00
      304000   3.039990e-06   8.397587e-02   1.588599e+01   1.780685e+01  -4.283302e+05   7.358294e+04   2.645001e+04  -2.257934e+13  -1.274256e+14  -4.815192e+12   4.354088e+05   1.132821e-17   0.000000e+00   0.000000e+00
      312000   3.119990e-06   8.486981e-02   1.588486e+01   1.781114e+01  -1.218877e+05   4.309784e+05   5.410300e+04  -1.295649e+14  -3.496031e+13  -1.005723e+13   4.511387e+05   1.313335e-17   0.000000e+00   0.000000e+00
      320000   3.199990e-06   8.420616e-02   1.588323e+01   1.781507e+01   3.366788e+05   3.143191e+05   8.024059e+04  -9.456532e+13   1.029502e+14  -4.056730e+12   4.675336e+05   1.523254e-17   0.000000e+00   0.000000e+00
      328000   3.279990e-06   8.241673e-02   1.588274e+01   1.781869e+01   4.559089e+05  -1.470114e+05   7.340482e+04   4.401828e+13   1.383474e+14   6.559887e+12   4.846169e+05   1.767385e-17   0.000000e+00   0.000000e+00
      336000   3.359990e-06   8.104925e-02   1.588378e+01   1.782209e+01   1.190271e+05  -4.866576e+05   3.761926e+04   1.462219e+14   3.614909e+13   1.105713e+13   5.024124e+05   2.051496e-17   0.000000e+00   0.000000e+00
      344000   3.439990e-06   8.116672e-02   1.588527e+01   1.782531e+01  -3.522827e+05  -3.837549e+05   3.390032e+03   1.152466e+14  -1.063896e+14   5.350035e+12   5.209437e+05   2.381541e-17   0.000000e+00   0.000000e+00
      352000   3.519990e-06   8.246319e-02   1.588580e+01   1.782826e+01  -5.358279e+05   6.882188e+04  -2.402428e+03  -2.122162e+13  -1.615573e+14  -5.561021e+12   5.402349e+05   2.764272e-17   0.000000e+00   0.000000e+00
      360000   3.599990e-06   8.367541e-02   1.588488e+01   1.783081e+01  -2.747115e+05   4.878549e+05   2.187093e+04  -1.476501e+14  -8.199363e+13  -1.249989e+13   5.603098e+05   3.208183e-17   0.000000e+00   0.000000e+00
      368000   3.679990e-06   8.368497e-02   1.588318e+01   1.783289e+01   2.239009e+05   5.336912e+05   5.316378e+04  -1.613885e+14   6.924687e+13  -9.632040e+12   5.811921e+05   3.723104e-17   0.000000e+00   0.000000e+00
      376000   3.759990e-06   8.235426e-02   1.588197e+01   1.783447e+01   5.766360e+05   1.642991e+05   6.317313e+04  -4.960777e+13   1.757686e+14   9.588870e+11   6.029047e+05   4.320213e-17   0.000000e+00   0.000000e+00
      384000   3.839990e-06   8.056223e-02   1.588215e+01   1.783563e+01   5.143355e+05  -3.536597e+05   3.995800e+04   1.071251e+14   1.560591e+14   1.134028e+13   6.254700e+05   5.012415e-17   0.000000e+00   0.000000e+00
      392000   3.919990e-06   7.954419e-02   1.588361e+01   1.783639e+01   6.671363e+04  -6.454545e+05  -4.609074e+03   1.953807e+14   1.949423e+13   1.397818e+13   6.489094e+05   5.813771e-17   0.000000e+00   0.000000e+00
      400000   3.999990e-06   8.003937e-02   1.588535e+01   1.783677e+01  -4.620781e+05  -4.876497e+05  -4.402152e+04   1.474714e+14  -1.411981e+14   6.693011e+12   6.732431e+05   6.739322e-17   0.000000e+00   0.000000e+00
      408000   4.079990e-06   8.178045e-02   1.588613e+01   1.783666e+01  -6.954071e+05   3.654492e+04  -5.442036e+04  -1.128300e+13  -2.115162e+14  -6.111725e+12   6.984899e+05   7.806065e-17   0.000000e+00   0.000000e+00
      416000   4.159990e-06   8.362048e-02   1.588531e+01   1.783593e+01  -4.379989e+05   5.765127e+05  -3.053495e+04  -1.745129e+14  -1.325778e+14  -1.569015e+13   7.246671e+05   9.033457e-17   0.000000e+00   0.000000e+00
      424000   4.239990e-06   8.424613e-02   1.588334e+01   1.783446e+01   1.694046e+05   7.324113e+05   7.934046e+03  -2.212402e+14   5.203567e+13  -1.434143e+13   7.517893e+05   1.044383e-16   0.000000e+00   0.000000e+00
      432000   4.319990e-06   8.310559e-02   1.588163e+01   1.783219e+01   7.024256e+05   3.377773e+05   2.644977e+04  -1.015484e+14   2.129603e+14  -1.749783e+12   7.798685e+05   1.206350e-16   0.000000e+00   0.000000e+00
      440000   4.399990e-06   8.098644e-02   1.588165e+01   1.782917e+01   7.210758e+05  -3.665926e+05   2.475942e+02   1.112320e+14   2.171699e+14   1.316738e+13   8.089132e+05   1.392108e-16   0.000000e+00   0.000000e+00
      448000   4.479990e-06   7.971618e-02   1.588371e+01   1.782547e+01   1.271704e+05  -8.268451e+05  -6.289206e+04   2.496699e+14   3.624759e+13   1.812169e+13   8.389282e+05   1.604383e-16   0.000000e+00   0.000000e+00
      456000   4.559990e-06   8.085478e-02   1.588638e+01   1.782110e+01  -6.415367e+05  -5.748889e+05  -1.211778e+05   1.732088e+14  -1.959808e+14   7.119948e+12   8.699142e+05   1.845971e-16   0.000000e+00   0.000000e+00
      464000   4.639990e-06   8.405673e-02   1.588722e+01   1.781593e+01  -8.487900e+05   2.773315e+05  -1.265164e+05  -8.302047e+13  -2.570981e+14  -1.237701e+13   9.018667e+05   2.119836e-16   0.000000e+00   0.000000e+00
      472000   4.719990e-06   8.665542e-02   1.588505e+01   1.780965e+01  -1.473074e+05   9.201640e+05  -7.352116e+04  -2.748882e+14  -4.481923e+13  -2.078347e+13   9.347763e+05   2.428659e-16   0.000000e+00   0.000000e+00
      480000   4.799990e-06   8.588375e-02   1.588203e+01   1.780207e+01   8.132971e+05   5.252852e+05  -2.934143e+04  -1.557405e+14   2.424420e+14  -4.861615e+12   9.686267e+05   2.776661e-16   0.000000e+00   0.000000e+00
      488000   4.879990e-06   8.268473e-02   1.588228e+01   1.779347e+01   7.982477e+05  -6.037600e+05  -7.194069e+04   1.809053e+14   2.355981e+14   1.775205e+13   1.003445e+06   3.176893e-16   0.000000e+00   0.000000e+00
      496000   4.959990e-06   8.213437e-02   1.588647e+01   1.778411e+01  -3.776515e+05  -9.524747e+05  -1.735660e+05   2.834533e+14  -1.163028e+14   1.606085e+13   1.039208e+06   3.622178e-16   0.000000e+00   0.000000e+00
      504000   5.039990e-06   8.678864e-02   1.588896e+01   1.777386e+01  -1.032739e+06   2.209438e+05  -2.053087e+05  -6.471271e+13  -3.090827e+14  -1.196826e+13   1.075880e+06   4.118788e-16   0.000000e+00   0.000000e+00
      512000   5.119990e-06   9.057931e-02   1.588528e+01   1.776214e+01   1.430744e+05   1.097632e+06  -1.202030e+05  -3.217999e+14   4.058067e+13  -2.125755e+13   1.113425e+06   4.667074e-16   0.000000e+00   0.000000e+00
      520000   5.199990e-06   8.722135e-02   1.588222e+01   1.774858e+01   1.135581e+06  -1.636388e+05  -1.015988e+05   4.958640e+13   3.301871e+14   1.143543e+13   1.151800e+06   5.276052e-16   0.000000e+00   0.000000e+00
      528000   5.279990e-06   8.494012e-02   1.588758e+01   1.773384e+01  -3.265626e+05  -1.119233e+06  -2.429699e+05   3.273260e+14  -1.007805e+14   1.945777e+13   1.190949e+06   5.947306e-16   0.000000e+00   0.000000e+00
      536000   5.359990e-06   9.216860e-02   1.589032e+01   1.771812e+01  -9.994129e+05   6.672029e+05  -2.662675e+05  -1.919931e+14  -2.939677e+14  -2.062897e+13   1.230806e+06   6.677340e-16   0.000000e+00   0.000000e+00
      544000   5.439990e-06   9.345603e-02   1.588360e+01   1.770007e+01   1.069471e+06   6.718545e+05  -1.450735e+05  -1.911143e+14   3.049275e+14  -5.649767e+12   1.271300e+06   7.459910e-16   0.000000e+00   0.000000e+00
      552000   5.519990e-06   8.793238e-02   1.588777e+01   1.768043e+01   4.019337e+03  -1.281627e+06  -2.828451e+05   3.681024e+14  -5.122938e+12   2.363266e+13   1.312473e+06   8.352795e-16   0.000000e+00   0.000000e+00
      560000   5.599990e-06   9.696613e-02   1.589167e+01   1.765999e+01  -9.555468e+05   9.054301e+05  -3.177878e+05  -2.553993e+14  -2.763433e+14  -2.386892e+13   1.354202e+06   9.289681e-16   0.000000e+00   0.000000e+00
      568000   5.679990e-06   9.497349e-02   1.588397e+01   1.763669e+01   1.376495e+06  -1.038479e+05  -2.107260e+05   3.170347e+13   3.831665e+14   1.124285e+13   1.396399e+06   1.027957e-15   0.000000e+00   0.000000e+00
      576000   5.759990e-06   9.512131e-02   1.589403e+01   1.761177e+01  -1.269850e+06  -5.251674e+05  -4.267967e+05   1.483142e+14  -3.625226e+14   1.204592e+12   1.438914e+06   1.131887e-15   0.000000e+00   0.000000e+00
      584000   5.839990e-06   1.020507e-01   1.588599e+01   1.758434e+01   1.154153e+06   8.883515e+05  -2.718891e+05  -2.426379e+14   3.143134e+14  -8.819819e+12   1.481608e+06   1.233867e-15   0.000000e+00   0.000000e+00
      592000   5.919990e-06   9.741660e-02   1.589486e+01   1.755276e+01  -1.074612e+06  -9.536712e+05  -5.086787e+05   2.633934e+14  -3.037067e+14   9.777506e+12   1.524150e+06   1.338572e-15   0.000000e+00   0.000000e+00
      600000   5.999990e-06   1.060607e-01   1.588693e+01   1.751818e+01   1.314203e+06   7.768942e+05  -3.507565e+05  -2.067904e+14   3.494783e+14  -5.434562e+12   1.566437e+06   1.442016e-15   0.000000e+00   0.000000e+00
      608000   6.079990e-06   1.051036e-01   1.589827e+01   1.748057e+01  -1.489510e+06  -1.404165e+05  -5.905850e+05   4.009387e+13  -4.084566e+14  -6.859452e+12   1.608461e+06   1.553289e-15   0.000000e+00   0.000000e+00
      616000   6.159990e-06   1.049917e-01   1.588862e+01   1.743998e+01   1.328516e+06  -8.672782e+05  -4.540419e+05   2.325419e+14   3.424642e+14   2.247666e+13   1.650237e+06   1.667747e-15   0.000000e+00   0.000000e+00
      624000   6.239990e-06   1.171468e-01   1.589458e+01   1.739822e+01   1.929777e+04   1.613021e+06  -5.096080e+05  -4.170000e+14  -2.511586e+12  -2.716745e+13   1.691718e+06   1.780897e-15   0.000000e+00   0.000000e+00
      632000   6.319990e-06   1.117222e-01   1.590152e+01   1.735308e+01  -1.500078e+06  -5.359556e+05  -6.821801e+05   1.407794e+14  -3.972191e+14  -9.431955e+10   1.732874e+06   1.900378e-15   0.000000e+00   0.000000e+00
      640000   6.399990e-06   1.107972e-01   1.589406e+01   1.730555e+01   6.877898e+05  -1.521407e+06  -5.983277e+05   3.897487e+14   1.643832e+14   2.703360e+13   1.773620e+06   2.013840e-15   0.000000e+00   0.000000e+00
      648000   6.479990e-06   1.210841e-01   1.589107e+01   1.725642e+01   1.707531e+06   3.144342e+05  -5.250544e+05  -7.471660e+13   4.193023e+14   4.662220e+12   1.813894e+06   2.127007e-15   0.000000e+00   0.000000e+00
      656000   6.559990e-06   1.296607e-01   1.589666e+01   1.720497e+01   5.904949e+05   1.653425e+06  -5.945737e+05  -4.040607e+14   1.374975e+14  -2.199984e+13   1.853650e+06   2.236394e-15   0.000000e+00   0.000000e+00
      664000   6.639990e-06   1.327477e-01   1.590329e+01   1.715069e+01  -7.396215e+05   1.591957e+06  -7.080899e+05  -3.838435e+14  -1.894067e+14  -2.749385e+13   1.892818e+06   2.348657e-15   0.000000e+00   0.000000e+00
      672000   6.719990e-06   1.339032e-01   1.590742e+01   1.709378e+01  -1.423834e+06   1.038838e+06  -7.897493e+05  -2.458604e+14  -3.519034e+14  -2.197405e+13   1.931370e+06   2.455946e-15   0.000000e+00   0.000000e+00
      680000   6.799990e-06   1.359929e-01   1.590967e+01   1.703449e+01  -1.637197e+06   7.027871e+05  -8.389230e+05  -1.628461e+14  -3.979530e+14  -1.778122e+13   1.969293e+06   2.559371e-15   0.000000e+00   0.000000e+00
      688000   6.879990e-06   1.400612e-01   1.591098e+01   1.697285e+01  -1.616648e+06   8.166106e+05  -8.635844e+05  -1.868822e+14  -3.873662e+14  -1.859442e+13   2.006535e+06   2.658840e-15   0.000000e+00   0.000000e+00
      696000   6.959990e-06   1.460194e-01   1.591092e+01   1.690890e+01  -1.274394e+06   1.343010e+06  -8.639869e+05  -3.045126e+14  -3.027295e+14  -2.355252e+13   2.043093e+06   2.750732e-15   0.000000e+00   0.000000e+00
      704000   7.039990e-06   1.521929e-01   1.590792e+01   1.684238e+01  -2.729257e+05   1.887287e+06  -8.279917e+05  -4.225189e+14  -7.119149e+13  -2.522343e+13   2.078921e+06   2.837263e-15   0.000000e+00   0.000000e+00
      712000   7.119990e-06   1.541785e-01   1.590218e+01   1.677316e+01   1.311516e+06   1.462662e+06  -7.807844e+05  -3.212375e+14   2.828938e+14  -1.199308e+13   2.114019e+06   2.920194e-15   0.000000e+00   0.000000e+00
      720000   7.199990e-06   1.488550e-01   1.590079e+01   1.670125e+01   1.901972e+06  -5.680761e+05  -8.218051e+05   1.287273e+14   4.069992e+14   1.436484e+13   2.148388e+06   3.000463e-15   0.000000e+00   0.000000e+00
      728000   7.279990e-06   1.463621e-01   1.591205e+01   1.662742e+01  -2.551965e+05  -1.928886e+06  -9.876893e+05   4.203907e+14  -6.666413e+13   1.973257e+13   2.182030e+06   3.080516e-15   0.000000e+00   0.000000e+00
      736000   7.359990e-06   1.617015e-01   1.592111e+01   1.655197e+01  -1.870550e+06   5.424017e+05  -1.054834e+06  -1.121998e+14  -4.092281e+14  -1.317073e+13   2.214911e+06   3.150781e-15   0.000000e+00   0.000000e+00
      744000   7.439990e-06   1.709506e-01   1.590786e+01   1.647343e+01   1.237338e+06   1.641188e+06  -9.081522e+05  -3.398025e+14   2.502884e+14  -1.262245e+13   2.247052e+06   3.207620e-15   0.000000e+00   0.000000e+00
      752000   7.519990e-06   1.578865e-01   1.591184e+01   1.639179e+01   6.957727e+05  -1.909945e+06  -1.029282e+06   3.983821e+14   1.330510e+14   2.068897e+13   2.278467e+06   3.271488e-15   0.000000e+00   0.000000e+00
      760000   7.599990e-06   1.763354e-01   1.592511e+01   1.630941e+01  -1.712905e+06   1.067209e+06  -1.122110e+06  -2.139618e+14  -3.592580e+14  -1.662784e+13   2.309136e+06   3.327540e-15   0.000000e+00   0.000000e+00
      768000   7.679990e-06   1.746194e-01   1.590762e+01   1.622317e+01   2.115643e+06  -1.111550e+05  -9.914689e+05   2.645273e+13   4.148620e+14   8.191653e+12   2.339083e+06   3.370666e-15   0.000000e+00   0.000000e+00
      776000   7.759990e-06   1.774292e-01   1.592980e+01   1.613549e+01  -2.004539e+06  -3.476877e+05  -1.212361e+06   7.187422e+13  -4.074539e+14  -3.398279e+12   2.368308e+06   3.421817e-15   0.000000e+00   0.000000e+00
      784000   7.839990e-06   1.853991e-01   1.591031e+01   1.604507e+01   2.116970e+06   4.140525e+05  -1.044913e+06  -7.660361e+13   4.035538e+14   3.098388e+12   2.396841e+06   3.454363e-15   0.000000e+00   0.000000e+00
      792000   7.919990e-06   1.876264e-01   1.593344e+01   1.595290e+01  -2.071008e+06   5.967940e+04  -1.259592e+06  -8.479679e+12  -4.087943e+14  -6.754107e+12   2.424708e+06   3.503667e-15   0.000000e+00   0.000000e+00
      800000   7.999990e-06   1.867311e-01   1.591370e+01   1.585783e+01   1.984721e+06  -8.939743e+05  -1.128583e+06   1.733730e+14   3.669735e+14   1.274447e+13   2.451939e+06   3.532690e-15   0.000000e+00   0.000000e+00
      808000   8.079990e-06   2.057083e-01   1.593093e+01   1.576194e+01  -9.767887e+05   1.911855e+06  -1.238431e+06  -3.542675e+14  -1.919227e+14  -1.817673e+13   2.478511e+06   3.561060e-15   0.000000e+00   0.000000e+00
      816000   8.159990e-06   1.886138e-01   1.593079e+01   1.566200e+01  -6.618965e+05  -2.028835e+06  -1.310708e+06   3.778636e+14  -1.322498e+14   1.266647e+13   2.504443e+06   3.585954e-15   0.000000e+00   0.000000e+00
      824000   8.239990e-06   2.062273e-01   1.591675e+01   1.556100e+01   2.184530e+06   4.618034e+05  -1.189180e+06  -8.016361e+13   3.890747e+14   2.504349e+12   2.529740e+06   3.599033e-15   0.000000e+00   0.000000e+00
      832000   8.319990e-06   2.182533e-01   1.593640e+01   1.545815e+01  -1.097620e+06   1.888480e+06  -1.324388e+06  -3.363372e+14  -2.062039e+14  -1.646098e+13   2.554433e+06   3.625493e-15   0.000000e+00   0.000000e+00
      840000   8.399990e-06   2.038192e-01   1.594091e+01   1.535199e+01  -1.618429e+06  -1.425652e+06  -1.413215e+06   2.560991e+14  -2.971628e+14   5.401351e+12   2.578561e+06   3.647133e-15   0.000000e+00   0.000000e+00
      848000   8.479990e-06   2.063074e-01   1.592490e+01   1.524430e+01   1.473071e+06  -1.686542e+06  -1.325461e+06   2.991232e+14   2.493663e+14   1.399072e+13   2.602155e+06   3.664300e-15   0.000000e+00   0.000000e+00
      856000   8.559990e-06   2.262911e-01   1.592326e+01   1.513564e+01   2.006405e+06   1.096149e+06  -1.290231e+06  -1.859755e+14   3.391844e+14  -2.202697e+12   2.625243e+06   3.675190e-15   0.000000e+00   0.000000e+00
      864000   8.639990e-06   2.370817e-01   1.593792e+01   1.502510e+01  -2.631424e+05   2.245007e+06  -1.379045e+06  -3.807359e+14  -5.297892e+13  -1.466966e+13   2.647842e+06   3.697350e-15   0.000000e+00   0.000000e+00
      872000   8.719990e-06   2.330971e-01   1.594996e+01   1.491231e+01  -2.043564e+06   8.723369e+05  -1.480432e+06  -1.448714e+14  -3.541573e+14  -9.696915e+12   2.669982e+06   3.722051e-15   0.000000e+00   0.000000e+00
      880000   8.799990e-06   2.255346e-01   1.595101e+01   1.479759e+01  -1.946040e+06  -1.070133e+06  -1.520816e+06   1.815595e+14  -3.342044e+14   1.890050e+12   2.691679e+06   3.735065e-15   0.000000e+00   0.000000e+00
      888000   8.879990e-06   2.229899e-01   1.594520e+01   1.468130e+01  -7.157772e+05  -2.136012e+06  -1.511665e+06   3.558535e+14  -1.268612e+14   9.814952e+12   2.712934e+06   3.746081e-15   0.000000e+00   0.000000e+00
      896000   8.959990e-06   2.263014e-01   1.593874e+01   1.456362e+01   5.929923e+05  -2.214400e+06  -1.489402e+06   3.648468e+14   8.868975e+13   1.245154e+13   2.733775e+06   3.758917e-15   0.000000e+00   0.000000e+00
      904000   9.039990e-06   2.327304e-01   1.593465e+01   1.444451e+01   1.490580e+06  -1.785215e+06  -1.475433e+06   2.915695e+14   2.328862e+14   1.183501e+13   2.754219e+06   3.768180e-15   0.000000e+00   0.000000e+00
      912000   9.119990e-06   2.395851e-01   1.593314e+01   1.432386e+01   1.958759e+06  -1.297577e+06  -1.475162e+06   2.105333e+14   3.052259e+14   1.013704e+13   2.774265e+06   3.773900e-15   0.000000e+00   0.000000e+00
      920000   9.199990e-06   2.453212e-01   1.593332e+01   1.420166e+01   2.147403e+06  -9.947820e+05  -1.484959e+06   1.604386e+14   3.318293e+14   8.801067e+12   2.793928e+06   3.781384e-15   0.000000e+00   0.000000e+00
      928000   9.279990e-06   2.493668e-01   1.593451e+01   1.407797e+01   2.175809e+06  -9.608921e+05  -1.502265e+06   1.534991e+14   3.328196e+14   8.545154e+12   2.813230e+06   3.790812e-15   0.000000e+00   0.000000e+00
      936000   9.359990e-06   2.516852e-01   1.593662e+01   1.395278e+01   2.062277e+06  -1.197852e+06  -1.527550e+06   1.885757e+14   3.117476e+14   9.256405e+12   2.832180e+06   3.797163e-15   0.000000e+00   0.000000e+00
      944000   9.439990e-06   2.525603e-01   1.594025e+01   1.382607e+01   1.720174e+06  -1.651192e+06  -1.562524e+06   2.559862e+14   2.560544e+14   1.038947e+13   2.850775e+06   3.799917e-15   0.000000e+00   0.000000e+00
      952000   9.519990e-06   2.530444e-01   1.594637e+01   1.369793e+01   1.007274e+06  -2.152484e+06  -1.607322e+06   3.293415e+14   1.452603e+14   1.105561e+13   2.869019e+06   3.804361e-15   0.000000e+00   0.000000e+00
      960000   9.599990e-06   2.554768e-01   1.595548e+01   1.356847e+01  -1.354705e+05  -2.357696e+06  -1.660512e+06   3.567853e+14  -2.799962e+13   9.875835e+12   2.886933e+06   3.807133e-15   0.000000e+00   0.000000e+00
      968000   9.679990e-06   2.628893e-01   1.596611e+01   1.343776e+01  -1.479481e+06  -1.821674e+06  -1.711391e+06   2.734875e+14  -2.277059e+14   5.211897e+12   2.904517e+06   3.808424e-15   0.000000e+00   0.000000e+00
      976000   9.759990e-06   2.769427e-01   1.597360e+01   1.330581e+01  -2.327994e+06  -3.189053e+05  -1.736525e+06   4.945285e+13  -3.503269e+14  -2.681577e+12   2.921776e+06   3.808468e-15   0.000000e+00   0.000000e+00
      984000   9.839990e-06   2.941027e-01   1.597156e+01   1.317241e+01  -1.769895e+06   1.599110e+06  -1.716484e+06  -2.303587e+14  -2.650825e+14  -1.014844e+13   2.938707e+06   3.799027e-15   0.000000e+00   0.000000e+00
      992000   9.919990e-06   3.040115e-01   1.595875e+01   1.303726e+01   3.323200e+05   2.421710e+06  -1.660961e+06  -3.458415e+14   4.104966e+13  -1.007465e+13   2.955319e+06   3.778484e-15   0.000000e+00   0.000000e+00
     1000000   9.999990e-06   2.975315e-01   1.594647e+01   1.290017e+01   2.314792e+06   8.849636e+05  -1.639826e+06  -1.228003e+14   3.231125e+14   2.993406e+11   2.971608e+06   3.760131e-15   0.000000e+00   0.000000e+00
     1008000   1.007999e-05   2.828547e-01   1.595253e+01   1.276162e+01   1.675710e+06  -1.788131e+06  -1.708865e+06   2.556480e+14   2.293751e+14   9.982402e+12   2.987580e+06   3.755720e-15   0.000000e+00   0.000000e+00
     1016000   1.015999e-05   2.853391e-01   1.597540e+01   1.262241e+01  -1.298013e+06  -2.010095e+06  -1.814974e+06   2.840978e+14  -1.892981e+14   5.828566e+12   3.003240e+06   3.747335e-15   0.000000e+00   0.000000e+00
     1024000   1.023999e-05   3.117702e-01   1.598345e+01   1.248234e+01  -2.149389e+06   1.082391e+06  -1.822203e+06  -1.472388e+14  -3.052665e+14  -8.283225e+12   3.018587e+06   3.732345e-15   0.000000e+00   0.000000e+00
     1032000   1.031999e-05   3.248136e-01   1.596201e+01   1.234015e+01   1.057482e+06   2.259004e+06  -1.726718e+06  -3.060427e+14   1.378635e+14  -7.718617e+12   3.033632e+06   3.697244e-15   0.000000e+00   0.000000e+00
     1040000   1.039999e-05   3.041574e-01   1.595527e+01   1.219580e+01   2.204111e+06  -1.166989e+06  -1.752904e+06   1.614954e+14   2.914201e+14   8.419762e+12   3.048383e+06   3.678650e-15   0.000000e+00   0.000000e+00
     1048000   1.047999e-05   3.034432e-01   1.598485e+01   1.205109e+01  -1.533265e+06  -1.856570e+06  -1.892913e+06   2.524373e+14  -2.139477e+14   4.786440e+12   3.062821e+06   3.661556e-15   0.000000e+00   0.000000e+00
     1056000   1.055999e-05   3.377937e-01   1.598481e+01   1.190567e+01  -1.248801e+06   2.116569e+06  -1.851540e+06  -2.781751e+14  -1.734944e+14  -1.128995e+13   3.076941e+06   3.630866e-15   0.000000e+00   0.000000e+00
     1064000   1.063999e-05   3.294491e-01   1.595831e+01   1.175720e+01   2.505590e+06   3.640765e+05  -1.772650e+06  -4.418241e+13   3.214465e+14   2.975904e+12   3.090764e+06   3.584596e-15   0.000000e+00   0.000000e+00
     1072000   1.071999e-05   3.142821e-01   1.598638e+01   1.160780e+01  -8.982383e+05  -2.254628e+06  -1.935532e+06   2.964832e+14  -1.251615e+14   7.669097e+12   3.104265e+06   3.558900e-15   0.000000e+00   0.000000e+00
     1080000   1.079999e-05   3.536354e-01   1.599074e+01   1.145843e+01  -1.164005e+06   2.179064e+06  -1.901372e+06  -2.766517e+14  -1.577476e+14  -1.195667e+13   3.117442e+06   3.517704e-15   0.000000e+00   0.000000e+00
     1088000   1.087999e-05   3.374121e-01   1.596447e+01   1.130529e+01   2.466964e+06  -5.844666e+05  -1.836100e+06   7.796512e+13   3.049104e+14   7.154387e+12   3.130300e+06   3.460790e-15   0.000000e+00   0.000000e+00
     1096000   1.095999e-05   3.393968e-01   1.600359e+01   1.115224e+01  -2.181645e+06  -1.013897e+06  -2.022324e+06   1.308528e+14  -2.832459e+14   3.630457e+11   3.142826e+06   3.426969e-15   0.000000e+00   0.000000e+00
     1104000   1.103999e-05   3.701465e-01   1.597722e+01   1.099771e+01   1.416631e+06   2.113410e+06  -1.865685e+06  -2.579739e+14   1.672687e+14  -6.910293e+12   3.155016e+06   3.355196e-15   0.000000e+00   0.000000e+00
     1112000   1.111999e-05   3.390988e-01   1.599305e+01   1.084012e+01  -2.423222e+05  -2.431626e+06  -2.014359e+06   3.018552e+14  -3.870504e+13   9.949973e+12   3.166886e+06   3.313903e-15   0.000000e+00   0.000000e+00
     1120000   1.119999e-05   3.852112e-01   1.599708e+01   1.068365e+01  -4.103413e+05   2.465643e+06  -1.963304e+06  -2.945495e+14  -5.858947e+13  -1.247815e+13   3.178418e+06   3.252885e-15   0.000000e+00   0.000000e+00
     1128000   1.127999e-05   3.522908e-01   1.598752e+01   1.052244e+01   1.051930e+06  -2.246775e+06  -2.004785e+06   2.724959e+14   1.165086e+14   1.197052e+13   3.189627e+06   3.189735e-15   0.000000e+00   0.000000e+00
     1136000   1.135999e-05   3.963535e-01   1.600826e+01   1.036318e+01  -1.071563e+06   2.228412e+06  -2.032016e+06  -2.587977e+14  -1.361697e+14  -1.327797e+13   3.200493e+06   3.128374e-15   0.000000e+00   0.000000e+00
     1144000   1.143999e-05   3.654407e-01   1.599221e+01   1.019860e+01   1.145280e+06  -2.198418e+06  -2.041064e+06   2.600750e+14   1.235208e+14   1.248262e+13   3.211020e+06   3.051908e-15   0.000000e+00   0.000000e+00
     1152000   1.151999e-05   4.123284e-01   1.601012e+01   1.003625e+01  -5.708373e+05   2.419566e+06  -2.048399e+06  -2.733155e+14  -7.563681e+13  -1.356946e+13   3.221195e+06   2.980818e-15   0.000000e+00   0.000000e+00
     1160000   1.159999e-05   3.771988e-01   1.600802e+01   9.868351e+00   2.915041e+04  -2.425389e+06  -2.134532e+06   2.790456e+14  -7.069117e+12   1.147754e+13   3.231035e+06   2.903899e-15   0.000000e+00   0.000000e+00
     1168000   1.167999e-05   4.263119e-01   1.600114e+01   9.702384e+00   1.173709e+06   2.253065e+06  -2.011740e+06  -2.463614e+14   1.206143e+14  -9.025998e+12   3.240524e+06   2.818990e-15   0.000000e+00   0.000000e+00
     1176000   1.175999e-05   4.025878e-01   1.603308e+01   9.532213e+00  -1.975727e+06  -1.262541e+06  -2.250088e+06   1.437616e+14  -2.290166e+14   1.945560e+12   3.249677e+06   2.752027e-15   0.000000e+00   0.000000e+00
     1184000   1.183999e-05   4.200027e-01   1.599542e+01   9.360798e+00   2.529648e+06  -2.699186e+05  -2.036107e+06   3.423831e+13   2.624085e+14   7.406838e+12   3.258482e+06   2.652138e-15   0.000000e+00   0.000000e+00
     1192000   1.191999e-05   4.504999e-01   1.603479e+01   9.189966e+00  -1.283383e+06   2.046916e+06  -2.199062e+06  -2.127145e+14  -1.490986e+14  -1.494964e+13   3.266927e+06   2.575204e-15   0.000000e+00   0.000000e+00
     1200000   1.199999e-05   4.194884e-01   1.603372e+01   9.013231e+00  -7.264970e+05  -2.226460e+06  -2.289299e+06   2.386279e+14  -8.868874e+13   1.024348e+13   3.275028e+06   2.481456e-15   0.000000e+00   0.000000e+00
     1208000   1.207999e-05   4.534321e-01   1.600657e+01   8.837512e+00   2.523762e+06   3.043762e+05  -2.077160e+06  -2.572963e+13   2.474937e+14   4.706604e+12   3.282775e+06   2.378892e-15   0.000000e+00   0.000000e+00
     1216000   1.215999e-05   4.828386e-01   1.604410e+01   8.661292e+00  -8.515260e+05   2.254401e+06  -2.240038e+06  -2.220590e+14  -9.950381e+13  -1.599402e+13   3.290166e+06   2.294291e-15   0.000000e+00   0.000000e+00
     1224000   1.223999e-05   4.584744e-01   1.605890e+01   8.479403e+00  -1.839041e+06  -1.285115e+06  -2.416203e+06   1.338467e+14  -1.972493e+14   2.802081e+12   3.297215e+06   2.201984e-15   0.000000e+00   0.000000e+00
     1232000   1.231999e-05   4.638020e-01   1.602969e+01   8.296242e+00   1.532506e+06  -1.870839e+06  -2.251064e+06   1.881781e+14   1.353005e+14   1.542338e+13   3.303922e+06   2.099101e-15   0.000000e+00   0.000000e+00
     1240000   1.239999e-05   5.076168e-01   1.602743e+01   8.114386e+00   2.235112e+06   1.187654e+06  -2.133476e+06  -1.067849e+14   1.990736e+14  -1.291700e+12   3.310282e+06   1.993149e-15   0.000000e+00   0.000000e+00
     1248000   1.247999e-05   5.333030e-01   1.606005e+01   7.930520e+00  -3.267701e+05   2.369661e+06  -2.296902e+06  -2.146832e+14  -4.605030e+13  -1.717818e+13   3.316298e+06   1.901206e-15   0.000000e+00   0.000000e+00
     1256000   1.255999e-05   5.282063e-01   1.608542e+01   7.742290e+00  -2.093264e+06   6.020553e+05  -2.508254e+06  -4.777727e+13  -2.088320e+14  -1.043674e+13   3.321982e+06   1.809329e-15   0.000000e+00   0.000000e+00
     1264000   1.263999e-05   5.195620e-01   1.608573e+01   7.550857e+00  -1.502363e+06  -1.495123e+06  -2.564894e+06   1.415540e+14  -1.521534e+14   5.610492e+12   3.327336e+06   1.705371e-15   0.000000e+00   0.000000e+00
     1272000   1.271999e-05   5.265396e-01   1.607373e+01   7.358024e+00   1.814872e+05  -2.209507e+06  -2.487927e+06   2.007406e+14  -1.441382e+12   1.576056e+13   3.332362e+06   1.604756e-15   0.000000e+00   0.000000e+00
     1280000   1.279999e-05   5.480674e-01   1.606474e+01   7.164313e+00   1.570661e+06  -1.729594e+06  -2.382765e+06   1.551867e+14   1.166313e+14   1.747586e+13   3.337071e+06   1.507847e-15   0.000000e+00   0.000000e+00
     1288000   1.287999e-05   5.754699e-01   1.606395e+01   6.969356e+00   2.252991e+06  -8.709404e+05  -2.308876e+06   8.026591e+13   1.697388e+14   1.414172e+13   3.341469e+06   1.410859e-15   0.000000e+00   0.000000e+00
     1296000   1.295999e-05   6.025271e-01   1.606929e+01   6.772557e+00   2.445418e+06  -1.831159e+05  -2.275781e+06   2.298607e+13   1.797221e+14   1.009380e+13   3.345562e+06   1.313651e-15   0.000000e+00   0.000000e+00
     1304000   1.303999e-05   6.269040e-01   1.607740e+01   6.573539e+00   2.454205e+06   1.448603e+05  -2.274664e+06  -2.939901e+12   1.744980e+14   7.806654e+12   3.349359e+06   1.220232e-15   0.000000e+00   0.000000e+00
     1312000   1.311999e-05   6.479013e-01   1.608628e+01   6.372125e+00   2.447326e+06   8.953188e+04  -2.290051e+06   1.948825e+12   1.677497e+14   8.517798e+12   3.352872e+06   1.130529e-15   0.000000e+00   0.000000e+00
     1320000   1.319999e-05   6.658183e-01   1.609653e+01   6.168201e+00   2.397437e+06  -3.333871e+05  -2.324786e+06   3.396946e+13   1.575327e+14   1.232760e+13   3.356111e+06   1.048660e-15   0.000000e+00   0.000000e+00
     1328000   1.327999e-05   6.814224e-01   1.611133e+01   5.961976e+00   2.081146e+06  -1.049489e+06  -2.418859e+06   8.529814e+13   1.278048e+14   1.783857e+13   3.359088e+06   9.622707e-16   0.000000e+00   0.000000e+00
     1336000   1.335999e-05   6.983432e-01   1.613532e+01   5.754093e+00   1.206145e+06  -1.763035e+06  -2.595895e+06   1.335897e+14   5.995463e+13   2.126723e+13   3.361808e+06   8.818567e-16   0.000000e+00   0.000000e+00
     1344000   1.343999e-05   7.267674e-01   1.616988e+01   5.546219e+00  -2.564995e+05  -1.788061e+06  -2.838214e+06   1.325932e+14  -4.460406e+13   1.604755e+13   3.364285e+06   7.998543e-16   0.000000e+00   0.000000e+00
     1352000   1.351999e-05   7.783789e-01   1.620327e+01   5.339687e+00  -1.472234e+06  -4.525192e+05  -2.993535e+06   4.309235e+13  -1.269849e+14  -2.057354e+12   3.366526e+06   7.265340e-16   0.000000e+00   0.000000e+00
     1360000   1.359999e-05   8.460400e-01   1.621124e+01   5.132752e+00  -9.281341e+05   1.624045e+06  -2.801460e+06  -8.799055e+13  -8.940121e+13  -2.273352e+13   3.368551e+06   6.572520e-16   0.000000e+00   0.000000e+00
     1368000   1.367999e-05   8.909224e-01   1.618963e+01   4.917791e+00   1.453605e+06   1.919092e+06  -2.358716e+06  -1.028694e+14   5.977030e+13  -1.482611e+13   3.370374e+06   5.819628e-16   0.000000e+00   0.000000e+00
     1376000   1.375999e-05   8.939509e-01   1.619358e+01   4.693500e+00   2.298053e+06  -5.570481e+05  -2.403968e+06   4.467115e+13   1.034574e+14   1.867556e+13   3.372004e+06   5.287644e-16   0.000000e+00   0.000000e+00
     1384000   1.383999e-05   9.259589e-01   1.625947e+01   4.477510e+00  -2.496935e+05  -1.387447e+06  -3.064772e+06   9.323845e+13  -5.185413e+13   1.584049e+13   3.373453e+06   4.718413e-16   0.000000e+00   0.000000e+00
     1392000   1.391999e-05   1.030469e+00   1.628932e+01   4.274469e+00  -6.111273e+05   1.598341e+06  -2.908739e+06  -6.683990e+13  -7.190114e+13  -2.550169e+13   3.374749e+06   4.175875e-16   0.000000e+00   0.000000e+00
     1400000   1.399999e-05   1.078295e+00   1.625610e+01   4.048895e+00   2.416638e+06   9.076362e+05  -2.175494e+06  -3.156648e+13   8.967991e+13   2.308223e+12   3.375902e+06   3.673734e-16   0.000000e+00   0.000000e+00
     1408000   1.407999e-05   1.099152e+00   1.632516e+01   3.822803e+00   4.419693e+05  -1.354848e+06  -3.061464e+06   8.386366e+13  -2.387952e+13   2.264835e+13   3.376909e+06   3.298697e-16   0.000000e+00   0.000000e+00
     1416000   1.415999e-05   1.234862e+00   1.636198e+01   3.629193e+00   1.237110e+05   1.923975e+06  -2.773551e+06  -6.707485e+13  -3.962333e+13  -3.050321e+13   3.377805e+06   2.846309e-16   0.000000e+00   0.000000e+00
     1424000   1.423999e-05   1.273859e+00   1.634388e+01   3.391383e+00   2.550261e+06  -3.254183e+05  -2.192090e+06   2.996162e+13   7.067502e+13   2.433575e+13   3.378607e+06   2.638344e-16   0.000000e+00   0.000000e+00
     1432000   1.431999e-05   1.376447e+00   1.645094e+01   3.195609e+00  -3.158100e+05   4.410463e+05  -3.335483e+06   8.756222e+12  -7.355322e+13  -1.057168e+13   3.379306e+06   2.278625e-16   0.000000e+00   0.000000e+00
     1440000   1.439999e-05   1.496830e+00   1.641762e+01   2.984371e+00   2.686864e+06   1.091359e+06  -1.736022e+06  -2.586358e+13   6.621860e+13   1.570164e+12   3.379952e+06   2.058787e-16   0.000000e+00   0.000000e+00
     1448000   1.447999e-05   1.575547e+00   1.652935e+01   2.775313e+00   4.547494e+05  -3.214357e+05  -3.334328e+06   4.124532e+13  -5.398960e+13   1.081571e+13   3.380512e+06   1.927720e-16   0.000000e+00   0.000000e+00
     1456000   1.455999e-05   1.749967e+00   1.651779e+01   2.599246e+00   2.518734e+06   1.713206e+06  -1.467148e+06  -4.160948e+13   4.879750e+13  -1.448133e+13   3.381067e+06   1.761053e-16   0.000000e+00   0.000000e+00
     1464000   1.463999e-05   1.838309e+00   1.662560e+01   2.389808e+00   1.189352e+06  -4.815668e+05  -3.128665e+06   4.731515e+13  -4.031137e+13   2.417725e+13   3.381569e+06   1.812849e-16   0.000000e+00   0.000000e+00
     1472000   1.471999e-05   2.044515e+00   1.663496e+01   2.250529e+00   2.455535e+06   2.020163e+06  -1.152336e+06  -4.459713e+13   3.920461e+13  -2.633979e+13   3.382099e+06   1.720295e-16   0.000000e+00   0.000000e+00
     1480000   1.479999e-05   2.154738e+00   1.674051e+01   2.050878e+00   1.856798e+06  -5.381087e+05  -2.775750e+06   4.803704e+13  -3.092979e+13   3.811277e+13   3.382610e+06   1.923459e-16   0.000000e+00   0.000000e+00
     1488000   1.487999e-05   2.380527e+00   1.677496e+01   1.953961e+00   2.221099e+06   2.350381e+06  -9.941490e+05  -4.589184e+13   2.439819e+13  -4.489514e+13   3.383179e+06   1.924203e-16   0.000000e+00   0.000000e+00
     1496000   1.495999e-05   2.514223e+00   1.686256e+01   1.763712e+00   2.658756e+06  -6.808236e+05  -1.979252e+06   4.361801e+13  -5.898488e+12   6.059331e+13   3.383776e+06   2.288832e-16   0.000000e+00   0.000000e+00
     1504000   1.503999e-05   2.739770e+00   1.694300e+01   1.709283e+00   1.657718e+06   2.490639e+06  -1.582158e+06  -3.123626e+13  -2.141781e+13  -6.648104e+13   3.384455e+06   2.389899e-16   0.000000e+00   0.000000e+00
     1512000   1.511999e-05   2.912719e+00   1.698216e+01   1.543309e+00   3.370387e+06  -1.525318e+05  -2.773975e+05   7.641456e+12   5.731494e+13   6.107330e+13   3.385221e+06   2.888940e-16   0.000000e+00   0.000000e+00
     1520000   1.519999e-05   3.100832e+00   1.711935e+01   1.479867e+00   1.694532e+06   9.872814e+05  -2.760337e+06   2.849893e+13  -8.351367e+13  -1.240376e+13   3.386093e+06   3.244732e-16   0.000000e+00   0.000000e+00
     1528000   1.527999e-05   3.325757e+00   1.714197e+01   1.412456e+00   2.438862e+06   2.336618e+06   2.545055e+05  -4.836692e+13   5.711922e+13  -6.055992e+13   3.387123e+06   3.790133e-16   0.000000e+00   0.000000e+00
     1536000   1.535999e-05   3.500217e+00   1.722724e+01   1.282423e+00   3.314965e+06  -6.203543e+05  -3.267801e+05   1.704170e+13   4.103580e+13   9.464033e+13   3.388306e+06   4.472684e-16   0.000000e+00   0.000000e+00
     1544000   1.543999e-05   3.690585e+00   1.735036e+01   1.242224e+00   2.020787e+06   5.844228e+05  -2.657967e+06   4.490870e+13  -1.018477e+14   1.170200e+13   3.389678e+06   5.129610e-16   0.000000e+00   0.000000e+00
     1552000   1.551999e-05   3.907807e+00   1.740357e+01   1.216050e+00   1.673005e+06   2.798742e+06  -9.321258e+05  -2.540510e+13  -2.311040e+13  -1.151425e+14   3.391277e+06   5.917666e-16   0.000000e+00   0.000000e+00
     1560000   1.559999e-05   4.110492e+00   1.744713e+01   1.139774e+00   2.624293e+06   1.770552e+06   1.221286e+06  -5.528568e+13   1.102335e+14  -4.087453e+13   3.393127e+06   6.925867e-16   0.000000e+00   0.000000e+00
     1568000   1.567999e-05   4.295504e+00   1.752795e+01   1.058463e+00   3.261755e+06  -2.602483e+05   9.060960e+05  -1.797434e+13   1.014176e+14   9.404765e+13   3.395259e+06   7.992487e-16   0.000000e+00   0.000000e+00
     1576000   1.575999e-05   4.478261e+00   1.762546e+01   1.004241e+00   3.170338e+06  -1.063572e+06  -6.018256e+05   2.967345e+13   5.454447e+12   1.463057e+14   3.397708e+06   9.181604e-16   0.000000e+00   0.000000e+00
     1584000   1.583999e-05   4.664558e+00   1.771656e+01   9.697129e-01   2.785560e+06  -8.043017e+05  -1.776856e+06   5.689189e+13  -8.047345e+13   1.254723e+14   3.400509e+06   1.049093e-15   0.000000e+00   0.000000e+00
     1592000   1.591999e-05   4.852360e+00   1.779709e+01   9.405087e-01   2.474332e+06  -3.327614e+05  -2.313465e+06   6.682069e+13  -1.280061e+14   8.975413e+13   3.403699e+06   1.193528e-15   0.000000e+00   0.000000e+00
     1600000   1.599999e-05   5.038809e+00   1.787070e+01   9.095745e-01   2.361467e+06  -1.573749e+05  -2.451230e+06   7.084941e+13  -1.474493e+14   7.758782e+13   3.407318e+06   1.356382e-15   0.000000e+00   0.000000e+00
     1608000   1.607999e-05   5.222890e+00   1.793943e+01   8.753103e-01   2.466540e+06  -4.293596e+05  -2.317225e+06   7.278484e+13  -1.445481e+14   1.040985e+14   3.411408e+06   1.535813e-15   0.000000e+00   0.000000e+00
     1616000   1.615999e-05   5.405686e+00   1.800151e+01   8.392921e-01   2.770917e+06  -1.042239e+06  -1.704371e+06   6.374471e+13  -1.012792e+14   1.653231e+14   3.416010e+06   1.732283e-15   0.000000e+00   0.000000e+00
     1624000   1.623999e-05   5.589241e+00   1.805405e+01   8.082814e-01   3.091532e+06  -1.441234e+06  -2.639690e+05   2.459463e+13   1.318965e+13   2.142632e+14   3.421170e+06   1.947558e-15   0.000000e+00   0.000000e+00
     1632000   1.631999e-05   5.773135e+00   1.810196e+01   7.947722e-01   2.949033e+06  -5.347885e+05   1.661651e+06  -4.809504e+13   1.727900e+14   1.412819e+14   3.426934e+06   2.181925e-15   0.000000e+00   0.000000e+00
     1640000   1.639999e-05   5.949207e+00   1.816619e+01   8.013049e-01   1.972205e+06   1.969314e+06   2.005014e+06  -8.922814e+13   1.972755e+14  -1.057053e+14   3.433347e+06   2.438931e-15   0.000000e+00   0.000000e+00
     1648000   1.647999e-05   6.107947e+00   1.826015e+01   7.943849e-01   1.119421e+06   3.116587e+06  -9.330265e+05  -2.318529e+12  -7.174253e+13  -2.431119e+14   3.440459e+06   2.710736e-15   0.000000e+00   0.000000e+00
     1656000   1.655999e-05   6.263206e+00   1.833850e+01   7.414409e-01   2.088415e+06  -8.514585e+04  -2.742647e+06   9.767307e+13  -2.340754e+14   8.138230e+13   3.448310e+06   3.006999e-15   0.000000e+00   0.000000e+00
     1664000   1.663999e-05   6.437976e+00   1.836178e+01   7.103674e-01   2.931196e+06  -1.276173e+06   1.315286e+06  -3.522273e+13   1.552624e+14   2.297354e+14   3.456950e+06   3.327524e-15   0.000000e+00   0.000000e+00
     1672000   1.671999e-05   6.599038e+00   1.842653e+01   7.388090e-01   1.180464e+06   3.110842e+06   9.722380e+05  -6.836784e+13   1.085824e+14  -2.635340e+14   3.466422e+06   3.679367e-15   0.000000e+00   0.000000e+00
     1680000   1.679999e-05   6.738526e+00   1.851690e+01   6.920973e-01   2.000700e+06  -1.955920e+05  -2.836706e+06   1.101142e+14  -2.693529e+14   9.590345e+13   3.476774e+06   4.044272e-15   0.000000e+00   0.000000e+00
     1688000   1.687999e-05   6.906937e+00   1.852762e+01   6.795302e-01   2.339210e+06   1.017787e+05   2.585398e+06  -1.027220e+14   2.921730e+14   8.183558e+13   3.488058e+06   4.449572e-15   0.000000e+00   0.000000e+00
     1696000   1.695999e-05   7.039855e+00   1.862590e+01   6.871446e-01   1.052670e+06   2.161367e+06  -2.544133e+06   8.107704e+13  -2.625504e+14  -1.899414e+14   3.500319e+06   4.872629e-15   0.000000e+00   0.000000e+00
     1704000   1.703999e-05   7.194749e+00   1.864147e+01   6.437194e-01   2.619315e+06  -1.132612e+06   2.049816e+06  -7.410106e+13   2.484038e+14   2.325339e+14   3.513597e+06   5.335740e-15   0.000000e+00   0.000000e+00
     1712000   1.711999e-05   7.322919e+00   1.873063e+01   6.638469e-01   9.237945e+05   2.250439e+06  -2.555096e+06   8.600146e+13  -2.787425e+14  -2.149266e+14   3.527943e+06   5.823898e-15   0.000000e+00   0.000000e+00
     1720000   1.719999e-05   7.471964e+00   1.873935e+01   6.305011e-01   2.200274e+06  -2.229552e+05   2.768533e+06  -1.168656e+14   3.374775e+14   1.205692e+14   3.543401e+06   6.358272e-15   0.000000e+00   0.000000e+00
     1728000   1.727999e-05   7.586784e+00   1.883296e+01   6.235786e-01   1.633895e+06  -5.887906e+04  -3.162380e+06   1.379231e+14  -3.578658e+14   7.743907e+13   3.560018e+06   6.915039e-15   0.000000e+00   0.000000e+00
     1736000   1.735999e-05   7.728843e+00   1.884393e+01   6.390956e-01   7.953651e+05   3.004420e+06   1.772487e+06  -1.052431e+14   2.200030e+14  -3.247558e+14   3.577828e+06   7.525350e-15   0.000000e+00   0.000000e+00
     1744000   1.743999e-05   7.846181e+00   1.889538e+01   5.872540e-01   2.627764e+06  -2.313108e+06   8.257348e+05  -1.858221e+13   1.216394e+14   4.020206e+14   3.596867e+06   8.150621e-15   0.000000e+00   0.000000e+00
     1752000   1.751999e-05   7.955080e+00   1.896900e+01   6.064887e-01   1.093358e+06   9.223563e+05  -3.322313e+06   1.445987e+14  -4.050936e+14  -6.544697e+13   3.617173e+06   8.827300e-15   0.000000e+00   0.000000e+00
     1760000   1.759999e-05   8.081557e+00   1.897938e+01   6.179582e-01   4.105753e+05   3.404088e+06   1.218257e+06  -8.547687e+13   1.584506e+14  -4.122786e+14   3.638755e+06   9.550890e-15   0.000000e+00   0.000000e+00
     1768000   1.767999e-05   8.192897e+00   1.900743e+01   5.773579e-01   2.030658e+06  -9.075989e+05   2.908671e+06  -1.313509e+14   3.905397e+14   2.143037e+14   3.661649e+06   1.030770e-14   0.000000e+00   0.000000e+00
     1776000   1.775999e-05   8.286020e+00   1.907436e+01   5.595000e-01   2.307661e+06  -2.547741e+06  -1.330184e+06   8.335532e+13  -1.574009e+14   4.443603e+14   3.685875e+06   1.109727e-14   0.000000e+00   0.000000e+00
     1784000   1.783999e-05   8.381551e+00   1.912579e+01   5.789566e-01   9.115032e+05   7.216617e+05  -3.524650e+06   1.656757e+14  -4.616510e+14  -5.236690e+13   3.711441e+06   1.194569e-14   0.000000e+00   0.000000e+00
     1792000   1.791999e-05   8.482792e+00   1.914528e+01   5.942148e-01  -5.654929e+04   3.540971e+06  -1.197360e+06   3.125414e+13  -1.613150e+14  -4.806909e+14   3.738361e+06   1.285443e-14   0.000000e+00   0.000000e+00
     1800000   1.799999e-05   8.579974e+00   1.915636e+01   5.854304e-01   2.191920e+05   3.094939e+06   2.135604e+06  -1.310512e+14   2.939699e+14  -4.112962e+14   3.766629e+06   1.379266e-14   0.000000e+00   0.000000e+00
     1808000   1.807999e-05   8.666713e+00   1.917790e+01   5.631283e-01   1.106063e+06   6.677024e+05   3.569632e+06  -1.861984e+14   5.016496e+14  -3.533412e+13   3.796244e+06   1.477137e-14   0.000000e+00   0.000000e+00
     1816000   1.815999e-05   8.743425e+00   1.921090e+01   5.425762e-01   1.842589e+06  -1.662655e+06   2.913403e+06  -1.374405e+14   4.199382e+14   3.276184e+14   3.827201e+06   1.579651e-14   0.000000e+00   0.000000e+00
     1824000   1.823999e-05   8.812907e+00   1.924812e+01   5.302250e-01   2.146460e+06  -2.947421e+06   1.265318e+06  -4.480062e+13   1.928282e+14   5.276816e+14   3.859483e+06   1.686409e-14   0.000000e+00   0.000000e+00
     1832000   1.831999e-05   8.877178e+00   1.928340e+01   5.252155e-01   2.094270e+06  -3.255699e+06  -4.127917e+05   4.388341e+13  -4.550626e+13   5.734843e+14   3.893063e+06   1.798238e-14   0.000000e+00   0.000000e+00
     1840000   1.839999e-05   8.936864e+00   1.931399e+01   5.243091e-01   1.862884e+06  -3.017255e+06  -1.689469e+06   1.090615e+14  -2.314634e+14   5.315711e+14   3.927909e+06   1.913936e-14   0.000000e+00   0.000000e+00
     1848000   1.847999e-05   8.991914e+00   1.933961e+01   5.247565e-01   1.597004e+06  -2.617090e+06  -2.512670e+06   1.502100e+14  -3.546598e+14   4.634241e+14   3.963974e+06   2.033664e-14   0.000000e+00   0.000000e+00
     1856000   1.855999e-05   9.041899e+00   1.936087e+01   5.249106e-01   1.373315e+06  -2.290753e+06  -2.979287e+06   1.733824e+14  -4.269067e+14   4.068987e+14   4.001212e+06   2.156344e-14   0.000000e+00   0.000000e+00
     1864000   1.863999e-05   9.086352e+00   1.937842e+01   5.241372e-01   1.222638e+06  -2.137580e+06  -3.202177e+06   1.849858e+14  -4.633778e+14   3.787280e+14   4.039558e+06   2.282206e-14   0.000000e+00   0.000000e+00
     1872000   1.871999e-05   9.124998e+00   1.939260e+01   5.222451e-01   1.153525e+06  -2.191245e+06  -3.241265e+06   1.882154e+14  -4.723503e+14   3.850591e+14   4.078967e+06   2.412587e-14   0.000000e+00   0.000000e+00
     1880000   1.879999e-05   9.157614e+00   1.940354e+01   5.194030e-01   1.155299e+06  -2.427282e+06  -3.121333e+06   1.839164e+14  -4.567142e+14   4.218865e+14   4.119361e+06   2.542831e-14   0.000000e+00   0.000000e+00
     1888000   1.887999e-05   9.184053e+00   1.941115e+01   5.159728e-01   1.208381e+06  -2.792215e+06  -2.838022e+06   1.714716e+14  -4.158965e+14   4.806662e+14   4.160651e+06   2.674367e-14   0.000000e+00   0.000000e+00
     1896000   1.895999e-05   9.204223e+00   1.941539e+01   5.124836e-01   1.287202e+06  -3.211521e+06  -2.385835e+06   1.500068e+14  -3.490981e+14   5.489766e+14   4.202734e+06   2.806420e-14   0.000000e+00   0.000000e+00
     1904000   1.903999e-05   9.218035e+00   1.941622e+01   5.094219e-01   1.363872e+06  -3.611478e+06  -1.766777e+06   1.191492e+14  -2.567016e+14   6.141148e+14   4.245518e+06   2.937648e-14   0.000000e+00   0.000000e+00
     1912000   1.911999e-05   9.225279e+00   1.941379e+01   5.072495e-01   1.411191e+06  -3.921035e+06  -1.014243e+06   8.028546e+13  -1.439850e+14   6.637377e+14   4.288900e+06   3.066836e-14   0.000000e+00   0.000000e+00
     1920000   1.919999e-05   9.225687e+00   1.940843e+01   5.062825e-01   1.409317e+06  -4.092632e+06  -1.924588e+05   3.669498e+13  -2.095097e+13   6.894376e+14   4.332765e+06   3.192714e-14   0.000000e+00   0.000000e+00
     1928000   1.927999e-05   9.218946e+00   1.940055e+01   5.065883e-01   1.351643e+06  -4.117163e+06   6.164946e+05  -7.095678e+12   9.971993e+13   6.893922e+14   4.376989e+06   3.313885e-14   0.000000e+00   0.000000e+00
     1936000   1.935999e-05   9.204741e+00   1.939057e+01   5.079556e-01   1.247113e+06  -4.027648e+06   1.331144e+06  -4.632765e+13   2.055581e+14   6.690576e+14   4.421446e+06   3.428838e-14   0.000000e+00   0.000000e+00
     1944000   1.943999e-05   9.182795e+00   1.937876e+01   5.099709e-01   1.115275e+06  -3.887781e+06   1.893828e+06  -7.745843e+13   2.879288e+14   6.393230e+14   4.466012e+06   3.538144e-14   0.000000e+00   0.000000e+00
     1952000   1.951999e-05   9.152782e+00   1.936532e+01   5.121356e-01   9.840264e+05  -3.778463e+06   2.258303e+06  -9.730678e+13   3.399563e+14   6.134156e+14   4.510546e+06   3.635788e-14   0.000000e+00   0.000000e+00
     1960000   1.959999e-05   9.114482e+00   1.935043e+01   5.139410e-01   8.812795e+05  -3.779538e+06   2.384432e+06  -1.032986e+14   3.561367e+14   6.047980e+14   4.554896e+06   3.722220e-14   0.000000e+00   0.000000e+00
     1968000   1.967999e-05   9.067649e+00   1.933440e+01   5.150045e-01   8.238549e+05  -3.944594e+06   2.216159e+06  -9.226317e+13   3.288629e+14   6.219213e+14   4.598904e+06   3.795771e-14   0.000000e+00   0.000000e+00
     1976000   1.975999e-05   9.011995e+00   1.931766e+01   5.155052e-01   7.992880e+05  -4.252117e+06   1.683143e+06  -6.089850e+13   2.488493e+14   6.605685e+14   4.642449e+06   3.856780e-14   0.000000e+00   0.000000e+00
     1984000   1.983999e-05   8.947148e+00   1.930095e+01   5.163290e-01   7.559231e+05  -4.575470e+06   6.681877e+05  -4.360691e+12   1.002537e+14   6.988894e+14   4.685384e+06   3.901337e-14   0.000000e+00   0.000000e+00
     1992000   1.991999e-05   8.872913e+00   1.928484e+01   5.196682e-01   5.738014e+05  -4.604297e+06  -9.061150e+05   7.845306e+13  -1.263556e+14   6.862971e+14   4.727562e+06   3.928972e-14   0.000000e+00   0.000000e+00
     2000000   1.999999e-05   8.789586e+00   1.926829e+01   5.292908e-01   6.765112e+04  -3.818552e+06  -2.855858e+06   1.731513e+14  -4.031481e+14   5.414481e+14   4.768841e+06   3.937537e-14   0.000000e+00   0.000000e+00
     2008000   2.007999e-05   8.699000e+00   1.924653e+01   5.490384e-01  -9.104646e+05  -1.705924e+06  -4.403196e+06   2.354401e+14  -6.203108e+14   1.905611e+14   4.809081e+06   3.928910e-14   0.000000e+00   0.000000e+00
     2016000   2.015999e-05   8.604616e+00   1.920984e+01   5.775659e-01  -2.198595e+06   1.509868e+06  -4.048575e+06   1.910512e+14  -5.725955e+14  -3.184443e+14   4.848142e+06   3.902887e-14   0.000000e+00   0.000000e+00
     2024000   2.023999e-05   8.508682e+00   1.914982e+01   6.003500e-01  -2.987245e+06   3.815901e+06  -6.223609e+05   5.264758e+11  -1.068143e+14  -6.647241e+14   4.885905e+06   3.857531e-14   0.000000e+00   0.000000e+00
     2032000   2.031999e-05   8.405434e+00   1.907788e+01   5.935085e-01  -2.196755e+06   2.019393e+06   3.914704e+06  -2.081158e+14   5.039877e+14  -3.756464e+14   4.922254e+06   3.786974e-14   0.000000e+00   0.000000e+00
     2040000   2.039999e-05   8.280276e+00   1.903342e+01   5.602734e-01  -3.579073e+05  -3.356319e+06   3.630373e+06  -1.495156e+14   4.707610e+14   4.216451e+14   4.957074e+06   3.694728e-14   0.000000e+00   0.000000e+00
     2048000   2.047999e-05   8.132520e+00   1.902808e+01   5.629068e-01  -5.799878e+05  -4.138751e+06  -2.727145e+06   1.600221e+14  -3.543138e+14   5.021999e+14   4.990287e+06   3.581033e-14   0.000000e+00   0.000000e+00
     2056000   2.055999e-05   7.993961e+00   1.897973e+01   6.241087e-01  -3.176116e+06   2.468080e+06  -3.006537e+06   1.175832e+14  -4.031219e+14  -4.564194e+14   5.021792e+06   3.458313e-14   0.000000e+00   0.000000e+00
     2064000   2.063999e-05   7.863350e+00   1.887081e+01   6.199866e-01  -2.187446e+06   7.901253e+05   4.484265e+06  -2.109205e+14   5.306831e+14  -1.955816e+14   5.051520e+06   3.314831e-14   0.000000e+00   0.000000e+00
     2072000   2.071999e-05   7.686256e+00   1.885285e+01   5.854296e-01  -6.220399e+05  -4.862015e+06  -1.332046e+06   9.837888e+13  -1.646525e+14   5.524789e+14   5.079416e+06   3.146050e-14   0.000000e+00   0.000000e+00
     2080000   2.079999e-05   7.522705e+00   1.879205e+01   6.662671e-01  -3.759683e+06   3.212395e+06  -1.269193e+06   2.511821e+13  -1.811795e+14  -5.355046e+14   5.105443e+06   2.975818e-14   0.000000e+00   0.000000e+00
     2088000   2.087999e-05   7.353723e+00   1.869098e+01   6.163974e-01  -8.579963e+05  -4.032593e+06   3.051953e+06  -9.405960e+13   3.363105e+14   4.189038e+14   5.129560e+06   2.790218e-14   0.000000e+00   0.000000e+00
     2096000   2.095999e-05   7.153585e+00   1.867030e+01   6.871691e-01  -3.732460e+06   1.996050e+06  -2.936931e+06   1.004552e+14  -3.562491e+14  -3.707204e+14   5.151800e+06   2.596908e-14   0.000000e+00   0.000000e+00
     2104000   2.103999e-05   6.970663e+00   1.855016e+01   6.441355e-01  -1.002699e+06  -4.361302e+06   2.593222e+06  -6.360181e+13   2.643820e+14   4.210162e+14   5.172152e+06   2.395812e-14   0.000000e+00   0.000000e+00
     2112000   2.111999e-05   6.763975e+00   1.849701e+01   7.353157e-01  -4.170823e+06   3.089766e+06   2.484919e+04  -3.256441e+13  -3.939475e+13  -4.754098e+14   5.190668e+06   2.196199e-14   0.000000e+00   0.000000e+00
     2120000   2.119999e-05   6.535383e+00   1.843878e+01   6.874934e-01  -1.905528e+06  -3.987571e+06  -2.754092e+06   1.402860e+14  -2.887841e+14   3.203130e+14   5.207377e+06   1.988491e-14   0.000000e+00   0.000000e+00
     2128000   2.127999e-05   6.338566e+00   1.829118e+01   7.245127e-01  -1.905676e+06  -2.389639e+06   4.234493e+06  -1.281373e+14   3.790102e+14   1.566552e+14   5.222347e+06   1.795088e-14   0.000000e+00   0.000000e+00
     2136000   2.135999e-05   6.103933e+00   1.822969e+01   8.066379e-01  -4.237992e+06   2.642841e+06   1.570604e+06  -8.375301e+13   9.462926e+13  -3.841827e+14   5.235645e+06   1.598587e-14   0.000000e+00   0.000000e+00
     2144000   2.143999e-05   5.844950e+00   1.818337e+01   8.184784e-01  -4.218968e+06   7.150390e+05  -3.037075e+06   9.136823e+13  -3.086174e+14  -2.000574e+14   5.247361e+06   1.409908e-14   0.000000e+00   0.000000e+00
     2152000   2.151999e-05   5.590723e+00   1.808972e+01   8.111590e-01  -3.047479e+06  -2.810211e+06  -3.233830e+06   1.330235e+14  -2.983065e+14   1.334866e+14   5.257573e+06   1.227017e-14   0.000000e+00   0.000000e+00
     2160000   2.159999e-05   5.337585e+00   1.797351e+01   8.273006e-01  -2.349236e+06  -4.415416e+06  -1.649251e+06   1.001691e+14  -1.545587e+14   2.704556e+14   5.266388e+06   1.058754e-14   0.000000e+00   0.000000e+00
     2168000   2.167999e-05   5.075789e+00   1.786040e+01   8.640085e-01  -2.224723e+06  -4.725446e+06  -7.314505e+05   7.745892e+13  -8.009959e+13   2.806341e+14   5.273922e+06   9.041367e-15   0.000000e+00   0.000000e+00
     2176000   2.175999e-05   4.801727e+00   1.775813e+01   9.141714e-01  -2.490932e+06  -4.541614e+06  -1.024945e+06   8.486222e+13  -1.016213e+14   2.433023e+14   5.280294e+06   7.627107e-15   0.000000e+00   0.000000e+00
     2184000   2.183999e-05   4.518253e+00   1.766528e+01   9.851277e-01  -3.279713e+06  -3.546180e+06  -2.146156e+06   1.018400e+14  -1.813281e+14   1.436881e+14   5.285631e+06   6.364879e-15   0.000000e+00   0.000000e+00
     2192000   2.191999e-05   4.238234e+00   1.756230e+01   1.091008e+00  -4.586526e+06  -1.002324e+06  -2.437996e+06   7.234100e+13  -2.129144e+14  -4.877537e+13   5.290057e+06   5.282737e-15   0.000000e+00   0.000000e+00
     2200000   2.199999e-05   3.976284e+00   1.740708e+01   1.207764e+00  -5.025132e+06   1.557980e+06   5.863454e+05  -3.832350e+13  -4.900169e+13  -1.975085e+14   5.293681e+06   4.284281e-15   0.000000e+00   0.000000e+00
     2208000   2.207999e-05   3.698784e+00   1.722095e+01   1.252236e+00  -2.996838e+06  -7.253854e+05   4.306625e+06  -7.720598e+13   1.679965e+14  -2.534778e+13   5.296625e+06   3.483562e-15   0.000000e+00   0.000000e+00
     2216000   2.215999e-05   3.358071e+00   1.714701e+01   1.293420e+00  -2.619681e+06  -4.509987e+06   9.361991e+05   6.011402e+13  -2.343614e+12   1.572243e+14   5.298979e+06   2.837108e-15   0.000000e+00   0.000000e+00
     2224000   2.223999e-05   3.083076e+00   1.706564e+01   1.513306e+00  -5.292807e+06   1.481717e+04  -2.920084e+05   4.702697e+12  -1.175267e+14  -9.196589e+13   5.300877e+06   2.233381e-15   0.000000e+00   0.000000e+00
     2232000   2.231999e-05   2.820756e+00   1.682927e+01   1.612938e+00  -2.185300e+06  -1.445334e+06   4.609913e+06  -4.307101e+13   1.277565e+14   1.967789e+13   5.302435e+06   1.861001e-15   0.000000e+00   0.000000e+00
     2240000   2.239999e-05   2.479955e+00   1.681125e+01   1.780902e+00  -4.382463e+06  -2.986084e+06   7.942600e+04   6.778691e+13  -9.853288e+13   3.781527e+13   5.303677e+06   1.577953e-15   0.000000e+00   0.000000e+00
     2248000   2.247999e-05   2.297967e+00   1.658864e+01   2.028077e+00  -2.442801e+06   3.684407e+05   4.694451e+06  -7.095807e+13   7.895548e+13  -4.309249e+13   5.304799e+06   1.317021e-15   0.000000e+00   0.000000e+00
     2256000   2.255999e-05   1.957849e+00   1.654530e+01   2.211600e+00  -3.478843e+06  -3.656273e+06   1.637166e+06   8.447369e+13  -5.543980e+13   5.576760e+13   5.305751e+06   1.336836e-15   0.000000e+00   0.000000e+00
     2264000   2.263999e-05   1.847569e+00   1.637210e+01   2.536022e+00  -2.015033e+06   1.110685e+06   4.781999e+06  -8.594132e+13   5.138134e+13  -4.812206e+13   5.306740e+06   1.239207e-15   0.000000e+00   0.000000e+00
     2272000   2.271999e-05   1.543660e+00   1.631767e+01   2.770864e+00  -2.413709e+06  -3.763166e+06   2.860848e+06   1.045294e+14  -2.547756e+13   5.472956e+13   5.307717e+06   1.463513e-15   0.000000e+00   0.000000e+00
     2280000   2.279999e-05   1.499827e+00   1.622012e+01   3.135934e+00  -2.281056e+06   1.848707e+06   4.423003e+06  -1.099564e+14  -2.259369e+12  -5.572862e+13   5.308851e+06   1.527505e-15   0.000000e+00   0.000000e+00
     2288000   2.287999e-05   1.253765e+00   1.611505e+01   3.401771e+00  -1.791866e+04  -3.318687e+06   4.145307e+06   1.080054e+14   6.693272e+13   5.409848e+13   5.310139e+06   1.917359e-15   0.000000e+00   0.000000e+00
     2296000   2.295999e-05   1.205259e+00   1.614241e+01   3.768484e+00  -4.107205e+06   3.981641e+05   3.344569e+06  -4.194528e+13  -1.371288e+14  -3.511966e+13   5.311668e+06   2.192553e-15   0.000000e+00   0.000000e+00
     2304000   2.303999e-05   1.120189e+00   1.598386e+01   4.081215e+00   1.386103e+06   1.004030e+06   5.030319e+06  -8.265921e+13   1.411278e+14  -5.338570e+12   5.313518e+06   2.695501e-15   0.000000e+00   0.000000e+00
     2312000   2.311999e-05   9.482689e-01   1.598467e+01   4.393286e+00  -4.331105e+05  -3.659847e+06   3.830774e+06   1.727811e+14   2.434345e+13   4.287632e+13   5.315721e+06   3.252492e-15   0.000000e+00   0.000000e+00
     2320000   2.319999e-05   9.314532e-01   1.601214e+01   4.737810e+00  -4.115395e+06  -3.879334e+05   3.346332e+06   3.607673e+12  -1.948062e+14  -1.803227e+13   5.318356e+06   3.861042e-15   0.000000e+00   0.000000e+00
     2328000   2.327999e-05   9.245632e-01   1.592943e+01   5.062828e+00  -1.123964e+06   3.048115e+06   4.214745e+06  -2.076455e+14  -1.825435e+13  -4.206484e+13   5.321501e+06   4.565540e-15   0.000000e+00   0.000000e+00
     2336000   2.335999e-05   8.413181e-01   1.584957e+01   5.369072e+00   2.427443e+06   1.292631e+06   4.560069e+06  -1.050556e+14   2.043664e+14  -1.891575e+12   5.325186e+06   5.338850e-15   0.000000e+00   0.000000e+00
     2344000   2.343999e-05   7.468186e-01   1.582659e+01   5.674172e+00   2.697339e+06  -1.838570e+06   4.212766e+06   1.051116e+14   2.215926e+14   2.955353e+13   5.329482e+06   6.179851e-15   0.000000e+00   0.000000e+00
     2352000   2.351999e-05   6.815182e-01   1.583073e+01   5.979378e+00   1.167956e+06  -3.563468e+06   3.793953e+06   2.365534e+14   1.162222e+14   3.652605e+13   5.334464e+06   7.183145e-15   0.000000e+00   0.000000e+00
     2360000   2.359999e-05   6.400260e-01   1.583287e+01   6.281141e+00  -2.329243e+05  -4.003680e+06   3.526140e+06   2.834091e+14   1.177836e+13   3.232563e+13   5.340166e+06   8.286974e-15   0.000000e+00   0.000000e+00
     2368000   2.367999e-05   6.086863e-01   1.582497e+01   6.576612e+00  -8.211056e+05  -4.041054e+06   3.403284e+06   3.003151e+14  -3.707613e+13   2.870394e+13   5.346651e+06   9.416386e-15   0.000000e+00   0.000000e+00
     2376000   2.375999e-05   5.799094e-01   1.580654e+01   6.865381e+00  -4.780035e+05  -4.130986e+06   3.372149e+06   3.207843e+14  -1.352638e+13   2.920929e+13   5.353963e+06   1.062271e-14   0.000000e+00   0.000000e+00
     2384000   2.383999e-05   5.562873e-01   1.577849e+01   7.147505e+00   8.194164e+05  -4.046992e+06   3.420998e+06   3.261138e+14   9.236532e+13   3.149299e+13   5.362166e+06   1.187881e-14   0.000000e+00   0.000000e+00
     2392000   2.391999e-05   5.469558e-01   1.574511e+01   7.424053e+00   2.764795e+06  -2.936125e+06   3.547663e+06   2.417684e+14   2.624825e+14   2.918065e+13   5.371297e+06   1.318731e-14   0.000000e+00   0.000000e+00
     2400000   2.399999e-05   5.591969e-01   1.572258e+01   7.695933e+00   3.947508e+06  -1.281524e+04   3.657391e+06  -1.034418e+13   3.762293e+14   1.287076e+13   5.381402e+06   1.464324e-14   0.000000e+00   0.000000e+00
     2408000   2.407999e-05   5.780969e-01   1.573562e+01   7.962799e+00   2.012940e+06   3.530615e+06   3.544309e+06  -3.351700e+14   2.102398e+14  -1.862983e+13   5.392522e+06   1.626584e-14   0.000000e+00   0.000000e+00
     2416000   2.415999e-05   5.574986e-01   1.577931e+01   8.221015e+00  -2.854320e+06   3.388895e+06   3.095010e+06  -3.308727e+14  -2.484481e+14  -3.254571e+13   5.404705e+06   1.794086e-14   0.000000e+00   0.000000e+00
     2424000   2.423999e-05   4.834512e-01   1.578423e+01   8.467798e+00  -4.116128e+06  -2.165671e+06   2.778854e+06   2.028920e+14  -3.842531e+14   1.745911e+12   5.417995e+06   1.976211e-14   0.000000e+00   0.000000e+00
     2432000   2.431999e-05   4.510807e-01   1.571437e+01   8.708952e+00   2.075373e+06  -4.001735e+06   3.031498e+06   3.900552e+14   2.227616e+14   2.769198e+13   5.432406e+06   2.131063e-14   0.000000e+00   0.000000e+00
     2440000   2.439999e-05   5.072433e-01   1.569708e+01   8.950353e+00   3.210294e+06   3.009668e+06   3.211833e+06  -3.145358e+14   3.461074e+14  -9.255743e+12   5.447932e+06   2.315479e-14   0.000000e+00   0.000000e+00
     2448000   2.447999e-05   4.827176e-01   1.576487e+01   9.182811e+00  -4.403580e+06   1.842215e+06   2.660296e+06  -1.999868e+14  -4.438050e+14  -2.281652e+13   5.464654e+06   2.528508e-14   0.000000e+00   0.000000e+00
     2456000   2.455999e-05   4.093836e-01   1.571147e+01   9.403135e+00   6.454403e+05  -4.729018e+06   2.697903e+06   4.967377e+14   8.183718e+13   2.555169e+13   5.482598e+06   2.723318e-14   0.000000e+00   0.000000e+00
     2464000   2.463999e-05   4.778432e-01   1.568680e+01   9.624981e+00   2.772009e+06   3.748548e+06   2.921193e+06  -4.129645e+14   3.170689e+14  -1.406743e+13   5.501728e+06   2.927650e-14   0.000000e+00   0.000000e+00
     2472000   2.471999e-05   4.213806e-01   1.575126e+01   9.836069e+00  -4.801217e+06  -1.365198e+06   2.361892e+06   1.453045e+14  -5.203638e+14  -4.167019e+12   5.522136e+06   3.173840e-14   0.000000e+00   0.000000e+00
     2480000   2.479999e-05   4.149999e-01   1.566190e+01   1.003981e+01   4.699279e+06  -1.118286e+06   2.720246e+06   1.197400e+14   5.403358e+14   1.640438e+13   5.543783e+06   3.359446e-14   0.000000e+00   0.000000e+00
     2488000   2.487999e-05   4.392195e-01   1.573760e+01   1.024193e+01  -4.345267e+06   2.603344e+06   2.308482e+06  -3.043604e+14  -4.854771e+14  -2.398740e+13   5.566672e+06   3.633958e-14   0.000000e+00   0.000000e+00
     2496000   2.495999e-05   3.789317e-01   1.566499e+01   1.043075e+01   3.621926e+06  -3.483666e+06   2.450250e+06   3.992610e+14   4.307784e+14   2.369134e+13   5.590885e+06   3.851184e-14   0.000000e+00   0.000000e+00
     2504000   2.503999e-05   4.324845e-01   1.572378e+01   1.062015e+01  -3.672286e+06   3.638171e+06   2.195788e+06  -4.353048e+14  -4.220366e+14  -2.706962e+13   5.616356e+06   4.142740e-14   0.000000e+00   0.000000e+00
     2512000   2.511999e-05   3.667085e-01   1.565729e+01   1.079543e+01   3.870797e+06  -3.411869e+06   2.285125e+06   4.031550e+14   4.718585e+14   2.330082e+13   5.643201e+06   4.379969e-14   0.000000e+00   0.000000e+00
     2520000   2.519999e-05   4.090205e-01   1.572558e+01   1.097079e+01  -4.727572e+06   2.438016e+06   1.967185e+06  -3.011950e+14  -5.643799e+14  -2.229416e+13   5.671303e+06   4.699074e-14   0.000000e+00   0.000000e+00
     2528000   2.527999e-05   3.769268e-01   1.564164e+01   1.113376e+01   5.195967e+06  -7.841040e+05   2.210356e+06   9.219910e+13   6.460756e+14   1.438148e+13   5.700751e+06   4.937887e-14   0.000000e+00   0.000000e+00
     2536000   2.535999e-05   3.637369e-01   1.572307e+01   1.129340e+01  -5.178956e+06  -1.753506e+06   1.718628e+06   2.143247e+14  -6.378635e+14  -2.322239e+12   5.731496e+06   5.303945e-14   0.000000e+00   0.000000e+00
     2544000   2.543999e-05   4.068644e-01   1.565290e+01   1.144551e+01   3.293329e+06   4.265563e+06   2.043899e+06  -5.387077e+14   4.236545e+14  -1.383845e+13   5.763555e+06   5.565660e-14   0.000000e+00   0.000000e+00
     2552000   2.551999e-05   3.247492e-01   1.567591e+01   1.158731e+01   1.445043e+05  -5.546555e+06   1.679282e+06   7.020943e+14   2.446049e+13   2.331746e+13   5.796994e+06   5.920520e-14   0.000000e+00   0.000000e+00
     2560000   2.559999e-05   3.929945e-01   1.570768e+01   1.172739e+01  -4.205190e+06   3.721437e+06   1.573458e+06  -4.826625e+14  -5.327334e+14  -2.667935e+13   5.831680e+06   6.275331e-14   0.000000e+00   0.000000e+00
     2568000   2.567999e-05   3.676802e-01   1.563064e+01   1.185497e+01   5.510391e+06   9.513837e+05   1.777817e+06  -1.255474e+14   7.202306e+14   6.718892e+12   5.867723e+06   6.562677e-14   0.000000e+00   0.000000e+00
     2576000   2.575999e-05   3.163263e-01   1.568871e+01   1.197647e+01  -2.244187e+06  -5.296753e+06   1.333187e+06   6.910964e+14  -2.894089e+14   1.773153e+13   5.905028e+06   6.984052e-14   0.000000e+00   0.000000e+00
     2584000   2.583999e-05   3.871300e-01   1.569818e+01   1.209414e+01  -3.722433e+06   4.438681e+06   1.329244e+06  -5.894156e+14  -4.844150e+14  -2.863846e+13   5.943508e+06   7.342432e-14   0.000000e+00   0.000000e+00
     2592000   2.591999e-05   3.633651e-01   1.562686e+01   1.219980e+01   5.542305e+06   1.680391e+06   1.502893e+06  -2.246075e+14   7.413483e+14   3.386348e+12   5.983272e+06   7.660293e-14   0.000000e+00   0.000000e+00
     2600000   2.599999e-05   3.038916e-01   1.566848e+01   1.229796e+01  -1.488839e+05  -5.920024e+06   1.105761e+06   7.909809e+14  -1.657877e+13   2.340679e+13   6.024247e+06   8.107610e-14   0.000000e+00   0.000000e+00
     2608000   2.607999e-05   3.572411e-01   1.570909e+01   1.239174e+01  -5.789068e+06   1.562663e+06   9.192881e+05  -2.139094e+14  -7.774039e+14  -1.850475e+13   6.066327e+06   8.535987e-14   0.000000e+00   0.000000e+00
     2616000   2.615999e-05   3.837031e-01   1.564625e+01   1.247509e+01   2.565188e+06   5.422606e+06   1.158301e+06  -7.352945e+14   3.535311e+14  -2.091885e+13   6.109543e+06   8.866086e-14   0.000000e+00   0.000000e+00
     2624000   2.623999e-05   3.182199e-01   1.562661e+01   1.254774e+01   5.138801e+06  -3.233719e+06   1.003021e+06   4.388650e+14   7.024571e+14   2.310464e+13   6.153882e+06   9.272350e-14   0.000000e+00   0.000000e+00
     2632000   2.631999e-05   3.037645e-01   1.568969e+01   1.261464e+01  -3.577898e+06  -5.027665e+06   5.928975e+05   6.883516e+14  -4.895769e+14   1.443914e+13   6.199217e+06   9.781531e-14   0.000000e+00   0.000000e+00
     2640000   2.639999e-05   3.657382e-01   1.569959e+01   1.267418e+01  -5.036834e+06   3.653369e+06   5.379360e+05  -5.053094e+14  -6.905460e+14  -2.790409e+13   6.245493e+06   1.019587e-13   0.000000e+00   0.000000e+00
     2648000   2.647999e-05   3.759427e-01   1.563712e+01   1.272165e+01   3.507403e+06   5.172585e+06   7.352998e+05  -7.129037e+14   4.874151e+14  -1.807962e+13   6.292709e+06   1.053663e-13   0.000000e+00   0.000000e+00
     2656000   2.655999e-05   3.149080e-01   1.562279e+01   1.275811e+01   5.453966e+06  -3.186383e+06   5.537850e+05   4.399606e+14   7.548136e+14   2.389730e+13   6.340778e+06   1.095297e-13   0.000000e+00   0.000000e+00
     2664000   2.663999e-05   2.959258e-01   1.568135e+01   1.278748e+01  -2.680214e+06  -5.798531e+06   1.405685e+05   8.050570e+14  -3.730069e+14   1.927197e+13   6.389543e+06   1.146796e-13   0.000000e+00   0.000000e+00
     2672000   2.671999e-05   3.524110e-01   1.570592e+01   1.280920e+01  -6.106903e+06   2.040893e+06   4.486419e+03  -2.853103e+14  -8.497377e+14  -2.204564e+13   6.438907e+06   1.188717e-13   0.000000e+00   0.000000e+00
     2680000   2.679999e-05   3.840004e-01   1.565291e+01   1.281949e+01   1.278202e+06   6.358533e+06   2.006936e+05  -8.824071e+14   1.795946e+14  -2.962532e+13   6.488838e+06   1.218999e-13   0.000000e+00   0.000000e+00
     2688000   2.687999e-05   3.359738e-01   1.561534e+01   1.281761e+01   6.523195e+06  -4.324369e+05   1.509838e+05   6.086522e+13   9.043000e+14   1.479502e+13   6.539256e+06   1.253159e-13   0.000000e+00   0.000000e+00
     2696000   2.695999e-05   2.928953e-01   1.565976e+01   1.280730e+01   4.092859e+05  -6.572182e+06  -2.588037e+05   9.138792e+14   5.453060e+13   2.806572e+13   6.589997e+06   1.299434e-13   0.000000e+00   0.000000e+00
     2704000   2.703999e-05   3.335036e-01   1.571020e+01   1.278975e+01  -6.522958e+06  -1.121474e+06  -5.432397e+05   1.557843e+14  -9.101272e+14  -7.395176e+12   6.640918e+06   1.341179e-13   0.000000e+00   0.000000e+00
     2712000   2.711999e-05   3.900512e-01   1.567627e+01   1.276128e+01  -1.707892e+06   6.457604e+06  -4.059295e+05  -8.929059e+14  -2.371420e+14  -3.678202e+13   6.691959e+06   1.365422e-13   0.000000e+00   0.000000e+00
     2720000   2.719999e-05   3.614595e-01   1.561846e+01   1.271905e+01   6.374544e+06   2.174474e+06  -3.250178e+05  -2.971234e+14   8.753509e+14   2.635886e+12   6.743055e+06   1.385833e-13   0.000000e+00   0.000000e+00
     2728000   2.727999e-05   3.023109e-01   1.564820e+01   1.266651e+01   2.401630e+06  -6.314775e+06  -7.174111e+05   8.693861e+14   3.258304e+14   3.034351e+13   6.794034e+06   1.420714e-13   0.000000e+00   0.000000e+00
     2736000   2.735999e-05   3.347286e-01   1.571333e+01   1.260657e+01  -6.374342e+06  -2.244299e+06  -1.086691e+06   3.089614e+14  -8.803719e+14  -2.128591e+12   6.844707e+06   1.454696e-13   0.000000e+00   0.000000e+00
     2744000   2.743999e-05   4.029104e-01   1.568099e+01   1.253552e+01  -1.743461e+06   6.603590e+06  -9.455553e+05  -8.968728e+14  -2.408714e+14  -3.764107e+13   6.895007e+06   1.464800e-13   0.000000e+00   0.000000e+00
     2752000   2.751999e-05   3.651019e-01   1.561906e+01   1.244934e+01   6.828117e+06   9.220255e+05  -8.707312e+05  -1.212688e+14   9.164537e+14   9.657999e+12   6.944890e+06   1.470405e-13   0.000000e+00   0.000000e+00
     2760000   2.759999e-05   3.114835e-01   1.567443e+01   1.235373e+01  -4.299577e+05  -6.846983e+06  -1.361070e+06   9.233665e+14  -6.467373e+13   2.735796e+13   6.994180e+06   1.496357e-13   0.000000e+00   0.000000e+00
     2768000   2.767999e-05   3.849602e-01   1.572120e+01   1.225180e+01  -6.423358e+06   2.422775e+06  -1.571834e+06  -3.219911e+14  -8.662398e+14  -2.480349e+13   7.042729e+06   1.512125e-13   0.000000e+00   0.000000e+00
     2776000   2.775999e-05   4.114179e-01   1.564011e+01   1.213556e+01   4.621413e+06   5.224650e+06  -1.273295e+06  -6.852166e+14   6.038112e+14  -1.595120e+13   7.090536e+06   1.496339e-13   0.000000e+00   0.000000e+00
     2784000   2.783999e-05   3.287312e-01   1.565631e+01   1.200544e+01   2.739531e+06  -6.375871e+06  -1.669375e+06   8.384125e+14   3.506582e+14   3.165077e+13   7.137477e+06   1.502694e-13   0.000000e+00   0.000000e+00
     2792000   2.791999e-05   3.923779e-01   1.573192e+01   1.187022e+01  -6.785926e+06   1.191063e+06  -2.032911e+06  -1.520337e+14  -8.928905e+14  -1.967980e+13   7.183325e+06   1.510759e-13   0.000000e+00   0.000000e+00
     2800000   2.799999e-05   4.264166e-01   1.564150e+01   1.172034e+01   5.234161e+06   4.698167e+06  -1.666300e+06  -5.962257e+14   6.616581e+14  -1.205993e+13   7.228123e+06   1.478740e-13   0.000000e+00   0.000000e+00
     2808000   2.807999e-05   3.423132e-01   1.568705e+01   1.155664e+01  -2.375771e+05  -6.923006e+06  -2.212233e+06   8.826202e+14  -4.084438e+13   2.949961e+13   7.271755e+06   1.474304e-13   0.000000e+00   0.000000e+00
     2816000   2.815999e-05   4.505485e-01   1.571932e+01   1.138841e+01  -3.860278e+06   5.772891e+06  -2.294757e+06  -7.185272e+14  -4.949885e+14  -3.984239e+13   7.313954e+06   1.455822e-13   0.000000e+00   0.000000e+00
     2824000   2.823999e-05   3.892843e-01   1.564001e+01   1.119987e+01   6.382431e+06  -2.931561e+06  -2.182764e+06   3.660641e+14   7.739654e+14   2.754030e+13   7.354858e+06   1.416041e-13   0.000000e+00   0.000000e+00
     2832000   2.831999e-05   4.261973e-01   1.575172e+01   1.100696e+01  -6.822075e+06   5.084154e+05  -2.806314e+06  -5.677412e+13  -8.466436e+14  -1.793556e+13   7.394227e+06   1.405050e-13   0.000000e+00   0.000000e+00
     2840000   2.839999e-05   4.417765e-01   1.564156e+01   1.079734e+01   6.951032e+06   1.167263e+06  -2.357251e+06  -1.324858e+14   8.158114e+14   1.040240e+13   7.432092e+06   1.346309e-13   0.000000e+00   0.000000e+00
     2848000   2.847999e-05   4.296306e-01   1.576035e+01   1.057886e+01  -6.597792e+06  -1.521956e+06  -3.151016e+06   1.859093e+14  -7.949002e+14  -7.442844e+12   7.468341e+06   1.326213e-13   0.000000e+00   0.000000e+00
     2856000   2.855999e-05   4.624242e-01   1.564877e+01   1.034560e+01   6.962009e+06   9.265418e+05  -2.639148e+06  -9.897442e+13   7.852080e+14   1.220172e+13   7.502876e+06   1.258213e-13   0.000000e+00   0.000000e+00
     2864000   2.863999e-05   4.771581e-01   1.577311e+01   1.010407e+01  -6.603824e+06   1.146909e+06  -3.443864e+06  -1.222961e+14  -7.686582e+14  -2.323608e+13   7.535655e+06   1.228389e-13   0.000000e+00   0.000000e+00
     2872000   2.871999e-05   4.458217e-01   1.566925e+01   9.842799e+00   5.680351e+06  -3.916144e+06  -3.106742e+06   4.399273e+14   6.093375e+14   3.445036e+13   7.566665e+06   1.156188e-13   0.000000e+00   0.000000e+00
     2880000   2.879999e-05   5.574128e-01   1.574232e+01   9.580352e+00  -1.590043e+06   6.612787e+06  -3.382038e+06  -7.048248e+14  -1.928006e+14  -4.719333e+13   7.595747e+06   1.103665e-13   0.000000e+00   0.000000e+00
     2888000   2.887999e-05   4.622234e-01   1.576909e+01   9.292823e+00  -3.614065e+06  -5.418946e+06  -3.960361e+06   5.820493e+14  -4.047890e+14   2.144610e+13   7.623050e+06   1.043060e-13   0.000000e+00   0.000000e+00
     2896000   2.895999e-05   5.244110e-01   1.567666e+01   8.997882e+00   6.801037e+06  -8.696066e+05  -3.389200e+06   9.922267e+13   6.714802e+14   2.545721e+13   7.648333e+06   9.629316e-14   0.000000e+00   0.000000e+00
     2904000   2.903999e-05   6.208553e-01   1.575505e+01   8.696992e+00  -2.197654e+05   6.679036e+06  -3.767754e+06  -6.505282e+14  -4.878263e+13  -4.966823e+13   7.671622e+06   8.987778e-14   0.000000e+00   0.000000e+00
     2912000   2.911999e-05   5.750581e-01   1.582721e+01   8.372645e+00  -6.162909e+06  -2.349514e+05  -4.598434e+06   3.682712e+13  -6.277899e+14  -1.814099e+13   7.692999e+06   8.357668e-14   0.000000e+00   0.000000e+00
     2920000   2.919999e-05   5.394471e-01   1.578661e+01   8.030936e+00  -1.079947e+06  -6.090317e+06  -4.606788e+06   5.788470e+14  -1.318793e+14   3.788402e+13   7.712376e+06   7.510371e-14   0.000000e+00   0.000000e+00
     2928000   2.927999e-05   5.873058e-01   1.573456e+01   7.680450e+00   4.800450e+06  -4.315586e+06  -4.252109e+06   3.975639e+14   3.945752e+14   4.762394e+13   7.729750e+06   6.736840e-14   0.000000e+00   0.000000e+00
     2936000   2.935999e-05   6.669581e-01   1.572685e+01   7.319970e+00   6.590954e+06  -3.077965e+05  -4.056173e+06   4.197634e+13   5.253529e+14   2.765591e+13   7.745189e+06   5.961373e-14   0.000000e+00   0.000000e+00
     2944000   2.943999e-05   7.371645e-01   1.574570e+01   6.945633e+00   6.235994e+06   2.161803e+06  -4.078867e+06  -1.571848e+14   4.669279e+14   6.564295e+12   7.758748e+06   5.214415e-14   0.000000e+00   0.000000e+00
     2952000   2.951999e-05   7.915284e-01   1.576585e+01   6.555079e+00   6.000653e+06   2.642513e+06  -4.170132e+06  -1.832202e+14   4.191284e+14   1.443465e+12   7.770502e+06   4.507853e-14   0.000000e+00   0.000000e+00
     2960000   2.959999e-05   8.296593e-01   1.578089e+01   6.147641e+00   6.374407e+06   1.273268e+06  -4.275866e+06  -7.083809e+13   4.155869e+14   1.773267e+13   7.780572e+06   3.845770e-14   0.000000e+00   0.000000e+00
     2968000   2.967999e-05   8.501223e-01   1.581122e+01   5.721797e+00   5.943916e+06  -1.914969e+06  -4.655309e+06   1.529930e+14   3.518704e+14   5.027794e+13   7.789040e+06   3.241600e-14   0.000000e+00   0.000000e+00
     2976000   2.975999e-05   8.800769e-01   1.589953e+01   5.284472e+00   2.217515e+06  -4.881372e+06  -5.659787e+06   3.371513e+14   7.542202e+13   6.682882e+13   7.796047e+06   2.685272e-14   0.000000e+00   0.000000e+00
     2984000   2.983999e-05   1.016727e+00   1.603349e+01   4.858332e+00  -3.237605e+06  -1.863278e+06  -6.849363e+06   1.497334e+14  -2.795140e+14   5.114235e+12   7.801773e+06   2.184291e-14   0.000000e+00   0.000000e+00
     2992000   2.991999e-05   1.256263e+00   1.603405e+01   4.439633e+00  -1.883306e+05   5.403558e+06  -5.630744e+06  -2.489080e+14  -1.001153e+14  -8.789226e+13   7.806356e+06   1.733008e-14   0.000000e+00   0.000000e+00
     3000000   2.999999e-05   1.316460e+00   1.596164e+01   3.945314e+00   6.634171e+06   2.838267e+05  -4.111425e+06   1.812300e+13   2.468502e+14   4.612994e+13   7.810032e+06   1.379681e-14   0.000000e+00   0.000000e+00
     3008000   3.007999e-05   1.444352e+00   1.619805e+01   3.489256e+00  -4.848961e+05  -2.110533e+06  -7.506784e+06   1.534822e+14  -1.614621e+14   3.541323e+13   7.812892e+06   1.108177e-14   0.000000e+00   0.000000e+00
     3016000   3.015999e-05   1.823982e+00   1.617194e+01   3.116739e+00   4.209462e+06   5.417442e+06  -3.743045e+06  -1.680514e+14   7.373858e+13  -8.237574e+13   7.815282e+06   8.818532e-15   0.000000e+00   0.000000e+00
     3024000   3.023999e-05   1.946105e+00   1.630612e+01   2.597253e+00   4.568272e+06  -2.963755e+06  -5.608700e+06   1.585257e+14   6.303387e+12   1.257149e+14   7.817318e+06   8.934010e-15   0.000000e+00   0.000000e+00
     3032000   3.031999e-05   2.426652e+00   1.645765e+01   2.383060e+00   2.713764e+06   5.864635e+06  -4.402692e+06  -1.141933e+14  -5.803428e+13  -1.477791e+14   7.819345e+06   8.343617e-15   0.000000e+00   0.000000e+00
     3040000   3.039999e-05   2.719677e+00   1.650369e+01   1.930282e+00   7.565645e+06  -1.397589e+06  -1.408804e+06   5.624207e+13   1.348299e+14   1.679263e+14   7.821571e+06   1.081368e-14   0.000000e+00   0.000000e+00
     3048000   3.047999e-05   3.128324e+00   1.681262e+01   1.783216e+00   2.648708e+06   2.508208e+06  -6.921920e+06   6.518317e+13  -2.277133e+14  -5.765675e+13   7.824304e+06   1.298004e-14   0.000000e+00   0.000000e+00
     3056000   3.055999e-05   3.604847e+00   1.683075e+01   1.625223e+00   4.991553e+06   5.910317e+06   1.195330e+06  -1.485704e+14   1.622202e+14  -1.810077e+14   7.827916e+06   1.774209e-14   0.000000e+00   0.000000e+00
     3064000   3.063999e-05   3.970044e+00   1.698402e+01   1.346854e+00   7.539512e+06  -1.249956e+06   1.715847e+06  -1.687660e+13   2.246507e+14   2.384366e+14   7.832672e+06   2.355383e-14   0.000000e+00   0.000000e+00
     3072000   3.071999e-05   4.333832e+00   1.723103e+01   1.210776e+00   6.287498e+06  -2.967114e+06  -3.621257e+06   1.372551e+14  -1.142198e+14   3.315083e+14   7.838999e+06   3.108543e-14   0.000000e+00   0.000000e+00
     3080000   3.079999e-05   4.714584e+00   1.742465e+01   1.150157e+00   4.611853e+06  -9.086365e+05  -6.283705e+06   1.827764e+14  -3.414190e+14   1.832244e+14   7.847277e+06   4.032683e-14   0.000000e+00   0.000000e+00
     3088000   3.087999e-05   5.084284e+00   1.757622e+01   1.084614e+00   3.980414e+06   3.725461e+04  -6.775072e+06   1.961927e+14  -4.269573e+14   1.125726e+14   7.857906e+06   5.143231e-14   0.000000e+00   0.000000e+00
     3096000   3.095999e-05   5.433424e+00   1.770590e+01   9.998405e-01   4.504636e+06  -1.455200e+06  -6.288652e+06   2.153931e+14  -4.246765e+14   2.520976e+14   7.871245e+06   6.417258e-14   0.000000e+00   0.000000e+00
     3104000   3.103999e-05   5.772009e+00   1.779744e+01   9.112718e-01   5.946302e+06  -4.274148e+06  -2.930559e+06   1.508244e+14  -1.686860e+14   5.508472e+14   7.887651e+06   7.872294e-14   0.000000e+00   0.000000e+00
     3112000   3.111999e-05   6.108991e+00   1.784848e+01   8.828619e-01   6.031111e+06  -2.725814e+06   4.327076e+06  -1.211392e+14   4.528165e+14   4.550800e+14   7.907461e+06   9.522257e-14   0.000000e+00   0.000000e+00
     3120000   3.119999e-05   6.401578e+00   1.796766e+01   9.436432e-01   2.024486e+06   6.319203e+06   4.343937e+06  -2.432391e+14   4.310397e+14  -5.125112e+14   7.930993e+06   1.139285e-13   0.000000e+00   0.000000e+00
     3128000   3.127999e-05   6.614712e+00   1.817242e+01   8.834306e-01   1.476397e+06   3.164996e+06  -7.151188e+06   2.368248e+14  -6.808468e+14  -2.532541e+14   7.958419e+06   1.319284e-13   0.000000e+00   0.000000e+00
     3136000   3.135999e-05   6.873582e+00   1.817402e+01   7.729042e-01   5.509836e+06  -5.044904e+06   2.833235e+06  -6.115922e+13   3.452758e+14   7.360873e+14   7.989779e+06   1.514221e-13   0.000000e+00   0.000000e+00
     3144000   3.143999e-05   7.082269e+00   1.828515e+01   8.772272e-01  -3.473259e+05   8.016215e+06  -1.519257e+05  -8.832086e+13  -1.923496e+13  -8.625020e+14   8.025174e+06   1.728317e-13   0.000000e+00   0.000000e+00
     3152000   3.151999e-05   7.246699e+00   1.836257e+01   7.278246e-01   4.759527e+06  -6.324717e+06  -1.542428e+06   1.289016e+14  -1.216059e+14   8.910495e+14   8.064380e+06   1.915347e-13   0.000000e+00   0.000000e+00
     3160000   3.159999e-05   7.416750e+00   1.841103e+01   8.424886e-01  -1.079370e+06   8.024660e+06   4.090538e+05  -1.084883e+14   3.472989e+13  -9.454175e+14   8.107252e+06   2.126760e-13   0.000000e+00   0.000000e+00
     3168000   3.167999e-05   7.535977e+00   1.844542e+01   7.026243e-01   4.371737e+06  -6.643627e+06   1.796604e+06  -1.660117e+13   2.453164e+14   9.529381e+14   8.153382e+06   2.297556e-13   0.000000e+00   0.000000e+00
     3176000   3.175999e-05   7.620018e+00   1.854154e+01   8.047118e-01  -1.571104e+06   5.833742e+06  -5.547837e+06   1.869059e+14  -6.599869e+14  -7.487881e+14   8.202403e+06   2.475750e-13   0.000000e+00   0.000000e+00
     3184000   3.183999e-05   7.722609e+00   1.846563e+01   7.370989e-01   1.884811e+06  -1.109213e+06   7.958634e+06  -3.565653e+14   9.506816e+14   2.182979e+14   8.253649e+06   2.622009e-13   0.000000e+00   0.000000e+00
     3192000   3.191999e-05   7.716062e+00   1.859239e+01   7.156890e-01   1.217001e+06  -3.809600e+06  -7.280495e+06   3.686054e+14  -8.476838e+14   5.036538e+14   8.306609e+06   2.728520e-13   0.000000e+00   0.000000e+00
     3200000   3.199999e-05   7.760059e+00   1.852513e+01   8.081570e-01  -2.767345e+06   7.430702e+06   2.650274e+06  -2.024693e+14   2.850143e+14  -1.006240e+15   8.360472e+06   2.830529e-13   0.000000e+00   0.000000e+00
     3208000   3.207999e-05   7.731544e+00   1.850718e+01   6.870492e-01   2.578242e+06  -7.255983e+06   3.392234e+06  -8.858019e+13   4.215638e+14   9.723835e+14   8.414504e+06   2.858053e-13   0.000000e+00   0.000000e+00
     3216000   3.215999e-05   7.654506e+00   1.856896e+01   7.824285e-01  -2.820822e+06   3.054369e+06  -7.377042e+06   3.012127e+14  -8.907925e+14  -4.855166e+14   8.467996e+06   2.866123e-13   0.000000e+00   0.000000e+00
     3224000   3.223999e-05   7.615644e+00   1.841671e+01   7.647462e-01  -8.654835e+05   4.506298e+05   8.463984e+06  -3.897514e+14   9.653123e+14  -8.995807e+13   8.520044e+06   2.828600e-13   0.000000e+00   0.000000e+00
     3232000   3.231999e-05   7.451424e+00   1.848911e+01   7.355996e-01  -7.292103e+05  -4.622053e+06  -7.179883e+06   3.608258e+14  -8.186672e+14   4.889232e+14   8.570055e+06   2.724708e-13   0.000000e+00   0.000000e+00
     3240000   3.239999e-05   7.353739e+00   1.832805e+01   8.274040e-01  -3.473285e+06   4.453556e+06   6.508396e+06  -3.340650e+14   6.804106e+14  -6.423515e+14   8.617255e+06   2.616279e-13   0.000000e+00   0.000000e+00
     3248000   3.247999e-05   7.129223e+00   1.835630e+01   7.548629e-01  -1.090322e+06  -5.914898e+06  -6.232249e+06   3.212512e+14  -6.780093e+14   5.858284e+14   8.661163e+06   2.425987e-13   0.000000e+00   0.000000e+00
     3256000   3.255999e-05   6.973692e+00   1.815893e+01   8.433605e-01  -3.028068e+06   1.579920e+06   8.002886e+06  -3.485813e+14   7.920202e+14  -2.872144e+14   8.701237e+06   2.246399e-13   0.000000e+00   0.000000e+00
     3264000   3.263999e-05   6.683661e+00   1.819315e+01   8.720735e-01  -4.962345e+06   1.015500e+06  -7.119199e+06   2.646597e+14  -7.622680e+14  -2.942455e+14   8.737225e+06   2.009988e-13   0.000000e+00   0.000000e+00
     3272000   3.271999e-05   6.434280e+00   1.800382e+01   8.025180e-01  -5.339898e+05  -8.604875e+06   1.600869e+06   3.453427e+13   1.436711e+14   7.877829e+14   8.768797e+06   1.763155e-13   0.000000e+00   0.000000e+00
     3280000   3.279999e-05   6.170061e+00   1.782577e+01   9.361118e-01  -3.699514e+06   4.176095e+05   7.969233e+06  -2.932716e+14   6.612166e+14  -1.701006e+14   8.795992e+06   1.524811e-13   0.000000e+00   0.000000e+00
     3288000   3.287999e-05   5.825244e+00   1.775671e+01   1.046605e+00  -6.946750e+06   5.168939e+06   1.672579e+06  -1.293553e+14   4.219037e+13  -6.648848e+14   8.818888e+06   1.278590e-13   0.000000e+00   0.000000e+00
     3296000   3.295999e-05   5.446540e+00   1.766305e+01   1.095159e+00  -7.535907e+06   3.417663e+06  -3.103992e+06   4.671191e+13  -3.501162e+14  -5.001123e+14   8.837708e+06   1.045123e-13   0.000000e+00   0.000000e+00
     3304000   3.303999e-05   5.057506e+00   1.751803e+01   1.158764e+00  -7.691080e+06   2.055327e+06  -3.872351e+06   8.014843e+13  -3.934893e+14  -3.688070e+14   8.852807e+06   8.316257e-14   0.000000e+00   0.000000e+00
     3312000   3.311999e-05   4.664486e+00   1.732927e+01   1.268688e+00  -8.175413e+06   2.927174e+06  -1.781961e+06  -1.794253e+12  -2.520178e+14  -4.070366e+14   8.864599e+06   6.428810e-14   0.000000e+00   0.000000e+00
     3320000   3.319999e-05   4.274305e+00   1.707502e+01   1.391835e+00  -7.299479e+06   3.376950e+06   3.748847e+06  -1.537708e+14   8.467265e+13  -3.752262e+14   8.873558e+06   4.823323e-14   0.000000e+00   0.000000e+00
     3328000   3.327999e-05   3.835417e+00   1.680197e+01   1.434483e+00  -3.499397e+06  -2.547869e+06   7.753760e+06  -1.239900e+14   3.307441e+14   5.288762e+13   8.880214e+06   3.590737e-14   0.000000e+00   0.000000e+00
     3336000   3.335999e-05   3.292915e+00   1.670988e+01   1.543389e+00  -4.215255e+06  -7.803198e+06   5.352124e+05   1.451358e+14  -6.066241e+13   2.603617e+14   8.885085e+06   2.607512e-14   0.000000e+00   0.000000e+00
     3344000   3.343999e-05   2.924028e+00   1.654062e+01   1.967996e+00  -8.708672e+06   1.209955e+06   1.305247e+06  -5.212556e+13  -1.669546e+14  -1.925003e+14   8.888680e+06   1.907787e-14   0.000000e+00   0.000000e+00
     3352000   3.351999e-05   2.497700e+00   1.614889e+01   2.131397e+00  -1.275531e+06  -4.158882e+06   7.754729e+06  -2.695213e+12   2.130309e+14   1.138810e+14   8.891518e+06   1.646884e-14   0.000000e+00   0.000000e+00
     3360000   3.359999e-05   2.069180e+00   1.615938e+01   2.593169e+00  -8.109096e+06  -3.195991e+06   1.768851e+06   8.091409e+13  -2.123613e+14  -1.246388e+13   8.893854e+06   1.462484e-14   0.000000e+00   0.000000e+00
     3368000   3.367999e-05   1.870660e+00   1.576973e+01   3.020470e+00   3.862081e+04   5.100166e+05   8.881609e+06  -1.151689e+14   2.073522e+14  -1.134268e+13   8.896324e+06   1.592947e-14   0.000000e+00   0.000000e+00
     3376000   3.375999e-05   1.452314e+00   1.577471e+01   3.477211e+00  -4.523348e+06  -6.328043e+06   4.322926e+06   2.264547e+14  -1.096308e+14   7.663249e+13   8.899016e+06   1.955272e-14   0.000000e+00   0.000000e+00
     3384000   3.383999e-05   1.456546e+00   1.564333e+01   4.051130e+00  -4.257081e+06   4.134847e+06   6.635804e+06  -2.541599e+14  -8.405253e+13  -1.105512e+14   8.902448e+06   2.372942e-14   0.000000e+00   0.000000e+00
     3392000   3.391999e-05   1.197647e+00   1.541712e+01   4.500403e+00   4.032835e+06  -1.629530e+06   7.772518e+06   3.000807e+13   3.241665e+14   5.253240e+13   8.906804e+06   3.079160e-14   0.000000e+00   0.000000e+00
     3400000   3.399999e-05   9.833760e-01   1.547177e+01   5.001114e+00  -2.198687e+06  -6.816789e+06   5.303626e+06   3.647398e+14  -6.346074e+13   6.990875e+13   8.912423e+06   4.024577e-14   0.000000e+00   0.000000e+00
     3408000   3.407999e-05   9.724112e-01   1.549746e+01   5.515643e+00  -7.422779e+06  -1.395851e+06   4.744642e+06   6.183812e+13  -4.172523e+14  -2.563427e+13   8.919510e+06   5.071089e-14   0.000000e+00   0.000000e+00
     3416000   3.415999e-05   9.741587e-01   1.542356e+01   5.995873e+00  -5.731334e+06   4.244762e+06   5.371188e+06  -3.226012e+14  -3.304545e+14  -8.266955e+13   8.928374e+06   6.262799e-14   0.000000e+00   0.000000e+00
     3424000   3.423999e-05   9.336025e-01   1.534257e+01   6.445923e+00  -2.549021e+06   6.336453e+06   5.767279e+06  -4.946963e+14  -1.223738e+14  -8.373244e+13   8.939219e+06   7.607387e-14   0.000000e+00   0.000000e+00
     3432000   3.431999e-05   8.806398e-01   1.529552e+01   6.877429e+00  -1.132624e+06   6.811844e+06   5.697150e+06  -5.565656e+14  -2.835508e+13  -7.618996e+13   8.952183e+06   9.050167e-14   0.000000e+00   0.000000e+00
     3440000   3.439999e-05   8.321745e-01   1.528343e+01   7.291643e+00  -2.064567e+06   6.937240e+06   5.294056e+06  -5.919347e+14  -1.171224e+14  -7.666770e+13   8.967428e+06   1.061983e-13   0.000000e+00   0.000000e+00
     3448000   3.447999e-05   7.758240e-01   1.529852e+01   7.686181e+00  -5.122132e+06   5.736050e+06   4.646877e+06  -5.132460e+14  -3.977332e+14  -7.386165e+13   8.985097e+06   1.230687e-13   0.000000e+00   0.000000e+00
     3456000   3.455999e-05   6.873562e-01   1.531232e+01   8.057741e+00  -8.041690e+06   9.709079e+05   3.934952e+06  -1.031708e+14  -6.902092e+14  -3.930208e+13   9.005292e+06   1.414284e-13   0.000000e+00   0.000000e+00
     3464000   3.463999e-05   5.810690e-01   1.526578e+01   8.405275e+00  -5.289496e+06  -6.314265e+06   3.695734e+06   5.749916e+14  -4.675110e+14   2.568520e+13   9.028132e+06   1.599747e-13   0.000000e+00   0.000000e+00
     3472000   3.471999e-05   5.549756e-01   1.515100e+01   8.737277e+00   4.375360e+06  -6.745645e+06   4.161671e+06   6.318844e+14   4.440745e+14   5.691081e+13   9.053563e+06   1.754736e-13   0.000000e+00   0.000000e+00
     3480000   3.479999e-05   6.481230e-01   1.511806e+01   9.060463e+00   6.614702e+06   4.333644e+06   4.465445e+06  -4.413454e+14   6.836047e+14  -8.175966e+12   9.081572e+06   1.949440e-13   0.000000e+00   0.000000e+00
     3488000   3.487999e-05   6.434797e-01   1.523494e+01   9.360803e+00  -6.093436e+06   5.882868e+06   3.361063e+06  -6.129206e+14  -5.972425e+14  -6.364932e+13   9.112345e+06   2.182801e-13   0.000000e+00   0.000000e+00
     3496000   3.495999e-05   4.943076e-01   1.519947e+01   9.626500e+00  -3.331142e+06  -8.008248e+06   2.901327e+06   8.284204e+14  -3.326027e+14   3.584677e+13   9.145832e+06   2.383390e-13   0.000000e+00   0.000000e+00
     3504000   3.503999e-05   5.743121e-01   1.508238e+01   9.883588e+00   8.266391e+06   1.738494e+06   3.598435e+06  -1.941685e+14   8.979870e+14   1.455381e+13   9.181739e+06   2.540881e-13   0.000000e+00   0.000000e+00
     3512000   3.511999e-05   5.897702e-01   1.522231e+01   1.012402e+01  -7.489334e+06   4.755934e+06   2.510558e+06  -5.279764e+14  -8.007098e+14  -5.450577e+13   9.220191e+06   2.800696e-13   0.000000e+00   0.000000e+00
     3520000   3.519999e-05   4.611151e-01   1.512090e+01   1.032931e+01   3.058932e+06  -8.377089e+06   2.497321e+06   9.191070e+14   3.499759e+14   5.205290e+13   9.261172e+06   2.969929e-13   0.000000e+00   0.000000e+00
     3528000   3.527999e-05   6.072347e-01   1.513410e+01   1.053178e+01   1.038289e+06   8.875396e+06   2.592022e+06  -1.003922e+15   1.347499e+14  -5.528752e+13   9.304261e+06   3.180327e-13   0.000000e+00   0.000000e+00
     3536000   3.535999e-05   4.501429e-01   1.517691e+01   1.069849e+01  -4.257931e+06  -8.159741e+06   1.645015e+06   9.282150e+14  -4.793606e+14   3.145283e+13   9.349728e+06   3.409128e-13   0.000000e+00   0.000000e+00
     3544000   3.543999e-05   5.757056e-01   1.508395e+01   1.085526e+01   5.992336e+06   6.878154e+06   2.255457e+06  -7.955309e+14   7.030635e+14  -2.545488e+13   9.397031e+06   3.555481e-13   0.000000e+00   0.000000e+00
     3552000   3.551999e-05   4.586230e-01   1.519376e+01   1.098340e+01  -7.064314e+06  -6.186478e+06   1.028154e+06   7.207384e+14  -8.224949e+14   1.472377e+13   9.446383e+06   3.810862e-13   0.000000e+00   0.000000e+00
     3560000   3.559999e-05   5.576897e-01   1.506838e+01   1.109485e+01   7.334062e+06   5.778627e+06   1.736945e+06  -6.795113e+14   8.687264e+14  -1.399109e+13   9.497262e+06   3.917864e-13   0.000000e+00   0.000000e+00
     3568000   3.567999e-05   4.549127e-01   1.519112e+01   1.118033e+01  -7.337198e+06  -6.093964e+06   4.763226e+05   7.220849e+14  -8.704041e+14   1.398345e+13   9.549751e+06   4.165239e-13   0.000000e+00   0.000000e+00
     3576000   3.575999e-05   5.609553e-01   1.507005e+01   1.124809e+01   6.871158e+06   6.605301e+06   1.175088e+06  -7.841221e+14   8.213501e+14  -2.088333e+13   9.603314e+06   4.247334e-13   0.000000e+00   0.000000e+00
     3584000   3.583999e-05   4.427665e-01   1.517835e+01   1.128774e+01  -6.097587e+06  -7.489591e+06  -5.353928e+04   8.964087e+14  -7.317636e+14   2.397179e+13   9.658023e+06   4.461586e-13   0.000000e+00   0.000000e+00
     3592000   3.591999e-05   5.757665e-01   1.508446e+01   1.131217e+01   5.086599e+06   8.255960e+06   5.592402e+05  -9.831968e+14   6.099088e+14  -3.729048e+13   9.713244e+06   4.514297e-13   0.000000e+00   0.000000e+00
     3600000   3.599999e-05   4.338884e-01   1.515905e+01   1.130422e+01  -3.775712e+06  -8.993123e+06  -5.506301e+05   1.077860e+15  -4.563051e+14   3.669402e+13   9.769107e+06   4.673213e-13   0.000000e+00   0.000000e+00
     3608000   3.607999e-05   5.917087e-01   1.510575e+01   1.128471e+01   2.687028e+06   9.449662e+06  -1.080827e+05  -1.122548e+15   3.200304e+14  -5.358767e+13   9.824862e+06   4.706235e-13   0.000000e+00   0.000000e+00
     3616000   3.615999e-05   4.356471e-01   1.514257e+01   1.122835e+01  -1.518946e+06  -9.705988e+06  -1.055840e+06   1.156667e+15  -1.873993e+14   4.568007e+13   9.880698e+06   4.793869e-13   0.000000e+00   0.000000e+00
     3624000   3.623999e-05   6.063138e-01   1.512210e+01   1.116297e+01   1.144952e+06   9.839674e+06  -7.679979e+05  -1.157190e+15   1.312061e+14  -6.185424e+13   9.935789e+06   4.794750e-13   0.000000e+00   0.000000e+00
     3632000   3.631999e-05   4.468402e-01   1.514232e+01   1.105799e+01  -9.322322e+05  -9.810873e+06  -1.638754e+06   1.155054e+15  -1.191883e+14   4.824147e+13   9.990386e+06   4.814172e-13   0.000000e+00   0.000000e+00
     3640000   3.639999e-05   6.228273e-01   1.512035e+01   1.094474e+01   2.008681e+06   9.751863e+06  -1.319465e+06  -1.125035e+15   2.250419e+14  -5.946135e+13   1.004364e+07   4.754656e-13   0.000000e+00   0.000000e+00
     3648000   3.647999e-05   4.690309e-01   1.517112e+01   1.079182e+01  -3.409737e+06  -9.202034e+06  -2.370963e+06   1.064421e+15  -4.062696e+14   4.053873e+13   1.009580e+07   4.730923e-13   0.000000e+00   0.000000e+00
     3656000   3.655999e-05   6.296229e-01   1.509094e+01   1.062769e+01   6.235211e+06   7.815586e+06  -1.726814e+06  -8.743002e+14   6.919063e+14  -3.256547e+13   1.014609e+07   4.574154e-13   0.000000e+00   0.000000e+00
     3664000   3.663999e-05   5.332519e-01   1.522804e+01   1.043054e+01  -8.557215e+06  -4.528804e+06  -3.193119e+06   5.157893e+14  -9.790832e+14   2.539889e+12   1.019470e+07   4.545731e-13   0.000000e+00   0.000000e+00
     3672000   3.671999e-05   5.818591e-01   1.506678e+01   1.020886e+01   9.934901e+06  -8.042211e+05  -2.351869e+06   9.589916e+13   1.065039e+15   3.604515e+13   1.024111e+07   4.288209e-13   0.000000e+00   0.000000e+00
     3680000   3.679999e-05   6.744006e-01   1.522419e+01   9.973920e+00  -6.327077e+06   7.351170e+06  -3.422288e+06  -7.803372e+14  -7.056548e+14  -7.634138e+13   1.028512e+07   4.203884e-13   0.000000e+00   0.000000e+00
     3688000   3.687999e-05   5.365326e-01   1.518804e+01   9.692851e+00  -1.522347e+06  -9.428554e+06  -3.927627e+06   1.000811e+15  -1.845244e+14   5.240618e+13   1.032673e+07   3.955221e-13   0.000000e+00   0.000000e+00
     3696000   3.695999e-05   6.731503e-01   1.508941e+01   9.401849e+00   9.574803e+06   2.474598e+06  -3.105141e+06  -2.384983e+14   9.476348e+14   1.671055e+13   1.036544e+07   3.665498e-13   0.000000e+00   0.000000e+00
     3704000   3.703999e-05   7.620934e-01   1.523410e+01   9.090854e+00  -3.841264e+06   8.704581e+06  -4.202564e+06  -8.478030e+14  -4.166149e+14  -9.014205e+13   1.040128e+07   3.479491e-13   0.000000e+00   0.000000e+00
     3712000   3.711999e-05   6.670384e-01   1.529361e+01   8.734592e+00  -8.154304e+06  -3.683263e+06  -5.367690e+06   3.736354e+14  -8.268789e+14  -1.743220e+12   1.043414e+07   3.201731e-13   0.000000e+00   0.000000e+00
     3720000   3.719999e-05   6.438495e-01   1.520786e+01   8.350075e+00   1.515630e+06  -8.980482e+06  -5.152083e+06   8.452988e+14   1.003766e+14   7.228751e+13   1.046375e+07   2.854289e-13   0.000000e+00   0.000000e+00
     3728000   3.727999e-05   7.366920e-01   1.514681e+01   7.948257e+00   8.487464e+06  -4.078693e+06  -4.622739e+06   3.770925e+14   7.037664e+14   7.002087e+13   1.049011e+07   2.525017e-13   0.000000e+00   0.000000e+00
     3736000   3.735999e-05   8.500092e-01   1.515387e+01   7.524461e+00   9.391531e+06   1.548218e+06  -4.464352e+06  -1.069846e+14   7.392541e+14   3.005790e+13   1.051324e+07   2.206358e-13   0.000000e+00   0.000000e+00
     3744000   3.743999e-05   9.404943e-01   1.518527e+01   7.072044e+00   8.563126e+06   4.039385e+06  -4.615687e+06  -2.933338e+14   6.251276e+14   1.843396e+12   1.053320e+07   1.889737e-13   0.000000e+00   0.000000e+00
     3752000   3.751999e-05   1.007560e+00   1.520940e+01   6.587213e+00   8.727400e+06   3.494341e+06  -4.788158e+06  -2.301189e+14   5.889129e+14   9.507538e+12   1.055009e+07   1.589806e-13   0.000000e+00   0.000000e+00
     3760000   3.759999e-05   1.047033e+00   1.523457e+01   6.067970e+00   9.236716e+06  -1.448347e+05  -5.124669e+06   4.170363e+13   5.696197e+14   5.842479e+13   1.056410e+07   1.314025e-13   0.000000e+00   0.000000e+00
     3768000   3.767999e-05   1.071625e+00   1.532414e+01   5.517434e+00   6.145799e+06  -5.691080e+06  -6.456021e+06   3.990603e+14   3.043576e+14   1.111797e+14   1.057542e+07   1.055663e-13   0.000000e+00   0.000000e+00
     3776000   3.775999e-05   1.208451e+00   1.552781e+01   4.968685e+00  -2.269262e+06  -5.228170e+06  -8.918763e+06   3.648953e+14  -2.625573e+14   6.083729e+13   1.058431e+07   8.235190e-14   0.000000e+00   0.000000e+00
     3784000   3.783999e-05   1.573995e+00   1.561914e+01   4.461112e+00  -2.483960e+06   6.122185e+06  -8.277789e+06  -2.446749e+14  -2.887493e+14  -1.403325e+14   1.059118e+07   6.528758e-14   0.000000e+00   0.000000e+00
     3792000   3.791999e-05   1.770309e+00   1.548210e+01   3.845278e+00   9.375769e+06   3.060029e+06  -3.875370e+06  -9.689859e+13   3.378718e+14   3.203643e+13   1.059657e+07   4.996818e-14   0.000000e+00   0.000000e+00
     3800000   3.799999e-05   1.933984e+00   1.579838e+01   3.237507e+00   2.198352e+06  -4.090188e+06  -9.529721e+06   2.659745e+14  -1.437158e+14   1.229276e+14   1.060085e+07   4.275457e-14   0.000000e+00   0.000000e+00
     3808000   3.807999e-05   2.539466e+00   1.587686e+01   2.895092e+00   3.990804e+06   8.616478e+06  -4.721242e+06  -2.302077e+14  -9.784361e+12  -2.126567e+14   1.060473e+07   3.949426e-14   0.000000e+00   0.000000e+00
     3816000   3.815999e-05   2.852504e+00   1.596049e+01   2.271803e+00   1.003045e+07  -2.632746e+06  -2.237087e+06   1.104473e+14   1.977078e+14   2.620025e+14   1.060876e+07   4.821430e-14   0.000000e+00   0.000000e+00
     3824000   3.823999e-05   3.358331e+00   1.637033e+01   2.055527e+00   2.896371e+06   2.112294e+06  -9.990050e+06   1.409148e+14  -3.582683e+14  -3.504695e+13   1.061376e+07   6.013269e-14   0.000000e+00   0.000000e+00
     3832000   3.831999e-05   3.965254e+00   1.643257e+01   1.898578e+00   4.267352e+06   9.707197e+06  -5.960823e+05  -2.170576e+14   7.117846e+13  -3.983107e+14   1.062051e+07   8.494485e-14   0.000000e+00   0.000000e+00
     3840000   3.839999e-05   4.452277e+00   1.655045e+01   1.594273e+00   8.245047e+06   3.718809e+06   5.584063e+06  -2.225677e+14   4.918783e+14   1.574906e+12   1.062977e+07   1.176428e-13   0.000000e+00   0.000000e+00
     3848000   3.847999e-05   4.896743e+00   1.677007e+01   1.375538e+00   9.280558e+06  -1.561635e+06   4.969452e+06  -1.169612e+14   4.881588e+14   3.726164e+14   1.064251e+07   1.581155e-13   0.000000e+00   0.000000e+00
     3856000   3.855999e-05   5.333159e+00   1.696732e+01   1.254000e+00   8.919623e+06  -2.753855e+06   5.146042e+06  -1.190899e+14   5.165350e+14   4.838380e+14   1.065951e+07   2.090599e-13   0.000000e+00   0.000000e+00
     3864000   3.863999e-05   5.751805e+00   1.712225e+01   1.206647e+00   7.343965e+06   1.453628e+05   7.754997e+06  -2.709429e+14   7.270350e+14   2.438074e+14   1.068152e+07   2.695690e-13   0.000000e+00   0.000000e+00
     3872000   3.871999e-05   6.118325e+00   1.729892e+01   1.230180e+00   3.029806e+06   7.770095e+06   6.717988e+06  -3.735672e+14   6.204283e+14  -5.478879e+14   1.070913e+07   3.378432e-13   0.000000e+00   0.000000e+00
     3880000   3.879999e-05   6.383959e+00   1.755388e+01   1.198379e+00  -4.263927e+05   9.139398e+06  -5.629716e+06   7.247597e+13  -5.149480e+14  -8.432098e+14   1.074263e+07   4.045969e-13   0.000000e+00   0.000000e+00
     3888000   3.887999e-05   6.624459e+00   1.767293e+01   9.994841e-01   5.090946e+06  -5.938371e+06  -7.420829e+06   3.758878e+14  -6.358325e+14   7.651603e+14   1.078196e+07   4.697043e-13   0.000000e+00   0.000000e+00
     3896000   3.895999e-05   6.914443e+00   1.761609e+01   1.026918e+00   4.108652e+06   3.754103e+05   1.001001e+07  -4.305335e+14   1.043271e+15   1.388798e+14   1.082692e+07   5.414841e-13   0.000000e+00   0.000000e+00
     3904000   3.903999e-05   7.025697e+00   1.784248e+01   1.080626e+00  -1.969713e+06   7.120781e+06  -7.982739e+06   2.399509e+14  -8.405739e+14  -8.107985e+14   1.087701e+07   6.008300e-13   0.000000e+00   0.000000e+00
     3912000   3.911999e-05   7.165080e+00   1.778493e+01   9.116966e-01   5.445635e+06  -8.626139e+06   3.926998e+06  -6.898930e+13   4.712640e+14   1.134715e+15   1.093099e+07   6.464720e-13   0.000000e+00   0.000000e+00
     3920000   3.919999e-05   7.228112e+00   1.785970e+01   1.086082e+00  -3.942330e+06   1.019383e+07  -1.129771e+06  -9.461794e+13  -1.731977e+14  -1.246681e+15   1.098783e+07   6.872022e-13   0.000000e+00   0.000000e+00
     3928000   3.927999e-05   7.213759e+00   1.785685e+01   8.953025e-01   3.841028e+06  -1.024279e+07  -1.530753e+06   1.896203e+14  -1.164247e+14   1.244400e+15   1.104588e+07   6.966260e-13   0.000000e+00   0.000000e+00
     3936000   3.935999e-05   7.205661e+00   1.779526e+01   1.083602e+00  -4.420754e+06   9.129740e+06   4.516234e+06  -3.295054e+14   4.100350e+14  -1.147910e+15   1.110367e+07   7.023557e-13   0.000000e+00   0.000000e+00
     3944000   3.943999e-05   7.043214e+00   1.784359e+01   9.393333e-01   5.221368e+05  -8.129381e+06  -7.627371e+06   4.284710e+14  -7.737932e+14   8.520756e+14   1.115958e+07   6.711903e-13   0.000000e+00   0.000000e+00
     3952000   3.951999e-05   6.960741e+00   1.762344e+01   1.046078e+00  -1.873839e+06   1.346421e+06   1.097209e+07  -4.887365e+14   1.065362e+15  -2.129082e+14   1.121208e+07   6.374763e-13   0.000000e+00   0.000000e+00
     3960000   3.959999e-05   6.683141e+00   1.769727e+01   1.120942e+00  -6.709038e+06   4.491615e+06  -7.848788e+06   2.505030e+14  -8.496103e+14  -7.019593e+14   1.126007e+07   5.787037e-13   0.000000e+00   0.000000e+00
     3968000   3.967999e-05   6.413006e+00   1.753013e+01   9.979645e-01  -1.860667e+05  -1.092055e+07  -2.907165e+06   2.578893e+14  -2.669532e+14   9.824896e+14   1.130242e+07   5.035180e-13   0.000000e+00   0.000000e+00
     3976000   3.975999e-05   6.154296e+00   1.726919e+01   1.105258e+00  -1.267064e+06  -5.173658e+06   1.000968e+07  -2.985847e+14   8.354875e+14   3.949811e+14   1.133869e+07   4.333237e-13   0.000000e+00   0.000000e+00
     3984000   3.983999e-05   5.800208e+00   1.711793e+01   1.279489e+00  -5.745358e+06   3.483355e+06   9.170952e+06  -3.791563e+14   6.335345e+14  -4.773207e+14   1.136878e+07   3.570092e-13   0.000000e+00   0.000000e+00
     3992000   3.991999e-05   5.378779e+00   1.696834e+01   1.407686e+00  -7.974135e+06   5.587182e+06   5.915454e+06  -2.922095e+14   2.856887e+14  -6.627134e+14   1.139281e+07   2.811734e-13   0.000000e+00   0.000000e+00
     4000000   3.999999e-05   4.929184e+00   1.674655e+01   1.521451e+00  -7.845358e+06   4.611205e+06   6.885040e+06  -2.922646e+14   2.984209e+14  -5.322297e+14   1.141125e+07   2.130074e-13   0.000000e+00   0.000000e+00
     4008000   4.007999e-05   4.444961e+00   1.645712e+01   1.607263e+00  -4.948811e+06  -4.445259e+04   1.029739e+07  -2.718322e+14   4.944679e+14  -1.281799e+14   1.142492e+07   1.561834e-13   0.000000e+00   0.000000e+00
     4016000   4.015999e-05   3.853651e+00   1.623069e+01   1.668764e+00  -2.150180e+06  -9.011308e+06   6.702745e+06   3.538565e+13   2.846289e+14   3.943671e+14   1.143476e+07   1.111118e-13   0.000000e+00   0.000000e+00
     4024000   4.023999e-05   3.248488e+00   1.615738e+01   2.018388e+00  -8.629894e+06  -7.058308e+06  -2.572998e+06   2.250844e+14  -3.215565e+14   1.265019e+14   1.144181e+07   7.956463e-14   0.000000e+00   0.000000e+00
     4032000   4.031999e-05   2.930988e+00   1.575280e+01   2.529191e+00  -7.837679e+06   3.589716e+06   7.531248e+06  -2.388754e+14   3.371600e+13  -2.644951e+14   1.144705e+07   6.001279e-14   0.000000e+00   0.000000e+00
     4040000   4.039999e-05   2.300832e+00   1.541131e+01   2.772509e+00  -5.708561e+05  -8.653119e+06   7.478728e+06   1.801552e+14   1.880962e+14   2.315469e+14   1.145136e+07   5.691310e-14   0.000000e+00   0.000000e+00
     4048000   4.047999e-05   2.011734e+00   1.540963e+01   3.482818e+00  -1.070135e+07  -9.205408e+05   3.983050e+06  -9.831239e+12  -3.380840e+14  -1.042354e+14   1.145561e+07   5.874092e-14   0.000000e+00   0.000000e+00
     4056000   4.055999e-05   1.806255e+00   1.496276e+01   4.025984e+00   2.280568e+06   2.179171e+06   1.101790e+07  -2.162846e+14   3.335652e+14  -2.106200e+13   1.146054e+07   7.438660e-14   0.000000e+00   0.000000e+00
     4064000   4.063999e-05   1.360606e+00   1.491811e+01   4.590493e+00  -4.014810e+05  -9.161168e+06   6.884624e+06   4.145473e+14   8.787719e+13   1.414001e+14   1.146674e+07   9.377027e-14   0.000000e+00   0.000000e+00
     4072000   4.071999e-05   1.298554e+00   1.497422e+01   5.259441e+00  -9.889808e+06  -2.446608e+06   5.279694e+06   1.032277e+14  -5.010977e+14  -3.834593e+13   1.147473e+07   1.238511e-13   0.000000e+00   0.000000e+00
     4080000   4.079999e-05   1.307004e+00   1.482200e+01   5.866518e+00  -5.858866e+06   6.790239e+06   7.174380e+06  -4.919593e+14  -2.710176e+14  -1.447770e+14   1.148501e+07   1.585844e-13   0.000000e+00   0.000000e+00
     4088000   4.087999e-05   1.213568e+00   1.465706e+01   6.416430e+00   1.393560e+06   7.951724e+06   8.187358e+06  -6.078019e+14   2.062067e+14  -9.630430e+13   1.149803e+07   1.989993e-13   0.000000e+00   0.000000e+00
     4096000   4.095999e-05   1.104137e+00   1.456432e+01   6.941400e+00   5.143785e+06   6.473189e+06   8.013412e+06  -5.287591e+14   4.766983e+14  -4.503033e+13   1.151414e+07   2.410769e-13   0.000000e+00   0.000000e+00
     4104000   4.103999e-05   1.032699e+00   1.452276e+01   7.445138e+00   5.874773e+06   6.511905e+06   7.490323e+06  -5.553573e+14   5.454336e+14  -3.780081e+13   1.153355e+07   2.887131e-13   0.000000e+00   0.000000e+00
     4112000   4.111999e-05   9.979410e-01   1.452145e+01   7.922179e+00   3.756046e+06   8.557212e+06   6.798448e+06  -7.499281e+14   3.853128e+14  -6.961619e+13   1.155650e+07   3.415828e-13   0.000000e+00   0.000000e+00
     4120000   4.119999e-05   9.624183e-01   1.456662e+01   8.366947e+00  -2.264267e+06   9.831184e+06   5.691180e+06  -8.930021e+14  -1.406438e+14  -1.108741e+14   1.158312e+07   3.977411e-13   0.000000e+00   0.000000e+00
     4128000   4.127999e-05   8.643747e-01   1.462719e+01   8.771989e+00  -9.795558e+06   4.594000e+06   4.220776e+06  -4.431478e+14  -8.620665e+14  -8.791597e+13   1.161347e+07   4.565883e-13   0.000000e+00   0.000000e+00
     4136000   4.135999e-05   7.073723e-01   1.459159e+01   9.134068e+00  -8.335579e+06  -7.356663e+06   3.473330e+06   6.858748e+14  -7.676127e+14   2.323343e+13   1.164759e+07   5.140442e-13   0.000000e+00   0.000000e+00
     4144000   4.143999e-05   6.663291e-01   1.442841e+01   9.467586e+00   5.930823e+06  -9.178937e+06   4.137509e+06   8.762440e+14   6.034757e+14   8.551297e+13   1.168531e+07   5.559981e-13   0.000000e+00   0.000000e+00
     4152000   4.151999e-05   8.089928e-01   1.439296e+01   9.786349e+00   8.287114e+06   6.920580e+06   4.575831e+06  -7.078106e+14   8.630674e+14  -2.070829e+13   1.172642e+07   6.125028e-13   0.000000e+00   0.000000e+00
     4160000   4.159999e-05   7.822386e-01   1.455879e+01   1.006648e+01  -9.662272e+06   6.140078e+06   2.738089e+06  -6.465147e+14  -9.754304e+14  -8.904331e+13   1.177103e+07   6.820967e-13   0.000000e+00   0.000000e+00
     4168000   4.167999e-05   6.003370e-01   1.447019e+01   1.029246e+01  -1.378914e+06  -1.150622e+07   2.321974e+06   1.197243e+15  -1.309797e+14   6.820325e+13   1.181888e+07   7.265463e-13   0.000000e+00   0.000000e+00
     4176000   4.175999e-05   7.509134e-01   1.435477e+01   1.050675e+01   1.002402e+07   5.451813e+06   3.267527e+06  -5.872383e+14   1.083663e+15  -1.912317e+12   1.186929e+07   7.649699e-13   0.000000e+00   0.000000e+00
     4184000   4.183999e-05   7.255623e-01   1.454710e+01   1.068527e+01  -1.125361e+07   3.711823e+06   1.312932e+06  -4.098404e+14  -1.213329e+15  -7.012626e+13   1.192247e+07   8.358234e-13   0.000000e+00   0.000000e+00
     4192000   4.191999e-05   5.926283e-01   1.438455e+01   1.080978e+01   5.953333e+06  -1.028007e+07   1.533088e+06   1.112464e+15   6.549941e+14   8.300221e+13   1.197799e+07   8.582507e-13   0.000000e+00   0.000000e+00
     4200000   4.199999e-05   7.912931e-01   1.442306e+01   1.092672e+01   1.352543e+06   1.185663e+07   1.559928e+06  -1.307578e+15   1.624384e+14  -8.973086e+13   1.203505e+07   9.030592e-13   0.000000e+00   0.000000e+00
     4208000   4.207999e-05   5.992060e-01   1.450297e+01   1.098392e+01  -7.685168e+06  -9.336858e+06  -1.552779e+05   1.037219e+15  -8.562495e+14   3.459426e+13   1.209392e+07   9.464744e-13   0.000000e+00   0.000000e+00
     4216000   4.215999e-05   7.202541e-01   1.432863e+01   1.101666e+01   1.148311e+07   3.845469e+06   1.027602e+06  -4.249721e+14   1.269602e+15   1.529159e+13   1.215341e+07   9.466015e-13   0.000000e+00   0.000000e+00
     4224000   4.223999e-05   7.129604e-01   1.453974e+01   1.101738e+01  -1.188093e+07   2.645032e+06  -1.008543e+06  -2.928760e+14  -1.332871e+15  -6.396462e+13   1.221351e+07   9.953191e-13   0.000000e+00   0.000000e+00
     4232000   4.231999e-05   6.195632e-01   1.435424e+01   1.096258e+01   8.844750e+06  -8.494805e+06  -5.008083e+05   9.344155e+14   9.657914e+14   8.452534e+13   1.227364e+07   9.764413e-13   0.000000e+00   0.000000e+00
     4240000   4.239999e-05   8.152101e-01   1.445715e+01   1.089874e+01  -2.193600e+06   1.209721e+07  -9.727374e+05  -1.323942e+15  -2.473408e+14  -1.091680e+14   1.233290e+07   9.929054e-13   0.000000e+00   0.000000e+00
     4248000   4.247999e-05   6.177194e-01   1.449104e+01   1.076871e+01  -5.403025e+06  -1.088626e+07  -2.417820e+06   1.194722e+15  -6.062525e+14   5.241752e+13   1.239150e+07   9.869121e-13   0.000000e+00   0.000000e+00
     4256000   4.255999e-05   7.697783e-01   1.433719e+01   1.061784e+01   1.172496e+07   4.000037e+06  -1.217129e+06  -4.193315e+14   1.238335e+15   1.613792e+13   1.244815e+07   9.471682e-13   0.000000e+00   0.000000e+00
     4264000   4.263999e-05   8.113357e-01   1.454958e+01   1.043497e+01  -1.014983e+07   6.567806e+06  -3.188616e+06  -6.868319e+14  -1.105651e+15  -9.643982e+13   1.250289e+07   9.521521e-13   0.000000e+00   0.000000e+00
     4272000   4.271999e-05   6.557897e-01   1.446029e+01   1.018826e+01   2.434641e+05  -1.203498e+07  -3.568830e+06   1.260478e+15  -4.717746e+11   8.310900e+13   1.255534e+07   8.994535e-13   0.000000e+00   0.000000e+00
     4280000   4.279999e-05   8.403201e-01   1.435922e+01   9.928106e+00   1.153610e+07   4.421103e+06  -2.499891e+06  -4.322585e+14   1.139094e+15   1.385205e+13   1.260465e+07   8.434003e-13   0.000000e+00   0.000000e+00
     4288000   4.287999e-05   9.301932e-01   1.454501e+01   9.635185e+00  -5.801775e+06   1.044103e+07  -4.167532e+06  -1.017012e+15  -6.139130e+14  -1.256570e+14   1.265085e+07   8.166537e-13   0.000000e+00   0.000000e+00
