     timestep     time              x             y              z              vx             vy             vz             ax             ay             az         v_magnitude      ELoss        Electronic      Nuclear
           0   0.000000e+00   1.000000e-01   5.165694e+00   1.876780e+01  -5.569088e+04  -1.370320e+05   1.824446e+05   0.000000e+00   0.000000e+00   0.000000e+00   2.348729e+05   0.000000e+00   0.000000e+00   0.000000e+00
        8000   7.999000e-08   9.755449e-02   5.163074e+00   1.878381e+01   8.485799e+04  -4.083142e+04   2.180242e+05   3.873348e+12   4.003872e+13   6.066769e+12   2.374924e+05   3.325810e-19   0.000000e+00   0.000000e+00
       16000   1.599900e-07   9.525153e-02   5.161391e+00   1.879991e+01  -7.410221e+04   9.349867e+04   2.087676e+05  -4.057628e+13  -1.293390e+13  -8.519648e+12   2.404518e+05   3.885915e-19   0.000000e+00   0.000000e+00
       24000   2.399900e-07   9.171142e-02   5.159198e+00   1.881564e+01  -9.712005e+04  -1.451031e+05   1.701845e+05   4.071887e+13  -2.267964e+13   4.028677e+12   2.438236e+05   4.636030e-19   0.000000e+00   0.000000e+00
       32000   3.199900e-07   8.951510e-02   5.156462e+00   1.883149e+01   7.008335e+04   6.386381e+04   2.287796e+05  -3.283716e+13   3.800007e+13  -4.382664e+11   2.476497e+05   5.512211e-19   0.000000e+00   0.000000e+00
       40000   3.999900e-07   8.618572e-02   5.154857e+00   1.884724e+01  -1.377448e+05  -1.326366e+05   1.641170e+05   3.814078e+13  -3.818491e+13   1.329077e+12   2.519931e+05   6.594394e-19   0.000000e+00   0.000000e+00
       48000   4.799900e-07   8.418768e-02   5.152260e+00   1.886302e+01   7.592369e+03   1.253024e+05   2.241705e+05  -5.520944e+13   1.656986e+13  -7.241462e+12   2.569256e+05   7.938203e-19   0.000000e+00   0.000000e+00
       56000   5.599900e-07   8.073010e-02   5.149966e+00   1.887853e+01   7.063934e+04  -1.613700e+05   1.946560e+05   4.862703e+13   3.707489e+13   1.328985e+13   2.625283e+05   9.615932e-19   0.000000e+00   0.000000e+00
       64000   6.399900e-07   7.823910e-02   5.148570e+00   1.889424e+01  -1.929805e+05  -1.014951e+05   1.573551e+05   2.908630e+13  -6.083245e+13  -3.276220e+12   2.688928e+05   1.174061e-18   0.000000e+00   0.000000e+00
       72000   7.199900e-07   7.613687e-02   5.146265e+00   1.890976e+01  -1.478499e+05   1.296102e+05   1.939261e+05  -5.822381e+13  -4.139925e+13  -1.644378e+13   2.761625e+05   1.460408e-18   0.000000e+00   0.000000e+00
       80000   7.999900e-07   7.351306e-02   5.143648e+00   1.892501e+01   1.702997e+04   1.700677e+05   2.274338e+05  -7.584534e+13   2.189035e+13  -1.041093e+13   2.844981e+05   1.828417e-18   0.000000e+00   0.000000e+00
       88000   8.799900e-07   7.077011e-02   5.141312e+00   1.894014e+01   9.538914e+04   1.473786e+05   2.358783e+05  -6.867398e+13   5.252021e+13  -4.725474e+12   2.940376e+05   2.309418e-18   0.000000e+00   0.000000e+00
       96000   9.599900e-07   6.820637e-02   5.139258e+00   1.895520e+01   8.007939e+04   1.772104e+05   2.348992e+05  -8.122467e+13   4.727805e+13  -7.598300e+12   3.049489e+05   2.945742e-18   0.000000e+00   0.000000e+00
      104000   1.039990e-06   6.573157e-02   5.137564e+00   1.897015e+01  -6.367673e+04   2.255747e+05   2.140487e+05  -1.005843e+14  -1.010346e+13  -1.878112e+13   3.174201e+05   3.795304e-18   0.000000e+00   0.000000e+00
      112000   1.119990e-06   6.279896e-02   5.136111e+00   1.898486e+01  -2.877673e+05   6.581082e+04   1.511886e+05  -3.502356e+13  -1.047264e+14  -2.024267e+13   3.316611e+05   4.939894e-18   0.000000e+00   0.000000e+00
      120000   1.199990e-06   5.945673e-02   5.133723e+00   1.899917e+01  -1.086897e+05  -3.042460e+05   1.290712e+05   1.165009e+14  -3.582789e+13   1.481906e+13   3.479058e+05   6.501601e-18   0.000000e+00   0.000000e+00
      128000   1.279990e-06   5.779727e-02   5.130789e+00   1.901312e+01   2.767838e+05   4.194341e+04   2.368042e+05  -3.067474e+13   1.315008e+14   1.333925e+13   3.666671e+05   8.819530e-18   0.000000e+00   0.000000e+00
      136000   1.359990e-06   5.539408e-02   5.130357e+00   1.902692e+01  -3.611964e+05   7.313607e+04   1.219911e+05  -3.848575e+13  -1.418751e+14  -2.706186e+13   3.881927e+05   1.199595e-17   0.000000e+00   0.000000e+00
      144000   1.439990e-06   5.268576e-02   5.126879e+00   1.903981e+01   3.365213e+05  -1.040609e+05   2.153026e+05   3.206089e+13   1.591790e+14   2.808455e+13   4.128323e+05   1.648946e-17   0.000000e+00   0.000000e+00
      152000   1.519990e-06   5.023319e-02   5.126774e+00   1.905275e+01  -3.976186e+05  -1.776820e+05   6.925786e+04   7.188708e+13  -1.669030e+14  -1.069379e+13   4.409853e+05   2.296148e-17   0.000000e+00   0.000000e+00
      160000   1.599990e-06   4.945172e-02   5.124180e+00   1.906507e+01  -1.770120e+04   4.224979e+05   2.121161e+05  -1.982200e+14   9.467007e+12  -3.348875e+13   4.730867e+05   3.229810e-17   0.000000e+00   0.000000e+00
      168000   1.679990e-06   4.650786e-02   5.121548e+00   1.907636e+01   4.569370e+05  -8.474445e+03   2.254817e+05  -9.079691e+12   2.205104e+14   2.888468e+13   5.096128e+05   4.584217e-17   0.000000e+00   0.000000e+00
      176000   1.759990e-06   4.363005e-02   5.120500e+00   1.908711e+01   2.677630e+05  -4.667186e+05   1.190048e+05   2.034485e+14   1.288018e+14   5.248193e+13   5.510766e+05   6.571791e-17   0.000000e+00   0.000000e+00
      184000   1.839990e-06   4.163007e-02   5.119780e+00   1.909715e+01  -2.714404e+04  -5.961550e+05   3.864897e+04   2.691921e+14  -1.062705e+13   4.442811e+13   5.980229e+05   9.499647e-17   0.000000e+00   0.000000e+00
      192000   1.919990e-06   4.002523e-02   5.118887e+00   1.910580e+01  -1.808550e+05  -6.250607e+05  -1.957754e+04   2.875228e+14  -8.589262e+13   3.943981e+13   6.509936e+05   1.383178e-16   0.000000e+00   0.000000e+00
      200000   1.999990e-06   3.860851e-02   5.117693e+00   1.911277e+01  -9.416548e+04  -7.035823e+05  -3.705518e+04   3.281700e+14  -4.825891e+13   5.193922e+13   7.108223e+05   2.029316e-16   0.000000e+00   0.000000e+00
      208000   2.079990e-06   3.764455e-02   5.116207e+00   1.911783e+01   2.598700e+05  -7.333332e+05  -4.027935e+03   3.430499e+14   1.192535e+14   7.830914e+13   7.780272e+05   2.977173e-16   0.000000e+00   0.000000e+00
      216000   2.159990e-06   3.775998e-02   5.114795e+00   1.912077e+01   7.270541e+05  -4.366908e+05   9.051841e+04   2.001823e+14   3.471577e+14   8.546506e+13   8.529361e+05   4.352030e-16   0.000000e+00   0.000000e+00
      224000   2.239990e-06   3.909476e-02   5.114384e+00   1.912127e+01   8.898949e+05   2.280681e+05   1.774995e+05  -1.167645e+14   4.324347e+14   4.116563e+13   9.356464e+05   6.311024e-16   0.000000e+00   0.000000e+00
      232000   2.319990e-06   4.087948e-02   5.115451e+00   1.911870e+01   5.649593e+05   8.408877e+05   1.618969e+05  -4.019467e+14   2.792461e+14  -3.289076e+13   1.025905e+06   9.023399e-16   0.000000e+00   0.000000e+00
      240000   2.399990e-06   4.266312e-02   5.117269e+00   1.911217e+01   1.574038e+05   1.109549e+06   7.191349e+04  -5.171394e+14   8.129722e+13  -8.334528e+13   1.122963e+06   1.262537e-15   0.000000e+00   0.000000e+00
      248000   2.479990e-06   4.498251e-02   5.118777e+00   1.910084e+01   2.184064e+05   1.205377e+06   3.149195e+04  -5.493374e+14   1.044514e+14  -8.646276e+13   1.225409e+06   1.712985e-15   0.000000e+00   0.000000e+00
      256000   2.559990e-06   4.748283e-02   5.119590e+00   1.908312e+01   9.505733e+05   9.323227e+05   3.271390e+04  -4.175090e+14   4.299989e+14  -1.317540e+13   1.331873e+06   2.271543e-15   0.000000e+00   0.000000e+00
      264000   2.639990e-06   4.754768e-02   5.122338e+00   1.905972e+01   1.139307e+06  -8.440727e+05  -2.548166e+05   3.854856e+14   4.757256e+14   1.323124e+14   1.440629e+06   2.901989e-15   0.000000e+00   0.000000e+00
      272000   2.719990e-06   5.481624e-02   5.132165e+00   1.903213e+01  -1.394639e+06   1.946783e+05  -6.455023e+05  -4.610560e+13  -6.358156e+14  -9.858973e+13   1.549062e+06   3.557887e-15   0.000000e+00   0.000000e+00
      280000   2.799990e-06   5.832672e-02   5.131359e+00   1.899488e+01   1.136809e+06  -1.098899e+06  -4.854732e+05   4.728871e+14   4.253798e+14   1.357500e+14   1.653964e+06   4.123260e-15   0.000000e+00   0.000000e+00
      288000   2.879990e-06   6.940672e-02   5.135768e+00   1.895134e+01   1.699336e+06   3.291538e+05  -2.817880e+05  -1.093628e+14   6.373779e+14   6.998212e+13   1.753707e+06   4.636856e-15   0.000000e+00   0.000000e+00
      296000   2.959990e-06   7.609349e-02   5.143027e+00   1.889933e+01   1.651851e+06  -6.258927e+05  -5.367306e+05   2.576674e+14   5.715889e+14   1.188723e+14   1.846194e+06   4.946106e-15   0.000000e+00   0.000000e+00
      304000   3.039990e-06   8.583949e-02   5.159539e+00   1.884096e+01  -1.377650e+06  -6.828128e+05  -1.167326e+06   2.906624e+14  -5.484134e+14  -2.555098e+13   1.930493e+06   5.124842e-15   0.000000e+00   0.000000e+00
      312000   3.119990e-06   9.864554e-02   5.159772e+00   1.877189e+01   1.813482e+06  -4.350025e+05  -7.368255e+05   1.760910e+14   5.492073e+14   1.044965e+14   2.005207e+06   4.922540e-15   0.000000e+00   0.000000e+00
      320000   3.199990e-06   1.165182e-01   5.171031e+00   1.869097e+01   1.852912e+06   5.798631e+05  -7.101002e+05  -1.425515e+14   5.215099e+14   4.974125e+13   2.067309e+06   4.489215e-15   0.000000e+00   0.000000e+00
      328000   3.279990e-06   1.264905e-01   5.185611e+00   1.860116e+01   1.288802e+06  -1.218398e+06  -1.161759e+06   3.903917e+14   3.034607e+14   1.126134e+14   2.120186e+06   4.119623e-15   0.000000e+00   0.000000e+00
      336000   3.359990e-06   1.518472e-01   5.208372e+00   1.850848e+01  -1.232970e+06   1.149313e+06  -1.358970e+06  -2.500525e+14  -3.886231e+14  -1.034495e+14   2.165164e+06   3.746355e-15   0.000000e+00   0.000000e+00
      344000   3.439990e-06   1.601647e-01   5.219106e+00   1.840382e+01  -7.886176e+04  -1.494613e+06  -1.616473e+06   4.217947e+14  -9.054951e+13   6.197040e+13   2.202968e+06   3.285060e-15   0.000000e+00   0.000000e+00
      352000   3.519990e-06   1.796596e-01   5.230797e+00   1.829503e+01   8.558077e+05  -1.400507e+06  -1.516696e+06   3.689600e+14   1.348323e+14   8.262288e+13   2.234769e+06   2.867789e-15   0.000000e+00   0.000000e+00
      360000   3.599990e-06   2.001170e-01   5.252835e+00   1.818125e+01  -3.415469e+05  -1.323221e+06  -1.801507e+06   3.374711e+14  -1.424554e+14   3.989991e+13   2.261194e+06   2.473874e-15   0.000000e+00   0.000000e+00
      368000   3.679990e-06   2.345220e-01   5.273308e+00   1.806433e+01  -9.248694e+05   1.367290e+06  -1.577489e+06  -2.260747e+14  -2.424676e+14  -7.834877e+13   2.283273e+06   2.155792e-15   0.000000e+00   0.000000e+00
      376000   3.759990e-06   2.471392e-01   5.278996e+00   1.793650e+01   1.606074e+06  -7.268951e+05  -1.480121e+06   1.767318e+14   2.495756e+14   6.853962e+13   2.301871e+06   1.854606e-15   0.000000e+00   0.000000e+00
      384000   3.839990e-06   2.842196e-01   5.305628e+00   1.781182e+01   1.197843e+05   1.825478e+06  -1.422774e+06  -2.821010e+14  -2.555410e+13  -5.712409e+13   2.317543e+06   1.598139e-15   0.000000e+00   0.000000e+00
      392000   3.919990e-06   3.002399e-01   5.333629e+00   1.767945e+01  -1.236239e+06   3.584618e+05  -1.943173e+06  -1.131253e+13  -2.640665e+14  -4.188453e+13   2.330816e+06   1.386458e-15   0.000000e+00   0.000000e+00
      400000   3.999990e-06   3.198881e-01   5.352977e+00   1.754276e+01  -9.646539e+05  -5.264309e+05  -2.068257e+06   1.300158e+14  -2.098975e+14  -7.510605e+12   2.342087e+06   1.192776e-15   0.000000e+00   0.000000e+00
      408000   4.079990e-06   3.464123e-01   5.374721e+00   1.740469e+01  -1.023161e+06  -3.484190e+05  -2.088679e+06   9.742829e+13  -2.078336e+14  -1.331000e+13   2.351773e+06   1.041962e-15   0.000000e+00   0.000000e+00
      416000   4.159990e-06   3.800571e-01   5.396624e+00   1.726502e+01  -1.060713e+06   7.804149e+05  -1.958566e+06  -6.791686e+13  -1.992811e+14  -4.285956e+13   2.360114e+06   9.163283e-16   0.000000e+00   0.000000e+00
      424000   4.239990e-06   4.138303e-01   5.406938e+00   1.712141e+01   5.313848e+05   1.711510e+06  -1.546903e+06  -1.951845e+14   3.187463e+13  -3.204192e+13   2.367392e+06   8.016858e-16   0.000000e+00   0.000000e+00
      432000   4.319990e-06   4.253463e-01   5.421185e+00   1.697188e+01   1.596433e+06  -4.156134e+05  -1.706850e+06   8.543725e+13   1.621319e+14   4.022532e+13   2.373745e+06   7.068998e-16   0.000000e+00   0.000000e+00
      440000   4.399990e-06   4.549777e-01   5.464363e+00   1.682790e+01  -1.009208e+06  -2.571340e+04  -2.154518e+06   4.257146e+13  -1.701125e+14  -1.805511e+13   2.379309e+06   6.269508e-16   0.000000e+00   0.000000e+00
      448000   4.479990e-06   4.912155e-01   5.465887e+00   1.667675e+01   1.534040e+06   9.487186e+05  -1.559193e+06  -8.158982e+13   1.437700e+14   7.030224e+12   2.384204e+06   5.545671e-16   0.000000e+00   0.000000e+00
      456000   4.559990e-06   5.087966e-01   5.510350e+00   1.652687e+01  -8.974292e+05  -1.938369e+05  -2.205029e+06   5.847323e+13  -1.442846e+14  -1.122504e+13   2.388536e+06   4.953314e-16   0.000000e+00   0.000000e+00
      464000   4.639990e-06   5.399502e-01   5.510392e+00   1.637101e+01   1.669266e+06   8.473448e+04  -1.711683e+06   1.883671e+13   1.439361e+14   2.536842e+13   2.392381e+06   4.429296e-16   0.000000e+00   0.000000e+00
      472000   4.719990e-06   5.802779e-01   5.552577e+00   1.622173e+01  -3.556826e+05   1.419514e+06  -1.896952e+06  -1.153957e+14  -7.229906e+13  -3.256873e+13   2.395821e+06   4.010005e-16   0.000000e+00   0.000000e+00
      480000   4.799990e-06   5.877686e-01   5.577266e+00   1.606234e+01  -3.875903e+05  -7.462507e+05  -2.246697e+06   1.066788e+14  -7.787896e+13   7.386202e+12   2.398909e+06   3.588913e-16   0.000000e+00   0.000000e+00
      488000   4.879990e-06   6.202206e-01   5.582248e+00   1.590321e+01   1.455945e+06  -3.693664e+05  -1.874012e+06   6.197670e+13   1.063775e+14   2.709878e+13   2.401693e+06   3.266604e-16   0.000000e+00   0.000000e+00
      496000   4.959990e-06   6.653341e-01   5.608397e+00   1.574843e+01   1.171054e+06   1.239823e+06  -1.694627e+06  -9.011261e+13   7.949065e+13  -4.199722e+12   2.404223e+06   2.977908e-16   0.000000e+00   0.000000e+00
      504000   5.039990e-06   6.959648e-01   5.646662e+00   1.559174e+01  -1.626584e+05   1.445980e+06  -1.916780e+06  -1.030983e+14  -4.513452e+13  -2.536905e+13   2.406524e+06   2.746929e-16   0.000000e+00   0.000000e+00
      512000   5.119990e-06   7.151868e-01   5.678626e+00   1.543109e+01  -8.384903e+05   6.131095e+05  -2.173143e+06  -2.499932e+13  -1.057980e+14  -2.025931e+13   2.408634e+06   2.528218e-16   0.000000e+00   0.000000e+00
      520000   5.199990e-06   7.340628e-01   5.701950e+00   1.526814e+01  -7.350029e+05  -2.135821e+05  -2.285823e+06   4.609583e+13  -9.501641e+13  -5.992877e+12   2.410567e+06   2.316974e-16   0.000000e+00   0.000000e+00
      528000   5.279990e-06   7.567874e-01   5.721650e+00   1.510452e+01  -3.479110e+05  -6.652972e+05  -2.292546e+06   8.143139e+13  -6.033377e+13   5.106133e+12   2.412349e+06   2.135501e-16   0.000000e+00   0.000000e+00
      536000   5.359990e-06   7.825857e-01   5.741694e+00   1.494068e+01  -2.173736e+04  -8.268335e+05  -2.267873e+06   9.156126e+13  -3.208649e+13   1.077864e+13   2.413995e+06   1.978894e-16   0.000000e+00   0.000000e+00
      544000   5.439990e-06   8.097504e-01   5.763662e+00   1.477665e+01   1.308119e+05  -8.584987e+05  -2.254026e+06   9.136305e+13  -1.899945e+13   1.249930e+13   2.415526e+06   1.843177e-16   0.000000e+00   0.000000e+00
      552000   5.519990e-06   8.373023e-01   5.787810e+00   1.461231e+01   9.864580e+04  -8.423576e+05  -2.263261e+06   8.777963e+13  -2.080723e+13   1.153358e+13   2.416950e+06   1.721865e-16   0.000000e+00   0.000000e+00
      560000   5.599990e-06   8.654261e-01   5.814047e+00   1.444770e+01  -9.947398e+04  -7.666162e+05  -2.291393e+06   8.025791e+13  -3.500215e+13   8.192530e+12   2.418280e+06   1.611717e-16   0.000000e+00   0.000000e+00
      568000   5.679990e-06   8.951583e-01   5.841767e+00   1.428294e+01  -4.089566e+05  -5.591223e+05  -2.318239e+06   6.361465e+13  -5.662002e+13   2.402385e+12   2.419524e+06   1.514248e-16   0.000000e+00   0.000000e+00
      576000   5.759990e-06   9.278612e-01   5.869328e+00   1.411801e+01  -7.047153e+05  -1.328046e+05  -2.312030e+06   3.206102e+13  -7.619384e+13  -5.425373e+12   2.420691e+06   1.433107e-16   0.000000e+00   0.000000e+00
      584000   5.839990e-06   9.637386e-01   5.893607e+00   1.395256e+01  -7.714995e+05   5.099253e+05  -2.238262e+06  -1.390326e+13  -7.835717e+13  -1.308827e+13   2.421787e+06   1.359492e-16   0.000000e+00   0.000000e+00
      592000   5.919990e-06   1.000039e+00   5.911195e+00   1.378573e+01  -3.834632e+05   1.160503e+06  -2.091950e+06  -5.912735e+13  -4.876570e+13  -1.624369e+13   2.422822e+06   1.283986e-16   0.000000e+00   0.000000e+00
      600000   5.999990e-06   1.030473e+00   5.921957e+00   1.361653e+01   4.495251e+05   1.389218e+06  -1.934633e+06  -7.468052e+13   9.535755e+12  -1.053498e+13   2.423800e+06   1.209882e-16   0.000000e+00   0.000000e+00
      608000   6.079990e-06   1.049310e+00   5.932592e+00   1.344509e+01   1.263017e+06   8.463941e+05  -1.888839e+06  -3.835481e+13   6.307971e+13   2.590457e+12   2.424728e+06   1.143300e-16   0.000000e+00   0.000000e+00
      616000   6.159990e-06   1.059540e+00   5.954690e+00   1.327347e+01   1.303625e+06  -2.138571e+05  -2.034305e+06   3.109211e+13   6.348672e+13   1.322498e+13   2.425608e+06   1.084443e-16   0.000000e+00   0.000000e+00
      624000   6.239990e-06   1.075964e+00   5.992265e+00   1.310450e+01   3.398347e+05  -8.042527e+05  -2.263917e+06   6.933814e+13  -1.194505e+11   1.042901e+13   2.426444e+06   1.031558e-16   0.000000e+00   0.000000e+00
      632000   6.319990e-06   1.112195e+00   6.030726e+00   1.293824e+01  -6.709231e+05  -1.135320e+05  -2.329908e+06   2.610010e+13  -6.344025e+13  -4.444776e+12   2.427241e+06   9.921584e-17   0.000000e+00   0.000000e+00
      640000   6.399990e-06   1.157820e+00   6.048066e+00   1.277018e+01  -3.551115e+05   1.124799e+06  -2.122238e+06  -5.147929e+13  -4.130582e+13  -1.329973e+13   2.427998e+06   9.523339e-17   0.000000e+00   0.000000e+00
      648000   6.479990e-06   1.183767e+00   6.048647e+00   1.259661e+01   9.858017e+05   1.100089e+06  -1.927872e+06  -5.057593e+13   4.165510e+13  -2.114500e+12   2.428722e+06   9.033724e-17   0.000000e+00   0.000000e+00
      656000   6.559990e-06   1.186873e+00   6.067244e+00   1.242167e+01   1.224006e+06  -2.787533e+05  -2.079944e+06   3.242663e+13   5.392375e+13   1.183588e+13   2.429416e+06   8.622035e-17   0.000000e+00   0.000000e+00
      664000   6.639990e-06   1.205775e+00   6.113011e+00   1.225229e+01  -1.608902e+05  -6.448958e+05  -2.337415e+06   5.511563e+13  -2.941118e+13   4.304058e+12   2.430079e+06   8.252044e-17   0.000000e+00   0.000000e+00
      672000   6.719990e-06   1.255476e+00   6.142747e+00   1.208507e+01  -6.009434e+05   7.885165e+05  -2.219341e+06  -2.862297e+13  -5.354959e+13  -1.129258e+13   2.430713e+06   8.031205e-17   0.000000e+00   0.000000e+00
      680000   6.799990e-06   1.287841e+00   6.139517e+00   1.191066e+01   8.765244e+05   1.147061e+06  -1.956344e+06  -5.023143e+13   3.311161e+13  -3.110050e+12   2.431322e+06   7.645254e-17   0.000000e+00   0.000000e+00
      688000   6.879990e-06   1.286409e+00   6.158348e+00   1.173382e+01   1.096907e+06  -4.036408e+05  -2.132613e+06   3.782565e+13   4.362234e+13   1.118293e+13   2.431906e+06   7.289601e-17   0.000000e+00   0.000000e+00
      696000   6.959990e-06   1.312543e+00   6.209134e+00   1.156489e+01  -4.917973e+05  -3.306263e+05  -2.359178e+06   3.496441e+13  -4.603303e+13  -8.516070e+11   2.432468e+06   7.047427e-17   0.000000e+00   0.000000e+00
      704000   7.039990e-06   1.366213e+00   6.223590e+00   1.139498e+01  -6.377785e+04   1.232506e+06  -2.096753e+06  -5.201115e+13  -2.031845e+13  -1.037686e+13   2.433005e+06   6.804515e-17   0.000000e+00   0.000000e+00
      712000   7.119990e-06   1.375916e+00   6.220857e+00   1.121607e+01   1.327515e+06   3.253277e+05  -2.013430e+06  -3.234479e+12   5.502432e+13   6.742863e+12   2.433523e+06   6.507606e-17   0.000000e+00   0.000000e+00
      720000   7.199990e-06   1.382792e+00   6.268383e+00   1.104306e+01   3.359627e+03  -6.656170e+05  -2.341241e+06   5.121771e+13  -1.798729e+13   5.174599e+12   2.434023e+06   6.277984e-17   0.000000e+00   0.000000e+00
      728000   7.279990e-06   1.439712e+00   6.298372e+00   1.087502e+01  -3.893147e+05   9.984724e+05  -2.185930e+06  -3.672131e+13  -3.768247e+13  -1.068542e+13   2.434503e+06   6.088302e-17   0.000000e+00   0.000000e+00
      736000   7.359990e-06   1.458897e+00   6.289971e+00   1.069588e+01   1.278578e+06   5.731844e+05  -1.991421e+06  -1.548292e+13   4.986805e+13   4.398875e+12   2.434966e+06   5.801783e-17   0.000000e+00   0.000000e+00
      744000   7.439990e-06   1.461685e+00   6.336609e+00   1.052125e+01   1.047798e+05  -6.594999e+05  -2.342073e+06   4.952247e+13  -1.301928e+13   5.870270e+12   2.435411e+06   5.614823e-17   0.000000e+00   0.000000e+00
      752000   7.519990e-06   1.522059e+00   6.368137e+00   1.035345e+01  -3.045360e+05   1.052345e+06  -2.175579e+06  -3.750655e+13  -3.263355e+13  -1.054684e+13   2.435840e+06   5.461356e-17   0.000000e+00   0.000000e+00
      760000   7.599990e-06   1.536827e+00   6.360453e+00   1.017272e+01   1.319958e+06   3.508757e+05  -2.017406e+06  -3.231053e+12   4.912662e+13   6.418058e+12   2.436254e+06   5.213917e-17   0.000000e+00   0.000000e+00
      768000   7.679990e-06   1.548000e+00   6.416325e+00   1.000001e+01  -2.216693e+05  -4.599569e+05  -2.382557e+06   3.883069e+13  -2.937417e+13   2.048024e+12   2.436652e+06   5.024795e-17   0.000000e+00   0.000000e+00
      776000   7.759990e-06   1.611330e+00   6.432351e+00   9.829902e+00   1.899452e+05   1.267639e+06  -2.072716e+06  -4.652592e+13  -7.288934e+12  -8.732528e+12   2.437035e+06   4.855302e-17   0.000000e+00   0.000000e+00
      784000   7.839990e-06   1.609548e+00   6.438747e+00   9.647438e+00   1.138464e+06  -2.612736e+05  -2.139294e+06   2.724905e+13   3.703214e+13   9.967968e+12   2.437405e+06   4.685733e-17   0.000000e+00   0.000000e+00
      792000   7.919990e-06   1.648950e+00   6.500142e+00   9.479670e+00  -5.705922e+05   2.592764e+05  -2.355820e+06   4.477298e+12  -4.569877e+13  -6.123043e+12   2.437762e+06   4.544520e-17   0.000000e+00   0.000000e+00
      800000   7.999990e-06   1.695171e+00   6.491981e+00   9.302647e+00   1.066784e+06   9.758258e+05  -1.963188e+06  -3.091781e+13   3.332118e+13  -2.483754e+11   2.438108e+06   4.377098e-17   0.000000e+00   0.000000e+00
      808000   8.079990e-06   1.692730e+00   6.537802e+00   9.124926e+00   2.298129e+05  -5.813067e+05  -2.356961e+06   4.330761e+13  -8.523507e+12   6.316412e+12   2.438442e+06   4.212633e-17   0.000000e+00   0.000000e+00
      816000   8.159990e-06   1.762658e+00   6.569025e+00   8.957807e+00   3.107535e+04   1.219842e+06  -2.111536e+06  -3.958061e+13  -1.613057e+13  -9.910314e+12   2.438763e+06   4.080077e-17   0.000000e+00   0.000000e+00
      824000   8.239990e-06   1.764739e+00   6.573502e+00   8.773647e+00   1.156988e+06  -2.070214e+05  -2.137193e+06   2.472818e+13   3.375094e+13   1.010883e+13   2.439072e+06   3.927976e-17   0.000000e+00   0.000000e+00
      832000   8.319990e-06   1.812390e+00   6.638732e+00   8.607647e+00  -4.882182e+05   5.127019e+05  -2.334374e+06  -5.107474e+12  -4.113903e+13  -7.974864e+12   2.439369e+06   3.779028e-17   0.000000e+00   0.000000e+00
      840000   8.399990e-06   1.850527e+00   6.628550e+00   8.427129e+00   1.301161e+06   6.351725e+05  -1.963533e+06  -1.247824e+13   3.929091e+13   4.432377e+12   2.439656e+06   3.646359e-17   0.000000e+00   0.000000e+00
      848000   8.479990e-06   1.865811e+00   6.694872e+00   8.254891e+00  -2.316645e+05  -1.932590e+05  -2.421210e+06   2.665958e+13  -3.077038e+13  -1.016031e+11   2.439933e+06   3.516553e-17   0.000000e+00   0.000000e+00
      856000   8.559990e-06   1.934106e+00   6.699931e+00   8.082714e+00   8.853166e+05   1.183674e+06  -1.941575e+06  -3.443023e+13   1.992336e+13  -3.561468e+12   2.440201e+06   3.384719e-17   0.000000e+00   0.000000e+00
      864000   8.639990e-06   1.932780e+00   6.746835e+00   7.903021e+00   3.283491e+05  -4.719762e+05  -2.371765e+06   3.804329e+13  -7.459447e+12   6.744630e+12   2.440460e+06   3.286434e-17   0.000000e+00   0.000000e+00
      872000   8.719990e-06   2.012587e+00   6.777436e+00   7.737942e+00   3.911223e+05   1.314904e+06  -2.018691e+06  -3.734678e+13  -2.578123e+12  -8.922591e+12   2.440709e+06   3.144061e-17   0.000000e+00   0.000000e+00
      880000   8.799990e-06   2.012109e+00   6.803706e+00   7.553528e+00   8.116161e+05  -4.088515e+05  -2.265470e+06   3.481119e+13   1.159970e+13   1.037146e+13   2.440949e+06   3.087125e-17   0.000000e+00   0.000000e+00
      888000   8.879990e-06   2.091123e+00   6.856048e+00   7.392982e+00   6.711751e+04   1.227752e+06  -2.108908e+06  -3.087176e+13  -1.760726e+13  -1.123960e+13   2.441182e+06   2.950678e-17   0.000000e+00   0.000000e+00
      896000   8.959990e-06   2.099751e+00   6.869277e+00   7.206918e+00   1.106530e+06  -2.272526e+05  -2.164351e+06   2.715077e+13   2.212487e+13   1.155155e+13   2.441407e+06   2.888994e-17   0.000000e+00   0.000000e+00
      904000   9.039990e-06   2.174520e+00   6.935325e+00   7.048752e+00  -7.190884e+04   1.106899e+06  -2.175117e+06  -2.348698e+13  -2.455416e+13  -1.172487e+13   2.441624e+06   2.744840e-17   0.000000e+00   0.000000e+00
      912000   9.119990e-06   2.192762e+00   6.943226e+00   6.862585e+00   1.252674e+06  -7.150259e+04  -2.094814e+06   2.114812e+13   2.605919e+13   1.175080e+13   2.441834e+06   2.686645e-17   0.000000e+00   0.000000e+00
      920000   9.199990e-06   2.265712e+00   7.016754e+00   6.706248e+00  -8.722360e+04   1.055357e+06  -2.200488e+06  -1.917031e+13  -2.628072e+13  -1.184983e+13   2.442035e+06   2.547224e-17   0.000000e+00   0.000000e+00
      928000   9.279990e-06   2.290313e+00   7.024862e+00   6.520363e+00   1.314255e+06   3.948362e+03  -2.058448e+06   1.895683e+13   2.616414e+13   1.214774e+13   2.442230e+06   2.532539e-17   0.000000e+00   0.000000e+00
      936000   9.359990e-06   2.366268e+00   7.102017e+00   6.366694e+00  -2.178380e+04   1.100048e+06  -2.180557e+06  -1.865234e+13  -2.484581e+13  -1.235301e+13   2.442419e+06   2.376310e-17   0.000000e+00   0.000000e+00
      944000   9.439990e-06   2.393427e+00   7.114767e+00   6.181001e+00   1.318976e+06  -8.429656e+02  -2.055872e+06   2.026108e+13   2.339883e+13   1.298373e+13   2.442602e+06   2.395328e-17   0.000000e+00   0.000000e+00
      952000   9.519990e-06   2.477456e+00   7.192110e+00   6.031263e+00   1.157198e+05   1.230402e+06  -2.107106e+06  -2.143428e+13  -2.053992e+13  -1.317602e+13   2.442780e+06   2.243268e-17   0.000000e+00   0.000000e+00
      960000   9.599990e-06   2.502991e+00   7.214292e+00   5.845825e+00   1.240243e+06  -6.477203e+04  -2.103716e+06   2.394225e+13   1.742370e+13   1.357362e+13   2.442953e+06   2.256631e-17   0.000000e+00   0.000000e+00
      968000   9.679990e-06   2.598226e+00   7.286305e+00   5.699717e+00   3.593091e+05   1.391042e+06  -1.976040e+06  -2.556885e+13  -1.223345e+13  -1.326600e+13   2.443120e+06   2.083271e-17   0.000000e+00   0.000000e+00
      976000   9.759990e-06   2.622213e+00   7.324498e+00   5.516277e+00   1.082563e+06  -1.103529e+05  -2.187580e+06   2.779709e+13   7.893940e+12   1.335304e+13   2.443282e+06   2.155621e-17   0.000000e+00   0.000000e+00
      984000   9.839990e-06   2.728704e+00   7.386131e+00   5.373015e+00   6.973888e+05   1.508829e+06  -1.790949e+06  -2.820389e+13  -1.129406e+12  -1.193923e+13   2.443443e+06   1.998447e-17   0.000000e+00   0.000000e+00
      992000   9.919990e-06   2.753862e+00   7.446136e+00   5.195325e+00   8.299562e+05  -5.902822e+04  -2.297576e+06   2.878578e+13  -4.584974e+12   1.051194e+13   2.443597e+06   2.043069e-17   0.000000e+00   0.000000e+00
     1000000   9.999990e-06   2.866099e+00   7.492480e+00   5.050456e+00   1.109773e+06   1.477937e+06  -1.598760e+06  -2.653480e+13   1.214773e+13  -7.194986e+12   2.443752e+06   1.922671e-17   0.000000e+00   0.000000e+00
     1008000   1.007999e-05   2.900707e+00   7.576765e+00   4.884245e+00   5.616895e+05   1.702213e+05  -2.372377e+06   2.458185e+13  -1.717502e+13   4.583845e+12   2.443900e+06   1.958678e-17   0.000000e+00   0.000000e+00
     1016000   1.015999e-05   3.010606e+00   7.609284e+00   4.733827e+00   1.504379e+06   1.269871e+06  -1.448331e+06  -1.908989e+13   2.324722e+13   5.478576e+11   2.444052e+06   1.926824e-17   0.000000e+00   0.000000e+00
     1024000   1.023999e-05   3.064193e+00   7.714093e+00   4.585099e+00   3.610147e+05   5.822542e+05  -2.346219e+06   1.438185e+13  -2.585632e+13  -4.207544e+12   2.444196e+06   1.901312e-17   0.000000e+00   0.000000e+00
     1032000   1.031999e-05   3.162318e+00   7.740498e+00   4.425514e+00   1.766744e+06   9.110128e+05  -1.422499e+06  -6.362219e+12   2.784231e+13   9.922780e+12   2.444347e+06   1.946399e-17   0.000000e+00   0.000000e+00
     1040000   1.039999e-05   3.242711e+00   7.854304e+00   4.296749e+00   3.483989e+05   1.087013e+06  -2.161609e+06   4.266139e+11  -2.639094e+13  -1.320654e+13   2.444490e+06   1.854892e-17   0.000000e+00   0.000000e+00
     1048000   1.047999e-05   3.325496e+00   7.888534e+00   4.130017e+00   1.829773e+06   5.523353e+05  -1.524180e+06   7.567065e+12   2.393123e+13   1.775028e+13   2.444641e+06   2.012666e-17   0.000000e+00   0.000000e+00
     1056000   1.055999e-05   3.432915e+00   7.998026e+00   4.018733e+00   5.340460e+05   1.520507e+06  -1.838436e+06  -1.283989e+13  -1.872051e+13  -1.921775e+13   2.444789e+06   1.884253e-17   0.000000e+00   0.000000e+00
     1064000   1.063999e-05   3.503087e+00   8.051900e+00   3.851358e+00   1.712019e+06   3.284301e+05  -1.714311e+06   1.874805e+13   1.327173e+13   2.125989e+13   2.444941e+06   2.086792e-17   0.000000e+00   0.000000e+00
     1072000   1.071999e-05   3.631219e+00   8.147713e+00   3.750389e+00   8.540593e+05   1.765911e+06  -1.459671e+06  -2.168289e+13  -6.228434e+12  -2.022819e+13   2.445097e+06   1.956063e-17   0.000000e+00   0.000000e+00
     1080000   1.079999e-05   3.697477e+00   8.225931e+00   3.591311e+00   1.535077e+06   3.031793e+05  -1.879066e+06   2.471793e+13   9.547935e+11   2.034157e+13   2.445254e+06   2.185447e-17   0.000000e+00   0.000000e+00
     1088000   1.087999e-05   3.837263e+00   8.308269e+00   3.494810e+00   1.164970e+06   1.829990e+06  -1.128746e+06  -2.550510e+13   5.349455e+12  -1.765955e+13   2.445421e+06   2.111872e-17   0.000000e+00   0.000000e+00
     1096000   1.095999e-05   3.906213e+00   8.406554e+00   3.348844e+00   1.391608e+06   3.984813e+05  -1.971178e+06   2.680537e+13  -9.091367e+12   1.708060e+13   2.445588e+06   2.329381e-17   0.000000e+00   0.000000e+00
     1104000   1.103999e-05   4.051594e+00   8.480358e+00   3.254775e+00   1.392900e+06   1.811171e+06  -8.725115e+05  -2.648672e+13   1.349734e+13  -1.427861e+13   2.445770e+06   2.318434e-17   0.000000e+00   0.000000e+00
     1112000   1.111999e-05   4.126885e+00   8.591623e+00   3.122480e+00   1.359417e+06   5.145525e+05  -1.967207e+06   2.736239e+13  -1.474488e+13   1.504568e+13   2.445952e+06   2.542321e-17   0.000000e+00   0.000000e+00
     1120000   1.119999e-05   4.275406e+00   8.664751e+00   3.034119e+00   1.470636e+06   1.823119e+06  -7.050720e+05  -2.721877e+13   1.647215e+13  -1.419763e+13   2.446152e+06   2.588178e-17   0.000000e+00   0.000000e+00
     1128000   1.127999e-05   4.356359e+00   8.780400e+00   2.910125e+00   1.463920e+06   5.479424e+05  -1.881849e+06   2.822754e+13  -1.517303e+13   1.753359e+13   2.446357e+06   2.845910e-17   0.000000e+00   0.000000e+00
     1136000   1.135999e-05   4.507413e+00   8.859590e+00   2.833583e+00   1.383646e+06   1.914587e+06  -6.368981e+05  -2.804050e+13   1.365590e+13  -1.988761e+13   2.446581e+06   2.918651e-17   0.000000e+00   0.000000e+00
     1144000   1.143999e-05   4.594788e+00   8.970990e+00   2.711360e+00   1.735496e+06   4.992963e+05  -1.650956e+06   2.759134e+13  -8.305172e+12   2.648319e+13   2.446814e+06   3.267647e-17   0.000000e+00   0.000000e+00
     1152000   1.151999e-05   4.744043e+00   9.065286e+00   2.652426e+00   1.116011e+06   2.028789e+06  -7.916346e+05  -2.409168e+13   9.938787e+11  -3.143610e+13   2.447069e+06   3.349481e-17   0.000000e+00   0.000000e+00
     1160000   1.159999e-05   4.844805e+00   9.161332e+00   2.529294e+00   2.114676e+06   5.269389e+05  -1.113534e+06   1.693146e+13   1.043611e+13   3.707660e+13   2.447341e+06   3.778445e-17   0.000000e+00   0.000000e+00
     1168000   1.167999e-05   4.979125e+00   9.280013e+00   2.482465e+00   8.654291e+05   1.865463e+06  -1.327400e+06  -3.882618e+12  -2.345313e+13  -3.550499e+13   2.447634e+06   3.897754e-17   0.000000e+00   0.000000e+00
     1176000   1.175999e-05   5.107762e+00   9.355071e+00   2.373729e+00   2.202906e+06   1.027942e+06  -2.881155e+05  -1.270212e+13   3.457445e+13   2.616507e+13   2.447952e+06   4.359253e-17   0.000000e+00   0.000000e+00
     1184000   1.183999e-05   5.215138e+00   9.490890e+00   2.310750e+00   1.236457e+06   1.080482e+06  -1.816004e+06   2.927981e+13  -3.641101e+13  -1.740135e+12   2.448293e+06   4.669571e-17   0.000000e+00   0.000000e+00
     1192000   1.191999e-05   5.368394e+00   9.569770e+00   2.249401e+00   1.429333e+06   1.981169e+06  -1.672084e+05  -3.358594e+13   2.192359e+13  -2.747937e+13   2.448669e+06   5.050735e-17   0.000000e+00   0.000000e+00
     1200000   1.199999e-05   5.475421e+00   9.679798e+00   2.150374e+00   2.219968e+06   5.207654e+05  -8.935891e+05   1.683166e+13   9.620134e+12   4.739244e+13   2.449073e+06   5.604095e-17   0.000000e+00   0.000000e+00
     1208000   1.207999e-05   5.604011e+00   9.803444e+00   2.115046e+00   9.716604e+05   1.637278e+06  -1.541203e+06   1.682578e+13  -3.917450e+13  -3.102666e+13   2.449512e+06   5.944981e-17   0.000000e+00   0.000000e+00
     1216000   1.215999e-05   5.752188e+00   9.881641e+00   2.047439e+00   1.630820e+06   1.822452e+06   1.468469e+05  -3.814635e+13   3.561619e+13  -1.817139e+13   2.449994e+06   6.532304e-17   0.000000e+00   0.000000e+00
     1224000   1.223999e-05   5.862729e+00   9.996337e+00   1.963011e+00   2.279274e+06   5.033101e+05  -7.460664e+05   1.561601e+13   1.087697e+13   5.500016e+13   2.450515e+06   7.248369e-17   0.000000e+00   0.000000e+00
     1232000   1.231999e-05   5.987219e+00   1.012107e+01   1.929492e+00   1.179479e+06   1.352746e+06  -1.669347e+06   3.270755e+13  -4.800784e+13  -1.581503e+13   2.451084e+06   7.760067e-17   0.000000e+00   0.000000e+00
     1240000   1.239999e-05   6.136021e+00   1.020912e+01   1.886606e+00   1.098518e+06   2.179074e+06  -2.361572e+05  -3.000464e+13   9.234037e+12  -5.453396e+13   2.451708e+06   8.481355e-17   0.000000e+00   0.000000e+00
     1248000   1.247999e-05   6.265970e+00   1.030347e+01   1.811351e+00   2.137710e+06   1.154593e+06   3.336456e+05  -3.184173e+13   5.128213e+13   2.668081e+13   2.452388e+06   9.335024e-17   0.000000e+00   0.000000e+00
     1256000   1.255999e-05   6.380052e+00   1.042503e+01   1.752646e+00   2.235231e+06   4.381637e+05  -9.108176e+05   2.673552e+13  -4.111785e+12   6.358100e+13   2.453128e+06   1.023836e-16   0.000000e+00   0.000000e+00
     1264000   1.263999e-05   6.505977e+00   1.054396e+01   1.722905e+00   1.376840e+06   1.154801e+06  -1.671088e+06   4.518303e+13  -5.586940e+13  -1.412174e+12   2.453934e+06   1.108333e-16   0.000000e+00   0.000000e+00
     1272000   1.271999e-05   6.646339e+00   1.064356e+01   1.693618e+00   8.631283e+05   2.082224e+06  -9.723505e+05   4.162915e+12  -3.302137e+13  -6.707544e+13   2.454814e+06   1.204046e-16   0.000000e+00   0.000000e+00
     1280000   1.279999e-05   6.786496e+00   1.073552e+01   1.648654e+00   1.154247e+06   2.162875e+06   1.432233e+05  -4.115988e+13   2.605029e+13  -6.125809e+13   2.455775e+06   1.316413e-16   0.000000e+00   0.000000e+00
     1288000   1.287999e-05   6.918335e+00   1.083356e+01   1.595242e+00   1.778572e+06   1.563039e+06   6.554023e+05  -5.263132e+13   6.235072e+13  -5.769088e+12   2.456819e+06   1.439199e-16   0.000000e+00   0.000000e+00
     1296000   1.295999e-05   7.043895e+00   1.093982e+01   1.544972e+00   2.240057e+06   8.934562e+05   4.747956e+05  -3.457001e+13   6.033742e+13   4.971197e+13   2.457957e+06   1.573160e-16   0.000000e+00   0.000000e+00
     1304000   1.303999e-05   7.167875e+00   1.104984e+01   1.502225e+00   2.410973e+06   4.845750e+05  -6.484839e+03  -7.107041e+12   3.661082e+13   8.112504e+13   2.459196e+06   1.718100e-16   0.000000e+00   0.000000e+00
     1312000   1.311999e-05   7.292976e+00   1.115944e+01   1.465589e+00   2.395833e+06   3.325733e+05  -4.512960e+05   1.575704e+13   1.061923e+13   9.128372e+13   2.460547e+06   1.875679e-16   0.000000e+00   0.000000e+00
     1320000   1.319999e-05   7.419720e+00   1.126680e+01   1.432190e+00   2.332610e+06   3.068387e+05  -7.254630e+05   2.968603e+13  -7.446195e+12   9.217126e+13   2.462015e+06   2.037434e-16   0.000000e+00   0.000000e+00
     1328000   1.327999e-05   7.547788e+00   1.137165e+01   1.400047e+00   2.307847e+06   2.985534e+05  -8.087476e+05   3.481901e+13  -1.443988e+13   9.390257e+13   2.463608e+06   2.214468e-16   0.000000e+00   0.000000e+00
     1336000   1.335999e-05   7.676941e+00   1.147399e+01   1.368548e+00   2.350024e+06   2.666676e+05  -6.958175e+05   3.079081e+13  -8.715902e+12   1.004914e+14   2.465337e+06   2.409044e-16   0.000000e+00   0.000000e+00
     1344000   1.343999e-05   7.807322e+00   1.157379e+01   1.338293e+00   2.427760e+06   2.503272e+05  -3.611968e+05   1.491794e+13   1.194194e+13   1.082120e+14   2.467215e+06   2.619317e-16   0.000000e+00   0.000000e+00
     1352000   1.351999e-05   7.939044e+00   1.167141e+01   1.311187e+00   2.432306e+06   3.782005e+05   1.950686e+05  -1.555029e+13   4.718683e+13   1.030812e+14   2.469250e+06   2.845084e-16   0.000000e+00   0.000000e+00
     1360000   1.359999e-05   8.071087e+00   1.176868e+01   1.289868e+00   2.182790e+06   8.258551e+05   8.133268e+05  -5.537690e+13   8.502850e+13   6.245568e+13   2.471459e+06   3.090264e-16   0.000000e+00   0.000000e+00
     1368000   1.367999e-05   8.200093e+00   1.186977e+01   1.275097e+00   1.559725e+06   1.625282e+06   1.022575e+06  -7.932450e+13   9.215849e+13  -2.533301e+13   2.473852e+06   3.364535e-16   0.000000e+00   0.000000e+00
     1376000   1.375999e-05   8.321536e+00   1.197868e+01   1.260742e+00   8.265026e+05   2.320938e+06   2.508548e+05  -4.662039e+13   2.930877e+13  -1.169003e+14   2.476446e+06   3.649335e-16   0.000000e+00   0.000000e+00
     1384000   1.383999e-05   8.436336e+00   1.209136e+01   1.234142e+00   7.781059e+05   2.009604e+06  -1.225858e+06   4.338255e+13  -7.799038e+13  -1.004636e+14   2.479251e+06   3.955357e-16   0.000000e+00   0.000000e+00
     1392000   1.391999e-05   8.556689e+00   1.219230e+01   1.193116e+00   1.807169e+06   6.329453e+05  -1.579635e+06   8.525871e+13  -9.294787e+13   6.017252e+13   2.482283e+06   4.288167e-16   0.000000e+00   0.000000e+00
     1400000   1.399999e-05   8.691838e+00   1.227597e+01   1.163580e+00   2.464804e+06   2.003425e+05   2.501413e+05  -1.774953e+13   5.129793e+13   1.346548e+14   2.485552e+06   4.640585e-16   0.000000e+00   0.000000e+00
     1408000   1.407999e-05   8.822429e+00   1.236990e+01   1.162841e+00   1.261516e+06   1.856826e+06   1.075306e+06  -9.154626e+13   1.004305e+14  -6.581097e+13   2.489078e+06   5.033423e-16   0.000000e+00   0.000000e+00
     1416000   1.415999e-05   8.930989e+00   1.248638e+01   1.146822e+00   7.240621e+05   2.020959e+06  -1.267243e+06   5.406674e+13  -9.148654e+13  -1.152017e+14   2.492879e+06   5.439984e-16   0.000000e+00   0.000000e+00
     1424000   1.423999e-05   9.053481e+00   1.257808e+01   1.102770e+00   2.366839e+06   3.988542e+04  -7.945797e+05   5.126036e+13  -3.489806e+13   1.506052e+14   2.496973e+06   5.894016e-16   0.000000e+00   0.000000e+00
     1432000   1.431999e-05   9.188527e+00   1.266079e+01   1.101674e+00   1.380801e+06   1.652144e+06   1.273067e+06  -1.057612e+14   1.238128e+14  -4.574411e+13   2.501378e+06   6.378639e-16   0.000000e+00   0.000000e+00
     1440000   1.439999e-05   9.292306e+00   1.277804e+01   1.086088e+00   9.361656e+05   1.641227e+06  -1.646393e+06   9.111144e+13  -1.287527e+14  -7.672811e+13   2.506121e+06   6.885894e-16   0.000000e+00   0.000000e+00
     1448000   1.447999e-05   9.423381e+00   1.285555e+01   1.050417e+00   2.415061e+06   1.775895e+05   6.649562e+05  -4.824967e+13   8.737917e+13   1.524013e+14   2.511220e+06   7.458594e-16   0.000000e+00   0.000000e+00
     1456000   1.455999e-05   9.537614e+00   1.296033e+01   1.059926e+00   4.493589e+05   2.410843e+06  -5.654186e+05   1.022643e+13  -4.477191e+13  -1.834043e+14   2.516702e+06   8.068329e-16   0.000000e+00   0.000000e+00
     1464000   1.463999e-05   9.655847e+00   1.304892e+01   1.015932e+00   2.517481e+06  -1.365653e+05  -8.423859e+04   7.861774e+12   2.200568e+13   1.947097e+14   2.522589e+06   8.721057e-16   0.000000e+00   0.000000e+00
     1472000   1.471999e-05   9.773760e+00   1.314542e+01   1.029060e+00   3.928250e+05   2.472572e+06  -3.569909e+05  -3.463058e+12  -2.835043e+13  -2.013283e+14   2.528907e+06   9.423650e-16   0.000000e+00   0.000000e+00
     1480000   1.479999e-05   9.891601e+00   1.323110e+01   9.870267e-01   2.504971e+06  -1.031894e+05   3.796559e+05  -2.726224e+13   6.481945e+13   1.986639e+14   2.535679e+06   1.017609e-15   0.000000e+00   0.000000e+00
     1488000   1.487999e-05   9.999790e+00   1.333493e+01   9.966899e-01   5.515455e+05   2.071220e+06  -1.368346e+06   8.081853e+13  -1.262076e+14  -1.588089e+14   2.542936e+06   1.098754e-15   0.000000e+00   0.000000e+00
     1496000   1.495999e-05   1.012772e+01   1.340619e+01   9.702446e-01   1.765436e+06   9.455388e+05   1.579650e+06  -1.345612e+14   1.763273e+14   4.516645e+13   2.550706e+06   1.187967e-15   0.000000e+00   0.000000e+00
     1504000   1.503999e-05   1.022500e+01   1.351532e+01   9.521141e-01   1.957467e+06   2.139711e+05  -1.634354e+06   1.280631e+14  -1.433317e+14   1.342798e+14   2.559018e+06   1.282936e-15   0.000000e+00   0.000000e+00
     1512000   1.511999e-05   1.034545e+01   1.359675e+01   9.618136e-01   2.485921e+05   2.544019e+06  -2.455537e+05  -8.790980e+12  -2.223309e+13  -2.416433e+14   2.567903e+06   1.385574e-15   0.000000e+00   0.000000e+00
     1520000   1.519999e-05   1.046415e+01   1.367259e+01   9.317517e-01   1.858337e+06   7.248267e+05   1.632234e+06  -1.431167e+14   1.912245e+14   7.841172e+13   2.577397e+06   1.496083e-15   0.000000e+00   0.000000e+00
     1528000   1.527999e-05   1.056150e+01   1.377465e+01   9.124842e-01   2.357408e+06  -2.854650e+05  -1.027849e+06   8.983619e+13  -8.495371e+13   2.289779e+14   2.587535e+06   1.615747e-15   0.000000e+00   0.000000e+00
     1536000   1.535999e-05   1.066797e+01   1.386615e+01   9.201828e-01   7.144446e+05   1.666903e+06  -1.860757e+06   1.416147e+14  -1.947718e+14  -1.204966e+14   2.598348e+06   1.744567e-15   0.000000e+00   0.000000e+00
     1544000   1.543999e-05   1.078608e+01   1.393900e+01   9.170889e-01   1.860981e+05   2.579350e+06   3.517679e+05  -5.829222e+13   4.123470e+13  -2.693094e+14   2.609870e+06   1.884250e-15   0.000000e+00   0.000000e+00
     1552000   1.551999e-05   1.089849e+01   1.401436e+01   8.960064e-01   1.231365e+06   1.392409e+06   1.849481e+06  -1.787123e+14   2.210593e+14  -4.699422e+13   2.622144e+06   2.034033e-15   0.000000e+00   0.000000e+00
     1560000   1.559999e-05   1.100082e+01   1.409997e+01   8.742881e-01   2.288877e+06  -5.257506e+04   1.304840e+06  -1.170717e+14   1.721476e+14   2.129767e+14   2.635209e+06   2.195067e-15   0.000000e+00   0.000000e+00
     1568000   1.567999e-05   1.109888e+01   1.418938e+01   8.612680e-01   2.576178e+06  -6.094421e+05  -9.828605e+04   1.527875e+13   1.346192e+13   3.073454e+14   2.649108e+06   2.372746e-15   0.000000e+00   0.000000e+00
     1576000   1.575999e-05   1.119728e+01   1.427640e+01   8.548064e-01   2.316900e+06  -4.346554e+05  -1.240675e+06   1.200003e+14  -1.249546e+14   2.670542e+14   2.663874e+06   2.562533e-15   0.000000e+00   0.000000e+00
     1584000   1.583999e-05   1.129673e+01   1.435947e+01   8.502203e-01   1.939760e+06  -4.857259e+04  -1.847961e+06   1.753794e+14  -2.043394e+14   1.888770e+14   2.679550e+06   2.768197e-15   0.000000e+00   0.000000e+00
     1592000   1.591999e-05   1.139631e+01   1.443941e+01   8.447021e-01   1.696515e+06   2.068426e+05  -2.085289e+06   1.983285e+14  -2.394194e+14   1.370509e+14   2.696178e+06   2.990528e-15   0.000000e+00   0.000000e+00
     1600000   1.599999e-05   1.149516e+01   1.451711e+01   8.372835e-01   1.677423e+06   1.953905e+05  -2.124341e+06   2.052514e+14  -2.486457e+14   1.386213e+14   2.713807e+06   3.232645e-15   0.000000e+00   0.000000e+00
     1608000   1.607999e-05   1.159323e+01   1.459257e+01   8.278928e-01   1.896526e+06  -1.013703e+05  -1.964536e+06   1.952052e+14  -2.307453e+14   1.996859e+14   2.732488e+06   3.491618e-15   0.000000e+00   0.000000e+00
     1616000   1.615999e-05   1.169122e+01   1.466495e+01   8.173511e-01   2.286542e+06  -5.834562e+05  -1.416419e+06   1.474149e+14  -1.613015e+14   3.034304e+14   2.752260e+06   3.774399e-15   0.000000e+00   0.000000e+00
     1624000   1.623999e-05   1.179002e+01   1.473326e+01   8.081897e-01   2.603188e+06  -9.234142e+05  -2.474028e+05   3.353262e+13  -1.006136e+13   3.843647e+14   2.773173e+06   4.082554e-15   0.000000e+00   0.000000e+00
     1632000   1.631999e-05   1.188905e+01   1.479850e+01   8.048557e-01   2.372572e+06  -5.351876e+05   1.377697e+06  -1.371968e+14   2.009085e+14   3.154687e+14   2.795276e+06   4.419275e-15   0.000000e+00   0.000000e+00
     1640000   1.639999e-05   1.198423e+01   1.486594e+01   8.101480e-01   1.232469e+06   9.517062e+05   2.349443e+06  -2.536871e+14   3.234175e+14   2.789022e+12   2.818618e+06   4.783777e-15   0.000000e+00   0.000000e+00
     1648000   1.647999e-05   1.206968e+01   1.494241e+01   8.172765e-01  -1.895394e+05   2.618252e+06   1.092189e+06  -1.380242e+14   1.463973e+14  -3.732578e+14   2.843245e+06   5.180059e-15   0.000000e+00   0.000000e+00
     1656000   1.655999e-05   1.214712e+01   1.502439e+01   8.096600e-01  -8.860766e+04   2.222276e+06  -1.812728e+06   1.754360e+14  -2.483791e+14  -3.141251e+14   2.869206e+06   5.607813e-15   0.000000e+00   0.000000e+00
     1664000   1.663999e-05   1.223157e+01   1.509261e+01   7.856917e-01   1.923245e+06  -4.123791e+05  -2.126276e+06   2.337590e+14  -2.797105e+14   2.647318e+14   2.896546e+06   6.068619e-15   0.000000e+00   0.000000e+00
     1672000   1.671999e-05   1.232862e+01   1.514222e+01   7.779575e-01   2.367441e+06  -7.628816e+05   1.539712e+06  -1.626885e+14   2.333046e+14   3.671441e+14   2.925317e+06   6.577994e-15   0.000000e+00   0.000000e+00
     1680000   1.679999e-05   1.241233e+01   1.520682e+01   7.961224e-01  -1.579817e+05   2.421075e+06   1.687837e+06  -2.064306e+14   2.385045e+14  -3.600811e+14   2.955564e+06   7.133869e-15   0.000000e+00   0.000000e+00
     1688000   1.687999e-05   1.247815e+01   1.528824e+01   7.859825e-01   3.240271e+05   1.466753e+06  -2.582213e+06   2.780152e+14  -3.676671e+14  -1.748976e+14   2.987337e+06   7.730328e-15   0.000000e+00   0.000000e+00
     1696000   1.695999e-05   1.256610e+01   1.533640e+01   7.619367e-01   2.661497e+06  -1.378276e+06   3.759918e+05  -3.221345e+13   7.273861e+13   5.015227e+14   3.020692e+06   8.384989e-15   0.000000e+00   0.000000e+00
     1704000   1.703999e-05   1.264828e+01   1.539061e+01   7.840642e-01  -2.740906e+05   2.412287e+06   1.855509e+06  -2.304911e+14   2.704017e+14  -3.841126e+14   3.055678e+06   9.110541e-15   0.000000e+00   0.000000e+00
     1712000   1.711999e-05   1.270672e+01   1.546851e+01   7.681783e-01   9.754039e+05   4.724555e+05  -2.896174e+06   3.314461e+14  -4.223004e+14   4.173656e+13   3.092321e+06   9.880805e-15   0.000000e+00   0.000000e+00
     1720000   1.719999e-05   1.279642e+01   1.550233e+01   7.584827e-01   1.849756e+06  -3.865215e+05   2.496037e+06  -2.888438e+14   3.845487e+14   2.748339e+14   3.130686e+06   1.071807e-14   0.000000e+00   0.000000e+00
     1728000   1.727999e-05   1.285341e+01   1.557494e+01   7.758027e-01  -6.977512e+05   2.576098e+06  -1.711950e+06   1.840499e+14  -2.623140e+14  -4.716370e+14   3.170790e+06   1.164957e-14   0.000000e+00   0.000000e+00
     1736000   1.735999e-05   1.292852e+01   1.561694e+01   7.450149e-01   2.648553e+06  -1.629979e+06   8.060013e+05  -8.500782e+13   1.382966e+14   5.632802e+14   3.212678e+06   1.264043e-14   0.000000e+00   0.000000e+00
     1744000   1.743999e-05   1.299102e+01   1.567328e+01   7.731847e-01  -1.100248e+06   3.046207e+06  -3.379246e+05   2.056617e+13  -5.791781e+13  -5.998176e+14   3.256396e+06   1.373977e-14   0.000000e+00   0.000000e+00
     1752000   1.751999e-05   1.305452e+01   1.571995e+01   7.388910e-01   2.712418e+06  -1.880055e+06   1.053266e+05  -8.798282e+11   3.135391e+13   6.187617e+14   3.301956e+06   1.491548e-14   0.000000e+00   0.000000e+00
     1760000   1.759999e-05   1.311401e+01   1.576960e+01   7.687540e-01  -1.238551e+06   3.087701e+06  -3.881753e+05   2.800742e+13  -6.696794e+13  -6.324946e+14   3.349416e+06   1.620582e-14   0.000000e+00   0.000000e+00
     1768000   1.767999e-05   1.317499e+01   1.580874e+01   7.347733e-01   2.654161e+06  -1.905864e+06   9.352898e+05  -1.033562e+14   1.607146e+14   6.253678e+14   3.398773e+06   1.760427e-14   0.000000e+00   0.000000e+00
     1776000   1.775999e-05   1.322175e+01   1.586324e+01   7.622953e-01  -1.074904e+06   2.669582e+06  -1.902873e+06   2.190716e+14  -3.063777e+14  -5.559439e+14   3.450074e+06   1.912989e-14   0.000000e+00   0.000000e+00
     1784000   1.783999e-05   1.328778e+01   1.588481e+01   7.376690e-01   1.821242e+06  -9.052504e+05   2.852515e+06  -3.496635e+14   4.630057e+14   3.718498e+14   3.503318e+06   2.077391e-14   0.000000e+00   0.000000e+00
     1792000   1.791999e-05   1.331776e+01   1.594791e+01   7.460975e-01   3.960688e+05   5.716607e+05  -3.489913e+06   4.326886e+14  -5.575086e+14  -4.364887e+13   3.558533e+06   2.256375e-14   0.000000e+00   0.000000e+00
     1800000   1.799999e-05   1.338357e+01   1.595877e+01   7.525904e-01  -5.142962e+05   1.928043e+06   3.015219e+06  -3.901951e+14   4.834958e+14  -3.739753e+14   3.615715e+06   2.450347e-14   0.000000e+00   0.000000e+00
     1808000   1.807999e-05   1.341333e+01   1.600807e+01   7.256314e-01   2.595487e+06  -2.308378e+06  -1.199764e+06   1.637034e+14  -1.828612e+14   7.013721e+14   3.674860e+06   2.657694e-14   0.000000e+00   0.000000e+00
     1816000   1.815999e-05   1.345252e+01   1.604103e+01   7.571681e-01  -1.602261e+06   2.975799e+06  -1.592110e+06   1.864771e+14  -2.661749e+14  -6.888151e+14   3.735965e+06   2.885782e-14   0.000000e+00   0.000000e+00
     1824000   1.823999e-05   1.350400e+01   1.604933e+01   7.350716e-01   1.127071e+06  -4.144972e+05   3.604238e+06  -4.581860e+14   5.937888e+14   2.132523e+14   3.799030e+06   3.127619e-14   0.000000e+00   0.000000e+00
     1832000   1.831999e-05   1.351716e+01   1.610031e+01   7.279456e-01   1.754908e+06  -1.556269e+06  -3.070647e+06   4.004182e+14  -4.972250e+14   4.787737e+14   3.864007e+06   3.388800e-14   0.000000e+00   0.000000e+00
     1840000   1.839999e-05   1.355553e+01   1.611296e+01   7.568802e-01  -2.056354e+06   3.341990e+06  -2.331244e+05   1.333095e+13  -4.667172e+13  -8.152723e+14   3.930883e+06   3.673668e-14   0.000000e+00   0.000000e+00
     1848000   1.847999e-05   1.359197e+01   1.611850e+01   7.289047e-01   1.472173e+06  -1.146974e+06   3.537584e+06  -4.511673e+14   5.901659e+14   3.810714e+14   3.999668e+06   3.974684e-14   0.000000e+00   0.000000e+00
     1856000   1.855999e-05   1.359387e+01   1.616133e+01   7.257377e-01   1.641791e+06  -1.702407e+06  -3.312646e+06   4.356049e+14  -5.432008e+14   4.928520e+14   4.070294e+06   4.297399e-14   0.000000e+00   0.000000e+00
     1864000   1.863999e-05   1.362002e+01   1.616607e+01   7.557971e-01  -2.315119e+06   3.359584e+06  -7.177000e+05   7.688470e+13  -1.280764e+14  -8.581127e+14   4.142665e+06   4.640965e-14   0.000000e+00   0.000000e+00
     1872000   1.871999e-05   1.364767e+01   1.615869e+01   7.313292e-01   8.360208e+05  -6.291252e+05   4.084870e+06  -5.276974e+14   6.819244e+14   2.149588e+14   4.216739e+06   5.005088e-14   0.000000e+00   0.000000e+00
     1880000   1.879999e-05   1.363796e+01   1.619093e+01   7.194660e-01   2.178933e+06  -2.682880e+06  -2.545509e+06   3.422055e+14  -4.161919e+14   7.283527e+14   4.292460e+06   5.390960e-14   0.000000e+00   0.000000e+00
     1888000   1.887999e-05   1.364457e+01   1.619471e+01   7.532197e-01  -2.274973e+06   2.925214e+06  -2.315667e+06   2.868582e+14  -3.946444e+14  -7.840250e+14   4.369747e+06   5.804116e-14   0.000000e+00   0.000000e+00
     1896000   1.895999e-05   1.366472e+01   1.617025e+01   7.396368e-01  -4.584366e+05   6.928817e+05   4.370249e+06  -5.720193e+14   7.257963e+14  -1.730534e+14   4.448520e+06   6.235489e-14   0.000000e+00   0.000000e+00
     1904000   1.903999e-05   1.364540e+01   1.618637e+01   7.147436e-01   2.644681e+06  -3.579559e+06  -8.374331e+05   1.247163e+14  -1.301130e+14   9.391053e+14   4.528673e+06   6.685074e-14   0.000000e+00   0.000000e+00
     1912000   1.911999e-05   1.362842e+01   1.619135e+01   7.478370e-01  -1.737056e+06   1.813985e+06  -3.865873e+06   4.921949e+14  -6.505739e+14  -5.288725e+14   4.610084e+06   7.161103e-14   0.000000e+00   0.000000e+00
     1920000   1.919999e-05   1.363739e+01   1.615160e+01   7.487356e-01  -1.742039e+06   1.942125e+06   3.900550e+06  -5.153973e+14   6.407060e+14  -5.466980e+14   4.692637e+06   7.653990e-14   0.000000e+00   0.000000e+00
     1928000   1.927999e-05   1.360865e+01   1.614823e+01   7.144710e-01   2.638738e+06  -3.915354e+06   7.205892e+05  -7.518354e+13   1.290195e+14   9.902676e+14   4.776211e+06   8.156175e-14   0.000000e+00   0.000000e+00
     1936000   1.935999e-05   1.356928e+01   1.614954e+01   7.449308e-01  -1.373658e+06   9.041181e+05  -4.574027e+06   5.841225e+14  -7.627719e+14  -3.284479e+14   4.860668e+06   8.682919e-14   0.000000e+00   0.000000e+00
     1944000   1.943999e-05   1.356389e+01   1.609492e+01   7.537152e-01  -2.318930e+06   2.256499e+06   3.740536e+06  -4.925282e+14   6.056426e+14  -6.678764e+14   4.945789e+06   9.203920e-14   0.000000e+00   0.000000e+00
     1952000   1.951999e-05   1.351807e+01   1.607843e+01   7.155184e-01   2.578928e+06  -4.284895e+06   5.509327e+05  -4.968127e+13   1.003178e+14   1.032356e+15   5.031374e+06   9.731584e-14   0.000000e+00   0.000000e+00
     1960000   1.959999e-05   1.346267e+01   1.606463e+01   7.537731e-01  -2.319113e+06   1.656281e+06  -4.250305e+06   5.312899e+14  -7.046823e+14  -5.670833e+14   5.117289e+06   1.027366e-13   0.000000e+00   0.000000e+00
     1968000   1.967999e-05   1.344219e+01   1.599160e+01   7.478454e-01  -1.277130e+06   5.113950e+05   5.018134e+06  -6.391300e+14   8.067585e+14  -2.426484e+14   5.203292e+06   1.079386e-13   0.000000e+00   0.000000e+00
     1976000   1.975999e-05   1.336299e+01   1.597976e+01   7.232427e-01   1.791523e+06  -3.910931e+06  -3.077396e+06   4.069937e+14  -4.884362e+14   8.539830e+14   5.289169e+06   1.130570e-13   0.000000e+00   0.000000e+00
     1984000   1.983999e-05   1.331300e+01   1.591972e+01   7.716725e-01  -4.043517e+06   3.527263e+06   3.094127e+05  -5.925429e+13   2.905767e+13  -1.068566e+15   5.374696e+06   1.180521e-13   0.000000e+00   0.000000e+00
     1992000   1.991999e-05   1.324942e+01   1.585860e+01   7.235776e-01   2.177879e+06  -4.541267e+06   2.107378e+06  -2.354677e+14   3.438257e+14   9.897405e+14   5.459607e+06   1.225642e-13   0.000000e+00   0.000000e+00
     2000000   1.999999e-05   1.315787e+01   1.582260e+01   7.712236e-01  -3.589319e+06   2.397088e+06  -3.478930e+06   4.108824e+14  -5.664063e+14  -8.175196e+14   5.543663e+06   1.268886e-13   0.000000e+00   0.000000e+00
     2008000   2.007999e-05   1.309799e+01   1.572673e+01   7.357501e-01   1.210172e+06  -3.577778e+06   4.170542e+06  -4.851482e+14   6.531064e+14   7.038306e+14   5.626583e+06   1.306381e-13   0.000000e+00   0.000000e+00
     2016000   2.015999e-05   1.298257e+01   1.568970e+01   7.762693e-01  -3.557149e+06   1.908657e+06  -4.035637e+06   4.703359e+14  -6.418396e+14  -7.209856e+14   5.708121e+06   1.339554e-13   0.000000e+00   0.000000e+00
     2024000   2.023999e-05   1.290642e+01   1.558205e+01   7.379978e-01   1.585638e+06  -4.487103e+06   3.294347e+06  -3.614567e+14   5.072401e+14   8.683351e+14   5.788010e+06   1.364146e-13   0.000000e+00   0.000000e+00
     2032000   2.031999e-05   1.278735e+01   1.551799e+01   7.949020e-01  -4.788347e+06   3.211102e+06  -1.081935e+06   1.027154e+14  -1.934871e+14  -1.039271e+15   5.866006e+06   1.384163e-13   0.000000e+00   0.000000e+00
     2040000   2.039999e-05   1.266706e+01   1.543215e+01   7.439487e-01   1.594236e+06  -5.243520e+06  -2.295459e+06   3.003088e+14  -3.283353e+14   9.537609e+14   5.941820e+06   1.394488e-13   0.000000e+00   0.000000e+00
     2048000   2.047999e-05   1.257128e+01   1.530322e+01   7.851506e-01  -2.308001e+06   2.238433e+04   5.554751e+06  -6.305039e+14   7.857010e+14  -2.631891e+14   6.015200e+06   1.398825e-13   0.000000e+00   0.000000e+00
     2056000   2.055999e-05   1.240945e+01   1.523989e+01   8.082512e-01  -4.517658e+06   2.022089e+06  -3.541237e+06   3.764371e+14  -5.375315e+14  -7.901477e+14   6.085921e+06   1.393438e-13   0.000000e+00   0.000000e+00
     2064000   2.063999e-05   1.226686e+01   1.512923e+01   7.673602e-01   7.189949e+05  -4.917973e+06  -3.628398e+06   4.332148e+14  -5.011859e+14   7.623468e+14   6.153753e+06   1.377511e-13   0.000000e+00   0.000000e+00
     2072000   2.071999e-05   1.214409e+01   1.497803e+01   7.759804e-01   8.382783e+05  -4.741330e+06   3.935304e+06  -3.821911e+14   5.411735e+14   7.359203e+14   6.218483e+06   1.352170e-13   0.000000e+00   0.000000e+00
     2080000   2.079999e-05   1.199314e+01   1.484675e+01   8.204139e-01  -2.888904e+06  -7.497887e+04   5.575526e+06  -5.831682e+14   7.173109e+14  -2.908320e+14   6.279958e+06   1.320954e-13   0.000000e+00   0.000000e+00
     2088000   2.087999e-05   1.181548e+01   1.472948e+01   8.524117e-01  -5.247457e+06   2.454572e+06   2.570940e+06  -2.855379e+14   2.874898e+14  -8.538048e+14   6.338017e+06   1.279561e-13   0.000000e+00   0.000000e+00
     2096000   2.095999e-05   1.162845e+01   1.460341e+01   8.687024e-01  -5.802302e+06   2.679781e+06  -1.285652e+05  -1.340071e+13  -6.979523e+13  -9.156035e+14   6.392532e+06   1.229135e-13   0.000000e+00   0.000000e+00
     2104000   2.103999e-05   1.143885e+01   1.446069e+01   8.827446e-01  -5.888113e+06   2.458279e+06  -8.969846e+05   6.178951e+13  -1.666814e+14  -8.712294e+14   6.443414e+06   1.170708e-13   0.000000e+00   0.000000e+00
     2112000   2.111999e-05   1.124787e+01   1.430002e+01   8.997894e-01  -5.993039e+06   2.462540e+06   3.838216e+05  -6.170463e+13  -1.373167e+13  -8.561617e+14   6.490604e+06   1.105804e-13   0.000000e+00   0.000000e+00
     2120000   2.119999e-05   1.105514e+01   1.412096e+01   9.107470e-01  -5.257323e+06   1.621858e+06   3.524877e+06  -3.382410e+14   3.528014e+14  -6.648818e+14   6.534112e+06   1.036891e-13   0.000000e+00   0.000000e+00
     2128000   2.127999e-05   1.084852e+01   1.393659e+01   8.975247e-01  -2.264754e+06  -2.133208e+06   5.791109e+06  -4.879880e+14   6.207368e+14   3.889364e+13   6.573936e+06   9.632893e-14   0.000000e+00   0.000000e+00
     2136000   2.135999e-05   1.060070e+01   1.378343e+01   8.813715e-01   5.548523e+05  -6.508845e+06   1.010486e+06  -1.798160e+13   1.132614e+14   7.450483e+14   6.610144e+06   8.855622e-14   0.000000e+00   0.000000e+00
     2144000   2.143999e-05   1.034041e+01   1.363642e+01   9.489564e-01  -3.661781e+06  -2.241996e+06  -5.068723e+06   4.369962e+14  -5.642466e+14  -6.713415e+13   6.642826e+06   8.087325e-14   0.000000e+00   0.000000e+00
     2152000   2.151999e-05   1.014210e+01   1.339031e+01   1.003174e+00  -5.295096e+06   8.322869e+05   3.973183e+06  -3.221215e+14   3.313815e+14  -4.975500e+14   6.672101e+06   7.321818e-14   0.000000e+00   0.000000e+00
     2160000   2.159999e-05   9.859850e+00   1.321580e+01   9.602438e-01  -1.291012e+05  -6.638065e+06  -8.857284e+05   1.416781e+14  -8.581562e+13   6.178720e+14   6.698141e+06   6.548153e-14   0.000000e+00   0.000000e+00
     2168000   2.167999e-05   9.616523e+00   1.299845e+01   1.079637e+00  -6.427391e+06   1.403315e+06   1.375775e+06  -1.167940e+14   4.418092e+13  -5.880803e+14   6.721116e+06   5.823497e-14   0.000000e+00   0.000000e+00
     2176000   2.175999e-05   9.319303e+00   1.280188e+01   1.034302e+00  -9.595689e+05  -6.317009e+06  -2.149121e+06   2.228800e+14  -1.964752e+14   4.765267e+14   6.741224e+06   5.111597e-14   0.000000e+00   0.000000e+00
     2184000   2.183999e-05   9.088947e+00   1.252738e+01   1.125456e+00  -3.733858e+06  -1.634428e+06   5.391360e+06  -3.307369e+14   3.905999e+14  -1.101347e+14   6.758684e+06   4.465722e-14   0.000000e+00   0.000000e+00
     2192000   2.191999e-05   8.760484e+00   1.235585e+01   1.203618e+00  -6.503979e+06   1.159716e+05  -1.888998e+06   1.146291e+14  -2.340671e+14  -4.102985e+14   6.773736e+06   3.866813e-14   0.000000e+00   0.000000e+00
     2200000   2.199999e-05   8.446897e+00   1.212866e+01   1.192990e+00  -2.913062e+06  -4.993438e+06  -3.554966e+06   2.735469e+14  -2.978391e+14   1.936366e+14   6.786614e+06   3.302610e-14   0.000000e+00   0.000000e+00
     2208000   2.207999e-05   8.167470e+00   1.184953e+01   1.222083e+00  -9.577990e+05  -6.718443e+06   3.892749e+05   6.902604e+13   1.343133e+13   4.060075e+14   6.797528e+06   2.798294e-14   0.000000e+00   0.000000e+00
     2216000   2.215999e-05   7.879090e+00   1.157482e+01   1.293664e+00  -1.141749e+06  -5.948922e+06   3.104456e+06  -7.738952e+13   1.821450e+14   3.210319e+14   6.806681e+06   2.350407e-14   0.000000e+00   0.000000e+00
     2224000   2.223999e-05   7.570764e+00   1.131093e+01   1.372811e+00  -1.466110e+06  -5.455825e+06   3.810399e+06  -1.056794e+14   2.059890e+14   2.545892e+14   6.814298e+06   1.961284e-14   0.000000e+00   0.000000e+00
     2232000   2.231999e-05   7.243418e+00   1.105374e+01   1.448449e+00  -1.350840e+06  -5.914487e+06   3.116839e+06  -5.300999e+13   1.529034e+14   2.674871e+14   6.820602e+06   1.621825e-14   0.000000e+00   0.000000e+00
     2240000   2.239999e-05   6.894566e+00   1.081023e+01   1.534494e+00  -1.560441e+06  -6.590844e+06   8.466982e+05   6.578205e+13   1.947312e+13   2.737573e+14   6.825767e+06   1.323664e-14   0.000000e+00   0.000000e+00
     2248000   2.247999e-05   6.539169e+00   1.057952e+01   1.672166e+00  -3.649363e+06  -5.424305e+06  -1.976725e+06   1.649270e+14  -1.533614e+14   1.160296e+14   6.829962e+06   1.067958e-14   0.000000e+00   0.000000e+00
     2256000   2.255999e-05   6.233421e+00   1.030631e+01   1.869757e+00  -6.590145e+06  -1.662000e+06  -7.088301e+05   5.473610e+13  -1.470409e+14  -1.648560e+14   6.833352e+06   8.626709e-15   0.000000e+00   0.000000e+00
     2264000   2.263999e-05   5.963194e+00   9.949533e+00   1.994267e+00  -4.618767e+06  -1.364525e+06   4.851522e+06  -1.373657e+14   1.114072e+14  -9.935662e+13   6.836096e+06   6.859856e-15   0.000000e+00   0.000000e+00
     2272000   2.271999e-05   5.571839e+00   9.681678e+00   2.054394e+00  -1.738070e+06  -6.166603e+06   2.390441e+06   3.874522e+13   5.572049e+13   1.720561e+14   6.838281e+06   5.705996e-15   0.000000e+00   0.000000e+00
     2280000   2.279999e-05   5.233742e+00   9.474975e+00   2.340278e+00  -6.304959e+06  -2.651076e+06  -7.395109e+04   5.473655e+13  -1.278489e+14  -8.713593e+13   6.840042e+06   4.494817e-15   0.000000e+00   0.000000e+00
     2288000   2.287999e-05   4.982602e+00   9.079998e+00   2.496005e+00  -2.559775e+06  -2.830852e+06   5.678029e+06  -8.755188e+13   1.198922e+14   2.034307e+13   6.841505e+06   3.748762e-15   0.000000e+00   0.000000e+00
     2296000   2.295999e-05   4.564923e+00   8.910795e+00   2.725487e+00  -4.666000e+06  -4.991556e+06   3.671695e+05   9.858653e+13  -9.007887e+13   2.875426e+13   6.842660e+06   3.116432e-15   0.000000e+00   0.000000e+00
     2304000   2.303999e-05   4.382176e+00   8.540244e+00   3.017585e+00  -2.992036e+06  -1.524919e+06   5.963081e+06  -9.171081e+13   7.972344e+13  -2.560354e+13   6.843683e+06   2.576506e-15   0.000000e+00   0.000000e+00
     2312000   2.311999e-05   3.969528e+00   8.372938e+00   3.278048e+00  -4.345806e+06  -5.057527e+06   1.543600e+06   9.147916e+13  -6.959744e+13   2.960654e+13   6.844509e+06   2.354190e-15   0.000000e+00   0.000000e+00
     2320000   2.319999e-05   3.825967e+00   8.016696e+00   3.618727e+00  -1.845521e+06  -1.458981e+06   6.428353e+06  -7.560382e+13   8.338885e+13  -2.759484e+12   6.845312e+06   2.118916e-15   0.000000e+00   0.000000e+00
     2328000   2.327999e-05   3.464998e+00   7.904674e+00   3.977188e+00  -4.906946e+06  -4.024215e+06   2.568111e+06   6.781594e+13  -8.519219e+13  -3.872028e+12   6.845993e+06   1.984551e-15   0.000000e+00   0.000000e+00
     2336000   2.335999e-05   3.320913e+00   7.546269e+00   4.320465e+00  -2.843297e+05  -2.092645e+06   6.512864e+06  -3.515088e+13   9.887597e+13   3.025353e+13   6.846707e+06   1.994346e-15   0.000000e+00   0.000000e+00
     2344000   2.343999e-05   3.069545e+00   7.497462e+00   4.774716e+00  -5.214227e+06  -2.246785e+06   3.827550e+06   1.681506e+13  -9.845198e+13  -3.485545e+13   6.847361e+06   1.871409e-15   0.000000e+00   0.000000e+00
     2352000   2.351999e-05   2.881840e+00   7.164058e+00   5.123056e+00   5.611125e+05  -3.010761e+06   6.125073e+06   1.958399e+13   9.957591e+13   4.717262e+13   6.848069e+06   2.094932e-15   0.000000e+00   0.000000e+00
     2360000   2.359999e-05   2.753368e+00   7.143196e+00   5.624624e+00  -4.736544e+06  -5.453191e+05   4.916682e+06  -3.779661e+13  -9.372286e+13  -4.678158e+13   6.848794e+06   2.074757e-15   0.000000e+00   0.000000e+00
     2368000   2.367999e-05   2.530983e+00   6.862600e+00   5.995035e+00   7.329189e+05  -3.550772e+06   5.811335e+06   6.092135e+13   9.034857e+13   4.754469e+13   6.849581e+06   2.365375e-15   0.000000e+00   0.000000e+00
     2376000   2.375999e-05   2.482323e+00   6.850839e+00   6.506234e+00  -4.108530e+06   4.438545e+05   5.463639e+06  -6.979698e+13  -8.812963e+13  -4.529936e+13   6.850429e+06   2.458976e-15   0.000000e+00   0.000000e+00
     2384000   2.383999e-05   2.262197e+00   6.611954e+00   6.901089e+00   9.719912e+05  -3.482865e+06   5.819430e+06   7.638749e+13   9.296077e+13   4.290540e+13   6.851342e+06   2.732067e-15   0.000000e+00   0.000000e+00
     2392000   2.391999e-05   2.237910e+00   6.622913e+00   7.409173e+00  -4.073790e+06   5.617329e+05   5.481175e+06  -7.034156e+13  -1.053802e+14  -4.144796e+13   6.852342e+06   2.976241e-15   0.000000e+00   0.000000e+00
     2400000   2.399999e-05   2.060757e+00   6.389477e+00   7.821162e+00   1.724436e+06  -2.599834e+06   6.102192e+06   5.434908e+13   1.227257e+14   3.696030e+13   6.853435e+06   3.247024e-15   0.000000e+00   0.000000e+00
     2408000   2.407999e-05   2.002411e+00   6.440790e+00   8.317984e+00  -4.484417e+06  -6.126453e+05   5.147886e+06  -1.525763e+13  -1.430133e+14  -3.026913e+13   6.854637e+06   3.620262e-15   0.000000e+00   0.000000e+00
     2416000   2.415999e-05   1.923472e+00   6.205500e+00   8.750858e+00   2.167753e+06  -2.832491e+05   6.498053e+06  -3.717559e+13   1.475510e+14   1.886969e+13   6.855952e+06   3.941440e-15   0.000000e+00   0.000000e+00
     2424000   2.423999e-05   1.766915e+00   6.253227e+00   9.218804e+00  -3.502656e+06  -3.309273e+06   4.878966e+06   1.123773e+14  -1.169026e+14   1.438726e+12   6.857419e+06   4.410723e-15   0.000000e+00   0.000000e+00
     2432000   2.431999e-05   1.810937e+00   6.104085e+00   9.685642e+00  -2.709061e+05   2.485999e+06   6.386889e+06  -1.633285e+14   4.097178e+13  -2.283017e+13   6.859004e+06   4.845528e-15   0.000000e+00   0.000000e+00
     2440000   2.439999e-05   1.599836e+00   6.014357e+00   1.011677e+01   8.566387e+05  -3.985332e+06   5.518448e+06   1.497548e+14   8.308998e+13   3.681509e+13   6.860756e+06   5.151905e-15   0.000000e+00   0.000000e+00
     2448000   2.447999e-05   1.602002e+00   6.048968e+00   1.059938e+01  -4.491551e+06  -7.921404e+04   5.188067e+06  -3.432296e+13  -1.811006e+14  -3.241262e+13   6.862678e+06   5.883854e-15   0.000000e+00   0.000000e+00
     2456000   2.455999e-05   1.566944e+00   5.860488e+00   1.103907e+01   1.743976e+06   1.699791e+06   6.418290e+06  -1.343404e+14   1.419115e+14  -1.020764e+12   6.864779e+06   6.418713e-15   0.000000e+00   0.000000e+00
     2464000   2.463999e-05   1.382457e+00   5.825777e+00   1.147501e+01   3.743078e+05  -4.361114e+06   5.291329e+06   1.902173e+14   6.166757e+13   3.744870e+13   6.867138e+06   6.961674e-15   0.000000e+00   0.000000e+00
     2472000   2.471999e-05   1.376214e+00   5.850115e+00   1.194376e+01  -4.705801e+06  -8.488148e+05   4.932362e+06   7.887218e+12  -2.162906e+14  -2.959998e+13   6.869734e+06   8.032755e-15   0.000000e+00   0.000000e+00
     2480000   2.479999e-05   1.375445e+00   5.707990e+00   1.238631e+01  -4.449038e+05   3.061232e+06   6.137076e+06  -2.268594e+14   3.348676e+13  -3.306209e+13   6.872612e+06   9.043432e-15   0.000000e+00   0.000000e+00
     2488000   2.487999e-05   1.234310e+00   5.587582e+00   1.280454e+01   3.079672e+06  -1.183457e+06   6.032634e+06   1.770143e+13   2.375270e+14   3.765684e+13   6.875873e+06   9.805857e-15   0.000000e+00   0.000000e+00
     2496000   2.495999e-05   1.105080e+00   5.578745e+00   1.323570e+01  -1.531881e+05  -4.816562e+06   4.909805e+06   2.516963e+14   3.857284e+13   4.582968e+13   6.879602e+06   1.130051e-14   0.000000e+00   0.000000e+00
     2504000   2.503999e-05   1.058856e+00   5.574362e+00   1.367579e+01  -4.214019e+06  -3.257685e+06   4.360846e+06   1.688775e+14  -2.254281e+14  -5.028233e+12   6.883854e+06   1.341423e-14   0.000000e+00   0.000000e+00
     2512000   2.511999e-05   1.036301e+00   5.517397e+00   1.410624e+01  -5.139126e+06   1.179625e+05   4.585933e+06  -5.745963e+13  -2.943001e+14  -5.661764e+13   6.888781e+06   1.576195e-14   0.000000e+00   0.000000e+00
     2520000   2.519999e-05   9.913345e-01   5.434515e+00   1.452143e+01  -4.223446e+06   2.240792e+06   4.967566e+06  -2.206755e+14  -2.360420e+14  -8.092097e+13   6.894588e+06   1.881371e-14   0.000000e+00   0.000000e+00
     2528000   2.527999e-05   9.240883e-01   5.358386e+00   1.492429e+01  -3.681651e+06   2.921041e+06   5.054135e+06  -2.892206e+14  -2.046923e+14  -9.211356e+13   6.901544e+06   2.277126e-14   0.000000e+00   0.000000e+00
     2536000   2.535999e-05   8.410171e-01   5.300407e+00   1.531579e+01  -4.512912e+06   2.408958e+06   4.645328e+06  -2.625635e+14  -2.914362e+14  -1.035928e+14   6.910031e+06   2.803439e-14   0.000000e+00   0.000000e+00
     2544000   2.543999e-05   7.329547e-01   5.248600e+00   1.568950e+01  -5.829176e+06  -4.974923e+05   3.696961e+06  -1.205382e+13  -4.466907e+14  -7.855926e+13   6.920572e+06   3.516550e-14   0.000000e+00   0.000000e+00
     2552000   2.551999e-05   6.114404e-01   5.151541e+00   1.603585e+01  -2.664580e+06  -5.510103e+06   3.258519e+06   4.691354e+14  -1.935111e+14   5.720108e+13   6.933914e+06   4.472672e-14   0.000000e+00   0.000000e+00
     2560000   2.559999e-05   5.892797e-01   5.020209e+00   1.637584e+01   4.517227e+06  -1.259056e+06   5.130820e+06   3.803669e+13   5.645053e+14   1.056822e+14   6.950962e+06   5.709043e-14   0.000000e+00   0.000000e+00
     2568000   2.567999e-05   5.554626e-01   5.052866e+00   1.671723e+01  -5.480050e+06   2.637626e+06   3.411634e+06  -3.665847e+14  -5.329021e+14  -1.755212e+14   6.973325e+06   7.790883e-14   0.000000e+00   0.000000e+00
     2576000   2.575999e-05   4.573948e-01   4.917553e+00   1.698453e+01   5.009278e+06  -2.462361e+06   4.228792e+06   2.130737e+14   7.119806e+14   1.635450e+14   7.002769e+06   1.012867e-13   0.000000e+00   0.000000e+00
     2584000   2.583999e-05   3.835265e-01   4.944586e+00   1.724621e+01  -4.259138e+06  -5.445532e+06   1.338601e+06   7.020836e+14  -5.389382e+14   4.730406e+13   7.041728e+06   1.389541e-13   0.000000e+00   0.000000e+00
     2592000   2.591999e-05   3.808579e-01   4.922968e+00   1.746527e+01  -7.019921e+06   1.602443e+05   9.981153e+05  -4.995740e+13  -9.936582e+14  -1.815829e+14   7.092335e+06   1.835218e-13   0.000000e+00   0.000000e+00
     2600000   2.599999e-05   3.564140e-01   4.893523e+00   1.761974e+01  -7.046661e+06   1.188712e+06   3.713027e+05  -1.964074e+14  -1.081669e+15  -2.305566e+14   7.155860e+06   2.304696e-13   0.000000e+00   0.000000e+00
     2608000   2.607999e-05   3.169943e-01   4.874965e+00   1.770666e+01  -6.754276e+06  -2.370571e+06  -1.022564e+06   4.090956e+14  -1.126149e+15  -1.056133e+14   7.230870e+06   2.698394e-13   0.000000e+00   0.000000e+00
     2616000   2.615999e-05   2.891476e-01   4.846039e+00   1.771914e+01  -2.485860e+06  -6.637105e+06  -1.800673e+06   1.127160e+15  -4.620211e+14   1.385531e+14   7.312529e+06   2.867462e-13   0.000000e+00   0.000000e+00
     2624000   2.623999e-05   3.009768e-01   4.821562e+00   1.766319e+01   2.952205e+06  -6.560166e+06  -1.705652e+06   1.083400e+15   4.150543e+14   2.705127e+14   7.393276e+06   2.767492e-13   0.000000e+00   0.000000e+00
     2632000   2.631999e-05   3.319495e-01   4.830610e+00   1.754160e+01   4.582111e+06  -5.513004e+06  -2.086542e+06   8.792206e+14   6.259974e+14   2.708678e+14   7.466098e+06   2.462535e-13   0.000000e+00   0.000000e+00
     2640000   2.639999e-05   3.617503e-01   4.885172e+00   1.735900e+01   1.132699e+06  -6.417784e+06  -3.766033e+06   9.816669e+14   5.671166e+13   1.959401e+14   7.526883e+06   2.031942e-13   0.000000e+00   0.000000e+00
     2648000   2.647999e-05   4.546906e-01   4.979409e+00   1.713519e+01  -5.803968e+06  -1.537257e+05  -4.864866e+06   1.293493e+14  -8.781837e+14  -1.282221e+14   7.574734e+06   1.646683e-13   0.000000e+00   0.000000e+00
     2656000   2.655999e-05   5.627724e-01   4.941377e+00   1.684049e+01   5.303941e+06   5.040321e+06  -2.095971e+06  -5.346346e+14   5.581660e+14  -1.350703e+13   7.611158e+06   1.235064e-13   0.000000e+00   0.000000e+00
     2664000   2.663999e-05   5.691651e-01   5.087226e+00   1.651533e+01  -4.310367e+06  -2.132233e+06  -5.935196e+06   3.356954e+14  -5.872769e+14  -3.358720e+13   7.638863e+06   9.550493e-14   0.000000e+00   0.000000e+00
     2672000   2.671999e-05   6.438420e-01   5.052980e+00   1.613861e+01   5.868118e+06  -2.483562e+06  -4.250757e+06   3.092030e+14   4.781955e+14   1.466453e+14   7.659753e+06   7.238411e-14   0.000000e+00   0.000000e+00
     2680000   2.679999e-05   8.001902e-01   5.124219e+00   1.577085e+01   5.087662e+06   4.636717e+06  -3.396371e+06  -3.510282e+14   3.825885e+14  -4.314627e+12   7.675857e+06   5.667688e-14   0.000000e+00   0.000000e+00
     2688000   2.687999e-05   9.068202e-01   5.234749e+00   1.537728e+01   1.495027e+06   6.324007e+06  -4.109061e+06  -4.541958e+14   4.947331e+13  -8.963931e+13   7.688469e+06   4.571904e-14   0.000000e+00   0.000000e+00
     2696000   2.695999e-05   9.957423e-01   5.322323e+00   1.495733e+01   3.595128e+05   6.165113e+06  -4.596699e+06  -4.068867e+14  -4.642140e+13  -9.446792e+13   7.698539e+06   3.735095e-14   0.000000e+00   0.000000e+00
     2704000   2.703999e-05   1.086005e+00   5.381541e+00   1.451781e+01   1.490950e+06   6.014223e+06  -4.582576e+06  -3.719689e+14   4.004273e+13  -6.878408e+13   7.706738e+06   3.066218e-14   0.000000e+00   0.000000e+00
     2712000   2.711999e-05   1.160453e+00   5.417044e+00   1.405950e+01   4.128562e+06   4.748570e+06  -4.461515e+06  -2.675230e+14   2.193757e+14  -1.433666e+13   7.713563e+06   2.545301e-14   0.000000e+00   0.000000e+00
     2720000   2.719999e-05   1.191176e+00   5.462373e+00   1.358550e+01   5.856937e+06   8.437892e+05  -4.957092e+06  -2.584455e+12   3.144051e+14   5.025946e+13   7.719355e+06   2.155476e-14   0.000000e+00   0.000000e+00
     2728000   2.727999e-05   1.206714e+00   5.579764e+00   1.311274e+01   2.956097e+06  -3.434749e+06  -6.255358e+06   2.647660e+14   1.148849e+14   6.189927e+13   7.724346e+06   1.854868e-14   0.000000e+00   0.000000e+00
     2736000   2.735999e-05   1.316409e+00   5.747383e+00   1.265641e+01  -2.783283e+06  -1.610532e+06  -7.027959e+06   1.562574e+14  -2.329551e+14  -8.610543e+12   7.728692e+06   1.678560e-14   0.000000e+00   0.000000e+00
     2744000   2.743999e-05   1.511115e+00   5.795165e+00   1.218973e+01  -1.327750e+06   4.867592e+06  -5.859592e+06  -2.236722e+14  -1.337304e+14  -6.052984e+13   7.732476e+06   1.526940e-14   0.000000e+00   0.000000e+00
     2752000   2.751999e-05   1.554439e+00   5.750329e+00   1.167724e+01   5.238696e+06   2.273551e+06  -5.218302e+06  -7.881307e+13   2.334413e+14   2.246914e+13   7.735867e+06   1.306962e-14   0.000000e+00   0.000000e+00
     2760000   2.759999e-05   1.530125e+00   5.904579e+00   1.117909e+01   8.957603e+05  -3.459816e+06  -6.864284e+06   2.305233e+14  -1.091910e+13   3.550647e+13   7.738935e+06   1.165053e-14   0.000000e+00   0.000000e+00
     2768000   2.767999e-05   1.743798e+00   6.043643e+00   1.071376e+01  -2.515215e+06   3.373510e+06  -6.498173e+06  -1.193155e+14  -1.865341e+14  -5.073528e+13   7.741649e+06   1.103513e-14   0.000000e+00   0.000000e+00
     2776000   2.775999e-05   1.816703e+00   5.968714e+00   1.018730e+01   5.148230e+06   2.213915e+06  -5.344667e+06  -6.444378e+13   2.008669e+14   2.104557e+13   7.744105e+06   9.616660e-15   0.000000e+00   0.000000e+00
     2784000   2.783999e-05   1.806756e+00   6.171414e+00   9.685225e+00  -6.788803e+05  -2.658418e+06  -7.244182e+06   1.789260e+14  -9.277775e+13   1.722258e+13   7.746369e+06   8.760762e-15   0.000000e+00   0.000000e+00
     2792000   2.791999e-05   2.070953e+00   6.225429e+00   9.209312e+00   6.611854e+05   5.200281e+06  -5.705914e+06  -1.891632e+14  -2.311342e+13  -4.305182e+13   7.748390e+06   8.176413e-15   0.000000e+00   0.000000e+00
     2800000   2.799999e-05   2.022596e+00   6.248801e+00   8.659529e+00   3.890146e+06  -2.034181e+06  -6.387121e+06   1.382429e+14   1.103942e+14   4.898707e+13   7.750255e+06   7.221866e-15   0.000000e+00   0.000000e+00
     2808000   2.807999e-05   2.247432e+00   6.478502e+00   8.203159e+00  -2.006501e+06   3.220036e+06  -6.760009e+06  -7.715978e+13  -1.521535e+14  -4.962040e+13   7.751929e+06   6.768061e-15   0.000000e+00   0.000000e+00
     2816000   2.815999e-05   2.315891e+00   6.412940e+00   7.649223e+00   5.398587e+06   4.583944e+05  -5.546280e+06   3.141869e+13   1.590954e+14   4.368025e+13   7.753457e+06   6.050044e-15   0.000000e+00   0.000000e+00
     2824000   2.823999e-05   2.468661e+00   6.709462e+00   7.190285e+00  -1.971964e+06   1.628685e+06  -7.320959e+06   7.433301e+12  -1.571347e+14  -3.699545e+13   7.754850e+06   5.603516e-15   0.000000e+00   0.000000e+00
     2832000   2.831999e-05   2.633589e+00   6.646086e+00   6.649184e+00   5.645367e+06   1.760964e+06  -5.018606e+06  -1.308732e+13   1.491871e+14   3.757855e+13   7.756131e+06   5.117072e-15   0.000000e+00   0.000000e+00
     2840000   2.839999e-05   2.780647e+00   6.972422e+00   6.199045e+00  -1.325000e+06   1.630191e+06  -7.467430e+06   2.537100e+13  -1.417105e+14  -3.546757e+13   7.757297e+06   4.719937e-15   0.000000e+00   0.000000e+00
     2848000   2.847999e-05   2.990027e+00   6.935461e+00   5.665055e+00   5.976086e+06   1.847497e+06  -4.589773e+06  -6.053066e+12   1.366846e+14   4.709196e+13   7.758405e+06   4.496569e-15   0.000000e+00   0.000000e+00
     2856000   2.855999e-05   3.198727e+00   7.293761e+00   5.258749e+00  -6.082328e+05   2.849048e+06  -7.191771e+06   3.556705e+12  -1.287610e+14  -5.133670e+13   7.759419e+06   4.130437e-15   0.000000e+00   0.000000e+00
     2864000   2.863999e-05   3.418830e+00   7.301933e+00   4.724499e+00   6.365644e+06   1.267522e+06  -4.253984e+06   2.342605e+13   1.206398e+14   7.095326e+13   7.760439e+06   4.327014e-15   0.000000e+00   0.000000e+00
     2872000   2.871999e-05   3.720208e+00   7.677167e+00   4.398427e+00   2.957132e+05   4.480857e+06  -6.330418e+06  -2.821857e+13  -1.089905e+14  -7.849459e+13   7.761425e+06   4.048510e-15   0.000000e+00   0.000000e+00
     2880000   2.879999e-05   3.953502e+00   7.758263e+00   3.877031e+00   6.668721e+06   8.585320e+05  -3.879078e+06   4.536247e+13   9.953427e+13   9.995764e+13   7.762484e+06   4.720366e-15   0.000000e+00   0.000000e+00
     2888000   2.887999e-05   4.320978e+00   8.136723e+00   3.643937e+00   1.059541e+06   5.539961e+06  -5.334762e+06  -3.918052e+13  -9.481799e+13  -1.062877e+14   7.763600e+06   4.692905e-15   0.000000e+00   0.000000e+00
     2896000   2.895999e-05   4.605337e+00   8.278641e+00   3.170800e+00   7.187931e+06   1.206517e+06  -2.677921e+06   3.004566e+13   1.030430e+14   1.269690e+14   7.764876e+06   5.946267e-15   0.000000e+00   0.000000e+00
     2904000   2.903999e-05   4.960107e+00   8.687723e+00   3.006933e+00   1.301398e+06   5.166589e+06  -5.650577e+06   1.666530e+13  -1.303049e+14  -1.153598e+14   7.766357e+06   6.577518e-15   0.000000e+00   0.000000e+00
     2912000   2.911999e-05   5.357115e+00   8.833917e+00   2.651398e+00   6.956507e+06   3.442417e+06   3.182113e+05  -8.279141e+13   1.599469e+14   8.084191e+13   7.768171e+06   8.390885e-15   0.000000e+00   0.000000e+00
     2920000   2.919999e-05   5.619401e+00   9.261337e+00   2.431292e+00   4.071738e+06   1.601304e+06  -6.421477e+06   1.572800e+14  -1.390047e+14   6.498996e+13   7.770366e+06   1.040099e-14   0.000000e+00   0.000000e+00
     2928000   2.927999e-05   6.076720e+00   9.508067e+00   2.332883e+00   1.959007e+06   7.388263e+06  -1.413510e+06  -1.054389e+14  -1.420576e+13  -2.208065e+14   7.773168e+06   1.295076e-14   0.000000e+00   0.000000e+00
     2936000   2.935999e-05   6.441177e+00   9.739880e+00   2.052852e+00   6.807193e+06   3.148238e+06   2.056029e+06  -1.331075e+14   2.143487e+14   1.128543e+14   7.776666e+06   1.648464e-14   0.000000e+00   0.000000e+00
     2944000   2.943999e-05   6.731830e+00   1.010259e+01   1.861927e+00   7.207490e+06  -1.475612e+05  -2.928380e+06   1.169047e+14  -7.763847e+12   2.877938e+14   7.781073e+06   2.085682e-14   0.000000e+00   0.000000e+00
     2952000   2.951999e-05   7.064410e+00   1.044614e+01   1.782534e+00   4.328839e+06   1.729825e+06  -6.237004e+06   2.336613e+14  -2.383324e+14   9.587985e+13   7.786614e+06   2.608694e-14   0.000000e+00   0.000000e+00
     2960000   2.959999e-05   7.421654e+00   1.073805e+01   1.712550e+00   2.239950e+06   4.180897e+06  -6.184014e+06   2.107146e+14  -2.989015e+14  -1.259995e+14   7.793543e+06   3.242367e-14   0.000000e+00   0.000000e+00
     2968000   2.967999e-05   7.766684e+00   1.101352e+01   1.625457e+00   1.549456e+06   5.061971e+06  -5.731418e+06   1.974125e+14  -3.117917e+14  -2.223280e+14   7.802148e+06   4.031361e-14   0.000000e+00   0.000000e+00
     2976000   2.975999e-05   8.089657e+00   1.128771e+01   1.524730e+00   2.032475e+06   4.174470e+06  -6.283434e+06   2.638763e+14  -3.647291e+14  -1.573188e+14   7.812727e+06   4.952463e-14   0.000000e+00   0.000000e+00
     2984000   2.983999e-05   8.402486e+00   1.154636e+01   1.406921e+00   4.261355e+06   1.302989e+06  -6.432932e+06   3.413572e+14  -3.696401e+14   1.508251e+14   7.825570e+06   6.028476e-14   0.000000e+00   0.000000e+00
     2992000   2.991999e-05   8.736384e+00   1.175775e+01   1.296645e+00   7.426260e+06  -1.588295e+06  -1.952042e+06   1.398665e+14  -3.448600e+13   5.584576e+14   7.841077e+06   7.296702e-14   0.000000e+00   0.000000e+00
     3000000   2.999999e-05   9.083442e+00   1.194975e+01   1.284644e+00   5.276801e+06   2.335090e+06   5.336326e+06  -3.729522e+14   4.816807e+14   1.587590e+14   7.859622e+06   8.734965e-14   0.000000e+00   0.000000e+00
     3008000   3.007999e-05   9.329408e+00   1.224176e+01   1.308917e+00  -7.530111e+05   7.714152e+06  -1.429542e+06  -1.878038e+13  -1.257864e+14  -6.721546e+14   7.881545e+06   1.037202e-13   0.000000e+00   0.000000e+00
     3016000   3.015999e-05   9.568112e+00   1.247555e+01   1.155583e+00   6.286404e+06  -1.740890e+06  -4.469211e+06   3.362558e+14  -2.956170e+14   5.869106e+14   7.907175e+06   1.215642e-13   0.000000e+00   0.000000e+00
     3024000   3.023999e-05   9.883103e+00   1.262450e+01   1.195818e+00   1.192603e+06   5.845376e+06   5.234788e+06  -4.664504e+14   4.809937e+14  -4.296188e+14   7.936859e+06   1.423896e-13   0.000000e+00   0.000000e+00
     3032000   3.031999e-05   1.005386e+01   1.289020e+01   1.094942e+00   5.052203e+06  -1.224343e+06  -6.042497e+06   4.772159e+14  -4.971267e+14   4.985374e+14   7.970919e+06   1.639987e-13   0.000000e+00   0.000000e+00
     3040000   3.039999e-05   1.033000e+01   1.302087e+01   1.148987e+00  -1.089438e+06   7.312084e+06   3.082213e+06  -3.432061e+14   2.834500e+14  -7.910785e+14   8.009587e+06   1.886085e-13   0.000000e+00   0.000000e+00
     3048000   3.047999e-05   1.052088e+01   1.319112e+01   1.018670e+00   7.099178e+06  -3.275553e+06   1.929828e+06  -1.196558e+14   2.754764e+14   9.125294e+14   8.053062e+06   2.135681e-13   0.000000e+00   0.000000e+00
     3056000   3.055999e-05   1.066691e+01   1.340569e+01   1.055906e+00   1.199971e+06   2.036360e+06  -7.749024e+06   6.316229e+14  -7.869737e+14  -1.103283e+14   8.101485e+06   2.413331e-13   0.000000e+00   0.000000e+00
     3064000   3.063999e-05   1.088318e+01   1.349601e+01   1.084926e+00  -2.687093e+06   7.582416e+06   1.337202e+06  -2.120219e+14   1.099056e+14  -1.040734e+15   8.154852e+06   2.705627e-13   0.000000e+00   0.000000e+00
     3072000   3.071999e-05   1.105960e+01   1.358333e+01   1.013307e+00   2.324697e+06   1.814401e+06   7.665421e+06  -7.108415e+14   8.605472e+14   1.351179e+13   8.213095e+06   2.999277e-13   0.000000e+00   0.000000e+00
     3080000   3.079999e-05   1.116949e+01   1.371407e+01   9.500758e-01   6.341764e+06  -4.154124e+06   3.319455e+06  -2.583901e+14   4.367693e+14   1.044305e+15   8.276080e+06   3.295055e-13   0.000000e+00   0.000000e+00
     3088000   3.087999e-05   1.125272e+01   1.384352e+01   9.383710e-01   5.792278e+06  -4.834145e+06  -3.562932e+06   3.838887e+14  -3.441881e+14   1.087018e+15   8.343496e+06   3.595830e-13   0.000000e+00   0.000000e+00
     3096000   3.095999e-05   1.133033e+01   1.394149e+01   9.556686e-01   2.873834e+06  -2.262515e+06  -7.578499e+06   7.392357e+14  -8.444843e+14   5.304071e+14   8.414959e+06   3.894109e-13   0.000000e+00   0.000000e+00
     3104000   3.103999e-05   1.140092e+01   1.400597e+01   9.776967e-01  -1.799331e+05   8.407952e+05  -8.446300e+06   7.959254e+14  -9.886596e+14  -1.172964e+14   8.489953e+06   4.179381e-13   0.000000e+00   0.000000e+00
     3112000   3.111999e-05   1.145752e+01   1.404344e+01   9.951714e-01  -2.550066e+06   3.298905e+06  -7.484829e+06   6.828798e+14  -9.091901e+14  -6.356445e+14   8.567863e+06   4.445967e-13   0.000000e+00   0.000000e+00
     3120000   3.119999e-05   1.149507e+01   1.405873e+01   1.007500e+00  -4.206129e+06   4.952941e+06  -5.706581e+06   4.955020e+14  -7.208328e+14  -9.939258e+14   8.648018e+06   4.679205e-13   0.000000e+00   0.000000e+00
     3128000   3.127999e-05   1.151166e+01   1.405339e+01   1.016520e+00  -5.318535e+06   5.975547e+06  -3.494596e+06   2.704348e+14  -4.719388e+14  -1.223702e+15   8.729615e+06   4.877676e-13   0.000000e+00   0.000000e+00
     3136000   3.135999e-05   1.150711e+01   1.402691e+01   1.023037e+00  -5.948951e+06   6.447605e+06  -8.283940e+05   5.997143e+12  -1.634161e+14  -1.336875e+15   8.811803e+06   5.027399e-13   0.000000e+00   0.000000e+00
     3144000   3.143999e-05   1.148156e+01   1.397804e+01   1.025449e+00  -5.921385e+06   6.178196e+06   2.421724e+06  -3.047962e+14   2.179737e+14  -1.293853e+15   8.893686e+06   5.122828e-13   0.000000e+00   0.000000e+00
     3152000   3.151999e-05   1.143390e+01   1.390713e+01   1.018868e+00  -4.771637e+06   4.596507e+06   6.053335e+06  -6.315309e+14   6.482321e+14  -9.870768e+14   8.974367e+06   5.155667e-13   0.000000e+00   0.000000e+00
     3160000   3.159999e-05   1.135818e+01   1.382005e+01   9.968105e-01  -1.988211e+06   9.394356e+05   8.781852e+06  -8.392678e+14   9.800285e+14  -2.928550e+14   9.052980e+06   5.121443e-13   0.000000e+00   0.000000e+00
     3168000   3.167999e-05   1.124116e+01   1.373228e+01   9.614223e-01   1.962943e+06  -4.591766e+06   7.641694e+06  -6.570016e+14   8.767217e+14   6.977811e+14   9.128688e+06   5.019025e-13   0.000000e+00   0.000000e+00
     3176000   3.175999e-05   1.107183e+01   1.366046e+01   9.456825e-01   3.810895e+06  -8.374320e+06   3.383159e+04   8.886584e+13   4.362631e+13   1.263319e+15   9.200722e+06   4.852677e-13   0.000000e+00   0.000000e+00
     3184000   3.183999e-05   1.087808e+01   1.357858e+01   1.008078e+00  -1.220816e+06  -3.988509e+06  -8.276773e+06   7.725823e+14  -9.019883e+14   3.188787e+14   9.268417e+06   4.637390e-13   0.000000e+00   0.000000e+00
     3192000   3.191999e-05   1.073096e+01   1.339658e+01   1.108158e+00  -8.007775e+06   4.471493e+06  -1.718214e+06   8.904749e+13  -2.790832e+14  -1.149485e+15   9.331182e+06   4.374084e-13   0.000000e+00   0.000000e+00
     3200000   3.199999e-05   1.057144e+01   1.315924e+01   1.059905e+00  -1.270428e+06  -2.745239e+06   8.887950e+06  -7.032941e+14   8.715449e+14   1.701119e+14   9.388609e+06   4.038024e-13   0.000000e+00   0.000000e+00
     3208000   3.207999e-05   1.026256e+01   1.305887e+01   1.057274e+00  -2.078969e+05  -6.974600e+06  -6.358766e+06   5.889370e+14  -6.151638e+14   6.536737e+14   9.440454e+06   3.667339e-13   0.000000e+00   0.000000e+00
     3216000   3.215999e-05   1.007484e+01   1.278675e+01   1.194163e+00  -7.613464e+06   3.171786e+06   4.687157e+06  -4.015001e+14   3.269062e+14  -8.711918e+14   9.486543e+06   3.300001e-13   0.000000e+00   0.000000e+00
     3224000   3.223999e-05   9.740553e+00   1.260558e+01   1.114044e+00   4.236280e+05  -8.648799e+06  -3.972577e+06   3.980460e+14  -3.421713e+14   7.851515e+14   9.526938e+06   2.890557e-13   0.000000e+00   0.000000e+00
     3232000   3.231999e-05   9.519543e+00   1.228210e+01   1.255407e+00  -5.451075e+06   1.431708e+05   7.854483e+06  -5.437186e+14   5.703432e+14  -3.867603e+14   9.561780e+06   2.515229e-13   0.000000e+00   0.000000e+00
     3240000   3.239999e-05   9.115727e+00   1.211751e+01   1.318448e+00  -7.508068e+06  -8.922863e+05  -5.901509e+06   3.930726e+14  -5.699160e+14  -4.150130e+14   9.591406e+06   2.140144e-13   0.000000e+00   0.000000e+00
     3248000   3.247999e-05   8.781362e+00   1.179976e+01   1.274530e+00  -4.631888e+05  -9.206454e+06  -2.738106e+06   2.955451e+14  -2.056835e+14   6.396152e+14   9.616162e+06   1.778835e-13   0.000000e+00   0.000000e+00
     3256000   3.255999e-05   8.477492e+00   1.143045e+01   1.354699e+00  -1.277376e+05  -8.080713e+06   5.248623e+06  -1.774890e+14   3.503209e+14   5.358709e+14   9.636508e+06   1.463513e-13   0.000000e+00   0.000000e+00
     3264000   3.263999e-05   8.126693e+00   1.108948e+01   1.482694e+00  -2.173671e+06  -5.228157e+06   7.817998e+06  -3.284172e+14   4.508757e+14   2.106592e+14   9.652956e+06   1.182865e-13   0.000000e+00   0.000000e+00
     3272000   3.271999e-05   7.738619e+00   1.075030e+01   1.595848e+00  -2.666048e+06  -4.815338e+06   7.945914e+06  -3.052728e+14   4.084875e+14   1.454767e+14   9.666067e+06   9.381910e-14   0.000000e+00   0.000000e+00
     3280000   3.279999e-05   7.315524e+00   1.040583e+01   1.687485e+00  -1.427817e+06  -6.922671e+06   6.608253e+06  -1.752949e+14   3.175740e+14   2.951398e+14   9.676314e+06   7.311362e-14   0.000000e+00   0.000000e+00
     3288000   3.287999e-05   6.838263e+00   1.009283e+01   1.801593e+00  -1.192561e+06  -9.454064e+06   1.727041e+06   9.393273e+13   5.984860e+13   3.934503e+14   9.684224e+06   5.599353e-14   0.000000e+00   0.000000e+00
     3296000   3.295999e-05   6.363800e+00   9.808192e+00   2.059825e+00  -6.196947e+06  -6.693864e+06  -3.269789e+06   2.428198e+14  -2.541694e+14   5.974786e+13   9.690278e+06   4.262741e-14   0.000000e+00   0.000000e+00
     3304000   3.303999e-05   6.043703e+00   9.374097e+00   2.387272e+00  -9.068406e+06  -2.804526e+05   3.417000e+06  -1.052815e+14  -5.962674e+13  -2.840224e+14   9.694871e+06   3.198664e-14   0.000000e+00   0.000000e+00
     3312000   3.311999e-05   5.614893e+00   8.883825e+00   2.467709e+00  -1.492079e+06  -6.437178e+06   7.098943e+06  -7.211482e+13   2.035677e+14   1.695399e+14   9.698379e+06   2.531845e-14   0.000000e+00   0.000000e+00
     3320000   3.319999e-05   5.086728e+00   8.673921e+00   2.849520e+00  -7.555192e+06  -6.060688e+06  -5.451801e+05   1.502606e+14  -1.861454e+14  -1.403598e+13   9.701035e+06   1.929705e-14   0.000000e+00   0.000000e+00
     3328000   3.327999e-05   4.855848e+00   8.124294e+00   3.197270e+00  -3.293514e+06  -2.088368e+06   8.885023e+06  -1.519840e+14   1.499302e+14  -2.104574e+13   9.703202e+06   1.547216e-14   0.000000e+00   0.000000e+00
     3336000   3.335999e-05   4.282099e+00   7.911353e+00   3.562656e+00  -5.879128e+06  -7.530246e+06   1.707735e+06   1.571120e+14  -1.108910e+14   5.214045e+13   9.704901e+06   1.335098e-14   0.000000e+00   0.000000e+00
     3344000   3.343999e-05   4.142020e+00   7.418215e+00   4.053805e+00  -2.241377e+06  -1.072917e+06   9.382996e+06  -1.377581e+14   1.253398e+14  -1.853763e+13   9.706469e+06   1.178506e-14   0.000000e+00   0.000000e+00
     3352000   3.351999e-05   3.627311e+00   7.268666e+00   4.540740e+00  -6.168573e+06  -6.618971e+06   3.518487e+06   1.383851e+14  -1.188874e+14   1.906006e+13   9.707822e+06   1.132244e-14   0.000000e+00   0.000000e+00
     3360000   3.359999e-05   3.531673e+00   6.797088e+00   5.071413e+00   2.783426e+04  -9.825827e+05   9.659339e+06  -1.047046e+14   1.497281e+14   1.556740e+13   9.709226e+06   1.131788e-14   0.000000e+00   0.000000e+00
     3368000   3.367999e-05   3.132732e+00   6.755011e+00   5.673242e+00  -6.689358e+06  -5.010669e+06   4.943805e+06   1.041760e+14  -1.531133e+14  -1.415605e+13   9.710588e+06   1.161457e-14   0.000000e+00   0.000000e+00
     3376000   3.375999e-05   3.044632e+00   6.309876e+00   6.224598e+00   1.685972e+06  -9.297280e+05   9.519329e+06  -7.604311e+13   1.754502e+14   3.064318e+13   9.712081e+06   1.263133e-14   0.000000e+00   0.000000e+00
     3384000   3.383999e-05   2.742495e+00   6.341485e+00   6.872200e+00  -6.591627e+06  -4.119248e+06   5.825586e+06   9.153045e+13  -1.764929e+14  -2.116246e+13   9.713660e+06   1.346781e-14   0.000000e+00   0.000000e+00
     3392000   3.391999e-05   2.688164e+00   5.946120e+00   7.456464e+00   2.277949e+06   9.795777e+04   9.444041e+06  -9.534682e+13   1.859440e+14   2.111613e+13   9.715377e+06   1.486661e-14   0.000000e+00   0.000000e+00
     3400000   3.399999e-05   2.394334e+00   5.992280e+00   8.094653e+00  -5.612615e+06  -5.019698e+06   6.142249e+06   1.469911e+14  -1.656092e+14  -9.463924e+11   9.717306e+06   1.653206e-14   0.000000e+00   0.000000e+00
     3408000   3.407999e-05   2.435846e+00   5.690022e+00   8.720852e+00   1.074400e+06   2.592163e+06   9.305548e+06  -1.921526e+14   1.355789e+14  -1.552176e+13   9.719407e+06   1.873523e-14   0.000000e+00   0.000000e+00
     3416000   3.415999e-05   2.088984e+00   5.644365e+00   9.314766e+00  -2.093321e+06  -6.800622e+06   6.624456e+06   2.401820e+14  -3.238801e+13   4.273933e+13   9.721825e+06   2.043858e-14   0.000000e+00   0.000000e+00
     3424000   3.423999e-05   2.188690e+00   5.551127e+00   9.982902e+00  -3.867214e+06   3.558484e+06   8.182111e+06  -2.360007e+14  -1.005241e+14  -6.773900e+13   9.724458e+06   2.376746e-14   0.000000e+00   0.000000e+00
     3432000   3.431999e-05   1.923469e+00   5.289779e+00   1.054350e+01   3.625829e+06  -3.777943e+06   8.197762e+06   1.093306e+14   2.396890e+14   6.219378e+13   9.727425e+06   2.475561e-14   0.000000e+00   0.000000e+00
     3440000   3.439999e-05   1.809272e+00   5.382139e+00   1.119046e+01  -6.464058e+06  -3.688943e+06   6.268646e+06   1.306440e+14  -2.641803e+14  -2.060775e+13   9.730790e+06   2.951046e-14   0.000000e+00   0.000000e+00
     3448000   3.447999e-05   1.855693e+00   5.159023e+00   1.180634e+01  -8.543981e+05   4.402943e+06   8.639712e+06  -3.102963e+14   4.459705e+13  -5.329619e+13   9.734502e+06   3.421136e-14   0.000000e+00   0.000000e+00
     3456000   3.455999e-05   1.591368e+00   4.971393e+00   1.235995e+01   3.935312e+06  -4.020739e+06   7.949341e+06   1.388600e+14   2.871427e+14   7.662829e+13   9.738842e+06   3.644060e-14   0.000000e+00   0.000000e+00
     3464000   3.463999e-05   1.435654e+00   5.014823e+00   1.296498e+01  -4.604441e+06  -6.398618e+06   5.727197e+06   3.041550e+14  -1.980513e+14   2.348996e+13   9.743920e+06   4.484704e-14   0.000000e+00   0.000000e+00
     3472000   3.471999e-05   1.451063e+00   4.935123e+00   1.357319e+01  -7.179625e+06   1.515032e+06   6.419986e+06  -1.679238e+14  -3.502449e+14  -1.048879e+14   9.749798e+06   5.494233e-14   0.000000e+00   0.000000e+00
     3480000   3.479999e-05   1.387697e+00   4.727097e+00   1.412835e+01  -1.386654e+06   5.052804e+06   8.230565e+06  -4.330763e+14   3.472396e+13  -9.404024e+13   9.756835e+06   6.716622e-14   0.000000e+00   0.000000e+00
     3488000   3.487999e-05   1.235397e+00   4.549195e+00   1.465060e+01   3.288696e+06   2.948047e+06   8.709714e+06  -3.272467e+14   3.631406e+14   9.241801e+11   9.765532e+06   8.136668e-14   0.000000e+00   0.000000e+00
     3496000   3.495999e-05   1.087373e+00   4.421912e+00   1.516142e+01   4.811376e+06   1.104274e+06   8.438758e+06  -2.176908e+14   5.005062e+14   5.897906e+13   9.776573e+06   1.028497e-13   0.000000e+00   0.000000e+00
     3504000   3.503999e-05   9.820204e-01   4.320011e+00   1.565988e+01   4.435815e+06   2.519306e+06   8.356995e+06  -3.562643e+14   5.249948e+14   3.131930e+13   9.790951e+06   1.381157e-13   0.000000e+00   0.000000e+00
     3512000   3.511999e-05   9.000700e-01   4.270810e+00   1.614085e+01  -6.709455e+05   6.313828e+06   7.478402e+06  -7.220748e+14   1.267327e+14  -1.710224e+14   9.810254e+06   1.947393e-13   0.000000e+00   0.000000e+00
     3520000   3.519999e-05   7.169224e-01   4.261296e+00   1.655641e+01  -9.406527e+06  -4.168272e+05   2.847240e+06  -2.579224e+13  -8.556373e+14  -2.077482e+14   9.836832e+06   2.680980e-13   0.000000e+00   0.000000e+00
     3528000   3.527999e-05   5.771307e-01   4.039747e+00   1.687160e+01   5.683610e+06  -6.752143e+06   4.425764e+06   6.215032e+14   7.268441e+14   3.130530e+14   9.873310e+06   3.524610e-13   0.000000e+00   0.000000e+00
     3536000   3.535999e-05   5.782960e-01   4.087780e+00   1.720622e+01  -9.284299e+06   3.100428e+06   1.631282e+06  -4.242031e+14  -1.066890e+15  -3.776210e+14   9.923302e+06   5.136639e-13   0.000000e+00   0.000000e+00
     3544000   3.543999e-05   5.532851e-01   3.919435e+00   1.738230e+01   6.291630e+06   5.789106e+06   5.163386e+06  -9.034075e+14   9.911796e+14  -7.001730e+12   9.987938e+06   6.407046e-13   0.000000e+00   0.000000e+00
     3552000   3.551999e-05   4.460717e-01   3.890767e+00   1.745111e+01   7.940379e+06  -6.088122e+06   1.092603e+06   7.750134e+14   1.084688e+15   4.296435e+14   1.006522e+07   7.097473e-13   0.000000e+00   0.000000e+00
     3560000   3.559999e-05   4.284914e-01   3.968332e+00   1.743912e+01  -2.258879e+06  -9.130571e+06  -3.804633e+06   1.317621e+15  -4.218843e+14   2.250025e+14   1.014619e+07   7.223707e-13   0.000000e+00   0.000000e+00
     3568000   3.567999e-05   5.600781e-01   4.041373e+00   1.733801e+01  -8.397471e+06   4.144818e+06  -4.092477e+06  -3.969846e+14  -1.208513e+15  -4.137577e+14   1.021985e+07   6.674740e-13   0.000000e+00   0.000000e+00
     3576000   3.575999e-05   6.398587e-01   3.955800e+00   1.706574e+01   9.419769e+06   4.088489e+06  -4.698940e+05  -4.475408e+14   1.050593e+15   1.412373e+14   1.027952e+07   4.996748e-13   0.000000e+00   0.000000e+00
     3584000   3.583999e-05   6.846320e-01   4.182890e+00   1.676163e+01  -7.212091e+06  -5.642052e+05  -7.366980e+06   2.435548e+14  -9.623713e+14  -1.661053e+14   1.032497e+07   3.857623e-13   0.000000e+00   0.000000e+00
     3592000   3.591999e-05   7.528782e-01   4.147247e+00   1.632050e+01   6.640317e+06  -5.585715e+06  -5.655681e+06   6.310599e+14   4.734436e+14   2.721073e+14   1.035764e+07   2.668582e-13   0.000000e+00   0.000000e+00
     3600000   3.599999e-05   9.700389e-01   4.215099e+00   1.588347e+01   9.352271e+06   2.844504e+06  -3.495284e+06  -1.610257e+14   6.895814e+14   1.288538e+14   1.038139e+07   1.994210e-13   0.000000e+00   0.000000e+00
     3608000   3.607999e-05   1.144470e+00   4.342717e+00   1.540279e+01   7.713298e+06   5.892161e+06  -3.731875e+06  -3.720188e+14   5.025948e+14   2.357046e+13   1.039901e+07   1.512381e-13   0.000000e+00   0.000000e+00
     3616000   3.615999e-05   1.274716e+00   4.451711e+00   1.486970e+01   8.150056e+06   4.755643e+06  -4.402185e+06  -2.556689e+14   4.840569e+14   4.889971e+13   1.041243e+07   1.169760e-13   0.000000e+00   0.000000e+00
     3624000   3.623999e-05   1.353402e+00   4.560898e+00   1.429732e+01   8.699297e+06   2.478770e+05  -5.735785e+06   6.483809e+13   4.682065e+14   1.181581e+14   1.042298e+07   9.211319e-14   0.000000e+00   0.000000e+00
     3632000   3.631999e-05   1.407133e+00   4.746531e+00   1.371625e+01   4.397395e+06  -4.900069e+06  -8.091293e+06   3.917587e+14   1.584955e+14   1.166880e+14   1.043153e+07   7.470868e-14   0.000000e+00   0.000000e+00
     3640000   3.639999e-05   1.576570e+00   4.999388e+00   1.315639e+01  -3.750971e+06  -2.281163e+06  -9.470551e+06   2.396205e+14  -3.351054e+14  -1.436861e+13   1.043862e+07   6.613663e-14   0.000000e+00   0.000000e+00
     3648000   3.647999e-05   1.873290e+00   5.083136e+00   1.257355e+01  -1.868140e+06   7.205829e+06  -7.326259e+06  -3.199679e+14  -1.939257e+14  -1.093559e+14   1.044452e+07   5.920422e-14   0.000000e+00   0.000000e+00
     3656000   3.655999e-05   1.942828e+00   5.025301e+00   1.190412e+01   7.758152e+06   3.061255e+06  -6.295677e+06  -9.560835e+13   3.348264e+14   4.479460e+13   1.044968e+07   4.807335e-14   0.000000e+00   0.000000e+00
     3664000   3.663999e-05   1.920978e+00   5.278682e+00   1.126804e+01   6.207604e+05  -4.739725e+06  -9.297409e+06   3.193868e+14  -5.869389e+13   5.112982e+13   1.045429e+07   4.218770e-14   0.000000e+00   0.000000e+00
     3672000   3.671999e-05   2.263074e+00   5.453951e+00   1.068060e+01  -2.558746e+06   6.145135e+06  -8.066288e+06  -2.251695e+14  -2.102976e+14  -8.891127e+13   1.045824e+07   4.017328e-14   0.000000e+00   0.000000e+00
     3680000   3.679999e-05   2.311376e+00   5.364876e+00   9.975016e+00   7.772400e+06   1.111465e+06  -6.914026e+06   1.168871e+13   2.872936e+14   5.919915e+13   1.046180e+07   3.369044e-14   0.000000e+00   0.000000e+00
     3688000   3.687999e-05   2.389069e+00   5.723738e+00   9.353586e+00  -2.868701e+06  -1.685620e+06  -9.922020e+06   1.669886e+14  -2.280146e+14  -9.624453e+12   1.046505e+07   3.128290e-14   0.000000e+00   0.000000e+00
     3696000   3.695999e-05   2.740339e+00   5.689949e+00   8.713920e+00   4.612764e+06   6.909810e+06  -6.368182e+06  -2.329239e+14   1.295270e+14  -2.828664e+13   1.046789e+07   2.811405e-14   0.000000e+00   0.000000e+00
     3704000   3.703999e-05   2.667926e+00   5.909820e+00   8.012517e+00   2.054665e+06  -3.779222e+06  -9.546105e+06   2.451473e+14  -1.808265e+13   5.985622e+13   1.047054e+07   2.506482e-14   0.000000e+00   0.000000e+00
     3712000   3.711999e-05   3.121009e+00   6.076858e+00   7.444469e+00   1.352318e+06   7.738256e+06  -6.926191e+06  -2.286457e+14  -3.155258e+13  -7.998052e+13   1.047289e+07   2.337722e-14   0.000000e+00   0.000000e+00
     3720000   3.719999e-05   3.089470e+00   6.192466e+00   6.701137e+00   5.018837e+06  -2.817603e+06  -8.752130e+06   2.009255e+14   7.516363e+13   9.095936e+13   1.047508e+07   2.127964e-14   0.000000e+00   0.000000e+00
     3728000   3.727999e-05   3.571313e+00   6.485604e+00   6.195281e+00   7.216368e+05   7.726364e+06  -7.039306e+06  -1.825184e+14  -7.786516e+13  -1.042474e+14   1.047708e+07   1.969951e-14   0.000000e+00   0.000000e+00
     3736000   3.735999e-05   3.628572e+00   6.610617e+00   5.445231e+00   6.413420e+06  -1.775393e+06  -8.094765e+06   1.709909e+14   8.378650e+13   1.170365e+14   1.047899e+07   1.959370e-14   0.000000e+00   0.000000e+00
     3744000   3.743999e-05   4.159299e+00   6.965106e+00   5.028071e+00   1.410122e+06   8.284195e+06  -6.263540e+06  -1.610203e+14  -7.012316e+13  -1.290719e+14   1.048085e+07   1.863891e-14   0.000000e+00   0.000000e+00
     3752000   3.751999e-05   4.317704e+00   7.160618e+00   4.307602e+00   7.642687e+06  -8.777281e+05  -7.120889e+06   1.535767e+14   7.689248e+13   1.552772e+14   1.048275e+07   2.104163e-14   0.000000e+00   0.000000e+00
     3760000   3.759999e-05   4.878201e+00   7.575835e+00   4.017384e+00   1.496938e+06   8.775808e+06  -5.538624e+06  -1.321303e+14  -8.816964e+13  -1.755149e+14   1.048485e+07   2.200368e-14   0.000000e+00   0.000000e+00
     3768000   3.767999e-05   5.179131e+00   7.798192e+00   3.371278e+00   9.657517e+06   5.658182e+05  -4.049002e+06   8.144353e+13   1.362398e+14   2.131199e+14   1.048724e+07   2.773983e-14   0.000000e+00   0.000000e+00
     3776000   3.775999e-05   5.643158e+00   8.334504e+00   3.183829e+00   9.160197e+05   6.806945e+06  -7.929046e+06   4.515766e+13  -2.189125e+14  -1.828208e+14   1.049016e+07   3.277454e-14   0.000000e+00   0.000000e+00
     3784000   3.783999e-05   6.186098e+00   8.517780e+00   2.773039e+00   8.043764e+06   6.415782e+06   2.063242e+06  -2.113818e+14   2.556502e+14   2.967099e+13   1.049387e+07   4.362771e-14   0.000000e+00   0.000000e+00
     3792000   3.791999e-05   6.494306e+00   9.014506e+00   2.406430e+00   8.760216e+06  -4.458594e+05  -5.769059e+06   2.073737e+14  -3.836738e+13   3.176065e+14   1.049868e+07   5.722256e-14   0.000000e+00   0.000000e+00
     3800000   3.799999e-05   6.952009e+00   9.475375e+00   2.323562e+00   1.909734e+06   5.624656e+06  -8.664396e+06   2.150076e+14  -3.370189e+14  -1.716104e+14   1.050503e+07   7.459974e-14   0.000000e+00   0.000000e+00
     3808000   3.807999e-05   7.467909e+00   9.786093e+00   2.190498e+00   4.560218e+05   1.024879e+07  -2.299033e+06  -1.143535e+14  -1.018580e+14  -4.778476e+14   1.051339e+07   9.940620e-14   0.000000e+00   0.000000e+00
     3816000   3.815999e-05   7.923819e+00   1.009966e+01   2.007568e+00   1.902167e+06   1.003719e+07   2.529422e+06  -3.195060e+14   1.731647e+14  -4.455671e+14   1.052433e+07   1.307920e-13   0.000000e+00   0.000000e+00
     3824000   3.823999e-05   8.330692e+00   1.044299e+01   1.861799e+00   2.020792e+06   9.590700e+06   3.872222e+06  -3.837174e+14   2.647983e+14  -4.545061e+14   1.053846e+07   1.681683e-13   0.000000e+00   0.000000e+00
     3832000   3.831999e-05   8.695120e+00   1.080461e+01   1.765996e+00  -2.769434e+04   1.040834e+07   1.762214e+06  -2.922254e+14   1.119008e+14  -6.624777e+14   1.055650e+07   2.136716e-13   0.000000e+00   0.000000e+00
     3840000   3.839999e-05   9.000625e+00   1.118013e+01   1.663719e+00  -1.289546e+06   9.060555e+06  -5.306678e+06   1.579752e+14  -3.869438e+14  -7.003050e+14   1.057910e+07   2.658864e-13   0.000000e+00   0.000000e+00
     3848000   3.847999e-05   9.295597e+00   1.149213e+01   1.474065e+00   4.895474e+06   4.138031e+05  -9.400464e+06   5.964883e+14  -6.112833e+14   2.828634e+14   1.060687e+07   3.253038e-13   0.000000e+00   0.000000e+00
     3856000   3.855999e-05   9.693350e+00   1.165367e+01   1.364385e+00   9.350158e+06  -1.952626e+06   4.688247e+06  -2.911778e+14   5.053965e+14   7.932824e+14   1.064039e+07   3.920872e-13   0.000000e+00   0.000000e+00
     3864000   3.863999e-05   9.968751e+00   1.194200e+01   1.466351e+00  -2.775317e+06   1.025770e+07   1.069560e+06  -2.468177e+14   4.341311e+13  -1.045988e+15   1.068020e+07   4.713897e-13   0.000000e+00   0.000000e+00
     3872000   3.871999e-05   1.016413e+01   1.219255e+01   1.262296e+00   8.043709e+06  -4.264593e+06  -5.671962e+06   4.890592e+14  -3.745036e+14   9.728022e+14   1.072656e+07   5.449159e-13   0.000000e+00   0.000000e+00
     3880000   3.879999e-05   1.045605e+01   1.232969e+01   1.370676e+00  -2.802261e+06   9.287444e+06   4.699902e+06  -5.166847e+14   3.796785e+14  -1.055104e+15   1.077953e+07   6.327567e-13   0.000000e+00   0.000000e+00
     3888000   3.887999e-05   1.059181e+01   1.252173e+01   1.185526e+00   8.778051e+06  -6.050717e+06  -1.954045e+06   2.417295e+14  -6.368549e+13   1.274479e+15   1.083899e+07   7.079460e-13   0.000000e+00   0.000000e+00
     3896000   3.895999e-05   1.073961e+01   1.268597e+01   1.317427e+00  -4.895111e+06   8.097233e+06  -5.420225e+06   3.307366e+14  -5.915123e+14  -1.185792e+15   1.090441e+07   7.924095e-13   0.000000e+00   0.000000e+00
     3904000   3.903999e-05   1.093037e+01   1.268836e+01   1.214541e+00   3.246093e+06   5.137901e+05   1.047134e+07  -9.045971e+14   1.061839e+15   2.302315e+14   1.097497e+07   8.601372e-13   0.000000e+00   0.000000e+00
     3912000   3.911999e-05   1.091987e+01   1.285400e+01   1.150423e+00   6.018747e+06  -6.368142e+06  -6.732007e+06   6.646830e+14  -5.884624e+14   1.147788e+15   1.104982e+07   9.184984e-13   0.000000e+00   0.000000e+00
     3920000   3.919999e-05   1.097954e+01   1.289498e+01   1.281447e+00  -6.421375e+06   7.053612e+06  -5.730194e+06   3.953463e+14  -6.644546e+14  -1.264782e+15   1.112756e+07   9.721942e-13   0.000000e+00   0.000000e+00
     3928000   3.927999e-05   1.106398e+01   1.280100e+01   1.226118e+00  -7.866019e+05   2.279125e+06   1.094436e+07  -9.920817e+14   1.077531e+15  -2.936569e+14   1.120679e+07   1.001404e-12   0.000000e+00   0.000000e+00
     3936000   3.935999e-05   1.096094e+01   1.283659e+01   1.130271e+00   6.531700e+06  -9.051124e+06  -1.670449e+06   2.628611e+14  -8.257221e+13   1.461983e+15   1.128611e+07   1.007385e-12   0.000000e+00   0.000000e+00
     3944000   3.943999e-05   1.086296e+01   1.282544e+01   1.272710e+00  -6.135943e+06   3.215954e+06  -9.008099e+06   7.223651e+14  -9.734133e+14  -8.419785e+14   1.136389e+07   1.005198e-12   0.000000e+00   0.000000e+00
     3952000   3.951999e-05   1.085272e+01   1.261165e+01   1.268396e+00  -3.193117e+06   2.142921e+06   1.077276e+07  -9.424256e+14   9.859544e+14  -4.735325e+14   1.143855e+07   9.746373e-13   0.000000e+00   0.000000e+00
     3960000   3.959999e-05   1.061231e+01   1.256632e+01   1.184249e+00   3.862202e+06  -9.582523e+06  -5.070920e+06   5.444967e+14  -4.229033e+14   1.210045e+15   1.150893e+07   9.180897e-13   0.000000e+00   0.000000e+00
     3968000   3.967999e-05   1.047357e+01   1.237556e+01   1.381494e+00  -9.769881e+06   6.061337e+06   1.326886e+06  -2.013772e+14  -3.175825e+13  -1.324142e+15   1.157372e+07   8.592549e-13   0.000000e+00   0.000000e+00
     3976000   3.975999e-05   1.022534e+01   1.216645e+01   1.236250e+00   4.109109e+06  -1.087543e+07   3.818568e+05   1.246536e+14   8.959755e+13   1.252064e+15   1.163210e+07   7.694767e-13   0.000000e+00   0.000000e+00
     3984000   3.983999e-05   1.000362e+01   1.192364e+01   1.466070e+00  -9.747587e+06   4.741149e+06   4.360100e+06  -3.956470e+14   2.001543e+14  -1.098948e+15   1.168351e+07   6.851107e-13   0.000000e+00   0.000000e+00
     3992000   3.991999e-05   9.607949e+00   1.173811e+01   1.395443e+00  -2.265102e+06  -7.619354e+06  -8.622999e+06   7.050544e+14  -7.067692e+14   4.379242e+14   1.172780e+07   5.842126e-13   0.000000e+00   0.000000e+00
     4000000   3.999999e-05   9.372578e+00   1.131873e+01   1.428366e+00   1.626309e+06  -9.106158e+06   7.269649e+06  -3.242655e+14   5.509692e+14   7.640662e+14   1.176498e+07   4.910188e-13   0.000000e+00   0.000000e+00
     4008000   4.007999e-05   9.043829e+00   1.098071e+01   1.638567e+00  -6.182522e+06  -1.688063e+05   1.004402e+07  -5.996470e+14   5.675526e+14  -3.587626e+14   1.179553e+07   4.030182e-13   0.000000e+00   0.000000e+00
     4016000   4.015999e-05   8.619904e+00   1.067510e+01   1.803934e+00  -1.043372e+07   2.440475e+06   4.989536e+06  -3.216819e+14   1.141112e+14  -7.271963e+14   1.182007e+07   3.222604e-13   0.000000e+00   0.000000e+00
     4024000   4.023999e-05   8.186122e+00   1.031105e+01   1.944922e+00  -1.115436e+07   1.996102e+06   3.429873e+06  -2.122369e+14  -2.415719e+13  -6.747008e+14   1.183927e+07   2.509323e-13   0.000000e+00   0.000000e+00
     4032000   4.031999e-05   7.768283e+00   9.873803e+00   2.093588e+00  -9.841419e+06   1.170897e+06   6.503286e+06  -3.210116e+14   1.318782e+14  -5.089474e+14   1.185400e+07   1.905945e-13   0.000000e+00   0.000000e+00
     4040000   4.039999e-05   7.331299e+00   9.381369e+00   2.202192e+00  -4.743450e+06  -2.885398e+06   1.048592e+07  -3.695955e+14   3.768806e+14  -6.321630e+13   1.186509e+07   1.422267e-13   0.000000e+00   0.000000e+00
     4048000   4.047999e-05   6.756761e+00   8.963509e+00   2.299930e+00  -3.020629e+05  -1.059256e+07   5.355571e+06   2.297127e+13   2.057731e+14   4.086775e+14   1.187332e+07   1.057645e-13   0.000000e+00   0.000000e+00
     4056000   4.055999e-05   6.181347e+00   8.671729e+00   2.708794e+00  -8.332768e+06  -7.983959e+06  -2.818117e+06   2.693973e+14  -2.874906e+14   1.736368e+13   1.187941e+07   7.845323e-14   0.000000e+00   0.000000e+00
     4064000   4.063999e-05   5.918076e+00   8.077749e+00   3.152310e+00  -7.803013e+06  -1.391352e+05   8.962278e+06  -2.486913e+14   8.114075e+13  -2.151355e+14   1.188397e+07   5.791040e-14   0.000000e+00   0.000000e+00
     4072000   4.071999e-05   5.264724e+00   7.614896e+00   3.347421e+00  -1.484654e+06  -1.093571e+07   4.417875e+06   1.652856e+14   7.691589e+13   2.461499e+14   1.188745e+07   4.739202e-14   0.000000e+00   0.000000e+00
     4080000   4.079999e-05   4.993121e+00   7.300958e+00   4.079212e+00  -1.006204e+07  -6.192303e+05   6.304805e+06  -1.169329e+14  -1.414645e+14  -2.003939e+14   1.189028e+07   3.731648e-14   0.000000e+00   0.000000e+00
     4088000   4.087999e-05   4.467457e+00   6.711564e+00   4.402723e+00   4.261822e+05  -8.898266e+06   7.878813e+06   1.129346e+14   1.619464e+14   1.768812e+14   1.189271e+07   3.552405e-14   0.000000e+00   0.000000e+00
     4096000   4.095999e-05   4.262737e+00   6.555907e+00   5.224947e+00  -9.313901e+06  -3.427890e+05   7.390774e+06  -1.098819e+14  -1.720053e+14  -1.463663e+14   1.189495e+07   3.190350e-14   0.000000e+00   0.000000e+00
     4104000   4.103999e-05   3.804645e+00   6.002314e+00   5.700859e+00   1.559816e+06  -7.703211e+06   8.931369e+06   1.279976e+14   1.795017e+14   1.325383e+14   1.189714e+07   3.347733e-14   0.000000e+00   0.000000e+00
     4112000   4.111999e-05   3.698848e+00   5.952828e+00   6.553509e+00  -8.555269e+06   4.730440e+05   8.257089e+06  -1.252936e+14  -1.965407e+14  -1.184757e+14   1.189941e+07   3.459974e-14   0.000000e+00   0.000000e+00
     4120000   4.119999e-05   3.316999e+00   5.448358e+00   7.130002e+00   2.895664e+06  -6.205757e+06   9.734288e+06   1.178789e+14   2.186070e+14   1.043744e+14   1.190179e+07   3.674776e-14   0.000000e+00   0.000000e+00
     4128000   4.127999e-05   3.219134e+00   5.501217e+00   7.972732e+00  -8.835228e+06  -4.130834e+05   7.967635e+06  -7.114723e+13  -2.621866e+14  -9.238419e+13   1.190442e+07   4.170795e-14   0.000000e+00   0.000000e+00
     4136000   4.135999e-05   2.991991e+00   5.007119e+00   8.615214e+00   4.368201e+06  -2.697551e+06   1.074359e+07   3.065355e+12   2.870703e+14   7.091404e+13   1.190725e+07   4.431617e-14   0.000000e+00   0.000000e+00
     4144000   4.143999e-05   2.751615e+00   5.114842e+00   9.403687e+00  -8.267495e+06  -4.848981e+06   7.070803e+06   1.408591e+14  -2.854836e+14  -3.093424e+13   1.191051e+07   5.187241e-14   0.000000e+00   0.000000e+00
     4152000   4.151999e-05   2.778395e+00   4.717514e+00   1.012414e+01   1.934188e+06   3.528046e+06   1.121408e+07  -2.694545e+14   2.038063e+14  -1.754205e+13   1.191402e+07   5.806606e-14   0.000000e+00   0.000000e+00
     4160000   4.159999e-05   2.355043e+00   4.635686e+00   1.080761e+01  -1.019582e+06  -9.008917e+06   7.735751e+06   3.413639e+14   2.788296e+13   7.762362e+13   1.191814e+07   6.261854e-14   0.000000e+00   0.000000e+00
     4168000   4.167999e-05   2.430509e+00   4.604490e+00   1.159890e+01  -8.045427e+06   2.544920e+06   8.422904e+06  -2.185526e+14  -3.037322e+14  -1.168051e+14   1.192270e+07   7.807635e-14   0.000000e+00   0.000000e+00
     4176000   4.175999e-05   2.250828e+00   4.204201e+00   1.224495e+01   4.827139e+06   7.406989e+05   1.088229e+07  -1.592482e+14   3.701026e+14   4.559911e+13   1.192787e+07   8.360876e-14   0.000000e+00   0.000000e+00
     4184000   4.183999e-05   1.899664e+00   4.165545e+00   1.291309e+01  -1.003589e+06  -9.585704e+06   7.037780e+06   4.211185e+14   3.280895e+13   1.050077e+14   1.193412e+07   9.644409e-14   0.000000e+00   0.000000e+00
     4192000   4.191999e-05   1.860036e+00   4.142307e+00   1.364707e+01  -1.004172e+07  -2.201086e+06   6.075879e+06   3.941086e+13  -4.831672e+14  -1.094936e+14   1.194141e+07   1.258939e-13   0.000000e+00   0.000000e+00
     4200000   4.199999e-05   1.818816e+00   3.871573e+00   1.430665e+01  -4.852168e+06   5.823560e+06   9.238458e+06  -5.118426e+14  -1.270099e+14  -1.884254e+14   1.195017e+07   1.600839e-13   0.000000e+00   0.000000e+00
     4208000   4.207999e-05   1.623519e+00   3.589285e+00   1.488825e+01   2.509419e+06   4.388557e+06   1.084043e+07  -4.894745e+14   3.811247e+14  -4.062805e+13   1.196125e+07   1.976394e-13   0.000000e+00   0.000000e+00
     4216000   4.215999e-05   1.407685e+00   3.384839e+00   1.544471e+01   5.303172e+06   1.700271e+06   1.060216e+07  -3.476818e+14   6.086446e+14   7.676997e+13   1.197583e+07   2.548817e-13   0.000000e+00   0.000000e+00
     4224000   4.223999e-05   1.249766e+00   3.225657e+00   1.598440e+01   4.758804e+06   3.379118e+06   1.047987e+07  -5.248394e+14   6.454774e+14   3.085855e+13   1.199552e+07   3.564337e-13   0.000000e+00   0.000000e+00
     4232000   4.231999e-05   1.121000e+00   3.146852e+00   1.649690e+01  -2.875807e+06   7.985479e+06   8.515529e+06  -9.493943e+14   3.774771e+13  -3.548132e+14   1.202299e+07   5.314981e-13   0.000000e+00   0.000000e+00
     4240000   4.239999e-05   8.521344e-01   3.099663e+00   1.688012e+01  -1.144924e+07  -3.795133e+06   3.944127e+04   3.627598e+14  -1.100542e+15  -2.379222e+14   1.206191e+07   7.278055e-13   0.000000e+00   0.000000e+00
     4248000   4.247999e-05   7.622313e-01   2.797118e+00   1.712374e+01   9.642489e+06  -4.518147e+06   5.776202e+06   2.607008e+14   1.189756e+15   4.984252e+14   1.211428e+07   9.085196e-13   0.000000e+00   0.000000e+00
     4256000   4.255999e-05   7.125692e-01   2.900966e+00   1.737519e+01  -1.184460e+07  -4.651823e+05  -2.813531e+06   1.619611e+14  -1.458568e+15  -4.490504e+14   1.218305e+07   1.249813e-12   0.000000e+00   0.000000e+00
     4264000   4.263999e-05   7.759468e-01   2.704336e+00   1.739186e+01   8.691635e+06   6.733271e+06   5.423864e+06  -9.746579e+14   1.208252e+15   6.637837e+13   1.225968e+07   1.297137e-12   0.000000e+00   0.000000e+00
     4272000   4.271999e-05   6.700412e-01   2.830371e+00   1.727698e+01  -1.673853e+06  -1.017290e+07  -6.774719e+06   1.340504e+15  -4.354165e+14   3.195340e+14   1.233639e+07   1.136536e-12   0.000000e+00   0.000000e+00
     4280000   4.279999e-05   9.530661e-01   2.830045e+00   1.709614e+01   4.499732e+06   1.145774e+07   1.489556e+06  -1.201320e+15   5.128020e+14  -3.034151e+14   1.239945e+07   9.884275e-13   0.000000e+00   0.000000e+00
     4288000   4.287999e-05   9.531483e-01   3.076507e+00   1.675257e+01  -7.405715e+06  -2.064649e+06  -9.791207e+06   5.042098e+14  -1.016275e+15  -1.684101e+14   1.244890e+07   7.289670e-13   0.000000e+00   0.000000e+00
