     timestep     time              x             y              z              vx             vy             vz             ax             ay             az         v_magnitude      ELoss        Electronic      Nuclear
           0   0.000000e+00   1.000000e-01   6.235366e+00   5.745943e+00  -1.039286e+05  -7.024518e+04  -7.746076e+04   0.000000e+00   0.000000e+00   0.000000e+00   1.474304e+05   0.000000e+00   0.000000e+00   0.000000e+00
        8000   7.999000e-08   1.000139e-01   6.226725e+00   5.739939e+00   1.056910e+05  -7.489575e+04  -7.045045e+04   1.829024e+12   2.450901e+12   1.370549e+11   1.474558e+05   7.260126e-22   0.000000e+00   0.000000e+00
       16000   1.599900e-07   1.086131e-01   6.229578e+00   5.734579e+00   4.191014e+04   1.247610e+05  -6.655031e+04  -2.912555e+12   9.394305e+11  -7.445466e+10   1.474813e+05   7.262643e-22   0.000000e+00   0.000000e+00
       24000   2.399900e-07   1.035528e-01   6.236833e+00   5.728868e+00  -1.261346e+05  -2.298100e+02  -7.647376e+04   6.099909e+10  -3.058009e+12  -9.264578e+10   1.475067e+05   7.259472e-22   0.000000e+00   0.000000e+00
       32000   3.199900e-07   9.876702e-02   6.229743e+00   5.722716e+00   4.631744e+04  -1.188186e+05  -7.417904e+04   2.866523e+12   1.035675e+12   1.296794e+11   1.475320e+05   7.217499e-22   0.000000e+00   0.000000e+00
       40000   3.999900e-07   1.074553e-01   6.227509e+00   5.717178e+00   1.032650e+05   8.217805e+04  -6.600170e+04  -1.894704e+12   2.388379e+12   7.919144e+09   1.475572e+05   7.210595e-22   0.000000e+00   0.000000e+00
       48000   4.799900e-07   1.072348e-01   6.236498e+00   5.711668e+00  -1.053842e+05   7.225014e+04  -7.385559e+04  -1.655843e+12  -2.557682e+12  -1.406273e+11   1.475824e+05   7.220053e-22   0.000000e+00   0.000000e+00
       56000   5.599900e-07   9.922987e-02   6.233473e+00   5.705498e+00  -2.941161e+04  -1.222627e+05  -7.729663e+04   2.943462e+12  -7.584296e+11   7.844127e+10   1.476075e+05   7.177497e-22   0.000000e+00   0.000000e+00
       64000   6.399900e-07   1.050734e-01   6.226864e+00   5.699696e+00   1.308046e+05   1.078380e+04  -6.759618e+04  -2.034406e+11   3.028474e+12   8.810079e+10   1.476325e+05   7.160869e-22   0.000000e+00   0.000000e+00
       72000   7.199900e-07   1.099569e-01   6.234520e+00   5.694302e+00  -4.577668e+04   1.214007e+05  -7.049191e+04  -2.812692e+12  -1.140646e+12  -1.391908e+11   1.476575e+05   7.171746e-22   0.000000e+00   0.000000e+00
       80000   7.999900e-07   1.016010e-01   6.236806e+00   5.688256e+00  -9.529211e+04  -8.084333e+04  -7.870129e+04   1.962226e+12  -2.311324e+12  -2.813566e+09   1.476825e+05   7.143772e-22   0.000000e+00   0.000000e+00
       88000   8.799900e-07   1.024792e-01   6.228190e+00   5.682190e+00   1.118832e+05  -6.526149e+04  -7.099681e+04   1.587005e+12   2.571331e+12   1.360457e+11   1.477073e+05   7.112181e-22   0.000000e+00   0.000000e+00
       96000   9.599900e-07   1.108510e-01   6.231708e+00   5.676764e+00   3.321940e+04   1.270007e+05  -6.776488e+04  -2.935928e+12   7.238255e+11  -8.403992e+10   1.477321e+05   7.115981e-22   0.000000e+00   0.000000e+00
      104000   1.039990e-06   1.053717e-01   6.238636e+00   5.670942e+00  -1.254048e+05  -6.856913e+03  -7.783776e+04   2.183479e+11  -3.014052e+12  -8.744058e+10   1.477569e+05   7.109953e-22   0.000000e+00   0.000000e+00
      112000   1.119990e-06   1.009102e-01   6.231340e+00   5.664699e+00   5.039110e+04  -1.168651e+05  -7.511768e+04   2.794848e+12   1.119192e+12   1.324610e+11   1.477815e+05   7.066786e-22   0.000000e+00   0.000000e+00
      120000   1.199990e-06   1.096668e-01   6.229326e+00   5.659087e+00   1.017948e+05   8.364959e+04  -6.698654e+04  -1.909347e+12   2.329163e+12   5.689455e+09   1.478061e+05   7.060824e-22   0.000000e+00   0.000000e+00
      128000   1.279990e-06   1.093911e-01   6.238321e+00   5.653493e+00  -1.048811e+05   7.237993e+04  -7.493331e+04  -1.641198e+12  -2.523034e+12  -1.411542e+11   1.478307e+05   7.069805e-22   0.000000e+00   0.000000e+00
      136000   1.359990e-06   1.013523e-01   6.235394e+00   5.647232e+00  -3.179050e+04  -1.211911e+05  -7.850628e+04   2.891574e+12  -8.086539e+11   7.625914e+10   1.478551e+05   7.026801e-22   0.000000e+00   0.000000e+00
      144000   1.439990e-06   1.070009e-01   6.228623e+00   5.641332e+00   1.307868e+05   5.849650e+03  -6.876728e+04  -8.450270e+10   2.996555e+12   9.287857e+10   1.478795e+05   7.008986e-22   0.000000e+00   0.000000e+00
      152000   1.519990e-06   1.122476e-01   6.236054e+00   5.635864e+00  -3.867814e+04   1.237432e+05  -7.118405e+04  -2.838194e+12  -9.648607e+11  -1.363917e+11   1.479038e+05   7.018928e-22   0.000000e+00   0.000000e+00
      160000   1.599990e-06   1.040520e-01   6.238914e+00   5.629754e+00  -1.009842e+05  -7.289499e+04  -7.982018e+04   1.759466e+12  -2.423379e+12  -1.397758e+10   1.479282e+05   6.992999e-22   0.000000e+00   0.000000e+00
      168000   1.679990e-06   1.041857e-01   6.230275e+00   5.623570e+00   1.048551e+05  -7.498283e+04  -7.261453e+04   1.799548e+12   2.380264e+12   1.394167e+11   1.479523e+05   6.960014e-22   0.000000e+00   0.000000e+00
      176000   1.759990e-06   1.128698e-01   6.232937e+00   5.618049e+00   4.705137e+04   1.225010e+05  -6.838651e+04  -2.800287e+12   1.037457e+12  -6.956096e+10   1.479765e+05   6.961730e-22   0.000000e+00   0.000000e+00
      184000   1.839990e-06   1.082591e-01   6.240520e+00   5.612195e+00  -1.251106e+05   1.010525e+04  -7.841801e+04  -1.770477e+11  -2.979051e+12  -1.025615e+11   1.480006e+05   6.959208e-22   0.000000e+00   0.000000e+00
      192000   1.919990e-06   1.027963e-01   6.233958e+00   5.605848e+00   3.203951e+04  -1.222571e+05  -7.705815e+04   2.894680e+12   6.798176e+11   1.238426e+11   1.480246e+05   6.914661e-22   0.000000e+00   0.000000e+00
      200000   1.999990e-06   1.111063e-01   6.230618e+00   5.600093e+00   1.138443e+05   6.571388e+04  -6.811408e+04  -1.472172e+12   2.583445e+12   3.055965e+10   1.480485e+05   6.905761e-22   0.000000e+00   0.000000e+00
      208000   2.079990e-06   1.124101e-01   6.239571e+00   5.594477e+00  -8.956217e+04   9.113909e+04  -7.481787e+04  -2.058180e+12  -2.142172e+12  -1.468775e+11   1.480724e+05   6.911245e-22   0.000000e+00   0.000000e+00
      216000   2.159990e-06   1.039196e-01   6.238335e+00   5.588164e+00  -5.627223e+04  -1.110387e+05  -8.022683e+04   2.629970e+12  -1.369569e+12   4.977026e+10   1.480962e+05   6.873121e-22   0.000000e+00   0.000000e+00
      224000   2.239990e-06   1.079519e-01   6.230561e+00   5.582084e+00   1.280544e+05  -2.286638e+04  -7.084281e+04   5.822556e+11   2.900368e+12   1.150695e+11   1.481199e+05   6.851439e-22   0.000000e+00   0.000000e+00
      232000   2.319990e-06   1.147620e-01   6.236620e+00   5.576548e+00  -7.818893e+03   1.298651e+05  -7.085504e+04  -2.949260e+12  -2.412355e+11  -1.179286e+11   1.481436e+05   6.858193e-22   0.000000e+00   0.000000e+00
      240000   2.399990e-06   1.075138e-01   6.241528e+00   5.570453e+00  -1.167049e+05  -4.290856e+04  -8.057516e+04   1.050995e+12  -2.763944e+12  -5.146542e+10   1.481673e+05   6.841925e-22   0.000000e+00   0.000000e+00
      248000   2.479990e-06   1.052658e-01   6.233245e+00   5.564104e+00   7.903746e+04  -1.001046e+05  -7.544969e+04   2.362807e+12   1.758811e+12   1.404676e+11   1.481908e+05   6.804480e-22   0.000000e+00   0.000000e+00
      256000   2.559990e-06   1.143130e-01   6.233361e+00   5.558428e+00   8.066711e+04   1.035751e+05  -6.879299e+04  -2.333720e+12   1.800700e+12  -2.665428e+10   1.482142e+05   6.801527e-22   0.000000e+00   0.000000e+00
      264000   2.639990e-06   1.122074e-01   6.242075e+00   5.552621e+00  -1.157696e+05   5.007293e+04  -7.787495e+04  -1.095582e+12  -2.734151e+12  -1.304492e+11   1.482377e+05   6.806364e-22   0.000000e+00   0.000000e+00
      272000   2.719990e-06   1.048605e-01   6.237731e+00   5.546187e+00  -1.108632e+04  -1.244584e+05  -7.980321e+04   2.919465e+12  -3.206800e+11   9.346522e+10   1.482611e+05   6.763043e-22   0.000000e+00   0.000000e+00
      280000   2.799990e-06   1.114824e-01   6.231839e+00   5.540201e+00   1.287170e+05   2.264786e+04  -7.005178e+04  -4.664704e+11   2.896524e+12   7.810298e+10   1.482843e+05   6.748472e-22   0.000000e+00   0.000000e+00
      288000   2.879990e-06   1.158686e-01   6.239817e+00   5.534582e+00  -5.023446e+04   1.185935e+05  -7.353383e+04  -2.668799e+12  -1.216745e+12  -1.403244e+11   1.483076e+05   6.757719e-22   0.000000e+00   0.000000e+00
      296000   2.959990e-06   1.074819e-01   6.241972e+00   5.528294e+00  -9.506029e+04  -7.928447e+04  -8.172846e+04   1.878649e+12  -2.248347e+12  -5.038691e+09   1.483308e+05   6.729867e-22   0.000000e+00   0.000000e+00
      304000   3.039990e-06   1.080843e-01   6.233346e+00   5.521975e+00   1.071965e+05  -7.075877e+04  -7.423602e+04   1.674642e+12   2.391519e+12   1.375253e+11   1.483539e+05   6.699246e-22   0.000000e+00   0.000000e+00
      312000   3.119990e-06   1.167262e-01   6.236191e+00   5.516316e+00   4.635068e+04   1.222494e+05  -7.015977e+04  -2.744630e+12   1.001725e+12  -6.899348e+10   1.483769e+05   6.700150e-22   0.000000e+00   0.000000e+00
      320000   3.199990e-06   1.122022e-01   6.243838e+00   5.510324e+00  -1.241631e+05   1.358371e+04  -8.013456e+04  -2.512179e+11  -2.908838e+12  -1.049007e+11   1.483999e+05   6.697721e-22   0.000000e+00   0.000000e+00
      328000   3.279990e-06   1.064620e-01   6.237530e+00   5.503824e+00   2.471364e+04  -1.230424e+05  -7.924108e+04   2.866145e+12   4.989068e+11   1.181385e+11   1.484229e+05   6.654421e-22   0.000000e+00   0.000000e+00
      336000   3.359990e-06   1.144985e-01   6.233608e+00   5.497893e+00   1.186062e+05   5.532261e+04  -7.005776e+04  -1.207822e+12   2.645823e+12   4.330727e+10   1.484457e+05   6.643459e-22   0.000000e+00   0.000000e+00
      344000   3.439990e-06   1.167250e-01   6.242406e+00   5.492163e+00  -7.770710e+04   1.012051e+05  -7.590800e+04  -2.251708e+12  -1.837957e+12  -1.465142e+11   1.484685e+05   6.652294e-22   0.000000e+00   0.000000e+00
      352000   3.519990e-06   1.081293e-01   6.242373e+00   5.485730e+00  -7.222228e+04  -1.002073e+05  -8.241414e+04   2.342441e+12  -1.712995e+12   2.904801e+10   1.484913e+05   6.617011e-22   0.000000e+00   0.000000e+00
      360000   3.599990e-06   1.107957e-01   6.234086e+00   5.479432e+00   1.209302e+05  -4.482687e+04  -7.363977e+04   1.074195e+12   2.686495e+12   1.275327e+11   1.485139e+05   6.591665e-22   0.000000e+00   0.000000e+00
      368000   3.679990e-06   1.186405e-01   6.238741e+00   5.473747e+00   1.945892e+04   1.286388e+05  -7.166931e+04  -2.869435e+12   3.812803e+11  -9.589262e+10   1.485365e+05   6.594306e-22   0.000000e+00   0.000000e+00
      376000   3.759990e-06   1.126667e-01   6.245229e+00   5.467599e+00  -1.233759e+05  -1.241754e+04  -8.181677e+04   3.432335e+11  -2.872182e+12  -8.268523e+10   1.485590e+05   6.585190e-22   0.000000e+00   0.000000e+00
      384000   3.839990e-06   1.083338e-01   6.237879e+00   5.461046e+00   4.820505e+04  -1.162373e+05  -7.900404e+04   2.692109e+12   1.026759e+12   1.309097e+11   1.485815e+05   6.543715e-22   0.000000e+00   0.000000e+00
      392000   3.919990e-06   1.169982e-01   6.235473e+00   5.455128e+00   1.071579e+05   7.501604e+04  -7.051867e+04  -1.644155e+12   2.366932e+12   1.830156e+10   1.486039e+05   6.535552e-22   0.000000e+00   0.000000e+00
      400000   3.999990e-06   1.177225e-01   6.244491e+00   5.449291e+00  -9.263894e+04   8.639712e+04  -7.773884e+04  -1.898163e+12  -2.165442e+12  -1.457097e+11   1.486262e+05   6.543382e-22   0.000000e+00   0.000000e+00
      408000   4.079990e-06   1.092836e-01   6.243064e+00   5.442752e+00  -5.547892e+04  -1.101483e+05  -8.298101e+04   2.551179e+12  -1.323048e+12   4.955629e+10   1.486486e+05   6.504435e-22   0.000000e+00   0.000000e+00
      416000   4.159990e-06   1.131664e-01   6.235228e+00   5.436449e+00   1.261415e+05  -2.776703e+04  -7.362271e+04   6.826176e+11   2.784023e+12   1.184425e+11   1.486707e+05   6.482236e-22   0.000000e+00   0.000000e+00
      424000   4.239990e-06   1.203535e-01   6.240862e+00   5.430715e+00   3.410205e+03   1.295166e+05  -7.296158e+04  -2.867222e+12   1.438721e+10  -1.096024e+11   1.486929e+05   6.486056e-22   0.000000e+00   0.000000e+00
      432000   4.319990e-06   1.136762e-01   6.246563e+00   5.424452e+00  -1.204929e+05  -2.655415e+04  -8.302105e+04   6.612338e+11  -2.787826e+12  -6.899165e+10   1.487150e+05   6.472852e-22   0.000000e+00   0.000000e+00
      440000   4.399990e-06   1.101850e-01   6.238773e+00   5.417847e+00   5.984016e+04  -1.107596e+05  -7.920969e+04   2.550329e+12   1.279973e+12   1.358568e+11   1.487370e+05   6.432987e-22   0.000000e+00   0.000000e+00
      448000   4.479990e-06   1.190594e-01   6.237178e+00   5.411905e+00   1.002443e+05   8.374949e+04  -7.117809e+04  -1.827391e+12   2.193184e+12   5.773153e+09   1.487590e+05   6.425798e-22   0.000000e+00   0.000000e+00
      456000   4.559990e-06   1.190729e-01   6.246210e+00   5.405983e+00  -9.831378e+04   7.893138e+04  -7.899359e+04  -1.714719e+12  -2.279184e+12  -1.443187e+11   1.487809e+05   6.432681e-22   0.000000e+00   0.000000e+00
      464000   4.639990e-06   1.107728e-01   6.244203e+00   5.399362e+00  -4.827539e+04  -1.131797e+05  -8.367848e+04   2.600621e+12  -1.152077e+12   5.694210e+10   1.488027e+05   6.385645e-22   0.000000e+00   0.000000e+00
      472000   4.719990e-06   1.150900e-01   6.236585e+00   5.393014e+00   1.271589e+05  -2.173667e+04  -7.420822e+04   5.432893e+11   2.785234e+12   1.140261e+11   1.488244e+05   6.365364e-22   0.000000e+00   0.000000e+00
      480000   4.799990e-06   1.220481e-01   6.242501e+00   5.387216e+00  -8.941187e+02   1.291695e+05  -7.395677e+04  -2.837029e+12  -8.325760e+10  -1.122059e+11   1.488461e+05   6.369239e-22   0.000000e+00   0.000000e+00
      488000   4.879990e-06   1.152291e-01   6.248010e+00   5.380874e+00  -1.194900e+05  -2.899292e+04  -8.392353e+04   7.118533e+11  -2.745518e+12  -6.600383e+10   1.488678e+05   6.355865e-22   0.000000e+00   0.000000e+00
      496000   4.959990e-06   1.118563e-01   6.240175e+00   5.374205e+00   6.057457e+04  -1.100108e+05  -7.997735e+04   2.515608e+12   1.285498e+12   1.360789e+11   1.488893e+05   6.318480e-22   0.000000e+00   0.000000e+00
      504000   5.039990e-06   1.207331e-01   6.238589e+00   5.368201e+00   1.005599e+05   8.298898e+04  -7.193730e+04  -1.795648e+12   2.182485e+12   6.563712e+09   1.489108e+05   6.311078e-22   0.000000e+00   0.000000e+00
      512000   5.119990e-06   1.208657e-01   6.247624e+00   5.362222e+00  -9.648229e+04   8.076620e+04  -7.967943e+04  -1.741737e+12  -2.222460e+12  -1.447408e+11   1.489323e+05   6.317870e-22   0.000000e+00   0.000000e+00
      520000   5.199990e-06   1.125183e-01   6.245848e+00   5.355539e+00  -5.186681e+04  -1.110905e+05  -8.459273e+04   2.537275e+12  -1.226154e+12   5.360152e+10   1.489537e+05   6.280292e-22   0.000000e+00   0.000000e+00
      528000   5.279990e-06   1.165300e-01   6.238082e+00   5.349115e+00   1.257463e+05  -2.730111e+04  -7.507373e+04   6.648209e+11   2.731135e+12   1.193040e+11   1.489750e+05   6.259331e-22   0.000000e+00   0.000000e+00
      536000   5.359990e-06   1.237872e-01   6.243641e+00   5.343269e+00   6.699077e+03   1.289820e+05  -7.428751e+04  -2.810334e+12   8.441068e+10  -1.079368e+11   1.489962e+05   6.262250e-22   0.000000e+00   0.000000e+00
      544000   5.439990e-06   1.173400e-01   6.249610e+00   5.336898e+00  -1.210965e+05  -1.991481e+04  -8.452961e+04   5.069251e+11  -2.763569e+12  -7.606679e+10   1.490175e+05   6.250842e-22   0.000000e+00   0.000000e+00
      552000   5.519990e-06   1.133535e-01   6.242092e+00   5.330149e+00   5.077487e+04  -1.141662e+05  -8.124336e+04   2.591453e+12   1.056263e+12   1.343196e+11   1.490386e+05   6.212477e-22   0.000000e+00   0.000000e+00
      560000   5.599990e-06   1.220369e-01   6.239728e+00   5.324060e+00   1.078613e+05   7.292607e+04  -7.257062e+04  -1.557629e+12   2.325834e+12   2.104979e+10   1.490596e+05   6.203773e-22   0.000000e+00   0.000000e+00
      568000   5.679990e-06   1.231031e-01   6.248731e+00   5.318066e+00  -8.687494e+04   9.126302e+04  -7.967969e+04  -1.959904e+12  -1.994896e+12  -1.489980e+11   1.490807e+05   6.210973e-22   0.000000e+00   0.000000e+00
      576000   5.759990e-06   1.145893e-01   6.247989e+00   5.311345e+00  -6.533565e+04  -1.030473e+05  -8.569605e+04   2.343317e+12  -1.517782e+12   3.761232e+10   1.491017e+05   6.175639e-22   0.000000e+00   0.000000e+00
      584000   5.839990e-06   1.175338e-01   6.239808e+00   5.304806e+00   1.203296e+05  -4.367753e+04  -7.648908e+04   1.023294e+12   2.588503e+12   1.306800e+11   1.491225e+05   6.152279e-22   0.000000e+00   0.000000e+00
      592000   5.919990e-06   1.254947e-01   6.244307e+00   5.298903e+00   2.572806e+04   1.267817e+05  -7.421724e+04  -2.737539e+12   5.018843e+11  -9.269208e+10   1.491433e+05   6.146102e-22   0.000000e+00   0.000000e+00
      600000   5.999990e-06   1.200463e-01   6.251265e+00   5.292545e+00  -1.227150e+05   9.274345e+02  -8.479457e+04   4.606712e+10  -2.780546e+12  -9.799367e+10   1.491641e+05   6.138756e-22   0.000000e+00   0.000000e+00
      608000   6.079990e-06   1.148119e-01   6.244599e+00   5.285701e+00   2.933325e+04  -1.203283e+05  -8.316706e+04   2.710191e+12   5.732456e+11   1.255801e+11   1.491848e+05   6.097915e-22   0.000000e+00   0.000000e+00
      616000   6.159990e-06   1.228819e-01   6.240735e+00   5.279477e+00   1.191630e+05   5.156423e+04  -7.350889e+04  -1.073472e+12   2.552980e+12   4.962062e+10   1.492054e+05   6.086105e-22   0.000000e+00   0.000000e+00
      624000   6.239990e-06   1.256792e-01   6.249405e+00   5.273488e+00  -6.654420e+04   1.076647e+05  -7.904796e+04  -2.303052e+12  -1.533374e+12  -1.506969e+11   1.492260e+05   6.092137e-22   0.000000e+00   0.000000e+00
      632000   6.319990e-06   1.171716e-01   6.250552e+00   5.266762e+00  -8.646874e+04  -8.514648e+04  -8.687783e+04   1.935371e+12  -1.972710e+12   6.259712e+09   1.492465e+05   6.061506e-22   0.000000e+00   0.000000e+00
      640000   6.399990e-06   1.181633e-01   6.241994e+00   5.260061e+00   1.062080e+05  -6.930504e+04  -7.872288e+04   1.578712e+12   2.255314e+12   1.434303e+11   1.492669e+05   6.033040e-22   0.000000e+00   0.000000e+00
      648000   6.479990e-06   1.269283e-01   6.244532e+00   5.254066e+00   5.547772e+04   1.171682e+05  -7.403052e+04  -2.504266e+12   1.147964e+12  -6.081211e+10   1.492873e+05   6.029541e-22   0.000000e+00   0.000000e+00
      656000   6.559990e-06   1.233725e-01   6.252714e+00   5.247768e+00  -1.185450e+05   3.366027e+04  -8.430203e+04  -6.696193e+11  -2.669330e+12  -1.251006e+11   1.493076e+05   6.028403e-22   0.000000e+00   0.000000e+00
      664000   6.639990e-06   1.165127e-01   6.247766e+00   5.240852e+00  -5.046397e+03  -1.223814e+05  -8.541744e+04   2.736851e+12  -1.846535e+11   1.019883e+11   1.493279e+05   5.986732e-22   0.000000e+00   0.000000e+00
      672000   6.719990e-06   1.231400e-01   6.241893e+00   5.234440e+00   1.280480e+05   1.644166e+04  -7.508801e+04  -2.976730e+11   2.723404e+12   8.770663e+10   1.493480e+05   5.971160e-22   0.000000e+00   0.000000e+00
      680000   6.799990e-06   1.282989e-01   6.249452e+00   5.228453e+00  -3.186639e+04   1.234718e+05  -7.778240e+04  -2.628985e+12  -7.652517e+11  -1.386675e+11   1.493682e+05   5.975285e-22   0.000000e+00   0.000000e+00
      688000   6.879990e-06   1.204987e-01   6.253239e+00   5.221785e+00  -1.090976e+05  -5.251156e+04  -8.750483e+04   1.212014e+12  -2.452926e+12  -3.994876e+10   1.493883e+05   5.953858e-22   0.000000e+00   0.000000e+00
      696000   6.959990e-06   1.186652e-01   6.244918e+00   5.214913e+00   7.714793e+04  -9.848396e+04  -8.168186e+04   2.202481e+12   1.602959e+12   1.466261e+11   1.494082e+05   5.919238e-22   0.000000e+00   0.000000e+00
      704000   7.039990e-06   1.277209e-01   6.244512e+00   5.208768e+00   9.090341e+04   9.257015e+04  -7.413571e+04  -1.948598e+12   1.906125e+12  -1.022791e+10   1.494281e+05   5.911704e-22   0.000000e+00   0.000000e+00
      712000   7.119990e-06   1.271453e-01   6.253522e+00   5.202567e+00  -9.966758e+04   7.440374e+04  -8.285633e+04  -1.548574e+12  -2.239078e+12  -1.487810e+11   1.494480e+05   5.915856e-22   0.000000e+00   0.000000e+00
      720000   7.199990e-06   1.189145e-01   6.251473e+00   5.195630e+00  -4.976604e+04  -1.103772e+05  -8.764052e+04   2.459112e+12  -1.156271e+12   5.901201e+10   1.494679e+05   5.880804e-22   0.000000e+00   0.000000e+00
      728000   7.279990e-06   1.228452e-01   6.243689e+00   5.188983e+00   1.238709e+05  -3.138332e+04  -7.757339e+04   7.409597e+11   2.606325e+12   1.278093e+11   1.494876e+05   5.858953e-22   0.000000e+00   0.000000e+00
      736000   7.359990e-06   1.304492e-01   6.248815e+00   5.182965e+00   1.800841e+04   1.274069e+05  -7.612883e+04  -2.691248e+12   3.187570e+11  -1.041233e+11   1.495073e+05   5.858083e-22   0.000000e+00   0.000000e+00
      744000   7.439990e-06   1.247270e-01   6.255518e+00   5.176433e+00  -1.215409e+05  -2.321346e+03  -8.706742e+04   1.201047e+11  -2.705068e+12  -9.638095e+10   1.495269e+05   5.848356e-22   0.000000e+00   0.000000e+00
      752000   7.519990e-06   1.195873e-01   6.248820e+00   5.169416e+00   2.844934e+04  -1.195626e+05  -8.520315e+04   2.642405e+12   5.365130e+11   1.285743e+11   1.495465e+05   5.806513e-22   0.000000e+00   0.000000e+00
      760000   7.599990e-06   1.275627e-01   6.244772e+00   5.163040e+00   1.207026e+05   4.631734e+04  -7.520344e+04  -9.347017e+11   2.528317e+12   5.599866e+10   1.495660e+05   5.794080e-22   0.000000e+00   0.000000e+00
      768000   7.679990e-06   1.308963e-01   6.253276e+00   5.156934e+00  -5.729119e+04   1.123952e+05  -8.037928e+04  -2.353505e+12  -1.307894e+12  -1.522620e+11   1.495854e+05   5.798428e-22   0.000000e+00   0.000000e+00
      776000   7.759990e-06   1.225496e-01   6.255292e+00   5.150076e+00  -9.515157e+04  -7.345015e+04  -8.906659e+04   1.648909e+12  -2.124923e+12  -1.002302e+10   1.496048e+05   5.769269e-22   0.000000e+00   0.000000e+00
      784000   7.839990e-06   1.223822e-01   6.246742e+00   5.143160e+00   9.375790e+04  -8.329597e+04  -8.160029e+04   1.850164e+12   1.935897e+12   1.488126e+11   1.496241e+05   5.737768e-22   0.000000e+00   0.000000e+00
      792000   7.919990e-06   1.314256e-01   6.247819e+00   5.136987e+00   7.570597e+04   1.048366e+05  -7.530619e+04  -2.184070e+12   1.552916e+12  -3.474555e+10   1.496433e+05   5.731236e-22   0.000000e+00   0.000000e+00
      800000   7.999990e-06   1.296022e-01   6.256618e+00   5.130636e+00  -1.076576e+05   5.986101e+04  -8.500216e+04  -1.213596e+12  -2.385254e+12  -1.435573e+11   1.496625e+05   5.732664e-22   0.000000e+00   0.000000e+00
      808000   8.079990e-06   1.217346e-01   6.253557e+00   5.123569e+00  -3.654355e+04  -1.149583e+05  -8.862134e+04   2.526594e+12  -8.601920e+11   7.316796e+10   1.496816e+05   5.691104e-22   0.000000e+00   0.000000e+00
      816000   8.159990e-06   1.264501e-01   6.246195e+00   5.116865e+00   1.259445e+05  -2.034574e+04  -7.832191e+04   4.975094e+11   2.615409e+12   1.196995e+11   1.497006e+05   5.671184e-22   0.000000e+00   0.000000e+00
      824000   8.239990e-06   1.336491e-01   6.251877e+00   5.110754e+00   9.746192e+03   1.276056e+05  -7.770326e+04  -2.658719e+12   1.360854e+11  -1.109108e+11   1.497196e+05   5.670540e-22   0.000000e+00   0.000000e+00
      832000   8.319990e-06   1.275943e-01   6.258235e+00   5.104091e+00  -1.204836e+05  -7.719402e+03  -8.857619e+04   2.357014e+11  -2.649460e+12  -9.050675e+10   1.497386e+05   5.659024e-22   0.000000e+00   0.000000e+00
      840000   8.399990e-06   1.227015e-01   6.251379e+00   5.096969e+00   3.103832e+04  -1.183008e+05  -8.642241e+04   2.581959e+12   5.834688e+11   1.277983e+11   1.497574e+05   5.612414e-22   0.000000e+00   0.000000e+00
      848000   8.479990e-06   1.307123e-01   6.247425e+00   5.090488e+00   1.201791e+05   4.606540e+04  -7.660188e+04  -9.159767e+11   2.482842e+12   5.511311e+10   1.497761e+05   5.600447e-22   0.000000e+00   0.000000e+00
      856000   8.559990e-06   1.341432e-01   6.255881e+00   5.084276e+00  -5.437681e+04   1.132475e+05  -8.158841e+04  -2.339879e+12  -1.230073e+12  -1.487668e+11   1.497949e+05   5.604795e-22   0.000000e+00   0.000000e+00
      864000   8.639990e-06   1.258830e-01   6.258193e+00   5.077323e+00  -9.794629e+04  -6.843850e+04  -9.037031e+04   1.522435e+12  -2.158013e+12  -1.654757e+10   1.498135e+05   5.578094e-22   0.000000e+00   0.000000e+00
      872000   8.719990e-06   1.252248e-01   6.249703e+00   5.070280e+00   8.733412e+04  -8.868693e+04  -8.340886e+04   1.941655e+12   1.772885e+12   1.471266e+11   1.498321e+05   5.547230e-22   0.000000e+00   0.000000e+00
      880000   8.799990e-06   1.342974e-01   6.250089e+00   5.063976e+00   8.426373e+04   9.745941e+04  -7.652769e+04  -1.998126e+12   1.712066e+12  -2.067074e+10   1.498506e+05   5.540044e-22   0.000000e+00   0.000000e+00
      888000   8.879990e-06   1.333607e-01   6.259046e+00   5.057564e+00  -9.996452e+04   7.173617e+04  -8.556727e+04  -1.448040e+12  -2.192598e+12  -1.473140e+11   1.498691e+05   5.542936e-22   0.000000e+00   0.000000e+00
      896000   8.959990e-06   1.251671e-01   6.257028e+00   5.050413e+00  -5.170149e+04  -1.078355e+05  -9.035889e+04   2.345721e+12  -1.171149e+12   5.473066e+10   1.498875e+05   5.505065e-22   0.000000e+00   0.000000e+00
      904000   9.039990e-06   1.287304e-01   6.249123e+00   5.043535e+00   1.202871e+05  -3.893472e+04  -8.054101e+04   8.843334e+11   2.459554e+12   1.309065e+11   1.499058e+05   5.483665e-22   0.000000e+00   0.000000e+00
      912000   9.119990e-06   1.367370e-01   6.253566e+00   5.037311e+00   3.182726e+04   1.239267e+05  -7.814358e+04  -2.545219e+12   5.982612e+11  -8.874992e+10   1.499241e+05   5.481270e-22   0.000000e+00   0.000000e+00
      920000   9.199990e-06   1.319697e-01   6.261009e+00   5.030640e+00  -1.194583e+05   1.739442e+04  -8.893732e+04  -2.946178e+11  -2.595319e+12  -1.126397e+11   1.499423e+05   5.475591e-22   0.000000e+00   0.000000e+00
      928000   9.279990e-06   1.257125e-01   6.255425e+00   5.023400e+00   3.587726e+03  -1.206661e+05  -8.896608e+04   2.602130e+12  -4.052239e+09   1.096695e+11   1.499605e+05   5.435213e-22   0.000000e+00   0.000000e+00
      936000   9.359990e-06   1.325399e-01   6.249807e+00   5.016713e+00   1.267249e+05   1.643725e+04  -7.851227e+04  -2.802565e+11   2.583990e+12   8.776421e+10   1.499786e+05   5.420591e-22   0.000000e+00   0.000000e+00
      944000   9.439990e-06   1.379571e-01   6.257191e+00   5.010461e+00  -2.290707e+04   1.242000e+05  -8.092336e+04  -2.537267e+12  -5.552837e+11  -1.348507e+11   1.499966e+05   5.422692e-22   0.000000e+00   0.000000e+00
      952000   9.519990e-06   1.306137e-01   6.261782e+00   5.003533e+00  -1.135225e+05  -3.606995e+04  -9.119203e+04   8.281525e+11  -2.459777e+12  -5.874739e+10   1.500146e+05   5.404390e-22   0.000000e+00   0.000000e+00
      960000   9.599990e-06   1.274230e-01   6.253990e+00   4.996301e+00   5.497821e+04  -1.092983e+05  -8.683904e+04   2.348243e+12   1.069717e+12   1.395355e+11   1.500325e+05   5.356125e-22   0.000000e+00   0.000000e+00
      968000   9.679990e-06   1.360807e-01   6.251581e+00   4.989777e+00   1.104391e+05   6.532240e+04  -7.778997e+04  -1.297718e+12   2.231137e+12   3.031103e+10   1.500503e+05   5.345322e-22   0.000000e+00   0.000000e+00
      976000   9.759990e-06   1.381909e-01   6.260427e+00   4.983398e+00  -6.874458e+04   1.034279e+05  -8.424528e+04  -2.087753e+12  -1.511018e+12  -1.522506e+11   1.500680e+05   5.348275e-22   0.000000e+00   0.000000e+00
      984000   9.839990e-06   1.297706e-01   6.261656e+00   4.976254e+00  -8.863822e+04  -7.850931e+04  -9.222412e+04   1.706757e+12  -1.927316e+12  -4.113517e+08   1.500858e+05   5.319447e-22   0.000000e+00   0.000000e+00
      992000   9.919990e-06   1.299564e-01   6.253145e+00   4.969102e+00   9.387047e+04  -8.110536e+04  -8.450606e+04   1.751014e+12   1.872149e+12   1.474598e+11   1.501034e+05   5.292725e-22   0.000000e+00   0.000000e+00
     1000000   9.999990e-06   1.389997e-01   6.254094e+00   4.962697e+00   7.939931e+04   1.006858e+05  -7.806667e+04  -2.024443e+12   1.575496e+12  -2.786143e+10   1.501209e+05   5.284806e-22   0.000000e+00   0.000000e+00
     1008000   1.007999e-05   1.378081e-01   6.263006e+00   4.956147e+00  -1.001369e+05   6.985286e+04  -8.737690e+04  -1.377962e+12  -2.158876e+12  -1.474604e+11   1.501384e+05   5.285992e-22   0.000000e+00   0.000000e+00
     1016000   1.015999e-05   1.296457e-01   6.261010e+00   4.948850e+00  -5.292251e+04  -1.060196e+05  -9.222722e+04   2.267886e+12  -1.178654e+12   5.283533e+10   1.501559e+05   5.250313e-22   0.000000e+00   0.000000e+00
     1024000   1.023999e-05   1.329561e-01   6.253034e+00   4.941819e+00   1.175919e+05  -4.398854e+04  -8.239646e+04   9.757513e+11   2.353285e+12   1.354155e+11   1.501733e+05   5.229875e-22   0.000000e+00   0.000000e+00
     1032000   1.031999e-05   1.412148e-01   6.256983e+00   4.935472e+00   4.130182e+04   1.206846e+05  -7.928820e+04  -2.426496e+12   7.789761e+11  -7.912047e+10   1.501906e+05   5.225103e-22   0.000000e+00   0.000000e+00
     1040000   1.039999e-05   1.371811e-01   6.264875e+00   4.928722e+00  -1.161227e+05   3.103420e+04  -9.008233e+04  -5.668559e+11  -2.481383e+12  -1.248617e+11   1.502079e+05   5.220870e-22   0.000000e+00   0.000000e+00
     1048000   1.047999e-05   1.302658e-01   6.260198e+00   4.921337e+00  -1.374823e+04  -1.183663e+05  -9.147672e+04   2.510451e+12  -3.662461e+11   9.589863e+10   1.502252e+05   5.183084e-22   0.000000e+00   0.000000e+00
     1056000   1.055999e-05   1.360885e-01   6.253648e+00   4.914439e+00   1.265785e+05  -4.956284e+03  -8.078399e+04   1.690075e+11   2.526651e+12   1.090028e+11   1.502423e+05   5.167144e-22   0.000000e+00   0.000000e+00
     1064000   1.063999e-05   1.427713e-01   6.259931e+00   4.908089e+00   2.747197e+03   1.264338e+05  -8.114688e+04  -2.531130e+12  -2.033868e+10  -1.181712e+11   1.502594e+05   5.165573e-22   0.000000e+00   0.000000e+00
     1072000   1.071999e-05   1.366044e-01   6.266111e+00   4.901141e+00  -1.184831e+05  -6.883947e+03  -9.218120e+04   2.172337e+11  -2.519782e+12  -9.173808e+10   1.502765e+05   5.153806e-22   0.000000e+00   0.000000e+00
     1080000   1.079999e-05   1.315321e-01   6.259488e+00   4.893722e+00   2.339377e+04  -1.179183e+05  -9.020047e+04   2.488802e+12   3.946754e+11   1.288166e+11   1.502935e+05   5.124054e-22   0.000000e+00   0.000000e+00
     1088000   1.087999e-05   1.391238e-01   6.254862e+00   4.886962e+00   1.237156e+05   3.100805e+04  -7.953713e+04  -5.661685e+11   2.454002e+12   7.526579e+10   1.503104e+05   5.110587e-22   0.000000e+00   0.000000e+00
     1096000   1.095999e-05   1.438336e-01   6.262727e+00   4.880578e+00  -3.168756e+04   1.211394e+05  -8.318309e+04  -2.406928e+12  -7.295769e+11  -1.463555e+11   1.503273e+05   5.110663e-22   0.000000e+00   0.000000e+00
     1104000   1.103999e-05   1.362965e-01   6.266882e+00   4.873452e+00  -1.106145e+05  -3.989132e+04  -9.368280e+04   8.933173e+11  -2.349306e+12  -5.508110e+10   1.503441e+05   5.090297e-22   0.000000e+00   0.000000e+00
     1112000   1.111999e-05   1.332956e-01   6.259068e+00   4.866038e+00   5.489170e+04  -1.081707e+05  -8.885039e+04   2.277298e+12   1.034198e+12   1.471236e+11   1.503609e+05   5.056796e-22   0.000000e+00   0.000000e+00
     1120000   1.119999e-05   1.419137e-01   6.256520e+00   4.859378e+00   1.124188e+05   6.089111e+04  -7.916883e+04  -1.170645e+12   2.211215e+12   3.761924e+10   1.503776e+05   5.045022e-22   0.000000e+00   0.000000e+00
     1128000   1.127999e-05   1.445591e-01   6.265252e+00   4.852902e+00  -5.971463e+04   1.083736e+05  -8.548532e+04  -2.132350e+12  -1.299827e+12  -1.590569e+11   1.503942e+05   5.046518e-22   0.000000e+00   0.000000e+00
     1136000   1.135999e-05   1.363283e-01   6.267359e+00   4.845618e+00  -9.638440e+04  -6.615510e+04  -9.464125e+04   1.423786e+12  -2.049176e+12  -1.827523e+10   1.504108e+05   5.019311e-22   0.000000e+00   0.000000e+00
     1144000   1.143999e-05   1.353541e-01   6.258996e+00   4.838234e+00   7.946200e+04  -9.300163e+04  -8.754922e+04   1.958275e+12   1.526520e+12   1.550866e+11   1.504273e+05   4.990201e-22   0.000000e+00   0.000000e+00
     1152000   1.151999e-05   1.443972e-01   6.258431e+00   4.831645e+00   9.657813e+04   8.377335e+04  -7.929701e+04  -1.627043e+12   1.878173e+12   1.794798e+09   1.504438e+05   4.979716e-22   0.000000e+00   0.000000e+00
     1160000   1.159999e-05   1.451205e-01   6.267467e+00   4.825059e+00  -8.069625e+04   9.189083e+04  -8.764962e+04  -1.784976e+12  -1.721327e+12  -1.619525e+11   1.504602e+05   4.981228e-22   0.000000e+00   0.000000e+00
     1168000   1.167999e-05   1.367160e-01   6.267709e+00   4.817647e+00  -7.927508e+04  -8.543030e+04  -9.518570e+04   1.806999e+12  -1.693696e+12   1.451510e+10   1.504765e+05   4.949017e-22   0.000000e+00   0.000000e+00
     1176000   1.175999e-05   1.375495e-01   6.259272e+00   4.810304e+00   9.719443e+04  -7.570238e+04  -8.643191e+04   1.599791e+12   1.875655e+12   1.554778e+11   1.504928e+05   4.923878e-22   0.000000e+00   0.000000e+00
     1184000   1.183999e-05   1.465869e-01   6.260443e+00   4.803758e+00   7.930309e+04   9.999656e+04  -7.977886e+04  -1.944354e+12   1.519007e+12  -2.956515e+10   1.505090e+05   4.914589e-22   0.000000e+00   0.000000e+00
     1192000   1.191999e-05   1.456602e-01   6.269396e+00   4.797056e+00  -9.522624e+04   7.462055e+04  -8.956320e+04  -1.425318e+12  -2.008036e+12  -1.582566e+11   1.505252e+05   4.915661e-22   0.000000e+00   0.000000e+00
     1200000   1.199999e-05   1.374253e-01   6.268066e+00   4.789544e+00  -6.200184e+04  -9.851242e+04  -9.546602e+04   2.061549e+12  -1.338344e+12   4.151542e+10   1.505413e+05   4.879643e-22   0.000000e+00   0.000000e+00
     1208000   1.207999e-05   1.397591e-01   6.259856e+00   4.782240e+00   1.090341e+05  -5.874927e+04  -8.560132e+04   1.252113e+12   2.103104e+12   1.507815e+11   1.505573e+05   4.857011e-22   0.000000e+00   0.000000e+00
     1216000   1.215999e-05   1.485295e-01   6.262447e+00   4.775710e+00   6.284045e+04   1.106438e+05  -8.050675e+04  -2.146535e+12   1.179765e+12  -5.484631e+10   1.505733e+05   4.849068e-22   0.000000e+00   0.000000e+00
     1224000   1.223999e-05   1.462757e-01   6.271095e+00   4.768896e+00  -1.045128e+05   5.862347e+04  -9.120018e+04  -1.094923e+12  -2.185781e+12  -1.509266e+11   1.505892e+05   4.847518e-22   0.000000e+00   0.000000e+00
     1232000   1.231999e-05   1.383908e-01   6.268522e+00   4.761305e+00  -4.647097e+04  -1.066959e+05  -9.559460e+04   2.214497e+12  -1.021448e+12   6.292166e+10   1.506051e+05   4.809780e-22   0.000000e+00   0.000000e+00
     1240000   1.239999e-05   1.418899e-01   6.260681e+00   4.754035e+00   1.163109e+05  -4.393532e+04  -8.501823e+04   9.504472e+11   2.236281e+12   1.439273e+11   1.506209e+05   4.789528e-22   0.000000e+00   0.000000e+00
     1248000   1.247999e-05   1.502872e-01   6.264353e+00   4.747504e+00   4.886647e+04   1.170259e+05  -8.129199e+04  -2.261021e+12   8.930198e+11  -7.431049e+10   1.506366e+05   4.782608e-22   0.000000e+00   0.000000e+00
     1256000   1.255999e-05   1.470455e-01   6.272621e+00   4.740589e+00  -1.098649e+05   4.540896e+04  -9.254100e+04  -8.236475e+11  -2.282722e+12  -1.429115e+11   1.506523e+05   4.779095e-22   0.000000e+00   0.000000e+00
     1264000   1.263999e-05   1.395542e-01   6.269141e+00   4.732936e+00  -3.397216e+04  -1.112928e+05  -9.571111e+04   2.294412e+12  -7.683821e+11   7.847250e+10   1.506679e+05   4.740658e-22   0.000000e+00   0.000000e+00
     1272000   1.271999e-05   1.438891e-01   6.261684e+00   4.725686e+00   1.203420e+05  -3.235092e+04  -8.471550e+04   7.162214e+11   2.303230e+12   1.371831e+11   1.506834e+05   4.722027e-22   0.000000e+00   0.000000e+00
     1280000   1.279999e-05   1.519244e-01   6.266115e+00   4.719141e+00   3.830905e+04   1.204609e+05  -8.204726e+04  -2.315556e+12   6.770117e+11  -8.789591e+10   1.506989e+05   4.715881e-22   0.000000e+00   0.000000e+00
     1288000   1.287999e-05   1.480120e-01   6.274037e+00   4.712141e+00  -1.125738e+05   3.577106e+04  -9.360763e+04  -6.263336e+11  -2.325818e+12  -1.361685e+11   1.507144e+05   4.710696e-22   0.000000e+00   0.000000e+00
     1296000   1.295999e-05   1.408572e-01   6.269960e+00   4.704436e+00  -2.517452e+04  -1.135278e+05  -9.590177e+04   2.326760e+12  -5.914033e+11   8.871491e+10   1.507298e+05   4.672135e-22   0.000000e+00   0.000000e+00
     1304000   1.303999e-05   1.457251e-01   6.262811e+00   4.697187e+00   1.222179e+05  -2.455637e+04  -8.475756e+04   5.581446e+11   2.327186e+12   1.299065e+11   1.507450e+05   4.651021e-22   0.000000e+00   0.000000e+00
     1312000   1.311999e-05   1.534863e-01   6.267703e+00   4.690610e+00   3.157950e+04   1.219797e+05  -8.277884e+04  -2.331553e+12   5.406044e+11  -9.354885e+10   1.507603e+05   4.646246e-22   0.000000e+00   0.000000e+00
     1320000   1.319999e-05   1.491855e-01   6.275391e+00   4.683549e+00  -1.137591e+05   3.018402e+04  -9.423926e+04  -5.125670e+11  -2.334273e+12  -1.295200e+11   1.507755e+05   4.640050e-22   0.000000e+00   0.000000e+00
     1328000   1.327999e-05   1.422222e-01   6.271002e+00   4.675815e+00  -2.078490e+04  -1.143597e+05  -9.606070e+04   2.328577e+12  -5.004542e+11   9.135622e+10   1.507906e+05   4.602694e-22   0.000000e+00   0.000000e+00
     1336000   1.335999e-05   1.473245e-01   6.264005e+00   4.668553e+00   1.227612e+05  -2.126627e+04  -8.496933e+04   4.912502e+11   2.324133e+12   1.273899e+11   1.508056e+05   4.585843e-22   0.000000e+00   0.000000e+00
     1344000   1.343999e-05   1.549781e-01   6.269064e+00   4.661949e+00   2.940869e+04   1.222755e+05  -8.325087e+04  -2.323579e+12   4.939714e+11  -9.596720e+10   1.508206e+05   4.581151e-22   0.000000e+00   0.000000e+00
     1352000   1.351999e-05   1.505823e-01   6.276684e+00   4.654847e+00  -1.137190e+05   2.903688e+04  -9.474294e+04  -4.862767e+11  -2.321659e+12  -1.284659e+11   1.508356e+05   4.574634e-22   0.000000e+00   0.000000e+00
     1360000   1.359999e-05   1.436541e-01   6.272263e+00   4.647075e+00  -2.057295e+04  -1.141056e+05  -9.650151e+04   2.311516e+12  -4.945916e+11   9.144966e+10   1.508505e+05   4.537447e-22   0.000000e+00   0.000000e+00
     1368000   1.367999e-05   1.487317e-01   6.265259e+00   4.639778e+00   1.223804e+05  -2.209929e+04  -8.541079e+04   5.055829e+11   2.302667e+12   1.279744e+11   1.508653e+05   4.520639e-22   0.000000e+00   0.000000e+00
     1376000   1.375999e-05   1.564412e-01   6.270228e+00   4.633143e+00   3.137076e+04   1.216515e+05  -8.355588e+04  -2.297591e+12   5.285499e+11  -9.375702e+10   1.508801e+05   4.515690e-22   0.000000e+00   0.000000e+00
     1384000   1.383999e-05   1.522076e-01   6.277944e+00   4.626020e+00  -1.127622e+05   3.202334e+04  -9.501815e+04  -5.409166e+11  -2.291017e+12  -1.307817e+11   1.508949e+05   4.509578e-22   0.000000e+00   0.000000e+00
     1392000   1.391999e-05   1.451516e-01   6.273750e+00   4.618214e+00  -2.447407e+04  -1.128938e+05  -9.710659e+04   2.276093e+12  -5.688657e+11   8.713172e+10   1.509095e+05   4.472598e-22   0.000000e+00   0.000000e+00
     1400000   1.399999e-05   1.499449e-01   6.266581e+00   4.610862e+00   1.209806e+05  -2.702459e+04  -8.608983e+04   5.991893e+11   2.261248e+12   1.315610e+11   1.509241e+05   4.455426e-22   0.000000e+00   0.000000e+00
     1408000   1.407999e-05   1.578648e-01   6.271196e+00   4.604192e+00   3.740817e+04   1.199041e+05  -8.370249e+04  -2.249937e+12   6.418443e+11  -8.674858e+10   1.509386e+05   4.449891e-22   0.000000e+00   0.000000e+00
     1416000   1.415999e-05   1.540617e-01   6.279156e+00   4.597068e+00  -1.105293e+05   3.907451e+04  -9.509634e+04  -6.725096e+11  -2.235509e+12  -1.374825e+11   1.509532e+05   4.440167e-22   0.000000e+00   0.000000e+00
     1424000   1.423999e-05   1.467416e-01   6.275466e+00   4.589227e+00  -3.237174e+04  -1.102374e+05  -9.793364e+04   2.213142e+12  -7.203673e+11   7.876690e+10   1.509676e+05   4.404033e-22   0.000000e+00   0.000000e+00
     1432000   1.431999e-05   1.509711e-01   6.268002e+00   4.581796e+00   1.180327e+05  -3.595655e+04  -8.701122e+04   7.694899e+11   2.188433e+12   1.388608e+11   1.509819e+05   4.386596e-22   0.000000e+00   0.000000e+00
     1440000   1.439999e-05   1.592253e-01   6.271972e+00   4.575087e+00   4.752814e+04   1.163684e+05  -8.366201e+04  -2.166638e+12   8.315154e+11  -7.492165e+10   1.509962e+05   4.379883e-22   0.000000e+00   0.000000e+00
     1448000   1.447999e-05   1.561606e-01   6.280286e+00   4.567987e+00  -1.062779e+05   5.015088e+04  -9.483706e+04  -8.816131e+11  -2.141929e+12  -1.452758e+11   1.510105e+05   4.376536e-22   0.000000e+00   0.000000e+00
     1456000   1.455999e-05   1.484815e-01   6.277412e+00   4.560125e+00  -4.416248e+04  -1.053362e+05  -9.880497e+04   2.108443e+12  -9.444639e+11   6.395146e+10   1.510247e+05   4.341136e-22   0.000000e+00   0.000000e+00
     1464000   1.463999e-05   1.518284e-01   6.269584e+00   4.552595e+00   1.125266e+05  -4.853231e+04  -8.828989e+04   1.007572e+12   2.069042e+12   1.462236e+11   1.510388e+05   4.322340e-22   0.000000e+00   0.000000e+00
     1472000   1.471999e-05   1.604569e-01   6.272590e+00   4.545830e+00   6.097619e+04   1.100110e+05  -8.364488e+04  -2.031952e+12   1.083943e+12  -5.628757e+10   1.510529e+05   4.314538e-22   0.000000e+00   0.000000e+00
     1480000   1.479999e-05   1.584449e-01   6.281272e+00   4.538768e+00  -9.898826e+04   6.431666e+04  -9.426510e+04  -1.147727e+12  -1.990730e+12  -1.535950e+11   1.510669e+05   4.312857e-22   0.000000e+00   0.000000e+00
     1488000   1.487999e-05   1.504158e-01   6.279533e+00   4.530901e+00  -5.884742e+04  -9.708803e+04  -9.968120e+04   1.940949e+12  -1.221482e+12   4.332655e+10   1.510809e+05   4.278934e-22   0.000000e+00   0.000000e+00
     1496000   1.495999e-05   1.525567e-01   6.271376e+00   4.523257e+00   1.033642e+05  -6.375825e+04  -8.989083e+04   1.293649e+12   1.880887e+12   1.528814e+11   1.510948e+05   4.258129e-22   0.000000e+00   0.000000e+00
     1504000   1.503999e-05   1.614938e-01   6.273091e+00   4.516416e+00   7.681493e+04   9.964795e+04  -8.368736e+04  -1.822217e+12   1.378835e+12  -3.139724e+10   1.511086e+05   4.249151e-22   0.000000e+00   0.000000e+00
     1512000   1.511999e-05   1.608657e-01   6.282042e+00   4.509406e+00  -8.735812e+04   8.057568e+04  -9.334946e+04  -1.450880e+12  -1.758008e+12  -1.602439e+11   1.511225e+05   4.248852e-22   0.000000e+00   0.000000e+00
     1520000   1.519999e-05   1.526174e-01   6.281770e+00   4.501556e+00  -7.529644e+04  -8.416469e+04  -1.004436e+05   1.686382e+12  -1.528981e+12   1.648466e+10   1.511362e+05   4.217575e-22   0.000000e+00   0.000000e+00
     1528000   1.527999e-05   1.532253e-01   6.273449e+00   4.493794e+00   8.934944e+04  -8.045120e+04  -9.160014e+04   1.605635e+12   1.599164e+12   1.610948e+11   1.511499e+05   4.201570e-22   0.000000e+00   0.000000e+00
     1536000   1.535999e-05   1.622884e-01   6.273539e+00   4.486881e+00   9.398988e+04   8.398574e+04  -8.344294e+04  -1.511189e+12   1.691983e+12   1.744986e+08   1.511636e+05   4.190241e-22   0.000000e+00   0.000000e+00
     1544000   1.543999e-05   1.633984e-01   6.282534e+00   4.479963e+00  -6.974331e+04   9.774725e+04  -9.184709e+04  -1.763972e+12  -1.415855e+12  -1.679110e+11   1.511772e+05   4.189318e-22   0.000000e+00   0.000000e+00
     1552000   1.551999e-05   1.552237e-01   6.284082e+00   4.472164e+00  -9.188141e+04  -6.486482e+04  -1.010396e+05   1.316294e+12  -1.837792e+12  -1.767578e+10   1.511908e+05   4.162369e-22   0.000000e+00   0.000000e+00
     1560000   1.559999e-05   1.539710e-01   6.275943e+00   4.464266e+00   6.866163e+04  -9.651833e+04  -9.398144e+04   1.901910e+12   1.197406e+12   1.592430e+11   1.512042e+05   4.135394e-22   0.000000e+00   0.000000e+00
     1568000   1.567999e-05   1.627546e-01   6.274112e+00   4.457210e+00   1.096131e+05   6.149384e+04  -8.408480e+04  -1.077788e+12   1.974256e+12   3.822691e+10   1.512176e+05   4.123396e-22   0.000000e+00   0.000000e+00
     1576000   1.575999e-05   1.658529e-01   6.282695e+00   4.450348e+00  -4.539371e+04   1.125508e+05  -9.023613e+04  -2.032325e+12  -9.492033e+11  -1.621228e+11   1.512310e+05   4.121549e-22   0.000000e+00   0.000000e+00
     1584000   1.583999e-05   1.582315e-01   6.286276e+00   4.442635e+00  -1.055571e+05  -3.878542e+04  -1.011348e+05   8.210924e+11  -2.086494e+12  -5.731837e+10   1.512444e+05   4.100536e-22   0.000000e+00   0.000000e+00
     1592000   1.591999e-05   1.549320e-01   6.278840e+00   4.434612e+00   4.113377e+04  -1.088814e+05  -9.660081e+04   2.125855e+12   6.717302e+11   1.475721e+11   1.512576e+05   4.069722e-22   0.000000e+00   0.000000e+00
     1600000   1.599999e-05   1.628728e-01   6.274943e+00   4.427373e+00   1.206897e+05   3.218750e+04  -8.532775e+04  -5.216210e+11   2.167370e+12   7.920306e+10   1.512708e+05   4.057055e-22   0.000000e+00   0.000000e+00
     1608000   1.607999e-05   1.680564e-01   6.282508e+00   4.420545e+00  -1.429512e+04   1.218895e+05  -8.846140e+04  -2.195170e+12  -3.613642e+11  -1.437461e+11   1.512839e+05   4.052999e-22   0.000000e+00   0.000000e+00
     1616000   1.615999e-05   1.616358e-01   6.288165e+00   4.412960e+00  -1.128944e+05  -6.134438e+03  -1.005386e+05   2.080238e+11  -2.213348e+12  -9.903258e+10   1.512971e+05   4.039001e-22   0.000000e+00   0.000000e+00
     1624000   1.623999e-05   1.563038e-01   6.282114e+00   4.404845e+00   7.345735e+03  -1.139641e+05  -9.926217e+04   2.212057e+12   3.512139e+10   1.228818e+11   1.513101e+05   4.005057e-22   0.000000e+00   0.000000e+00
     1632000   1.631999e-05   1.626882e-01   6.276237e+00   4.397381e+00   1.234462e+05  -2.877227e+03  -8.747239e+04   1.330324e+11   2.205381e+12   1.146422e+11   1.513231e+05   3.993517e-22   0.000000e+00   0.000000e+00
     1640000   1.639999e-05   1.697823e-01   6.282046e+00   4.390525e+00   2.179189e+04   1.218896e+05  -8.700934e+04  -2.185079e+12   3.142879e+11  -1.075451e+11   1.513360e+05   3.986335e-22   0.000000e+00   0.000000e+00
     1648000   1.647999e-05   1.652988e-01   6.289520e+00   4.383100e+00  -1.102704e+05   3.081988e+04  -9.898004e+04  -4.820066e+11  -2.150516e+12  -1.331209e+11   1.513489e+05   3.978742e-22   0.000000e+00   0.000000e+00
     1656000   1.655999e-05   1.582508e-01   6.285599e+00   4.374966e+00  -3.025084e+04  -1.082284e+05  -1.013995e+05   2.094448e+12  -6.627409e+11   8.205464e+10   1.513617e+05   3.945048e-22   0.000000e+00   0.000000e+00
     1664000   1.663999e-05   1.623164e-01   6.278146e+00   4.367267e+00   1.144828e+05  -4.092696e+04  -9.018258e+04   8.384033e+11   2.021640e+12   1.463148e+11   1.513744e+05   3.928310e-22   0.000000e+00   0.000000e+00
     1672000   1.671999e-05   1.708414e-01   6.281434e+00   4.360343e+00   6.021509e+04   1.092625e+05  -8.575492e+04  -1.936857e+12   1.021404e+12  -5.917790e+10   1.513871e+05   3.918208e-22   0.000000e+00   0.000000e+00
     1680000   1.679999e-05   1.690776e-01   6.290147e+00   4.353102e+00  -9.387095e+04   6.900953e+04  -9.668419e+04  -1.183580e+12  -1.834958e+12  -1.610786e+11   1.513998e+05   3.915353e-22   0.000000e+00   0.000000e+00
     1688000   1.687999e-05   1.610197e-01   6.289116e+00   4.345005e+00  -6.745679e+04  -8.800494e+04  -1.031040e+05   1.713818e+12  -1.348015e+12   2.886220e+10   1.514124e+05   3.884371e-22   0.000000e+00   0.000000e+00
     1696000   1.695999e-05   1.620697e-01   6.280905e+00   4.337058e+00   9.070175e+04  -7.694382e+04  -9.371424e+04   1.498397e+12   1.567429e+12   1.627928e+11   1.514250e+05   3.863259e-22   0.000000e+00   0.000000e+00
     1704000   1.703999e-05   1.711054e-01   6.281036e+00   4.329980e+00   9.493394e+04   8.135915e+04  -8.544898e+04  -1.410754e+12   1.650100e+12   3.219798e+09   1.514374e+05   3.851262e-22   0.000000e+00   0.000000e+00
     1712000   1.711999e-05   1.726277e-01   6.289955e+00   4.322913e+00  -6.192216e+04   1.016715e+05  -9.362487e+04  -1.775528e+12  -1.236606e+12  -1.690804e+11   1.514499e+05   3.849617e-22   0.000000e+00   0.000000e+00
     1720000   1.719999e-05   1.646928e-01   6.292294e+00   4.314947e+00  -9.730640e+04  -5.222576e+04  -1.036569e+05   1.052189e+12  -1.889943e+12  -3.596280e+10   1.514623e+05   3.825727e-22   0.000000e+00   0.000000e+00
     1728000   1.727999e-05   1.623547e-01   6.284553e+00   4.306785e+00   5.165486e+04  -1.035335e+05  -9.776058e+04   1.979124e+12   8.397935e+11   1.558720e+11   1.514746e+05   3.798716e-22   0.000000e+00   0.000000e+00
     1736000   1.735999e-05   1.705850e-01   6.281285e+00   4.299457e+00   1.181324e+05   3.866691e+04  -8.659015e+04  -6.210136e+11   2.056161e+12   7.041616e+10   1.514868e+05   3.776379e-22   0.000000e+00   0.000000e+00
     1744000   1.743999e-05   1.755058e-01   6.289007e+00   4.292504e+00  -1.568487e+04   1.206597e+05  -9.026172e+04  -2.108248e+12  -3.831590e+11  -1.463563e+11   1.514990e+05   3.772510e-22   0.000000e+00   0.000000e+00
     1752000   1.751999e-05   1.691651e-01   6.294686e+00   4.284771e+00  -1.115916e+05  -2.944319e+03  -1.024416e+05   1.494667e+11  -2.136123e+12  -1.018702e+11   1.515112e+05   3.759050e-22   0.000000e+00   0.000000e+00
     1760000   1.759999e-05   1.636122e-01   6.288947e+00   4.276488e+00   1.258950e+02  -1.124109e+05  -1.016026e+05   2.128929e+12  -1.040869e+11   1.173490e+11   1.515233e+05   3.727909e-22   0.000000e+00   0.000000e+00
     1768000   1.767999e-05   1.694530e-01   6.282638e+00   4.268835e+00   1.213435e+05  -1.487687e+04  -8.953981e+04   3.536169e+11   2.097000e+12   1.302985e+11   1.515353e+05   3.714170e-22   0.000000e+00   0.000000e+00
     1776000   1.775999e-05   1.771912e-01   6.287562e+00   4.261876e+00   3.907149e+04   1.174048e+05  -8.749911e+04  -2.036574e+12   6.105084e+11  -9.075102e+10   1.515472e+05   3.705882e-22   0.000000e+00   0.000000e+00
     1784000   1.783999e-05   1.740246e-01   6.295754e+00   4.254430e+00  -1.017576e+05   5.207321e+04  -9.951862e+04  -8.452815e+11  -1.945259e+12  -1.540142e+11   1.515592e+05   3.701285e-22   0.000000e+00   0.000000e+00
     1792000   1.791999e-05   1.663232e-01   6.293532e+00   4.246158e+00  -5.394440e+04  -9.566647e+04  -1.044592e+05   1.819586e+12  -1.081728e+12   5.058201e+10   1.515711e+05   3.670214e-22   0.000000e+00   0.000000e+00
     1800000   1.799999e-05   1.683729e-01   6.285498e+00   4.238154e+00   9.795469e+04  -6.733349e+04  -9.406615e+04   1.297613e+12   1.658367e+12   1.637047e+11   1.515829e+05   3.652110e-22   0.000000e+00   0.000000e+00
     1808000   1.807999e-05   1.773938e-01   6.286363e+00   4.231030e+00   8.926980e+04   8.685898e+04  -8.641381e+04  -1.474466e+12   1.507335e+12  -8.611039e+09   1.515946e+05   3.640723e-22   0.000000e+00   0.000000e+00
     1816000   1.815999e-05   1.784997e-01   6.295319e+00   4.223855e+00  -6.446258e+04   9.879390e+04  -9.523036e+04  -1.680154e+12  -1.261453e+12  -1.718077e+11   1.516063e+05   3.639253e-22   0.000000e+00   0.000000e+00
     1824000   1.823999e-05   1.705841e-01   6.297509e+00   4.215759e+00  -9.598714e+04  -5.191162e+04  -1.052600e+05   1.028878e+12  -1.831577e+12  -3.537034e+10   1.516180e+05   3.615914e-22   0.000000e+00   0.000000e+00
     1832000   1.831999e-05   1.681854e-01   6.289852e+00   4.207468e+00   4.863641e+04  -1.036806e+05  -9.938001e+04   1.943704e+12   7.617909e+11   1.560480e+11   1.516296e+05   3.590370e-22   0.000000e+00   0.000000e+00
     1840000   1.839999e-05   1.762474e-01   6.286284e+00   4.200020e+00   1.193738e+05   3.200625e+04  -8.786660e+04  -4.848507e+11   2.031109e+12   8.064534e+10   1.516412e+05   3.578074e-22   0.000000e+00   0.000000e+00
     1848000   1.847999e-05   1.817154e-01   6.293644e+00   4.193001e+00  -4.624875e+03   1.213924e+05  -9.078010e+04  -2.070510e+12  -1.875834e+11  -1.458335e+11   1.516526e+05   3.559338e-22   0.000000e+00   0.000000e+00
     1856000   1.855999e-05   1.760453e-01   6.299997e+00   4.185201e+00  -1.098691e+05   1.137693e+04  -1.039295e+05  -9.770985e+10  -2.074441e+12  -1.242068e+11   1.516641e+05   3.547433e-22   0.000000e+00   0.000000e+00
     1864000   1.863999e-05   1.698325e-01   6.295187e+00   4.176730e+00  -1.603853e+04  -1.085443e+05  -1.047203e+05   2.029210e+12  -4.010975e+11   1.045489e+11   1.516754e+05   3.516178e-22   0.000000e+00   0.000000e+00
     1872000   1.871999e-05   1.745538e-01   6.288203e+00   4.168824e+00   1.155720e+05  -3.373694e+04  -9.227025e+04   6.898279e+11   1.941867e+12   1.535643e+11   1.516867e+05   3.500949e-22   0.000000e+00   0.000000e+00
     1880000   1.879999e-05   1.830009e-01   6.291692e+00   4.161743e+00   6.102935e+04   1.076744e+05  -8.771494e+04  -1.815192e+12   9.788865e+11  -6.180835e+10   1.516980e+05   3.490534e-22   0.000000e+00   0.000000e+00
     1888000   1.887999e-05   1.816583e-01   6.300461e+00   4.154327e+00  -8.654612e+04   7.535443e+04  -9.923282e+04  -1.235360e+12  -1.640788e+12  -1.689712e+11   1.517092e+05   3.482763e-22   0.000000e+00   0.000000e+00
     1896000   1.895999e-05   1.736489e-01   6.300370e+00   4.145982e+00  -7.689871e+04  -7.528278e+04  -1.069493e+05   1.430061e+12  -1.472137e+12   7.617137e+09   1.517203e+05   3.454953e-22   0.000000e+00   0.000000e+00
     1904000   1.903999e-05   1.733675e-01   6.292315e+00   4.137682e+00   7.314137e+04  -8.951239e+04  -9.828685e+04   1.671489e+12   1.176508e+12   1.719547e+11   1.517315e+05   3.451598e-22   0.000000e+00   0.000000e+00
     1912000   1.911999e-05   1.821286e-01   6.290613e+00   4.130314e+00   1.104624e+05   5.612152e+04  -8.760264e+04  -8.962328e+11   1.840260e+12   4.835702e+10   1.517425e+05   3.439396e-22   0.000000e+00   0.000000e+00
     1920000   1.919999e-05   1.860441e-01   6.298864e+00   4.123202e+00  -2.716697e+04   1.166839e+05  -9.314491e+04  -1.953859e+12  -5.852679e+11  -1.637531e+11   1.517536e+05   3.435620e-22   0.000000e+00   0.000000e+00
     1928000   1.927999e-05   1.793848e-01   6.303960e+00   4.115219e+00  -1.087096e+05  -9.139698e+03  -1.055044e+05   2.631958e+11  -2.022551e+12  -9.637629e+10   1.517646e+05   3.421641e-22   0.000000e+00   0.000000e+00
     1936000   1.935999e-05   1.741390e-01   6.298110e+00   4.106710e+00   1.933917e+03  -1.103433e+05  -1.041941e+05   2.031243e+12  -8.209938e+10   1.242478e+11   1.517755e+05   3.404778e-22   0.000000e+00   0.000000e+00
     1944000   1.943999e-05   1.798941e-01   6.291810e+00   4.098874e+00   1.196471e+05  -1.861026e+04  -9.152793e+04   4.134478e+11   1.988298e+12   1.357361e+11   1.517864e+05   3.400805e-22   0.000000e+00   0.000000e+00
     1952000   1.951999e-05   1.878961e-01   6.296276e+00   4.091785e+00   4.867815e+04   1.131881e+05  -8.866410e+04  -1.887231e+12   7.505441e+11  -7.844832e+10   1.517973e+05   3.391783e-22   0.000000e+00   0.000000e+00
     1960000   1.959999e-05   1.856780e-01   6.304810e+00   4.084263e+00  -9.249157e+04   6.599927e+04  -1.006734e+05  -1.046997e+12  -1.725796e+12  -1.698953e+11   1.518082e+05   3.369547e-22   0.000000e+00   0.000000e+00
     1968000   1.967999e-05   1.777727e-01   6.303992e+00   4.075821e+00  -6.983941e+04  -8.101948e+04  -1.077372e+05   1.513373e+12  -1.332681e+12   2.078601e+10   1.518190e+05   3.339910e-22   0.000000e+00   0.000000e+00
     1976000   1.975999e-05   1.780740e-01   6.295930e+00   4.067485e+00   7.809505e+04  -8.494235e+04  -9.868230e+04   1.567259e+12   1.246289e+12   1.671228e+11   1.518296e+05   3.316309e-22   0.000000e+00   0.000000e+00
     1984000   1.983999e-05   1.868965e-01   6.294633e+00   4.060060e+00   1.078380e+05   5.969227e+04  -8.867502e+04  -9.454001e+11   1.768332e+12   4.020812e+10   1.518402e+05   3.304392e-22   0.000000e+00   0.000000e+00
     1992000   1.991999e-05   1.905839e-01   6.302945e+00   4.052847e+00  -2.875279e+04   1.153598e+05  -9.446725e+04  -1.897422e+12  -6.063116e+11  -1.633132e+11   1.518508e+05   3.281929e-22   0.000000e+00   0.000000e+00
     2000000   1.999999e-05   1.839513e-01   6.307973e+00   4.044751e+00  -1.073919e+05  -8.521210e+03  -1.070338e+05   2.547667e+11  -1.974888e+12  -9.876497e+10   1.518613e+05   3.266238e-22   0.000000e+00   0.000000e+00
     2008000   2.007999e-05   1.786929e-01   6.302258e+00   4.036112e+00  -3.543554e+02  -1.088342e+05  -1.059246e+05   1.976791e+12  -1.237575e+11   1.201722e+11   1.518717e+05   3.235961e-22   0.000000e+00   0.000000e+00
     2016000   2.015999e-05   1.841982e-01   6.295862e+00   4.028124e+00   1.174573e+05  -2.299289e+04  -9.350551e+04   4.875347e+11   1.914497e+12   1.412265e+11   1.518821e+05   3.224462e-22   0.000000e+00   0.000000e+00
     2024000   2.023999e-05   1.923636e-01   6.299896e+00   4.020902e+00   5.538154e+04   1.091651e+05  -8.992870e+04  -1.784598e+12   8.491953e+11  -6.861478e+10   1.518924e+05   3.214784e-22   0.000000e+00   0.000000e+00
     2032000   2.031999e-05   1.908239e-01   6.308558e+00   4.013299e+00  -8.537528e+04   7.394864e+04  -1.015730e+05  -1.163852e+12  -1.581112e+12  -1.732324e+11   1.519026e+05   3.193714e-22   0.000000e+00   0.000000e+00
     2040000   2.039999e-05   1.829349e-01   6.308607e+00   4.004753e+00  -7.761294e+04  -7.089239e+04  -1.096723e+05   1.321720e+12  -1.450336e+12   1.793841e+09   1.519128e+05   3.166142e-22   0.000000e+00   0.000000e+00
     2048000   2.047999e-05   1.822491e-01   6.300734e+00   3.996212e+00   6.531802e+04  -9.222813e+04  -1.015288e+05   1.674517e+12   9.985894e+11   1.698023e+11   1.519229e+05   3.149785e-22   0.000000e+00   0.000000e+00
     2056000   2.055999e-05   1.907074e-01   6.298312e+00   3.988593e+00   1.142423e+05   4.324384e+04  -9.034547e+04  -6.435980e+11   1.841845e+12   6.734416e+10   1.519330e+05   3.134678e-22   0.000000e+00   0.000000e+00
     2064000   2.063999e-05   1.956525e-01   6.305952e+00   3.981331e+00  -8.259266e+03   1.189298e+05  -9.420275e+04  -1.925555e+12  -2.524010e+11  -1.502320e+11   1.519430e+05   3.121015e-22   0.000000e+00   0.000000e+00
     2072000   2.071999e-05   1.900789e-01   6.312218e+00   3.973251e+00  -1.064284e+05   1.454873e+04  -1.074757e+05  -1.359536e+11  -1.935124e+12  -1.276760e+11   1.519530e+05   3.109458e-22   0.000000e+00   0.000000e+00
     2080000   2.079999e-05   1.837519e-01   6.307909e+00   3.964470e+00  -2.433662e+04  -1.030191e+05  -1.090298e+05   1.856117e+12  -5.373478e+11   9.307583e+10   1.519629e+05   3.079491e-22   0.000000e+00   0.000000e+00
     2088000   2.087999e-05   1.875796e-01   6.300647e+00   3.956197e+00   1.069696e+05  -4.782360e+04  -9.677863e+04   9.081119e+11   1.694867e+12   1.658268e+11   1.519727e+05   3.065209e-22   0.000000e+00   0.000000e+00
     2096000   2.095999e-05   1.963868e-01   6.302666e+00   3.948832e+00   8.060601e+04   9.223650e+04  -8.996537e+04  -1.461583e+12   1.253659e+12  -2.463526e+10   1.519825e+05   3.052230e-22   0.000000e+00   0.000000e+00
     2104000   2.103999e-05   1.971897e-01   6.311553e+00   3.941328e+00  -6.142608e+04   9.675930e+04  -9.983040e+04  -1.526820e+12  -1.157155e+12  -1.824694e+11   1.519922e+05   3.048498e-22   0.000000e+00   0.000000e+00
     2112000   2.111999e-05   1.896272e-01   6.314108e+00   3.932826e+00  -9.554990e+04  -4.090612e+04  -1.109121e+05   8.045749e+11  -1.739737e+12  -5.182430e+10   1.520019e+05   3.026851e-22   0.000000e+00   0.000000e+00
     2120000   2.119999e-05   1.864641e-01   6.307120e+00   3.924034e+00   3.099527e+04  -1.043936e+05  -1.060603e+05   1.861473e+12   3.964037e+11   1.534824e+11   1.520116e+05   3.001761e-22   0.000000e+00   0.000000e+00
     2128000   2.127999e-05   1.935215e-01   6.302297e+00   3.916088e+00   1.201544e+05   4.522251e+03  -9.302089e+04   2.328630e+10   1.901302e+12   1.221211e+11   1.520211e+05   2.989483e-22   0.000000e+00   0.000000e+00
     2136000   2.135999e-05   2.007103e-01   6.307918e+00   3.908807e+00   3.388679e+04   1.160954e+05  -9.212420e+04  -1.843894e+12   4.551638e+11  -1.050474e+11   1.520307e+05   2.979767e-22   0.000000e+00   0.000000e+00
     2144000   2.143999e-05   1.977752e-01   6.316038e+00   3.900949e+00  -9.353344e+04   5.737026e+04  -1.052443e+05  -8.463262e+11  -1.692928e+12  -1.710309e+11   1.520402e+05   2.974682e-22   0.000000e+00   0.000000e+00
     2152000   2.151999e-05   1.901791e-01   6.314869e+00   3.892155e+00  -6.477966e+04  -7.998471e+04  -1.119157e+05   1.450364e+12  -1.211637e+12   2.611434e+10   1.520496e+05   2.942743e-22   0.000000e+00   0.000000e+00
     2160000   2.159999e-05   1.905504e-01   6.307027e+00   3.883501e+00   7.476749e+04  -8.398545e+04  -1.023631e+05   1.503075e+12   1.122195e+12   1.767983e+11   1.520590e+05   2.924575e-22   0.000000e+00   0.000000e+00
     2168000   2.167999e-05   1.992017e-01   6.305356e+00   3.875823e+00   1.106850e+05   5.052762e+04  -9.121710e+04  -7.400599e+11   1.726969e+12   5.822105e+10   1.520683e+05   2.911492e-22   0.000000e+00   0.000000e+00
     2176000   2.175999e-05   2.037846e-01   6.313194e+00   3.868457e+00  -1.128125e+04   1.174812e+05  -9.590871e+04  -1.843193e+12  -3.066010e+11  -1.591253e+11   1.520776e+05   2.897989e-22   0.000000e+00   0.000000e+00
     2184000   2.183999e-05   1.982191e-01   6.319348e+00   3.860219e+00  -1.043030e+05   1.500907e+04  -1.096631e+05  -1.305649e+11  -1.861243e+12  -1.308754e+11   1.520868e+05   2.883275e-22   0.000000e+00   0.000000e+00
     2192000   2.191999e-05   1.919260e-01   6.315248e+00   3.851251e+00  -2.695732e+04  -9.987330e+04  -1.114980e+05   1.766826e+12  -5.779955e+11   9.025090e+10   1.520960e+05   2.855180e-22   0.000000e+00   0.000000e+00
     2200000   2.199999e-05   1.953751e-01   6.307947e+00   3.842781e+00   1.023951e+05  -5.320314e+04  -9.909897e+04   9.824346e+11   1.565587e+12   1.742492e+11   1.521050e+05   2.841265e-22   0.000000e+00   0.000000e+00
     2208000   2.207999e-05   2.042546e-01   6.309287e+00   3.835273e+00   8.860806e+04   8.363113e+04  -9.106667e+04  -1.273389e+12   1.343274e+12  -5.789692e+09   1.521141e+05   2.824565e-22   0.000000e+00   0.000000e+00
     2216000   2.215999e-05   2.061048e-01   6.318045e+00   3.827727e+00  -4.691692e+04   1.045398e+05  -1.000583e+05  -1.605895e+12  -8.976313e+11  -1.851791e+11   1.521231e+05   2.819121e-22   0.000000e+00   0.000000e+00
     2224000   2.223999e-05   1.990867e-01   6.321853e+00   3.819161e+00  -9.993839e+04  -2.142866e+04  -1.126823e+05   4.746409e+11  -1.777868e+12  -8.316717e+10   1.521320e+05   2.798083e-22   0.000000e+00   0.000000e+00
     2232000   2.231999e-05   1.946818e-01   6.315833e+00   3.810127e+00   8.393184e+03  -1.046080e+05  -1.101526e+05   1.828485e+12   3.149265e+09   1.360273e+11   1.521409e+05   2.772722e-22   0.000000e+00   0.000000e+00
     2240000   2.239999e-05   2.003934e-01   6.309818e+00   3.801848e+00   1.155849e+05  -2.158283e+04  -9.656012e+04   4.590335e+11   1.763783e+12   1.548926e+11   1.521497e+05   2.759651e-22   0.000000e+00   0.000000e+00
     2248000   2.247999e-05   2.086506e-01   6.313570e+00   3.794422e+00   6.280398e+04   1.036111e+05  -9.204678e+04  -1.583280e+12   9.062068e+11  -6.058324e+10   1.521585e+05   2.748436e-22   0.000000e+00   0.000000e+00
     2256000   2.255999e-05   2.081440e-01   6.322341e+00   3.786659e+00  -7.121480e+04   8.546871e+04  -1.038192e+05  -1.273921e+12  -1.291296e+12  -1.895281e+11   1.521673e+05   2.744285e-22   0.000000e+00   0.000000e+00
     2264000   2.263999e-05   2.005796e-01   6.323967e+00   3.777847e+00  -8.783428e+04  -4.859673e+04  -1.143723e+05   9.152209e+11  -1.567899e+12  -3.694948e+10   1.521760e+05   2.720722e-22   0.000000e+00   0.000000e+00
     2272000   2.271999e-05   1.980766e-01   6.316898e+00   3.768825e+00   3.657609e+04  -1.003324e+05  -1.084239e+05   1.741280e+12   4.573203e+11   1.639165e+11   1.521846e+05   2.696903e-22   0.000000e+00   0.000000e+00
     2280000   2.279999e-05   2.052397e-01   6.312358e+00   3.760714e+00   1.189033e+05   5.249620e+03  -9.485368e+04   2.190618e+10   1.799606e+12   1.267153e+11   1.521932e+05   2.686522e-22   0.000000e+00   0.000000e+00
     2288000   2.287999e-05   2.125282e-01   6.317809e+00   3.753303e+00   3.937288e+04   1.134165e+05  -9.355128e+04  -1.722410e+12   5.152135e+11  -1.006397e+11   1.522017e+05   2.676216e-22   0.000000e+00   0.000000e+00
     2296000   2.295999e-05   2.102560e-01   6.326123e+00   3.745332e+00  -8.558567e+04   6.655375e+04  -1.068347e+05  -9.512062e+11  -1.515673e+12  -1.824921e+11   1.522102e+05   2.670815e-22   0.000000e+00   0.000000e+00
     2304000   2.303999e-05   2.026955e-01   6.326026e+00   3.736348e+00  -7.397268e+04  -6.645264e+04  -1.152502e+05   1.195368e+12  -1.332049e+12   5.341249e+08   1.522187e+05   2.644608e-22   0.000000e+00   0.000000e+00
     2312000   2.311999e-05   2.017704e-01   6.318515e+00   3.727363e+00   5.635946e+04  -9.248278e+04  -1.069749e+05   1.598563e+12   7.690925e+11   1.769999e+11   1.522271e+05   2.624236e-22   0.000000e+00   0.000000e+00
     2320000   2.319999e-05   2.097464e-01   6.315277e+00   3.719365e+00   1.171064e+05   2.498542e+04  -9.400767e+04  -2.922703e+11   1.751443e+12   1.010790e+11   1.522354e+05   2.612101e-22   0.000000e+00   0.000000e+00
     2328000   2.327999e-05   2.160981e-01   6.321791e+00   3.711925e+00   2.160167e+04   1.168862e+05  -9.512684e+04  -1.756925e+12   2.219811e+11  -1.265414e+11   1.522437e+05   2.603202e-22   0.000000e+00   0.000000e+00
     2336000   2.335999e-05   2.126702e-01   6.329543e+00   3.703781e+00  -9.278579e+04   5.165323e+04  -1.091027e+05  -6.993505e+11  -1.620005e+12  -1.724994e+11   1.522520e+05   2.596211e-22   0.000000e+00   0.000000e+00
     2344000   2.343999e-05   2.053395e-01   6.328278e+00   3.694675e+00  -6.242562e+04  -7.662701e+04  -1.158210e+05   1.346895e+12  -1.137203e+12   2.614933e+10   1.522602e+05   2.567394e-22   0.000000e+00   0.000000e+00
     2352000   2.351999e-05   2.055104e-01   6.320664e+00   3.685710e+00   6.832225e+04  -8.513672e+04  -1.061577e+05   1.466474e+12   9.495179e+11   1.820230e+11   1.522683e+05   2.548851e-22   0.000000e+00   0.000000e+00
     2360000   2.359999e-05   2.138711e-01   6.318342e+00   3.677764e+00   1.140120e+05   3.713406e+04  -9.386391e+04  -4.802859e+11   1.683314e+12   8.223848e+10   1.522764e+05   2.537323e-22   0.000000e+00   0.000000e+00
     2368000   2.367999e-05   2.195528e-01   6.325419e+00   3.670272e+00   1.071144e+04   1.173310e+05  -9.648445e+04  -1.743799e+12   4.461747e+10  -1.396516e+11   1.522845e+05   2.530439e-22   0.000000e+00   0.000000e+00
     2376000   2.375999e-05   2.155000e-01   6.332747e+00   3.662002e+00  -9.562935e+04   4.264580e+04  -1.105865e+05  -5.478559e+11  -1.651072e+12  -1.632271e+11   1.522925e+05   2.522855e-22   0.000000e+00   0.000000e+00
     2384000   2.383999e-05   2.083791e-01   6.330859e+00   3.652818e+00  -5.561635e+04  -8.119698e+04  -1.162295e+05   1.406161e+12  -1.020050e+12   3.948446e+10   1.523005e+05   2.495452e-22   0.000000e+00   0.000000e+00
     2392000   2.391999e-05   2.091131e-01   6.323257e+00   3.643851e+00   7.366182e+04  -8.085670e+04  -1.059904e+05   1.385096e+12   1.022961e+12   1.819545e+11   1.523084e+05   2.478102e-22   0.000000e+00   0.000000e+00
     2400000   2.399999e-05   2.176041e-01   6.321374e+00   3.635905e+00   1.120594e+05   4.216033e+04  -9.415640e+04  -5.533428e+11   1.634716e+12   7.310227e+10   1.523162e+05   2.466602e-22   0.000000e+00   0.000000e+00
     2408000   2.407999e-05   2.229996e-01   6.328644e+00   3.628363e+00   6.862576e+03   1.169444e+05  -9.736287e+04  -1.718936e+12  -1.812545e+10  -1.432348e+11   1.523240e+05   2.460041e-22   0.000000e+00   0.000000e+00
     2416000   2.415999e-05   2.187733e-01   6.335815e+00   3.620021e+00  -9.583396e+04   4.012236e+04  -1.114048e+05  -5.015215e+11  -1.639743e+12  -1.593937e+11   1.523318e+05   2.452110e-22   0.000000e+00   0.000000e+00
     2424000   2.423999e-05   2.117298e-01   6.333807e+00   3.610784e+00  -5.425844e+04  -8.141488e+04  -1.167690e+05   1.396497e+12  -9.902987e+11   4.131223e+10   1.523396e+05   2.425001e-22   0.000000e+00   0.000000e+00
     2432000   2.431999e-05   2.125087e-01   6.326237e+00   3.601775e+00   7.330978e+04  -8.050956e+04  -1.065531e+05   1.366802e+12   1.005529e+12   1.803430e+11   1.523473e+05   2.408007e-22   0.000000e+00   0.000000e+00
     2440000   2.439999e-05   2.209627e-01   6.324304e+00   3.593780e+00   1.121773e+05   4.056403e+04  -9.477771e+04  -5.221438e+11   1.618513e+12   7.440283e+10   1.523549e+05   2.396665e-22   0.000000e+00   0.000000e+00
     2448000   2.447999e-05   2.264879e-01   6.331457e+00   3.586197e+00   9.910750e+03   1.164877e+05  -9.770731e+04  -1.693907e+12   2.792360e+10  -1.388231e+11   1.523625e+05   2.389971e-22   0.000000e+00   0.000000e+00
     2456000   2.455999e-05   2.225060e-01   6.338770e+00   3.577837e+00  -9.388871e+04   4.410859e+04  -1.116063e+05  -5.573520e+11  -1.594800e+12  -1.616767e+11   1.523701e+05   2.382596e-22   0.000000e+00   0.000000e+00
     2464000   2.463999e-05   2.153865e-01   6.337131e+00   3.568567e+00  -5.834064e+04  -7.754145e+04  -1.174846e+05   1.324435e+12  -1.045666e+12   3.222222e+10   1.523776e+05   2.356701e-22   0.000000e+00   0.000000e+00
     2472000   2.471999e-05   2.157045e-01   6.329605e+00   3.559475e+00   6.741992e+04  -8.394686e+04  -1.078363e+05   1.407977e+12   9.021529e+11   1.777184e+11   1.523850e+05   2.339785e-22   0.000000e+00   0.000000e+00
     2480000   2.479999e-05   2.239497e-01   6.327149e+00   3.551385e+00   1.140960e+05   3.248388e+04  -9.565750e+04  -3.908771e+11   1.629177e+12   8.672961e+10   1.523924e+05   2.328975e-22   0.000000e+00   0.000000e+00
     2488000   2.487999e-05   2.299973e-01   6.333864e+00   3.543778e+00   1.971929e+04   1.155233e+05  -9.742283e+04  -1.660720e+12   1.772894e+11  -1.262046e+11   1.523998e+05   2.321608e-22   0.000000e+00   0.000000e+00
     2496000   2.495999e-05   2.266990e-01   6.341579e+00   3.535462e+00  -8.912105e+04   5.431520e+04  -1.110641e+05  -7.070414e+11  -1.506329e+12  -1.695619e+11   1.524072e+05   2.315489e-22   0.000000e+00   0.000000e+00
     2504000   2.503999e-05   2.194128e-01   6.340818e+00   3.526191e+00  -6.722181e+04  -6.877233e+04  -1.182445e+05   1.179517e+12  -1.173098e+12   1.149954e+10   1.524145e+05   2.290771e-22   0.000000e+00   0.000000e+00
     2512000   2.511999e-05   2.187658e-01   6.333437e+00   3.516980e+00   5.527757e+04  -9.006256e+04  -1.098431e+05   1.489724e+12   7.047174e+11   1.716286e+11   1.524217e+05   2.272616e-22   0.000000e+00   0.000000e+00
     2520000   2.519999e-05   2.265277e-01   6.330024e+00   3.508740e+00   1.162364e+05   1.755181e+04  -9.703399e+04  -1.577514e+11   1.641921e+12   1.077446e+11   1.524289e+05   2.262099e-22   0.000000e+00   0.000000e+00
     2528000   2.527999e-05   2.334022e-01   6.335880e+00   3.501103e+00   3.602019e+04   1.121484e+05  -9.675760e+04  -1.591473e+12   4.224922e+11  -1.030469e+11   1.524360e+05   2.253621e-22   0.000000e+00   0.000000e+00
     2536000   2.535999e-05   2.313033e-01   6.344121e+00   3.492882e+00  -7.945080e+04   6.972199e+04  -1.098423e+05  -9.302327e+11  -1.344868e+12  -1.810435e+11   1.524432e+05   2.241310e-22   0.000000e+00   0.000000e+00
     2544000   2.543999e-05   2.239469e-01   6.344774e+00   3.483639e+00  -7.890492e+04  -5.333011e+04  -1.190419e+05   9.383829e+11  -1.341626e+12  -2.117541e+10   1.524502e+05   2.220147e-22   0.000000e+00   0.000000e+00
     2552000   2.551999e-05   2.218843e-01   6.337840e+00   3.474272e+00   3.599248e+04  -9.620295e+04  -1.126621e+05   1.572282e+12   4.002428e+11   1.602956e+11   1.524572e+05   2.201292e-22   0.000000e+00   0.000000e+00
     2560000   2.559999e-05   2.287187e-01   6.333161e+00   3.465814e+00   1.157797e+05  -4.224681e+03  -9.910873e+04   1.760202e+11   1.611098e+12   1.366856e+11   1.524642e+05   2.191010e-22   0.000000e+00   0.000000e+00
     2568000   2.567999e-05   2.365535e-01   6.337601e+00   3.458126e+00   5.801452e+04   1.033804e+05  -9.588663e+04  -1.439249e+12   7.448971e+11  -6.795409e+10   1.524711e+05   2.179299e-22   0.000000e+00   0.000000e+00
     2576000   2.575999e-05   2.362447e-01   6.346259e+00   3.450051e+00  -6.240876e+04   8.815199e+04  -1.076286e+05  -1.196280e+12  -1.076575e+12  -1.883342e+11   1.524780e+05   2.175058e-22   0.000000e+00   0.000000e+00
     2584000   2.583999e-05   2.291615e-01   6.348828e+00   3.440912e+00  -9.038269e+04  -2.976487e+04  -1.191497e+05   5.804475e+11  -1.504329e+12  -6.472777e+10   1.524849e+05   2.157481e-22   0.000000e+00   0.000000e+00
     2592000   2.591999e-05   2.253565e-01   6.342872e+00   3.431402e+00   9.175654e+03  -9.870171e+04  -1.158770e+05   1.599940e+12  -1.059150e+10   1.354894e+11   1.524917e+05   2.136264e-22   0.000000e+00   0.000000e+00
     2600000   2.599999e-05   2.306245e-01   6.336846e+00   3.422661e+00   1.086594e+05  -3.155692e+04  -1.022401e+05   5.854760e+11   1.481874e+12   1.645975e+11   1.524984e+05   2.126134e-22   0.000000e+00   0.000000e+00
     2608000   2.607999e-05   2.392196e-01   6.339228e+00   3.414853e+00   8.235352e+04   8.582774e+04  -9.544268e+04  -1.161606e+12   1.095926e+12  -1.704661e+10   1.525051e+05   2.113764e-22   0.000000e+00   0.000000e+00
     2616000   2.615999e-05   2.412253e-01   6.347830e+00   3.406944e+00  -3.594250e+04   1.050615e+05  -1.045469e+05  -1.434870e+12  -6.724419e+11  -1.826968e+11   1.525118e+05   2.108758e-22   0.000000e+00   0.000000e+00
     2624000   2.623999e-05   2.350876e-01   6.352621e+00   3.398001e+00  -9.648776e+04   2.300528e+03  -1.180961e+05   1.024901e+11  -1.581706e+12  -1.147629e+11   1.525184e+05   2.093245e-22   0.000000e+00   0.000000e+00
     2632000   2.631999e-05   2.295223e-01   6.348429e+00   3.388401e+00  -2.361227e+04  -9.234178e+04  -1.190770e+05   1.496535e+12  -5.015502e+11   9.197796e+10   1.525250e+05   2.072007e-22   0.000000e+00   0.000000e+00
     2640000   2.639999e-05   2.324615e-01   6.341376e+00   3.379325e+00   9.054155e+04  -6.089436e+04  -1.065832e+05   1.017593e+12   1.190501e+12   1.840331e+11   1.525316e+05   2.061428e-22   0.000000e+00   0.000000e+00
     2648000   2.647999e-05   2.411956e-01   6.341092e+00   3.371296e+00   1.041430e+05   5.663511e+04  -9.599250e+04  -7.160280e+11   1.398384e+12   4.795788e+10   1.525381e+05   2.048188e-22   0.000000e+00   0.000000e+00
     2656000   2.655999e-05   2.458584e-01   6.348767e+00   3.363534e+00   9.641529e+02   1.144638e+05  -1.008312e+05  -1.555541e+12  -1.236222e+11  -1.554542e+11   1.525445e+05   2.038976e-22   0.000000e+00   0.000000e+00
     2664000   2.663999e-05   2.416710e-01   6.355743e+00   3.354889e+00  -9.076874e+04   4.134830e+04  -1.154260e+05  -4.663143e+11  -1.484717e+12  -1.653725e+11   1.525510e+05   2.030881e-22   0.000000e+00   0.000000e+00
     2672000   2.671999e-05   2.348217e-01   6.354271e+00   3.345302e+00  -5.788749e+04  -7.160423e+04  -1.216372e+05   1.187540e+12  -1.006350e+12   2.705554e+10   1.525574e+05   2.009939e-22   0.000000e+00   0.000000e+00
     2680000   2.679999e-05   2.347326e-01   6.347057e+00   3.335866e+00   5.820722e+04  -8.553334e+04  -1.121234e+05   1.375096e+12   6.949877e+11   1.834748e+11   1.525637e+05   1.996698e-22   0.000000e+00   0.000000e+00
     2688000   2.687999e-05   2.424910e-01   6.343800e+00   3.327479e+00   1.155358e+05   1.561767e+04  -9.841322e+04  -1.062685e+11   1.539032e+12   1.192353e+11   1.525700e+05   1.985725e-22   0.000000e+00   0.000000e+00
     2696000   2.695999e-05   2.496470e-01   6.349325e+00   3.319768e+00   4.502103e+04   1.085504e+05  -9.731096e+04  -1.450606e+12   5.152345e+11  -9.662467e+10   1.525762e+05   1.973387e-22   0.000000e+00   0.000000e+00
     2704000   2.703999e-05   2.485287e-01   6.357793e+00   3.311504e+00  -6.722732e+04   8.071311e+04  -1.106675e+05  -1.029507e+12  -1.128389e+12  -1.977861e+11   1.525825e+05   1.967912e-22   0.000000e+00   0.000000e+00
     2712000   2.711999e-05   2.415315e-01   6.359827e+00   3.302113e+00  -8.501244e+04  -3.349540e+04  -1.222057e+05   6.330520e+11  -1.395497e+12  -5.808311e+10   1.525887e+05   1.950878e-22   0.000000e+00   0.000000e+00
     2720000   2.719999e-05   2.381331e-01   6.353891e+00   3.292385e+00   1.207065e+04  -9.568430e+04  -1.182539e+05   1.515309e+12   1.280738e+10   1.441148e+11   1.525948e+05   1.922456e-22   0.000000e+00   0.000000e+00
     2728000   2.727999e-05   2.434008e-01   6.348019e+00   3.283483e+00   1.070024e+05  -3.237514e+04  -1.038718e+05   5.904510e+11   1.388052e+12   1.753915e+11   1.526008e+05   1.913471e-22   0.000000e+00   0.000000e+00
     2736000   2.735999e-05   2.520521e-01   6.350088e+00   3.275583e+00   8.721603e+04   8.032132e+04  -9.607654e+04  -1.027552e+12   1.111053e+12  -4.170000e+09   1.526069e+05   1.900541e-22   0.000000e+00   0.000000e+00
     2744000   2.743999e-05   2.548259e-01   6.358517e+00   3.267655e+00  -2.322457e+04   1.086853e+05  -1.045888e+05  -1.420173e+12  -4.809277e+11  -1.846247e+11   1.526128e+05   1.894009e-22   0.000000e+00   0.000000e+00
     2752000   2.751999e-05   2.494721e-01   6.364198e+00   3.258672e+00  -9.300667e+04   1.954071e+04  -1.194170e+05  -1.292183e+11  -1.493878e+12  -1.439993e+11   1.526188e+05   1.883232e-22   0.000000e+00   0.000000e+00
     2760000   2.759999e-05   2.433699e-01   6.361328e+00   3.248862e+00  -4.004513e+04  -8.100201e+04  -1.230015e+05   1.301487e+12  -7.396036e+11   6.315953e+10   1.526247e+05   1.863264e-22   0.000000e+00   0.000000e+00
     2768000   2.767999e-05   2.447230e-01   6.354210e+00   3.239414e+00   7.247456e+04  -7.503899e+04  -1.114122e+05   1.199740e+12   8.686312e+11   1.951947e+11   1.526306e+05   1.852720e-22   0.000000e+00   0.000000e+00
     2776000   2.775999e-05   2.529637e-01   6.352069e+00   3.231087e+00   1.132135e+05   2.954623e+04  -9.801834e+04  -2.916270e+11   1.457096e+12   1.021583e+11   1.526364e+05   1.841752e-22   0.000000e+00   0.000000e+00
     2784000   2.783999e-05   2.595342e-01   6.358292e+00   3.223342e+00   3.543647e+04   1.110139e+05  -9.858912e+04  -1.437244e+12   3.558116e+11  -1.161677e+11   1.526422e+05   1.831225e-22   0.000000e+00   0.000000e+00
     2792000   2.791999e-05   2.578590e-01   6.366560e+00   3.214930e+00  -7.014437e+04   7.511616e+04  -1.128660e+05  -9.114370e+11  -1.152322e+12  -2.006613e+11   1.526480e+05   1.825605e-22   0.000000e+00   0.000000e+00
     2800000   2.799999e-05   2.509477e-01   6.368218e+00   3.205367e+00  -8.118517e+04  -3.589691e+04  -1.241915e+05   6.624358e+11  -1.317760e+12  -5.232431e+10   1.526537e+05   1.808490e-22   0.000000e+00   0.000000e+00
     2808000   2.807999e-05   2.478359e-01   6.362300e+00   3.195501e+00   1.434887e+04  -9.379138e+04  -1.195918e+05   1.465683e+12   2.469536e+10   1.563062e+11   1.526594e+05   1.804652e-22   0.000000e+00   0.000000e+00
     2816000   2.815999e-05   2.531521e-01   6.356519e+00   3.186536e+00   1.067158e+05  -3.295965e+04  -1.040771e+05   5.969161e+11   1.330158e+12   1.906014e+11   1.526651e+05   1.795394e-22   0.000000e+00   0.000000e+00
     2824000   2.823999e-05   2.619089e-01   6.358392e+00   3.178667e+00   9.126911e+04   7.696804e+04  -9.515372e+04  -9.400441e+11   1.123819e+12   7.143382e+09   1.526708e+05   1.782859e-22   0.000000e+00   0.000000e+00
     2832000   2.831999e-05   2.652575e-01   6.366735e+00   3.170834e+00  -1.390782e+04   1.115176e+05  -1.033464e+05  -1.406699e+12  -3.514439e+11  -1.901319e+11   1.526764e+05   1.776146e-22   0.000000e+00   0.000000e+00
     2840000   2.839999e-05   2.605086e-01   6.373060e+00   3.161910e+00  -8.949545e+04   3.204540e+04  -1.194799e+05  -2.825533e+11  -1.420659e+12  -1.695651e+11   1.526820e+05   1.766638e-22   0.000000e+00   0.000000e+00
     2848000   2.847999e-05   2.541240e-01   6.371206e+00   3.152006e+00  -5.065623e+04  -7.108594e+04  -1.252765e+05   1.146824e+12  -8.849456e+11   3.825446e+10   1.526875e+05   1.744287e-22   0.000000e+00   0.000000e+00
     2856000   2.855999e-05   2.543443e-01   6.364243e+00   3.142320e+00   5.802492e+04  -8.240694e+04  -1.147055e+05   1.284301e+12   6.279210e+11   1.983829e+11   1.526930e+05   1.730514e-22   0.000000e+00   0.000000e+00
     2864000   2.863999e-05   2.619787e-01   6.360895e+00   3.133781e+00   1.153731e+05   9.659105e+03  -9.956178e+04   1.702980e+09   1.432282e+12   1.407200e+11   1.526984e+05   1.720807e-22   0.000000e+00   0.000000e+00
     2872000   2.871999e-05   2.696272e-01   6.365815e+00   3.126050e+00   5.846066e+04   1.027311e+05  -9.668053e+04  -1.274821e+12   6.525367e+11  -7.769523e+10   1.527038e+05   1.709106e-22   0.000000e+00   0.000000e+00
     2880000   2.879999e-05   2.699192e-01   6.374504e+00   3.117869e+00  -4.928836e+04   9.413205e+04  -1.096810e+05  -1.137745e+12  -8.433854e+11  -2.127311e+11   1.527092e+05   1.704247e-22   0.000000e+00   0.000000e+00
     2888000   2.887999e-05   2.636400e-01   6.378330e+00   3.108462e+00  -8.879814e+04  -6.053407e+03  -1.240967e+05   2.498103e+11  -1.399504e+12  -1.106497e+11   1.527145e+05   1.689613e-22   0.000000e+00   0.000000e+00
     2896000   2.895999e-05   2.587943e-01   6.374070e+00   3.098411e+00  -1.742677e+04  -8.709697e+04  -1.242327e+05   1.345782e+12  -4.189888e+11   1.048036e+11   1.527198e+05   1.660147e-22   0.000000e+00   0.000000e+00
     2904000   2.903999e-05   2.617327e-01   6.367371e+00   3.088965e+00   8.579697e+04  -6.108278e+04  -1.106016e+05   9.723376e+11   9.998359e+11   2.019049e+11   1.527250e+05   1.650464e-22   0.000000e+00   0.000000e+00
     2912000   2.911999e-05   2.703027e-01   6.366453e+00   3.080689e+00   1.091576e+05   4.262570e+04  -9.794995e+04  -4.457833e+11   1.329386e+12   8.152801e+10   1.527302e+05   1.639572e-22   0.000000e+00   0.000000e+00
     2920000   2.919999e-05   2.762956e-01   6.373232e+00   3.072879e+00   2.801348e+04   1.118171e+05  -1.002012e+05  -1.375818e+12   2.256279e+11  -1.330524e+11   1.527354e+05   1.630413e-22   0.000000e+00   0.000000e+00
     2928000   2.927999e-05   2.743269e-01   6.381319e+00   3.064301e+00  -6.963965e+04   7.212544e+04  -1.152298e+05  -8.182296e+11  -1.115255e+12  -2.037374e+11   1.527405e+05   1.624968e-22   0.000000e+00   0.000000e+00
     2936000   2.935999e-05   2.676158e-01   6.382955e+00   3.054543e+00  -7.867958e+04  -3.302530e+04  -1.266889e+05   6.117667e+11  -1.247605e+12  -5.486161e+10   1.527456e+05   1.607606e-22   0.000000e+00   0.000000e+00
     2944000   2.943999e-05   2.644408e-01   6.377358e+00   3.044463e+00   9.667601e+03  -9.063854e+04  -1.225722e+05   1.374365e+12  -5.204766e+10   1.467315e+11   1.527506e+05   1.590527e-22   0.000000e+00   0.000000e+00
     2952000   2.951999e-05   2.692376e-01   6.371449e+00   3.035235e+00   1.008036e+05  -4.026253e+04  -1.074795e+05   6.800545e+11   1.184394e+12   1.939552e+11   1.527556e+05   1.582120e-22   0.000000e+00   0.000000e+00
     2960000   2.959999e-05   2.779863e-01   6.372413e+00   3.027133e+00   9.883987e+04   6.413769e+04  -9.722571e+04  -7.226752e+11   1.168503e+12   3.596891e+10   1.527606e+05   1.570642e-22   0.000000e+00   0.000000e+00
     2968000   2.967999e-05   2.825428e-01   6.380161e+00   3.019235e+00   6.421823e+03   1.126715e+05  -1.029622e+05  -1.359050e+12  -7.380488e+10  -1.657122e+11   1.527655e+05   1.563235e-22   0.000000e+00   0.000000e+00
     2976000   2.975999e-05   2.792112e-01   6.387485e+00   3.010377e+00  -7.890849e+04   5.468040e+04  -1.188373e+05  -5.651045e+11  -1.231139e+12  -1.914073e+11   1.527704e+05   1.556482e-22   0.000000e+00   0.000000e+00
     2984000   2.983999e-05   2.725917e-01   6.387663e+00   3.000407e+00  -6.787675e+04  -4.830924e+04  -1.280596e+05   8.105363e+11  -1.091798e+12  -1.789111e+10   1.527753e+05   1.537978e-22   0.000000e+00   0.000000e+00
     2992000   2.991999e-05   2.706603e-01   6.381499e+00   2.990324e+00   2.663751e+04  -8.866761e+04  -1.215329e+05   1.326374e+12   1.728559e+11   1.644528e+11   1.527801e+05   1.510528e-22   0.000000e+00   0.000000e+00
     3000000   2.999999e-05   2.764474e-01   6.376331e+00   2.981200e+00   1.065552e+05  -2.598350e+04  -1.063676e+05   4.816025e+11   1.242188e+12   1.788397e+11   1.527848e+05   1.502939e-22   0.000000e+00   0.000000e+00
     3008000   3.007999e-05   2.850424e-01   6.378394e+00   2.973116e+00   9.023305e+04   7.475049e+04  -9.805615e+04  -8.492609e+11   1.035737e+12   7.878185e+09   1.527896e+05   1.492302e-22   0.000000e+00   0.000000e+00
     3016000   3.015999e-05   2.886956e-01   6.386489e+00   2.965075e+00  -5.099266e+03   1.104238e+05  -1.054830e+05  -1.305356e+12  -2.281917e+11  -1.759459e+11   1.527942e+05   1.486507e-22   0.000000e+00   0.000000e+00
     3024000   3.023999e-05   2.847497e-01   6.393258e+00   2.956010e+00  -8.158176e+04   4.491087e+04  -1.211402e+05  -4.253159e+11  -1.251332e+12  -1.776304e+11   1.527989e+05   1.479359e-22   0.000000e+00   0.000000e+00
     3032000   3.031999e-05   2.783202e-01   6.392743e+00   2.945911e+00  -6.145204e+04  -5.427331e+04  -1.289456e+05   8.776903e+11  -9.935863e+11  -2.188661e+08   1.528035e+05   1.462208e-22   0.000000e+00   0.000000e+00
     3040000   3.039999e-05   2.770002e-01   6.386430e+00   2.935807e+00   3.394289e+04  -8.651105e+04  -1.213014e+05   1.282555e+12   2.600302e+11   1.732932e+11   1.528081e+05   1.449847e-22   0.000000e+00   0.000000e+00
     3048000   3.047999e-05   2.831652e-01   6.381627e+00   2.926715e+00   1.082446e+05  -2.024694e+04  -1.059475e+05   4.038148e+11   1.240873e+12   1.752714e+11   1.528127e+05   1.442411e-22   0.000000e+00   0.000000e+00
     3056000   3.055999e-05   2.916917e-01   6.384067e+00   2.918646e+00   8.761017e+04   7.771819e+04  -9.817043e+04  -8.704912e+11   9.813927e+11  -9.198074e+07   1.528172e+05   1.431957e-22   0.000000e+00   0.000000e+00
     3064000   3.063999e-05   2.951388e-01   6.392238e+00   2.910573e+00  -6.882383e+03   1.097692e+05  -1.061029e+05  -1.271820e+12  -2.534760e+11  -1.798995e+11   1.528217e+05   1.426425e-22   0.000000e+00   0.000000e+00
     3072000   3.071999e-05   2.911615e-01   6.398932e+00   2.901451e+00  -8.078144e+04   4.435478e+04  -1.219133e+05  -4.056600e+11  -1.228468e+12  -1.782881e+11   1.528262e+05   1.419304e-22   0.000000e+00   0.000000e+00
     3080000   3.079999e-05   2.848348e-01   6.398447e+00   2.891273e+00  -6.018975e+04  -5.304427e+04  -1.300796e+05   8.629298e+11  -9.774865e+11  -8.185799e+08   1.528306e+05   1.414934e-22   0.000000e+00   0.000000e+00
     3088000   3.087999e-05   2.835462e-01   6.392240e+00   2.881088e+00   3.340914e+04  -8.568488e+04  -1.220675e+05   1.263804e+12   2.323242e+11   1.826783e+11   1.528351e+05   1.402045e-22   0.000000e+00   0.000000e+00
     3096000   3.095999e-05   2.896554e-01   6.387386e+00   2.871973e+00   1.080905e+05  -2.249516e+04  -1.056897e+05   4.368536e+11   1.203568e+12   1.904491e+11   1.528395e+05   1.394752e-22   0.000000e+00   0.000000e+00
     3104000   3.103999e-05   2.983267e-01   6.389578e+00   2.863973e+00   9.183332e+04   7.460552e+04  -9.675688e+04  -8.053156e+11   1.006469e+12   1.154124e+10   1.528438e+05   1.383144e-22   0.000000e+00   0.000000e+00
     3112000   3.111999e-05   3.022703e-01   6.397672e+00   2.856041e+00   3.905092e+02   1.119044e+05  -1.041145e+05  -1.272582e+12  -1.618436e+11  -1.788871e+11   1.528482e+05   1.396554e-22   0.000000e+00   0.000000e+00
     3120000   3.119999e-05   2.987692e-01   6.404819e+00   2.847059e+00  -7.742793e+04   5.302048e+04  -1.206551e+05  -5.010424e+11  -1.173573e+12  -1.943173e+11   1.528526e+05   1.386991e-22   0.000000e+00   0.000000e+00
     3128000   3.127999e-05   2.923295e-01   6.405091e+00   2.836933e+00  -6.668294e+04  -4.447471e+04  -1.301562e+05   7.427568e+11  -1.046642e+12  -2.302316e+10   1.528569e+05   1.371752e-22   0.000000e+00   0.000000e+00
     3136000   3.135999e-05   2.902369e-01   6.399224e+00   2.826670e+00   2.147777e+04  -8.703688e+04  -1.238137e+05   1.269090e+12   6.978750e+10   1.709558e+11   1.528612e+05   1.369337e-22   0.000000e+00   0.000000e+00
     3144000   3.143999e-05   2.955852e-01   6.393773e+00   2.817406e+00   1.030664e+05  -3.507147e+04  -1.073088e+05   5.939796e+11   1.113916e+12   2.062860e+11   1.528655e+05   1.362329e-22   0.000000e+00   0.000000e+00
     3152000   3.151999e-05   3.044216e-01   6.394863e+00   2.809350e+00   1.010989e+05   6.224777e+04  -9.629847e+04  -6.385612e+11   1.106437e+12   4.464277e+10   1.528698e+05   1.360557e-22   0.000000e+00   0.000000e+00
     3160000   3.159999e-05   3.095142e-01   6.402446e+00   2.801555e+00   1.775776e+04   1.130383e+05  -1.013779e+05  -1.262095e+12   5.347650e+10  -1.616063e+11   1.528740e+05   1.350561e-22   0.000000e+00   0.000000e+00
     3168000   3.167999e-05   3.071980e-01   6.410348e+00   2.792813e+00  -6.796205e+04   6.965130e+04  -1.179052e+05  -6.949399e+11  -1.041867e+12  -2.150372e+11   1.528783e+05   1.344647e-22   0.000000e+00   0.000000e+00
     3176000   3.175999e-05   3.007957e-01   6.412137e+00   2.782808e+00  -7.566716e+04  -2.641672e+04  -1.301910e+05   5.159810e+11  -1.151618e+12  -6.633952e+10   1.528825e+05   1.329892e-22   0.000000e+00   0.000000e+00
     3184000   3.183999e-05   2.974194e-01   6.407152e+00   2.772411e+00   9.971983e+02  -8.522907e+04  -1.269226e+05   1.234730e+12  -1.953883e+11   1.407804e+11   1.528866e+05   1.318048e-22   0.000000e+00   0.000000e+00
     3192000   3.191999e-05   3.013072e-01   6.401009e+00   2.762844e+00   9.049384e+04  -5.306455e+04  -1.112232e+05   8.141741e+11   9.308378e+11   2.181872e+11   1.528908e+05   1.313445e-22   0.000000e+00   0.000000e+00
     3200000   3.199999e-05   3.099928e-01   6.400336e+00   2.754565e+00   1.109515e+05   3.983165e+04  -9.736553e+04  -3.439924e+11   1.198521e+12   9.815533e+10   1.528949e+05   1.303083e-22   0.000000e+00   0.000000e+00
     3208000   3.207999e-05   3.166561e-01   6.406716e+00   2.746860e+00   4.427610e+04   1.085148e+05  -9.819495e+04  -1.181446e+12   3.750556e+11  -1.183995e+11   1.528990e+05   1.291558e-22   0.000000e+00   0.000000e+00
     3216000   3.215999e-05   3.163657e-01   6.415308e+00   2.738457e+00  -4.820478e+04   9.056254e+04  -1.133757e+05  -9.360343e+11  -7.842916e+11  -2.286340e+11   1.529030e+05   1.285834e-22   0.000000e+00   0.000000e+00
     3224000   3.223999e-05   3.105603e-01   6.419287e+00   2.728709e+00  -8.210605e+04   3.007864e+03  -1.289578e+05   1.570163e+11  -1.219955e+12  -1.285440e+11   1.529070e+05   1.274174e-22   0.000000e+00   0.000000e+00
     3232000   3.231999e-05   3.056719e-01   6.416077e+00   2.718201e+00  -2.739379e+04  -7.419421e+04  -1.308685e+05   1.094913e+12  -5.520555e+11   8.367470e+10   1.529110e+05   1.258522e-22   0.000000e+00   0.000000e+00
     3240000   3.239999e-05   3.072383e-01   6.409603e+00   2.708186e+00   6.589019e+04  -7.207765e+04  -1.176702e+05   1.046603e+12   5.976602e+11   2.198341e+11   1.529149e+05   1.250505e-22   0.000000e+00   0.000000e+00
     3248000   3.247999e-05   3.149866e-01   6.406651e+00   2.699471e+00   1.146464e+05   6.557124e+03  -1.009821e+05   7.408832e+10   1.208596e+12   1.624441e+11   1.529189e+05   1.243635e-22   0.000000e+00   0.000000e+00
     3256000   3.255999e-05   3.231779e-01   6.410834e+00   2.691714e+00   7.617073e+04   9.179560e+04  -9.569196e+04  -9.567296e+11   7.501088e+11  -4.214466e+10   1.529227e+05   1.233025e-22   0.000000e+00   0.000000e+00
     3264000   3.263999e-05   3.257222e-01   6.419448e+00   2.683707e+00  -1.500655e+04   1.084155e+05  -1.068056e+05  -1.137140e+12  -3.670954e+11  -2.129943e+11   1.529266e+05   1.227623e-22   0.000000e+00   0.000000e+00
     3272000   3.271999e-05   3.215509e-01   6.425899e+00   2.674444e+00  -7.812449e+04   4.221067e+04  -1.245092e+05  -3.144484e+11  -1.152310e+12  -1.934661e+11   1.529304e+05   1.220112e-22   0.000000e+00   0.000000e+00
     3280000   3.279999e-05   3.155154e-01   6.425544e+00   2.664036e+00  -5.801618e+04  -4.792599e+04  -1.331394e+05   7.740323e+11  -9.206788e+11  -5.981909e+09   1.529342e+05   1.205743e-22   0.000000e+00   0.000000e+00
     3288000   3.287999e-05   3.140507e-01   6.419741e+00   2.653591e+00   2.688104e+04  -8.328103e+04  -1.254261e+05   1.179142e+12   1.041004e+11   1.834756e+11   1.529380e+05   1.195855e-22   0.000000e+00   0.000000e+00
     3296000   3.295999e-05   3.195658e-01   6.414546e+00   2.644234e+00   1.027356e+05  -3.408212e+04  -1.080509e+05   5.696242e+11   1.027566e+12   2.173489e+11   1.529418e+05   1.189853e-22   0.000000e+00   0.000000e+00
     3304000   3.303999e-05   3.284579e-01   6.415435e+00   2.636163e+00   1.048051e+05   5.684095e+04  -9.579833e+04  -5.204892e+11   1.067880e+12   6.404322e+10   1.529455e+05   1.179720e-22   0.000000e+00   0.000000e+00
     3312000   3.311999e-05   3.342706e-01   6.422649e+00   2.628467e+00   3.185991e+04   1.117214e+05  -9.948231e+04  -1.159462e+12   1.975672e+11  -1.495939e+11   1.529492e+05   1.171763e-22   0.000000e+00   0.000000e+00
     3320000   3.319999e-05   3.332189e-01   6.431035e+00   2.619886e+00  -5.333483e+04   8.395455e+04  -1.161964e+05  -8.039765e+11  -8.357784e+11  -2.349596e+11   1.529528e+05   1.167106e-22   0.000000e+00   0.000000e+00
     3328000   3.327999e-05   3.274019e-01   6.434477e+00   2.609915e+00  -7.806387e+04  -2.153583e+03  -1.315184e+05   2.315328e+11  -1.148416e+12  -1.187287e+11   1.529565e+05   1.155870e-22   0.000000e+00   0.000000e+00
     3336000   3.335999e-05   3.229499e-01   6.431110e+00   2.599237e+00  -2.202424e+04  -7.309358e+04  -1.325483e+05   1.061153e+12  -4.923313e+11   9.507027e+10   1.529601e+05   1.148346e-22   0.000000e+00   0.000000e+00
     3344000   3.343999e-05   3.247859e-01   6.424824e+00   2.589122e+00   6.704518e+04  -6.972737e+04  -1.184944e+05   9.966535e+11   5.673323e+11   2.299564e+11   1.529637e+05   1.140555e-22   0.000000e+00   0.000000e+00
     3352000   3.351999e-05   3.325423e-01   6.421900e+00   2.580374e+00   1.148645e+05   4.486271e+03  -1.009208e+05   1.101980e+11   1.147205e+12   1.762859e+11   1.529672e+05   1.133301e-22   0.000000e+00   0.000000e+00
     3360000   3.359999e-05   3.409569e-01   6.425790e+00   2.572671e+00   8.236664e+04   8.776533e+04  -9.440891e+04  -8.601703e+11   7.784303e+11  -2.694248e+10   1.529708e+05   1.122742e-22   0.000000e+00   0.000000e+00
     3368000   3.367999e-05   3.442658e-01   6.434305e+00   2.564806e+00  -3.083422e+03   1.114510e+05  -1.047392e+05  -1.114389e+12  -2.297547e+11  -2.117991e+11   1.529743e+05   1.116903e-22   0.000000e+00   0.000000e+00
     3376000   3.375999e-05   3.409563e-01   6.441459e+00   2.555684e+00  -7.063701e+04   5.643317e+04  -1.234014e+05  -4.485938e+11  -1.040459e+12  -2.191419e+11   1.529778e+05   1.110540e-22   0.000000e+00   0.000000e+00
     3384000   3.383999e-05   3.349757e-01   6.442435e+00   2.545259e+00  -6.501288e+04  -3.133804e+04  -1.348870e+05   5.759328e+11  -9.900391e+11  -4.767176e+10   1.529812e+05   1.095859e-22   0.000000e+00   0.000000e+00
     3392000   3.391999e-05   3.324126e-01   6.437521e+00   2.534548e+00   8.293364e+03  -8.000112e+04  -1.301359e+05   1.120160e+12  -1.393806e+11   1.569706e+11   1.529847e+05   1.083128e-22   0.000000e+00   0.000000e+00
     3400000   3.399999e-05   3.365151e-01   6.431770e+00   2.524771e+00   8.939747e+04  -5.092388e+04  -1.132263e+05   7.604776e+11   8.110821e+11   2.355320e+11   1.529880e+05   1.077196e-22   0.000000e+00   0.000000e+00
     3408000   3.407999e-05   3.451496e-01   6.430845e+00   2.516397e+00   1.134565e+05   3.180088e+04  -9.758432e+04  -2.011326e+11   1.106757e+12   1.266927e+11   1.529914e+05   1.068704e-22   0.000000e+00   0.000000e+00
     3416000   3.415999e-05   3.525896e-01   6.436512e+00   2.508775e+00   6.179746e+04   1.019513e+05  -9.588743e+04  -9.955554e+11   5.204582e+11  -8.837558e+10   1.529947e+05   1.059077e-22   0.000000e+00   0.000000e+00
     3424000   3.423999e-05   3.541031e-01   6.445282e+00   2.500625e+00  -2.389492e+04   1.037885e+05  -1.098425e+05  -9.909962e+11  -4.764787e+11  -2.347532e+11   1.529981e+05   1.054449e-22   0.000000e+00   0.000000e+00
     3432000   3.431999e-05   3.497172e-01   6.451212e+00   2.491074e+00  -7.499598e+04   3.623881e+04  -1.283424e+05  -1.959785e+11  -1.086625e+12  -1.923991e+11   1.530014e+05   1.047793e-22   0.000000e+00   0.000000e+00
     3440000   3.439999e-05   3.441566e-01   6.450671e+00   2.480375e+00  -5.132595e+04  -4.626790e+04  -1.365113e+05   7.425239e+11  -8.287005e+11   1.605000e+09   1.530046e+05   1.032748e-22   0.000000e+00   0.000000e+00
     3448000   3.447999e-05   3.430178e-01   6.445183e+00   2.469682e+00   2.752445e+04  -7.875792e+04  -1.282614e+05   1.088288e+12   7.118834e+10   1.897345e+11   1.530078e+05   1.022237e-22   0.000000e+00   0.000000e+00
     3456000   3.455999e-05   3.483748e-01   6.440113e+00   2.460123e+00   9.966147e+04  -3.674661e+04  -1.101347e+05   5.900218e+11   9.036986e+11   2.322827e+11   1.530110e+05   1.016703e-22   0.000000e+00   0.000000e+00
     3464000   3.463999e-05   3.572591e-01   6.440437e+00   2.451952e+00   1.096512e+05   4.661519e+04  -9.600518e+04  -3.562172e+11   1.035027e+12   9.558105e+10   1.530142e+05   1.007197e-22   0.000000e+00   0.000000e+00
     3472000   3.471999e-05   3.640194e-01   6.446943e+00   2.444347e+00   5.036270e+04   1.070626e+05  -9.703356e+04  -1.021463e+12   3.714643e+11  -1.204293e+11   1.530173e+05   9.977015e-23   0.000000e+00   0.000000e+00
     3480000   3.479999e-05   3.646824e-01   6.455670e+00   2.436022e+00  -3.208356e+04   9.834203e+04  -1.127597e+05  -8.956454e+11  -5.727228e+11  -2.447606e+11   1.530205e+05   9.929228e-23   0.000000e+00   0.000000e+00
     3488000   3.487999e-05   3.599945e-01   6.460981e+00   2.426238e+00  -7.414751e+04   2.775208e+04  -1.309511e+05  -8.476535e+10  -1.067885e+12  -1.784078e+11   1.530236e+05   9.840309e-23   0.000000e+00   0.000000e+00
     3496000   3.495999e-05   3.547929e-01   6.459913e+00   2.415385e+00  -4.421755e+04  -5.007702e+04  -1.376744e+05   7.789738e+11  -7.449325e+11   2.068699e+10   1.530266e+05   9.696850e-23   0.000000e+00   0.000000e+00
     3504000   3.503999e-05   3.542448e-01   6.454384e+00   2.404654e+00   3.411465e+04  -7.629747e+04  -1.281911e+05   1.045831e+12   1.311845e+11   2.001513e+11   1.530296e+05   9.604443e-23   0.000000e+00   0.000000e+00
     3512000   3.511999e-05   3.599518e-01   6.449637e+00   2.395116e+00   1.015046e+05  -3.197848e+04  -1.099690e+05   5.271403e+11   8.986622e+11   2.251358e+11   1.530326e+05   9.480681e-23   0.000000e+00   0.000000e+00
     3520000   3.519999e-05   3.688241e-01   6.450268e+00   2.386930e+00   1.081826e+05   4.896546e+04  -9.653391e+04  -3.699525e+11   9.903008e+11   8.760499e+10   1.530356e+05   9.389912e-23   0.000000e+00   0.000000e+00
     3528000   3.527999e-05   3.754833e-01   6.456831e+00   2.379265e+00   4.994858e+04   1.065165e+05  -9.787825e+04  -9.879065e+11   3.533453e+11  -1.197259e+11   1.530385e+05   9.306075e-23   0.000000e+00   0.000000e+00
     3536000   3.535999e-05   3.762270e-01   6.465514e+00   2.370883e+00  -2.979994e+04   9.848561e+04  -1.132882e+05  -8.727784e+11  -5.393561e+11  -2.393998e+11   1.530414e+05   9.263138e-23   0.000000e+00   0.000000e+00
     3544000   3.543999e-05   3.717404e-01   6.470970e+00   2.361069e+00  -7.215425e+04   3.132541e+04  -1.312823e+05  -1.173909e+11  -1.026881e+12  -1.805897e+11   1.530443e+05   9.187702e-23   0.000000e+00   0.000000e+00
     3552000   3.551999e-05   3.665443e-01   6.470272e+00   2.350170e+00  -4.652100e+04  -4.514494e+04  -1.386404e+05   7.138639e+11  -7.599390e+11   7.839447e+09   1.530472e+05   9.073642e-23   0.000000e+00   0.000000e+00
     3560000   3.559999e-05   3.656254e-01   6.465012e+00   2.339317e+00   2.768101e+04  -7.542610e+04  -1.302650e+05   1.020189e+12   4.967122e+10   1.879443e+11   1.530500e+05   9.002235e-23   0.000000e+00   0.000000e+00
     3568000   3.567999e-05   3.708315e-01   6.460044e+00   2.329593e+00   9.674913e+04  -3.846672e+04  -1.121832e+05   5.967461e+11   8.134772e+11   2.356157e+11   1.530528e+05   8.959083e-23   0.000000e+00   0.000000e+00
     3576000   3.575999e-05   3.796250e-01   6.459959e+00   2.321284e+00   1.117241e+05   3.880786e+04  -9.714779e+04  -2.449556e+11   9.950049e+11   1.156582e+11   1.530556e+05   8.876353e-23   0.000000e+00   0.000000e+00
     3584000   3.583999e-05   3.869503e-01   6.465853e+00   2.313667e+00   6.247295e+04   1.014593e+05  -9.607292e+04  -9.066356e+11   4.718439e+11  -9.136579e+10   1.530584e+05   8.789505e-23   0.000000e+00   0.000000e+00
     3592000   3.591999e-05   3.888325e-01   6.474582e+00   2.305501e+00  -1.559752e+04   1.052421e+05  -1.100388e+05  -9.199439e+11  -3.821089e+11  -2.351495e+11   1.530611e+05   8.744963e-23   0.000000e+00   0.000000e+00
     3600000   3.599999e-05   3.851950e-01   6.481017e+00   2.295918e+00  -6.645625e+04   4.775014e+04  -1.293524e+05  -2.674010e+11  -9.615764e+11  -2.176642e+11   1.530638e+05   8.711147e-23   0.000000e+00   0.000000e+00
     3608000   3.607999e-05   3.799339e-01   6.481687e+00   2.285038e+00  -5.391880e+04  -2.942027e+04  -1.402019e+05   5.585803e+11  -8.458847e+11  -3.738970e+10   1.530666e+05   8.589748e-23   0.000000e+00   0.000000e+00
     3616000   3.615999e-05   3.780257e-01   6.477268e+00   2.273931e+00   1.195765e+04  -7.160453e+04  -1.347590e+05   9.844372e+11  -1.451888e+11   1.644235e+11   1.530692e+05   8.492367e-23   0.000000e+00   0.000000e+00
     3624000   3.623999e-05   3.820413e-01   6.471968e+00   2.263814e+00   8.498856e+04  -5.024024e+04  -1.169780e+05   7.295909e+11   6.443821e+11   2.532343e+11   1.530719e+05   8.446134e-23   0.000000e+00   0.000000e+00
     3632000   3.631999e-05   3.904534e-01   6.470545e+00   2.255222e+00   1.152099e+05   1.927986e+04  -9.892817e+04  -1.892483e+10   9.868327e+11   1.701805e+11   1.530745e+05   8.375460e-23   0.000000e+00   0.000000e+00
     3640000   3.639999e-05   3.987550e-01   6.475065e+00   2.247653e+00   8.249303e+04   8.927321e+04  -9.304728e+04  -7.477343e+11   6.564371e+11  -3.321459e+10   1.530771e+05   8.275227e-23   0.000000e+00   0.000000e+00
     3648000   3.647999e-05   4.025436e-01   6.483547e+00   2.239884e+00   9.245611e+03   1.123047e+05  -1.036126e+05  -9.680874e+11  -1.181861e+11  -2.145817e+11   1.530797e+05   8.326328e-23   0.000000e+00   0.000000e+00
     3656000   3.655999e-05   4.005032e-01   6.491320e+00   2.230825e+00  -5.423804e+04   7.267748e+04  -1.233305e+05  -5.226471e+11  -8.103893e+11  -2.477863e+11   1.530823e+05   8.277202e-23   0.000000e+00   0.000000e+00
     3664000   3.663999e-05   3.953290e-01   6.494207e+00   2.220262e+00  -6.432974e+04  -2.274443e+03  -1.388938e+05   2.788348e+11  -9.450258e+11  -1.137401e+11   1.530849e+05   8.214616e-23   0.000000e+00   0.000000e+00
     3672000   3.671999e-05   3.918288e-01   6.491397e+00   2.209011e+00  -1.512640e+04  -6.115661e+04  -1.395236e+05   8.757284e+11  -4.404142e+11   9.803301e+10   1.530875e+05   8.103957e-23   0.000000e+00   0.000000e+00
     3680000   3.679999e-05   3.936089e-01   6.485924e+00   2.198351e+00   5.978263e+04  -6.507361e+04  -1.250120e+05   8.877542e+11   3.449239e+11   2.449138e+11   1.530900e+05   8.075721e-23   0.000000e+00   0.000000e+00
     3688000   3.687999e-05   4.007467e-01   6.482534e+00   2.189167e+00   1.109442e+05  -1.219845e+04  -1.047850e+05   3.127663e+11   9.012347e+11   2.261425e+11   1.530925e+05   8.026924e-23   0.000000e+00   0.000000e+00
     3696000   3.695999e-05   4.097900e-01   6.484571e+00   2.181364e+00   1.047487e+05   6.254030e+04  -9.249057e+04  -4.574196e+11   8.586935e+11   6.248577e+10   1.530950e+05   7.937867e-23   0.000000e+00   0.000000e+00
     3704000   3.703999e-05   4.160734e-01   6.491795e+00   2.173936e+00   4.604977e+04   1.099789e+05  -9.603595e+04  -9.235553e+11   2.588788e+11  -1.464840e+11   1.530975e+05   7.862440e-23   0.000000e+00   0.000000e+00
     3712000   3.711999e-05   4.167810e-01   6.500586e+00   2.165623e+00  -2.646455e+04   9.947320e+04  -1.133327e+05  -7.820943e+11  -5.070036e+11  -2.624562e+11   1.530999e+05   7.830765e-23   0.000000e+00   0.000000e+00
     3720000   3.719999e-05   4.127623e-01   6.506325e+00   2.155733e+00  -6.523458e+04   3.825969e+04  -1.331202e+05  -1.323442e+11  -9.328699e+11  -2.033290e+11   1.531024e+05   7.759999e-23   0.000000e+00   0.000000e+00
     3728000   3.727999e-05   4.079379e-01   6.506430e+00   2.144613e+00  -4.559750e+04  -3.318803e+04  -1.423394e+05   5.927398e+11  -7.509874e+11  -1.484351e+10   1.531048e+05   7.646977e-23   0.000000e+00   0.000000e+00
     3736000   3.735999e-05   4.066925e-01   6.501989e+00   2.133400e+00   1.900399e+04  -6.898815e+04  -1.353561e+05   9.298137e+11  -9.549062e+10   1.791484e+11   1.531072e+05   7.565545e-23   0.000000e+00   0.000000e+00
     3744000   3.743999e-05   4.110724e-01   6.496965e+00   2.123272e+00   8.709277e+04  -4.710892e+04  -1.167824e+05   6.782766e+11   6.094410e+11   2.599183e+11   1.531095e+05   7.509552e-23   0.000000e+00   0.000000e+00
     3752000   3.751999e-05   4.195630e-01   6.495628e+00   2.114718e+00   1.161477e+05   1.796461e+04  -9.813376e+04   8.966802e+09   9.267675e+11   1.801783e+11   1.531119e+05   7.446368e-23   0.000000e+00   0.000000e+00
     3760000   3.759999e-05   4.281110e-01   6.499905e+00   2.107253e+00   8.853385e+04   8.545105e+04  -9.112532e+04  -6.599089e+11   6.671968e+11  -1.558760e+10   1.531142e+05   7.358311e-23   0.000000e+00   0.000000e+00
     3768000   3.767999e-05   4.326717e-01   6.508219e+00   2.099689e+00   2.210580e+04   1.133520e+05  -1.005351e+05  -9.112559e+11  -3.254482e+09  -2.041244e+11   1.531164e+05   7.284932e-23   0.000000e+00   0.000000e+00
     3776000   3.775999e-05   4.317193e-01   6.516507e+00   2.090884e+00  -4.163572e+04   8.492559e+04  -1.204137e+05  -5.940088e+11  -6.665386e+11  -2.647779e+11   1.531187e+05   7.244740e-23   0.000000e+00   0.000000e+00
     3784000   3.783999e-05   4.271664e-01   6.520763e+00   2.080476e+00  -6.298768e+04   1.819653e+04  -1.383744e+05   8.807418e+10  -9.087566e+11  -1.596567e+11   1.531210e+05   7.176942e-23   0.000000e+00   0.000000e+00
     3792000   3.791999e-05   4.231422e-01   6.519511e+00   2.069099e+00  -2.927616e+04  -4.519144e+04  -1.433435e+05   7.070887e+11  -5.904396e+11   4.167239e+10   1.531232e+05   7.103997e-23   0.000000e+00   0.000000e+00
     3800000   3.799999e-05   4.234031e-01   6.514674e+00   2.057974e+00   3.826475e+04  -6.669618e+04  -1.324191e+05   8.903346e+11   7.982080e+10   2.170096e+11   1.531254e+05   7.069362e-23   0.000000e+00   0.000000e+00
     3808000   3.807999e-05   4.290684e-01   6.510317e+00   2.048167e+00   9.863772e+04  -3.395657e+04  -1.120965e+05   5.396098e+11   6.940157e+11   2.645137e+11   1.531276e+05   7.041527e-23   0.000000e+00   0.000000e+00
     3816000   3.815999e-05   4.380127e-01   6.510173e+00   2.039967e+00   1.159730e+05   3.299519e+04  -9.439444e+04  -1.280465e+11   8.912246e+11   1.541174e+11   1.531298e+05   6.971764e-23   0.000000e+00   0.000000e+00
     3824000   3.823999e-05   4.461823e-01   6.515440e+00   2.032700e+00   8.037477e+04   9.421289e+04  -9.007348e+04  -7.137675e+11   5.586352e+11  -5.269600e+10   1.531320e+05   6.887442e-23   0.000000e+00   0.000000e+00
     3832000   3.831999e-05   4.500211e-01   6.524101e+00   2.025111e+00   1.351207e+04   1.133720e+05  -1.020504e+05  -8.683633e+11  -1.042115e+11  -2.308294e+11   1.531341e+05   6.836519e-23   0.000000e+00   0.000000e+00
     3840000   3.839999e-05   4.485891e-01   6.532132e+00   2.016122e+00  -4.437996e+04   7.939554e+04  -1.231969e+05  -5.025568e+11  -6.987974e+11  -2.693742e+11   1.531363e+05   6.796992e-23   0.000000e+00   0.000000e+00
     3848000   3.847999e-05   4.441027e-01   6.535924e+00   2.005498e+00  -5.888565e+04   1.306970e+04  -1.407587e+05   1.574154e+11  -8.713518e+11  -1.468177e+11   1.531384e+05   6.731549e-23   0.000000e+00   0.000000e+00
     3856000   3.855999e-05   4.405720e-01   6.534418e+00   1.993980e+00  -2.175497e+04  -4.617116e+04  -1.443847e+05   7.212738e+11  -5.326337e+11   6.159202e+10   1.531405e+05   6.749608e-23   0.000000e+00   0.000000e+00
     3864000   3.863999e-05   4.414205e-01   6.529673e+00   1.982837e+00   4.479008e+04  -6.375686e+04  -1.318392e+05   8.568980e+11   1.135537e+11   2.361413e+11   1.531426e+05   6.709704e-23   0.000000e+00   0.000000e+00
     3872000   3.871999e-05   4.474835e-01   6.525613e+00   1.973132e+00   1.020007e+05  -3.001213e+04  -1.102199e+05   5.017889e+11   6.861915e+11   2.774524e+11   1.531447e+05   6.682307e-23   0.000000e+00   0.000000e+00
     3880000   3.879999e-05   4.566035e-01   6.525729e+00   1.965117e+00   1.174304e+05   3.531205e+04  -9.174472e+04  -1.343907e+11   8.645546e+11   1.606603e+11   1.531468e+05   6.613103e-23   0.000000e+00   0.000000e+00
     3888000   3.887999e-05   4.649084e-01   6.531109e+00   1.958076e+00   8.273443e+04   9.495200e+04  -8.714178e+04  -6.881260e+11   5.516314e+11  -5.234010e+10   1.531488e+05   6.523245e-23   0.000000e+00   0.000000e+00
     3896000   3.895999e-05   4.690283e-01   6.539847e+00   1.950715e+00   1.817122e+04   1.150862e+05  -9.939893e+04  -8.434381e+11  -7.285157e+10  -2.386167e+11   1.531508e+05   6.465572e-23   0.000000e+00   0.000000e+00
     3904000   3.903999e-05   4.680165e-01   6.548145e+00   1.941903e+00  -3.903627e+04   8.459838e+04  -1.215528e+05  -5.147306e+11  -6.493506e+11  -2.866947e+11   1.531529e+05   6.425330e-23   0.000000e+00   0.000000e+00
     3912000   3.911999e-05   4.638688e-01   6.552494e+00   1.931346e+00  -5.634813e+04   2.144633e+04  -1.407883e+05   1.020332e+11  -8.492971e+11  -1.702648e+11   1.531549e+05   6.357877e-23   0.000000e+00   0.000000e+00
     3920000   3.919999e-05   4.603372e-01   6.551671e+00   1.919751e+00  -2.453196e+04  -3.824127e+04  -1.462628e+05   6.523007e+11  -5.697625e+11   3.950911e+10   1.531568e+05   6.282649e-23   0.000000e+00   0.000000e+00
     3928000   3.927999e-05   4.607780e-01   6.547372e+00   1.908396e+00   3.799560e+04  -6.130179e+04  -1.351149e+05   8.341870e+11   1.956479e+10   2.256495e+11   1.531588e+05   6.245041e-23   0.000000e+00   0.000000e+00
     3936000   3.935999e-05   4.663068e-01   6.543187e+00   1.898418e+00   9.652947e+04  -3.567003e+04  -1.134368e+05   5.600752e+11   5.874609e+11   2.918062e+11   1.531607e+05   6.218261e-23   0.000000e+00   0.000000e+00
     3944000   3.943999e-05   4.752544e-01   6.542592e+00   1.890218e+00   1.194329e+05   2.410517e+04  -9.280914e+04  -1.393958e+10   8.350401e+11   1.988659e+11   1.531627e+05   6.160654e-23   0.000000e+00   0.000000e+00
     3952000   3.951999e-05   4.841198e-01   6.547091e+00   1.883229e+00   9.465154e+04   8.561845e+04  -8.467558e+04  -5.747552e+11   6.292836e+11  -6.264375e+09   1.531646e+05   6.071759e-23   0.000000e+00   0.000000e+00
     3960000   3.959999e-05   4.894817e-01   6.555432e+00   1.876200e+00   3.614438e+04   1.155329e+05  -9.383865e+04  -8.164441e+11   8.324909e+10  -2.120559e+11   1.531665e+05   6.005853e-23   0.000000e+00   0.000000e+00
     3968000   3.967999e-05   4.898655e-01   6.564282e+00   1.867877e+00  -2.375129e+04   9.784432e+04  -1.154249e+05  -6.086042e+11  -5.027891e+11  -3.010362e+11   1.531683e+05   5.967042e-23   0.000000e+00   0.000000e+00
     3976000   3.975999e-05   4.865348e-01   6.570070e+00   1.857719e+00  -5.228738e+04   4.274575e+04  -1.374770e+05  -7.184773e+10  -8.073625e+11  -2.237585e+11   1.531702e+05   5.910726e-23   0.000000e+00   0.000000e+00
     3984000   3.983999e-05   4.827608e-01   6.570932e+00   1.846195e+00  -3.442669e+04  -1.937641e+04  -1.479900e+05   4.954327e+11  -6.722959e+11  -2.727487e+10   1.531720e+05   5.836592e-23   0.000000e+00   0.000000e+00
     3992000   3.991999e-05   4.820086e-01   6.567685e+00   1.834502e+00   1.959900e+04  -5.521685e+04  -1.415246e+05   7.913350e+11  -1.835006e+11   1.811330e+11   1.531738e+05   5.790858e-23   0.000000e+00   0.000000e+00
     4000000   3.999999e-05   4.860922e-01   6.563311e+00   1.823917e+00   8.085448e+04  -4.635569e+04  -1.215586e+05   6.699529e+11   3.933473e+11   2.955604e+11   1.531756e+05   5.776131e-23   0.000000e+00   0.000000e+00
     4008000   4.007999e-05   4.942744e-01   6.561341e+00   1.815141e+00   1.174220e+05   2.025655e+03  -9.834271e+04   2.033922e+11   7.605350e+11   2.584477e+11   1.531774e+05   5.740006e-23   0.000000e+00   0.000000e+00
     4016000   4.015999e-05   5.037021e-01   6.564023e+00   1.807944e+00   1.106039e+05   6.470407e+04  -8.392871e+04  -3.659332e+11   7.354751e+11   8.468806e+10   1.531792e+05   5.701899e-23   0.000000e+00   0.000000e+00
     4024000   4.023999e-05   5.108956e-01   6.571200e+00   1.801263e+00   6.419747e+04   1.092481e+05  -8.606955e+04  -7.402294e+11   3.276242e+11  -1.363466e+11   1.531810e+05   5.634011e-23   0.000000e+00   0.000000e+00
     4032000   4.031999e-05   5.135799e-01   6.580374e+00   1.793740e+00   3.236937e+03   1.123342e+05  -1.040937e+05  -7.158296e+11  -2.492029e+11  -2.912541e+11   1.531827e+05   5.512699e-23   0.000000e+00   0.000000e+00
     4040000   4.039999e-05   5.118872e-01   6.588028e+00   1.784438e+00  -4.025569e+04   7.317057e+04  -1.284174e+05  -3.223248e+11  -6.836002e+11  -2.885167e+11   1.531844e+05   5.471867e-23   0.000000e+00   0.000000e+00
     4048000   4.047999e-05   5.082197e-01   6.591504e+00   1.773372e+00  -4.397628e+04   1.275266e+04  -1.461829e+05   2.318246e+11  -7.577058e+11  -1.358846e+11   1.531861e+05   5.404105e-23   0.000000e+00   0.000000e+00
     4056000   4.055999e-05   5.059658e-01   6.590344e+00   1.761472e+00  -6.631114e+03  -3.754879e+04  -1.483665e+05   6.586608e+11  -4.446092e+11   8.304098e+10   1.531878e+05   5.338013e-23   0.000000e+00   0.000000e+00
     4064000   4.063999e-05   5.077429e-01   6.586456e+00   1.750080e+00   5.226965e+04  -5.250831e+04  -1.340812e+05   7.488654e+11   8.538030e+10   2.584508e+11   1.531895e+05   5.308681e-23   0.000000e+00   0.000000e+00
     4072000   4.071999e-05   5.141096e-01   6.583088e+00   1.740272e+00   1.031129e+05  -2.524674e+04  -1.104439e+05   4.676043e+11   5.655073e+11   3.072375e+11   1.531911e+05   5.291749e-23   0.000000e+00   0.000000e+00
     4080000   4.079999e-05   5.233447e-01   6.583185e+00   1.732349e+00   1.209308e+05   3.032633e+04  -8.901730e+04  -4.056857e+10   7.636012e+11   2.049597e+11   1.531928e+05   5.240809e-23   0.000000e+00   0.000000e+00
     4088000   4.087999e-05   5.323336e-01   6.587963e+00   1.725680e+00   9.729207e+04   8.672907e+04  -8.050371e+04  -5.237957e+11   5.855898e+11  -2.231924e+09   1.531944e+05   5.161825e-23   0.000000e+00   0.000000e+00
     4096000   4.095999e-05   5.381151e-01   6.596330e+00   1.718994e+00   4.431147e+04   1.162024e+05  -8.945672e+04  -7.420120e+11   1.196965e+11  -2.121330e+11   1.531960e+05   5.100275e-23   0.000000e+00   0.000000e+00
     4104000   4.103999e-05   5.393465e-01   6.605438e+00   1.711013e+00  -1.155342e+04   1.045205e+05  -1.114068e+05  -5.934110e+11  -3.990190e+11  -3.128699e+11   1.531976e+05   5.094784e-23   0.000000e+00   0.000000e+00
     4112000   4.111999e-05   5.369423e-01   6.612101e+00   1.701114e+00  -4.257772e+04   5.778838e+04  -1.353426e+05  -1.493717e+11  -7.174261e+11  -2.593789e+11   1.531992e+05   5.053490e-23   0.000000e+00   0.000000e+00
     4120000   4.119999e-05   5.336287e-01   6.614363e+00   1.689621e+00  -3.335623e+04  -7.080026e+02  -1.495237e+05   3.655935e+11  -6.793370e+11  -7.838129e+10   1.532008e+05   5.028602e-23   0.000000e+00   0.000000e+00
     4128000   4.127999e-05   5.325532e-01   6.612456e+00   1.677646e+00   1.085322e+04  -4.201424e+04  -1.469284e+05   6.918640e+11  -3.109766e+11   1.399896e+11   1.532023e+05   4.975834e-23   0.000000e+00   0.000000e+00
     4136000   4.135999e-05   5.357233e-01   6.608635e+00   1.666530e+00   6.829944e+04  -4.665607e+04  -1.289567e+05   6.846416e+11   1.982029e+11   2.908523e+11   1.532039e+05   4.956145e-23   0.000000e+00   0.000000e+00
     4144000   4.143999e-05   5.430997e-01   6.606029e+00   1.657201e+00   1.116965e+05  -1.300540e+04  -1.040512e+05   3.563250e+11   6.077374e+11   3.064882e+11   1.532054e+05   4.936458e-23   0.000000e+00   0.000000e+00
     4152000   4.151999e-05   5.526673e-01   6.607155e+00   1.649755e+00   1.208833e+05   4.281966e+04  -8.382169e+04  -1.353051e+11   7.306693e+11   1.780571e+11   1.532070e+05   4.883387e-23   0.000000e+00   0.000000e+00
     4160000   4.159999e-05   5.614058e-01   6.612771e+00   1.643400e+00   9.188368e+04   9.463037e+04  -7.794432e+04  -5.589417e+11   5.115082e+11  -3.796505e+10   1.532085e+05   4.813298e-23   0.000000e+00   0.000000e+00
     4168000   4.167999e-05   5.667139e-01   6.621529e+00   1.636811e+00   3.873691e+04   1.181654e+05  -8.949685e+04  -7.138347e+11   5.304242e+10  -2.389991e+11   1.532100e+05   4.763175e-23   0.000000e+00   0.000000e+00
     4176000   4.175999e-05   5.676402e-01   6.630616e+00   1.628755e+00  -1.307184e+04   1.025521e+05  -1.130749e+05  -5.275080e+11  -4.260523e+11  -3.254720e+11   1.532114e+05   4.731677e-23   0.000000e+00   0.000000e+00
     4184000   4.183999e-05   5.653257e-01   6.637089e+00   1.618701e+00  -3.896180e+04   5.563887e+04  -1.373335e+05  -9.408081e+10  -6.972554e+11  -2.558338e+11   1.532129e+05   4.687858e-23   0.000000e+00   0.000000e+00
     4192000   4.191999e-05   5.624291e-01   6.639281e+00   1.607074e+00  -2.713240e+04  -5.091146e+01  -1.507928e+05   3.762025e+11  -6.382580e+11  -6.751194e+10   1.532144e+05   4.629332e-23   0.000000e+00   0.000000e+00
     4200000   4.199999e-05   5.618407e-01   6.637546e+00   1.595031e+00   1.629269e+04  -3.863548e+04  -1.473667e+05   6.649479e+11  -2.896572e+11   1.494188e+11   1.532158e+05   4.586952e-23   0.000000e+00   0.000000e+00
     4208000   4.207999e-05   5.653438e-01   6.634026e+00   1.583908e+00   7.110514e+04  -4.302195e+04  -1.287194e+05   6.516723e+11   1.829603e+11   2.987931e+11   1.532172e+05   4.579052e-23   0.000000e+00   0.000000e+00
     4216000   4.215999e-05   5.728599e-01   6.631629e+00   1.574625e+00   1.127290e+05  -1.171707e+04  -1.031060e+05   3.490998e+11   5.686708e+11   3.170045e+11   1.532187e+05   4.565092e-23   0.000000e+00   0.000000e+00
     4224000   4.223999e-05   5.825273e-01   6.632733e+00   1.567294e+00   1.228548e+05   4.110097e+04  -8.181561e+04  -1.050370e+11   7.006890e+11   1.942087e+11   1.532201e+05   4.514706e-23   0.000000e+00   0.000000e+00
     4232000   4.231999e-05   5.915502e-01   6.638153e+00   1.561156e+00   9.730035e+04   9.198582e+04  -7.448540e+04  -5.080758e+11   5.221945e+11  -1.888660e+10   1.532215e+05   4.443433e-23   0.000000e+00   0.000000e+00
     4240000   4.239999e-05   5.974481e-01   6.646788e+00   1.554901e+00   4.785568e+04   1.183735e+05  -8.470414e+04  -6.787066e+11   1.121490e+11  -2.267863e+11   1.532229e+05   4.388862e-23   0.000000e+00   0.000000e+00
     4248000   4.247999e-05   5.991711e-01   6.656115e+00   1.547250e+00  -2.922820e+03   1.086664e+05  -1.079849e+05  -5.405569e+11  -3.442966e+11  -3.318865e+11   1.532242e+05   4.357472e-23   0.000000e+00   0.000000e+00
     4256000   4.255999e-05   5.975668e-01   6.663326e+00   1.537557e+00  -3.207691e+04   6.764124e+04  -1.336930e+05  -1.605120e+11  -6.400821e+11  -2.853732e+11   1.532256e+05   4.324226e-23   0.000000e+00   0.000000e+00
     4264000   4.263999e-05   5.949710e-01   6.666599e+00   1.526108e+00  -2.682646e+04   1.410012e+04  -1.501999e+05   2.853490e+11  -6.463948e+11  -1.116796e+11   1.532269e+05   4.280930e-23   0.000000e+00   0.000000e+00
     4272000   4.271999e-05   5.941294e-01   6.665889e+00   1.513970e+00   1.000204e+04  -2.812966e+04  -1.502916e+05   5.993639e+11  -3.700664e+11   1.091187e+11   1.532283e+05   4.250637e-23   0.000000e+00   0.000000e+00
     4280000   4.279999e-05   5.969806e-01   6.662895e+00   1.502504e+00   6.197335e+04  -4.094463e+04  -1.340229e+05   6.511821e+11   6.042681e+10   2.826136e+11   1.532296e+05   4.246249e-23   0.000000e+00   0.000000e+00
     4288000   4.287999e-05   6.038402e-01   6.660278e+00   1.492774e+00   1.065395e+05  -1.917543e+04  -1.084497e+05   4.264315e+11   4.586508e+11   3.377780e+11   1.532309e+05   4.235768e-23   0.000000e+00   0.000000e+00
