     timestep     time              x             y              z              vx             vy             vz             ax             ay             az         v_magnitude      ELoss        Electronic      Nuclear
           0   0.000000e+00   1.000000e-01   6.363164e+00   1.962355e+01   2.997658e+04  -6.836104e+04   1.271373e+05   0.000000e+00   0.000000e+00   0.000000e+00   1.474304e+05   0.000000e+00   0.000000e+00   0.000000e+00
        8000   7.999000e-08   9.554391e-02   6.359987e+00   1.962983e+01  -2.238024e+05   9.328884e+04   2.588632e+04  -1.135915e+14  -2.078965e+14  -1.962856e+14   2.438451e+05   2.004635e-17   0.000000e+00   0.000000e+00
       16000   1.599900e-07   9.140548e-02   6.356892e+00   1.963581e+01  -3.811692e+05   3.277872e+05   2.412485e+04  -3.684723e+14  -3.783743e+14  -4.725917e+14   5.033055e+05   4.531772e-16   0.000000e+00   0.000000e+00
       24000   2.399900e-07   8.757743e-02   6.354213e+00   1.963935e+01   4.285834e+05  -1.049493e+06  -2.038411e+05   1.266196e+15   2.836952e+14   1.063508e+15   1.151812e+06   1.330085e-14   0.000000e+00   0.000000e+00
       32000   3.199900e-07   9.267082e-02   6.357109e+00   1.963683e+01  -1.250164e+06   2.372993e+06   1.688537e+04  -2.557773e+15  -1.267130e+15  -2.567387e+15   2.682218e+06   3.777302e-13   0.000000e+00   0.000000e+00
       40000   3.999900e-07   1.287167e-01   6.387545e+00   1.957995e+01   6.969704e+05  -3.420377e+06  -3.648669e+06   4.483266e+15  -1.668063e+15   2.342339e+15   5.049508e+06   2.578694e-12   0.000000e+00   0.000000e+00
       48000   4.799900e-07   2.484704e-01   6.480252e+00   1.942080e+01  -1.471539e+06  -3.648278e+05  -6.542539e+06   2.099644e+15  -3.413159e+15  -3.066109e+14   6.715902e+06   2.599125e-12   0.000000e+00   0.000000e+00
       56000   5.599900e-07   4.595885e-01   6.612094e+00   1.914396e+01   6.408388e+06   3.424382e+06  -5.346977e+05  -1.075272e+15   2.080706e+15   3.336514e+14   7.285584e+06   1.059924e-12   0.000000e+00   0.000000e+00
       64000   6.399900e-07   7.034457e-01   6.787955e+00   1.880472e+01   6.768568e+06   2.624930e+06  -1.786772e+06  -4.030144e+14   1.326827e+15   4.108416e+14   7.476384e+06   4.171618e-13   0.000000e+00   0.000000e+00
       72000   7.199900e-07   9.538645e-01   7.005429e+00   1.843499e+01   1.498651e+06  -2.790869e+04  -7.404622e+06   7.120293e+14  -6.910461e+14   1.453569e+14   7.554810e+06   2.048048e-13   0.000000e+00   0.000000e+00
       80000   7.999900e-07   1.243309e+00   7.210293e+00   1.805298e+01   3.684748e+05   4.010033e+06  -6.438293e+06  -1.192447e+14  -6.188610e+14  -3.931336e+14   7.593929e+06   1.135296e-13   0.000000e+00   0.000000e+00
       88000   8.799900e-07   1.499994e+00   7.398279e+00   1.761889e+01   3.965647e+06  -6.637061e+05  -6.468284e+06   4.839560e+14  -2.791662e+13   2.990720e+14   7.616139e+06   6.714539e-14   0.000000e+00   0.000000e+00
       96000   9.599900e-07   1.771890e+00   7.603396e+00   1.718952e+01   3.312742e+06  -4.416063e+05  -6.859295e+06   4.042174e+14  -1.007802e+14   2.013956e+14   7.630151e+06   4.447515e-14   0.000000e+00   0.000000e+00
      104000   1.039990e-06   2.061170e+00   7.816723e+00   1.676323e+01   5.968191e+05   3.433083e+06  -6.798803e+06  -5.827515e+13  -3.498676e+14  -1.820164e+14   7.639762e+06   3.309751e-14   0.000000e+00   0.000000e+00
      112000   1.119990e-06   2.317542e+00   7.962294e+00   1.628176e+01   5.706186e+06   2.367518e+06  -4.506461e+06  -5.799580e+13   3.231508e+14   9.607550e+13   7.646822e+06   2.441357e-14   0.000000e+00   0.000000e+00
      120000   1.199990e-06   2.561772e+00   8.191186e+00   1.582209e+01   4.392268e+05   3.325469e+06  -6.878024e+06  -7.803550e+13  -2.708582e+14  -1.360835e+14   7.652377e+06   2.046975e-14   0.000000e+00   0.000000e+00
      128000   1.279990e-06   2.758614e+00   8.337427e+00   1.530610e+01   3.400930e+06  -5.385961e+05  -6.839025e+06   2.499356e+14   3.515632e+13   1.214053e+14   7.656936e+06   1.640866e-14   0.000000e+00   0.000000e+00
      136000   1.359990e-06   3.005002e+00   8.478080e+00   1.480845e+01   4.953811e+06   2.624480e+06  -5.221146e+06  -8.803057e+13   2.456476e+14   3.982148e+13   7.660842e+06   1.458975e-14   0.000000e+00   0.000000e+00
      144000   1.439990e-06   3.222036e+00   8.659416e+00   1.430816e+01   2.077930e+06   4.469005e+06  -5.869606e+06  -2.367552e+14  -1.124340e+13  -9.248573e+13   7.664338e+06   1.356662e-14   0.000000e+00   0.000000e+00
      152000   1.519990e-06   3.392135e+00   8.830249e+00   1.378491e+01  -9.592469e+04   2.802458e+06  -7.136397e+06  -7.433062e+13  -2.178493e+14  -8.463445e+13   7.667538e+06   1.261624e-14   0.000000e+00   0.000000e+00
      160000   1.599990e-06   3.546702e+00   8.968991e+00   1.324694e+01   1.478778e+05   4.090918e+05  -7.658171e+06   1.283129e+14  -1.974256e+14  -8.141062e+12   7.670516e+06   1.165231e-14   0.000000e+00   0.000000e+00
      168000   1.679990e-06   3.708300e+00   9.087057e+00   1.270573e+01   1.745621e+06  -7.971725e+05  -7.429493e+06   2.159969e+14  -5.142143e+13   5.619708e+13   7.673333e+06   1.101988e-14   0.000000e+00   0.000000e+00
      176000   1.759990e-06   3.881852e+00   9.201277e+00   1.216684e+01   3.365777e+06  -6.117730e+05  -6.871589e+06   1.858732e+14   9.629879e+13   8.239559e+13   7.676032e+06   1.063958e-14   0.000000e+00   0.000000e+00
      184000   1.839990e-06   4.063872e+00   9.322125e+00   1.163149e+01   4.359291e+06   4.058089e+05  -6.308194e+06   9.374783e+13   1.860779e+14   7.667698e+13   7.678633e+06   1.036951e-14   0.000000e+00   0.000000e+00
      192000   1.919990e-06   4.251926e+00   9.453941e+00   1.110024e+01   4.665497e+06   1.675415e+06  -5.867398e+06  -1.069105e+13   2.128882e+14   5.220637e+13   7.681161e+06   1.013815e-14   0.000000e+00   0.000000e+00
      200000   1.999990e-06   4.444102e+00   9.596870e+00   1.057328e+01   4.448043e+06   2.807856e+06  -5.600814e+06  -9.718203e+13   1.927198e+14   1.935257e+13   7.683636e+06   9.891681e-15   0.000000e+00   0.000000e+00
      208000   2.079990e-06   4.641592e+00   9.750135e+00   1.005102e+01   3.946344e+06   3.673012e+06  -5.478215e+06  -1.558613e+14   1.455617e+14  -1.476563e+13   7.686058e+06   9.632172e-15   0.000000e+00   0.000000e+00
      216000   2.159990e-06   4.845599e+00   9.912640e+00   9.534148e+00   3.374270e+06   4.226233e+06  -5.464908e+06  -1.852887e+14   8.981251e+13  -4.503088e+13   7.688431e+06   9.369645e-15   0.000000e+00   0.000000e+00
      224000   2.239990e-06   5.060306e+00   1.008521e+01   9.025073e+00   2.834655e+06   4.566783e+06  -5.500660e+06  -1.944689e+14   3.384889e+13  -7.219381e+13   7.690775e+06   9.322538e-15   0.000000e+00   0.000000e+00
      232000   2.319990e-06   5.287516e+00   1.026884e+01   8.525873e+00   2.362332e+06   4.726952e+06  -5.591013e+06  -1.859267e+14  -1.967377e+13  -9.527038e+13   7.693121e+06   9.297874e-15   0.000000e+00   0.000000e+00
      240000   2.399990e-06   5.529686e+00   1.046524e+01   8.039058e+00   1.952705e+06   4.722328e+06  -5.753871e+06  -1.614940e+14  -7.256682e+13  -1.144410e+14   7.695484e+06   9.390308e-15   0.000000e+00   0.000000e+00
      248000   2.479990e-06   5.787765e+00   1.067489e+01   7.566934e+00   1.628416e+06   4.525284e+06  -6.010645e+06  -1.184316e+14  -1.257123e+14  -1.268082e+14   7.697908e+06   9.706305e-15   0.000000e+00   0.000000e+00
      256000   2.559990e-06   6.061704e+00   1.089798e+01   7.110623e+00   1.470326e+06   4.019430e+06  -6.401474e+06  -4.861283e+13  -1.762074e+14  -1.218801e+14   7.700425e+06   1.021117e-14   0.000000e+00   0.000000e+00
      264000   2.639990e-06   6.351728e+00   1.113247e+01   6.670700e+00   1.728499e+06   3.075301e+06  -6.847810e+06   5.301360e+13  -2.077078e+14  -7.997501e+13   7.703096e+06   1.108231e-14   0.000000e+00   0.000000e+00
      272000   2.719990e-06   6.661015e+00   1.137219e+01   6.247039e+00   2.845971e+06   1.770706e+06  -6.938817e+06   1.634174e+14  -1.766833e+14   2.185430e+13   7.705980e+06   1.237243e-14   0.000000e+00   0.000000e+00
      280000   2.799990e-06   6.999840e+00   1.161101e+01   5.846016e+00   4.988452e+06   8.561933e+05  -5.814944e+06   1.970236e+14  -2.787775e+13   1.648006e+14   7.709169e+06   1.415436e-14   0.000000e+00   0.000000e+00
      288000   2.879990e-06   7.378966e+00   1.185609e+01   5.488237e+00   6.761504e+06   2.062401e+06  -3.084687e+06   2.661901e+13   1.967796e+14   1.896688e+14   7.712764e+06   1.600398e-14   0.000000e+00   0.000000e+00
      296000   2.959990e-06   7.776768e+00   1.214264e+01   5.190472e+00   5.137688e+06   5.489768e+06  -1.736840e+06  -2.136042e+14   1.683089e+14  -1.003517e+14   7.716864e+06   1.785257e-14   0.000000e+00   0.000000e+00
      304000   3.039990e-06   8.137843e+00   1.247291e+01   4.896524e+00   2.721698e+06   4.821996e+06  -5.381842e+06   3.875525e+13  -2.412873e+14  -1.967710e+14   7.721626e+06   2.094032e-14   0.000000e+00   0.000000e+00
      312000   3.119990e-06   8.525674e+00   1.274293e+01   4.579203e+00   6.806804e+06   1.223129e+06  -3.447140e+06   1.433678e+14   7.644304e+13   3.098662e+14   7.727316e+06   2.607906e-14   0.000000e+00   0.000000e+00
      320000   3.199990e-06   8.956241e+00   1.305169e+01   4.379682e+00   3.678644e+06   6.544097e+06  -1.859961e+06  -2.034454e+14   2.429859e+13  -3.176518e+14   7.734150e+06   3.049365e-14   0.000000e+00   0.000000e+00
      328000   3.279990e-06   9.342052e+00   1.335832e+01   4.108523e+00   7.053538e+06   1.124415e+06  -2.988026e+06   1.560887e+14   5.598900e+13   3.889340e+14   7.742416e+06   3.823350e-14   0.000000e+00   0.000000e+00
      336000   3.359990e-06   9.760915e+00   1.369180e+01   3.951189e+00   3.035709e+06   5.405205e+06  -4.655053e+06   1.047503e+14  -3.262703e+14  -3.109971e+14   7.752502e+06   4.591855e-14   0.000000e+00   0.000000e+00
      344000   3.439990e-06   1.019966e+01   1.397453e+01   3.772221e+00   4.373742e+06   6.402382e+06   4.159292e+05  -3.124148e+14   2.354325e+14  -3.324391e+14   7.764864e+06   5.669358e-14   0.000000e+00   0.000000e+00
      352000   3.519990e-06   1.061730e+01   1.427933e+01   3.594796e+00   6.315528e+06   4.188782e+06   1.759671e+06  -3.256352e+14   4.630989e+14   6.818833e+13   7.779989e+06   7.021822e-14   0.000000e+00   0.000000e+00
      360000   3.599990e-06   1.103511e+01   1.459302e+01   3.452713e+00   6.528169e+06   3.721987e+06   2.084801e+06  -3.390472e+14   5.117394e+14   1.499728e+14   7.798498e+06   8.664784e-14   0.000000e+00   0.000000e+00
      368000   3.679990e-06   1.145470e+01   1.490881e+01   3.346530e+00   4.819125e+06   5.743868e+06   2.225954e+06  -4.321510e+14   4.724635e+14  -2.813567e+14   7.821180e+06   1.067558e-13   0.000000e+00   0.000000e+00
      376000   3.759990e-06   1.185429e+01   1.524436e+01   3.253188e+00   2.562934e+06   6.911123e+06  -2.696921e+06   5.336904e+13  -2.969353e+14  -7.124275e+14   7.848926e+06   1.315688e-13   0.000000e+00   0.000000e+00
      384000   3.839990e-06   1.226051e+01   1.554904e+01   3.120633e+00   7.311722e+06   4.135899e+05  -2.916310e+06   3.182718e+14  -2.216906e+14   7.640080e+14   7.882715e+06   1.627641e-13   0.000000e+00   0.000000e+00
      392000   3.919990e-06   1.268605e+01   1.584284e+01   3.087064e+00   2.682436e+06   7.409786e+06   8.278691e+05  -3.034245e+14   2.082386e+14  -8.699021e+14   7.923747e+06   1.998628e-13   0.000000e+00   0.000000e+00
      400000   3.999990e-06   1.308971e+01   1.613778e+01   2.985187e+00   7.697078e+06   6.498795e+05   1.977046e+06  -2.652381e+14   5.131204e+14   8.694729e+14   7.973460e+06   2.471769e-13   0.000000e+00   0.000000e+00
      408000   4.079990e-06   1.347405e+01   1.645719e+01   2.938485e+00   7.051359e+06   4.100205e+05  -3.826927e+06   5.050878e+14  -5.564540e+14   8.675950e+14   8.033377e+06   3.033777e-13   0.000000e+00   0.000000e+00
      416000   4.159990e-06   1.386576e+01   1.675464e+01   2.909708e+00   6.101331e+06   1.511439e+06  -5.117140e+06   6.983359e+14  -8.831798e+14   5.686760e+14   8.105295e+06   3.729789e-13   0.000000e+00   0.000000e+00
      424000   4.239990e-06   1.425800e+01   1.703623e+01   2.877970e+00   7.466657e+06  -2.157057e+05  -3.361141e+06   4.986502e+14  -6.033235e+14   1.140759e+15   8.191139e+06   4.582430e-13   0.000000e+00   0.000000e+00
      432000   4.319990e-06   1.465646e+01   1.729551e+01   2.869589e+00   7.194979e+06   2.279164e+05   4.117714e+06  -6.350848e+14   8.712153e+14   1.067065e+15   8.293084e+06   5.647160e-13   0.000000e+00   0.000000e+00
      440000   4.399990e-06   1.502065e+01   1.758365e+01   2.908944e+00   9.485567e+05   8.346648e+06   4.731078e+05  -4.661710e+13   1.024030e+14  -1.654985e+15   8.413686e+06   6.951315e-13   0.000000e+00   0.000000e+00
      448000   4.479990e-06   1.538479e+01   1.785638e+01   2.875618e+00   8.354209e+06  -1.842754e+06  -1.016781e+05  -1.012039e+12  -1.221314e+14   1.807503e+15   8.555635e+06   8.573693e-13   0.000000e+00   0.000000e+00
      456000   4.559990e-06   1.572902e+01   1.813095e+01   2.938424e+00   1.916905e+06   7.143852e+06  -4.622395e+06   9.401355e+14  -1.115355e+15  -1.342395e+15   8.722138e+06   1.067049e-12   0.000000e+00   0.000000e+00
      464000   4.639990e-06   1.609131e+01   1.836111e+01   2.977841e+00   3.663125e+05   7.713327e+06   4.458686e+06  -5.784085e+14   1.068754e+15  -1.790871e+15   8.916809e+06   1.329305e-12   0.000000e+00   0.000000e+00
      472000   4.719990e-06   1.643028e+01   1.860029e+01   3.014271e+00   1.546529e+06   4.965114e+06   7.521253e+06  -1.199985e+15   1.810314e+15  -9.408779e+14   9.144033e+06   1.672172e-12   0.000000e+00   0.000000e+00
      480000   4.799990e-06   1.674740e+01   1.883816e+01   3.077127e+00   6.659623e+04   6.429116e+06   6.869012e+06  -9.868166e+14   1.758621e+15  -1.626658e+15   9.408576e+06   2.121337e-12   0.000000e+00   0.000000e+00
      488000   4.879990e-06   1.703557e+01   1.908185e+01   3.152287e+00  -9.061610e+05   9.612946e+06  -1.083601e+06   8.146979e+14  -2.205857e+14  -2.712654e+15   9.716175e+06   2.720460e-12   0.000000e+00   0.000000e+00
      496000   4.959990e-06   1.732071e+01   1.931083e+01   3.187729e+00   7.924476e+06  -7.301419e+05  -6.175976e+06   1.178712e+15  -2.269061e+15   1.765045e+15   1.007339e+07   3.498127e-12   0.000000e+00   0.000000e+00
      504000   5.039990e-06   1.761244e+01   1.946654e+01   3.291121e+00  -2.727057e+05   3.116065e+06   1.001031e+07  -1.779671e+15   2.777821e+15  -9.014944e+14   1.048763e+07   4.594909e-12   0.000000e+00   0.000000e+00
      512000   5.119990e-06   1.783598e+01   1.968822e+01   3.349486e+00   8.872216e+06  -2.439507e+06  -5.967989e+06   9.936069e+14  -2.597778e+15   2.515447e+15   1.096742e+07   6.043358e-12   0.000000e+00   0.000000e+00
      520000   5.199990e-06   1.804697e+01   1.983593e+01   3.477719e+00  -1.803011e+06   1.061190e+07  -4.106529e+06   2.116491e+15  -9.531533e+14  -3.434200e+15   1.152072e+07   8.149495e-12   0.000000e+00   0.000000e+00
      528000   5.279990e-06   1.825163e+01   1.994792e+01   3.558422e+00  -5.597913e+06   8.473013e+06   6.682223e+06  -3.504220e+14   2.685151e+15  -3.667213e+15   1.215651e+07   1.097815e-11   0.000000e+00   0.000000e+00
      536000   5.359990e-06   1.840841e+01   2.005067e+01   3.622324e+00  -6.064091e+06   5.596873e+06   9.892057e+06  -1.389567e+15   3.775187e+15  -2.962590e+15   1.288220e+07   1.481269e-11   0.000000e+00   0.000000e+00
      544000   5.439990e-06   1.851023e+01   2.012949e+01   3.680877e+00  -7.988415e+06   7.772959e+06   7.965253e+06  -6.092471e+14   3.579504e+15  -4.066792e+15   1.369960e+07   1.995858e-11   0.000000e+00   0.000000e+00
      552000   5.519990e-06   1.855141e+01   2.018236e+01   3.716861e+00  -8.349555e+06   1.198086e+07   1.117363e+05   1.823591e+15   1.350644e+15  -5.441995e+15   1.460372e+07   2.654304e-11   0.000000e+00   0.000000e+00
      560000   5.599990e-06   1.853666e+01   2.020115e+01   3.707400e+00  -3.741584e+06   1.113277e+07  -1.023697e+07   3.985325e+15  -2.464961e+15  -4.175769e+15   1.557991e+07   3.425791e-11   0.000000e+00   0.000000e+00
      568000   5.679990e-06   1.846749e+01   2.016252e+01   3.654923e+00   1.398407e+06   5.497163e+06  -1.560466e+07   4.239380e+15  -4.832359e+15  -1.350068e+15   1.660361e+07   4.264405e-11   0.000000e+00   0.000000e+00
      576000   5.759990e-06   1.832530e+01   2.005645e+01   3.583199e+00   1.050539e+06   4.005546e+06  -1.715042e+07   4.264392e+15  -5.164381e+15  -9.716526e+14   1.764327e+07   5.115365e-11   0.000000e+00   0.000000e+00
      584000   5.839990e-06   1.810518e+01   1.986899e+01   3.512954e+00  -8.936735e+06   1.110948e+07  -1.204629e+07   3.918005e+15  -2.361662e+15  -5.123805e+15   1.866545e+07   5.902831e-11   0.000000e+00   0.000000e+00
      592000   5.919990e-06   1.785185e+01   1.957802e+01   3.377135e+00  -1.284031e+07  -3.128937e+03   1.486400e+07  -3.139931e+15   5.448932e+15  -2.679851e+15   1.964210e+07   6.479432e-11   0.000000e+00   0.000000e+00
      600000   5.999990e-06   1.741542e+01   1.936412e+01   3.199252e+00   3.566848e+06  -9.746361e+06  -1.774160e+07   2.785299e+15  -5.083878e+15   3.327619e+15   2.055428e+07   6.789213e-11   0.000000e+00   0.000000e+00
      608000   6.079990e-06   1.699571e+01   1.892668e+01   3.063854e+00  -7.572311e+05  -1.687579e+07   1.311121e+07  -3.522974e+15   3.402869e+15   4.208261e+15   2.138386e+07   6.863809e-11   0.000000e+00   0.000000e+00
      616000   6.159990e-06   1.643946e+01   1.848157e+01   2.977813e+00  -5.927597e+06  -1.177230e+07   1.776726e+07  -3.744754e+15   4.562197e+15   1.794916e+15   2.212236e+07   6.709350e-11   0.000000e+00   0.000000e+00
      624000   6.239990e-06   1.576034e+01   1.802910e+01   2.851621e+00   3.115085e+06  -2.245985e+07   1.988790e+06  -7.581523e+14   3.848346e+14   5.700569e+15   2.276190e+07   6.203986e-11   0.000000e+00   0.000000e+00
      632000   6.319990e-06   1.499470e+01   1.749542e+01   2.952311e+00  -2.059486e+07   6.991379e+06  -8.347169e+06   1.354024e+15  -1.726430e+15  -4.820385e+15   2.329598e+07   5.490386e-11   0.000000e+00   0.000000e+00
      640000   6.399990e-06   1.414296e+01   1.689695e+01   2.870346e+00  -6.750321e+06  -1.507065e+07  -1.703068e+07   2.632041e+15  -3.377329e+15   1.932439e+15   2.372205e+07   4.481015e-11   0.000000e+00   0.000000e+00
      648000   6.479990e-06   1.322297e+01   1.620833e+01   2.990857e+00  -1.395634e+07  -9.665028e+06  -1.702646e+07   2.412252e+15  -3.243576e+15  -1.456890e+14   2.404356e+07   3.413988e-11   0.000000e+00   0.000000e+00
      656000   6.559990e-06   1.233597e+01   1.531143e+01   3.198045e+00  -1.588009e+07  -1.933462e+06   1.825293e+07  -2.024525e+15   2.212226e+15  -1.520815e+15   2.427108e+07   2.404541e-11   0.000000e+00   0.000000e+00
      664000   6.639990e-06   1.120535e+01   1.458930e+01   3.519263e+00  -2.432704e+07   5.141087e+05  -2.089526e+06   1.775918e+14  -1.212732e+15  -2.400744e+15   2.442202e+07   1.564908e-11   0.000000e+00   0.000000e+00
      672000   6.719990e-06   1.013943e+01   1.366789e+01   3.939710e+00  -2.259597e+07   1.326232e+06   9.418951e+06  -8.133427e+14  -4.948321e+13  -1.939535e+15   2.451639e+07   9.607049e-12   0.000000e+00   0.000000e+00
      680000   6.799990e-06   8.957521e+00   1.268834e+01   4.314879e+00  -4.056326e+06  -2.018813e+07   1.341022e+07   1.156514e+14   8.928766e+14   1.381171e+15   2.457333e+07   5.928317e-12   0.000000e+00   0.000000e+00
      688000   6.879990e-06   7.961749e+00   1.183672e+01   5.312980e+00  -1.748451e+07   5.487214e+04   1.731586e+07  -8.908443e+14   1.456619e+14  -8.990453e+14   2.460793e+07   3.550037e-12   0.000000e+00   0.000000e+00
      696000   6.959990e-06   6.881828e+00   1.110239e+01   6.352146e+00  -2.203549e+07  -4.821797e+06   9.891990e+06  -1.006439e+14  -8.503585e+14  -6.375458e+14   2.463055e+07   2.497213e-12   0.000000e+00   0.000000e+00
      704000   7.039990e-06   5.979287e+00   1.037082e+01   7.583811e+00  -2.017986e+07  -8.969937e+06   1.094690e+07   2.494317e+14  -9.075049e+14  -2.829209e+14   2.464794e+07   2.119195e-12   0.000000e+00   0.000000e+00
      712000   7.119990e-06   5.257273e+00   9.741338e+00   8.999335e+00  -1.816576e+07  -1.025513e+07   1.315787e+07   3.930473e+14  -8.776613e+14  -1.406824e+14   2.466358e+07   2.075212e-12   0.000000e+00   0.000000e+00
      720000   7.199990e-06   4.652561e+00   9.212673e+00   1.051457e+01  -1.626878e+07  -1.163791e+07   1.445516e+07   5.531912e+14  -8.298002e+14  -4.478861e+13   2.467926e+07   2.192364e-12   0.000000e+00   0.000000e+00
      728000   7.279990e-06   4.099340e+00   8.732209e+00   1.206321e+01  -1.338106e+07  -1.436037e+07   1.498726e+07   7.991154e+14  -6.553450e+14   8.625792e+13   2.469597e+07   2.369258e-12   0.000000e+00   0.000000e+00
      736000   7.359990e-06   3.540511e+00   8.226199e+00   1.359149e+01  -7.587359e+06  -1.759489e+07   1.560963e+07   1.039271e+15  -1.598151e+14   3.257930e+14   2.471455e+07   2.673558e-12   0.000000e+00   0.000000e+00
      744000   7.439990e-06   2.994188e+00   7.631632e+00   1.506664e+01   2.207824e+06  -1.410883e+07   2.019913e+07   5.689942e+14   9.375503e+14   5.934437e+14   2.473739e+07   3.436867e-12   0.000000e+00   0.000000e+00
      752000   7.519990e-06   2.442053e+00   7.182443e+00   1.655635e+01  -1.184827e+07   6.489750e+06   2.076575e+07  -1.529624e+15   1.125017e+14  -9.063856e+14   2.477327e+07   7.035620e-12   0.000000e+00   0.000000e+00
      760000   7.599990e-06   1.599366e+00   6.511824e+00   1.763235e+01   5.005737e+06  -6.776267e+06   2.338365e+07  -7.157976e+14   2.579942e+15   9.042785e+14   2.485498e+07   1.781877e-11   0.000000e+00   0.000000e+00
      768000   7.679990e-06   8.679580e-01   6.155464e+00   1.853222e+01  -1.274509e+07  -2.091066e+07  -5.696853e+06   4.645985e+15  -3.259282e+15   1.508793e+15   2.514254e+07   7.877427e-11   0.000000e+00   0.000000e+00
      776000   7.759990e-06   7.316598e-01   6.012011e+00   1.885706e+01  -1.787246e+07   6.541693e+05  -1.892398e+07   2.476815e+15  -7.583004e+15  -2.638626e+15   2.603785e+07   1.731816e-10   0.000000e+00   0.000000e+00
      784000   7.839990e-06   1.211048e+00   6.213600e+00   1.819469e+01   2.530925e+07  -6.048912e+06  -5.901403e+06   1.420591e+15   3.110522e+15   2.870419e+15   2.668284e+07   5.138533e-11   0.000000e+00   0.000000e+00
      792000   7.919990e-06   2.106134e+00   6.785356e+00   1.719451e+01   2.404001e+07   1.138624e+07  -3.673465e+06  -9.282689e+14   2.136820e+15   5.329123e+14   2.685261e+07   1.491496e-11   0.000000e+00   0.000000e+00
      800000   7.999990e-06   2.833257e+00   7.703554e+00   1.594737e+01  -2.617307e+06   4.328415e+06  -2.643159e+07   6.069932e+14  -1.507296e+15  -3.079739e+14   2.691124e+07   7.174544e-12   0.000000e+00   0.000000e+00
      808000   8.079990e-06   3.473847e+00   8.145968e+00   1.433417e+01   1.189665e+07  -6.877659e+06  -2.317466e+07   1.161369e+15   2.006030e+14   5.359283e+14   2.694248e+07   4.406625e-12   0.000000e+00   0.000000e+00
      816000   8.159990e-06   4.147745e+00   8.550847e+00   1.269606e+01   1.870787e+07  -2.180198e+06  -1.929882e+07   5.956585e+14   9.411400e+14   4.703402e+14   2.696632e+07   3.849604e-12   0.000000e+00   0.000000e+00
      824000   8.239990e-06   4.804761e+00   8.983374e+00   1.103741e+01   2.080814e+07   4.080742e+06  -1.669482e+07   6.324146e+13   1.129059e+15   3.539599e+14   2.698792e+07   3.703650e-12   0.000000e+00   0.000000e+00
      832000   8.319990e-06   5.518242e+00   9.483315e+00   9.412432e+00   2.097775e+07   1.000098e+07  -1.376177e+07  -3.685390e+14   1.093471e+15   2.318600e+14   2.700874e+07   3.659819e-12   0.000000e+00   0.000000e+00
      840000   8.399990e-06   6.361929e+00   1.010202e+01   7.899197e+00   1.936154e+07   1.604205e+07  -9.919384e+06  -7.708002e+14   9.331722e+14   3.172393e+12   2.702981e+07   3.876505e-12   0.000000e+00   0.000000e+00
      848000   8.479990e-06   7.351896e+00   1.090536e+01   6.607688e+00   1.232760e+07   2.269288e+07  -8.060481e+06  -1.106919e+15   3.723744e+14  -6.467650e+14   2.705380e+07   4.724433e-12   0.000000e+00   0.000000e+00
      856000   8.559990e-06   8.330377e+00   1.190538e+01   5.510136e+00   2.566131e+06   1.752637e+07  -2.049146e+07   8.843537e+13  -1.236549e+15  -1.047833e+15   2.708613e+07   7.001131e-12   0.000000e+00   0.000000e+00
      864000   8.639990e-06   9.494735e+00   1.264099e+01   4.451040e+00   2.660272e+07  -6.373924e+05  -5.323805e+06   4.022081e+14   8.735230e+14   1.896732e+15   2.713768e+07   1.206332e-11   0.000000e+00   0.000000e+00
      872000   8.719990e-06   1.062876e+01   1.372791e+01   3.995183e+00   9.025872e+06   8.689199e+06  -2.417172e+07   1.684578e+15  -2.211337e+15  -1.691037e+14   2.722573e+07   2.082644e-11   0.000000e+00   0.000000e+00
      880000   8.799990e-06   1.175264e+01   1.459732e+01   3.577406e+00   1.107129e+07   6.042308e+06  -2.429743e+07   2.297279e+15  -2.771748e+15   3.521046e+14   2.737605e+07   3.552757e-11   0.000000e+00   0.000000e+00
      888000   8.879990e-06   1.289542e+01   1.523270e+01   3.262616e+00   2.343540e+07  -6.060616e+05   1.460426e+07  -1.784655e+15   2.932716e+15   2.999764e+15   2.762010e+07   5.746405e-11   0.000000e+00   0.000000e+00
      896000   8.959990e-06   1.368280e+01   1.607861e+01   3.133165e+00   1.723545e+07  -3.885668e+06  -2.170983e+07   3.092291e+15  -3.446168e+15   3.057592e+15   2.799064e+07   8.746177e-11   0.000000e+00   0.000000e+00
      904000   9.039990e-06   1.443119e+01   1.665882e+01   3.061126e+00   1.758090e+07  -6.792906e+06  -2.139449e+07   3.344064e+15  -3.948172e+15   3.981631e+15   2.851238e+07   1.257300e-10   0.000000e+00   0.000000e+00
      912000   9.119990e-06   1.510541e+01   1.698697e+01   3.030060e+00   1.900066e+07  -1.125612e+07   1.909514e+07  -3.148561e+15   3.917721e+15   5.471289e+15   2.919503e+07   1.708517e-10   0.000000e+00   0.000000e+00
      920000   9.199990e-06   1.541944e+01   1.738306e+01   3.208224e+00  -1.259693e+07   2.375961e+07  -1.336226e+07   2.461450e+15  -2.813878e+15  -7.375026e+15   3.002918e+07   2.241421e-10   0.000000e+00   0.000000e+00
      928000   9.279990e-06   1.570045e+01   1.742387e+01   3.053526e+00   1.222397e+07  -1.455469e+07   2.446167e+07  -4.503217e+15   5.188130e+15   5.368357e+15   3.097802e+07   2.655466e-10   0.000000e+00   0.000000e+00
      936000   9.359990e-06   1.555329e+01   1.754988e+01   3.118775e+00  -7.421066e+05  -6.793450e+05  -3.197078e+07   5.571293e+15  -7.063906e+15  -4.536782e+12   3.198660e+07   3.019112e-10   0.000000e+00   0.000000e+00
      944000   9.439990e-06   1.544951e+01   1.716228e+01   3.142538e+00  -1.058726e+07   2.750388e+06   3.110940e+07  -5.405135e+15   6.650874e+15  -2.402034e+15   3.297650e+07   3.145063e-10   0.000000e+00   0.000000e+00
      952000   9.519990e-06   1.482273e+01   1.693960e+01   3.155627e+00  -1.547002e+07   2.667329e+06  -3.001858e+07   4.808107e+15  -6.162526e+15  -3.048876e+15   3.387553e+07   2.953228e-10   0.000000e+00   0.000000e+00
      960000   9.599990e-06   1.409533e+01   1.633090e+01   3.077669e+00  -1.091196e+06  -2.343820e+07  -2.545107e+07   4.096925e+15  -4.689869e+15   4.121394e+15   3.461643e+07   2.445922e-10   0.000000e+00   0.000000e+00
      968000   9.679990e-06   1.313060e+01   1.555057e+01   3.352634e+00  -2.582908e+07  -1.854598e+06  -2.379036e+07   3.105999e+15  -4.566439e+15  -3.032874e+15   3.516478e+07   1.798370e-10   0.000000e+00   0.000000e+00
      976000   9.759990e-06   1.205687e+01   1.436340e+01   3.429736e+00   1.321180e+06  -2.886352e+07   2.066537e+07  -1.168254e+15   2.740222e+15   3.913687e+15   3.552331e+07   1.118956e-10   0.000000e+00   0.000000e+00
      984000   9.839990e-06   1.069706e+01   1.318245e+01   3.926224e+00  -9.141621e+05  -2.712606e+07   2.323747e+07  -7.644155e+14   2.325404e+15   2.690162e+15   3.573008e+07   6.192698e-11   0.000000e+00   0.000000e+00
      992000   9.919990e-06   9.087792e+00   1.219627e+01   4.919172e+00  -2.870922e+07  -2.020532e+07  -7.205999e+06   1.543109e+15  -2.103361e+15  -2.596548e+14   3.583853e+07   3.237412e-11   0.000000e+00   0.000000e+00
     1000000   9.999990e-06   7.747953e+00   1.064886e+01   5.974954e+00  -8.534246e+05  -2.927722e+07   2.075200e+07   7.566442e+14   1.052690e+15   1.518187e+15   3.589609e+07   1.883575e-11   0.000000e+00   0.000000e+00
     1008000   1.007999e-05   6.706505e+00   9.427498e+00   7.754132e+00   4.736999e+06  -1.370905e+07   3.287523e+07  -1.985131e+14   1.553608e+15   6.773474e+14   3.593269e+07   1.379028e-11   0.000000e+00   0.000000e+00
     1016000   1.015999e-05   5.852500e+00   8.524378e+00   9.822495e+00   6.560929e+06  -4.117428e+06   3.511877e+07  -6.115692e+14   1.482058e+15   2.887706e+14   3.596286e+07   1.258951e-11   0.000000e+00   0.000000e+00
     1024000   1.023999e-05   5.131196e+00   7.824356e+00   1.201031e+01   4.866424e+06   2.354458e+06   3.558411e+07  -1.014897e+15   1.308051e+15   5.301817e+13   3.599243e+07   1.303752e-11   0.000000e+00   0.000000e+00
     1032000   1.031999e-05   4.361437e+00   7.205958e+00   1.419436e+01  -4.284903e+06   7.553685e+06   3.496220e+07  -1.572687e+15   8.510379e+14  -3.756599e+14   3.602463e+07   1.589278e-11   0.000000e+00   0.000000e+00
     1040000   1.039999e-05   3.251077e+00   6.617081e+00   1.619034e+01  -2.921604e+07   5.824527e+06   2.033520e+07  -1.350193e+15  -1.180599e+15  -1.598860e+15   3.606969e+07   2.755287e-11   0.000000e+00   0.000000e+00
     1048000   1.047999e-05   1.953289e+00   5.447348e+00   1.744650e+01   8.299716e+06  -2.509302e+07   2.469846e+07   8.503750e+14   2.764898e+15   2.529285e+15   3.617401e+07   7.088070e-11   0.000000e+00   0.000000e+00
     1056000   1.055999e-05   1.226463e+00   4.884461e+00   1.866768e+01  -2.795351e+07   2.220508e+07   7.970655e+06  -4.168840e+15  -2.706903e+15  -6.987060e+15   3.657862e+07   3.611267e-10   0.000000e+00   0.000000e+00
     1064000   1.063999e-05   1.208777e+00   4.979285e+00   1.858996e+01  -1.651787e+07   6.843399e+06  -3.293364e+07   2.949067e+15  -7.185635e+15  -2.993273e+15   3.747395e+07   3.579217e-10   0.000000e+00   0.000000e+00
     1072000   1.071999e-05   2.161810e+00   5.599940e+00   1.741692e+01   2.921845e+07  -1.081157e+07  -2.146955e+07   2.426440e+15   1.012938e+15   2.785278e+15   3.783582e+07   7.728990e-11   0.000000e+00   0.000000e+00
     1080000   1.079999e-05   3.701949e+00   6.764404e+00   1.621421e+01   4.794054e+06   3.416770e+07  -1.576457e+07  -1.787753e+15  -4.889295e+14  -1.607171e+15   3.793331e+07   3.186763e-11   0.000000e+00   0.000000e+00
     1088000   1.087999e-05   4.586978e+00   7.908840e+00   1.420543e+01  -9.176400e+06   1.535819e+07  -3.350242e+07  -2.133014e+14  -1.840189e+15  -7.863653e+14   3.798016e+07   2.150310e-11   0.000000e+00   0.000000e+00
     1096000   1.095999e-05   5.313099e+00   8.658890e+00   1.193978e+01  -8.657754e+06   1.690070e+06  -3.698009e+07   7.629761e+14  -1.722482e+15  -2.583264e+14   3.801763e+07   1.923569e-11   0.000000e+00   0.000000e+00
     1104000   1.103999e-05   6.105828e+00   9.297827e+00   9.675963e+00   9.361912e+05  -6.451982e+06  -3.749254e+07   1.526394e+15  -1.149833e+15   2.349968e+14   3.805516e+07   1.976122e-11   0.000000e+00   0.000000e+00
     1112000   1.111999e-05   7.201944e+00   9.996795e+00   7.563633e+00   1.995733e+07  -8.800727e+06  -3.123478e+07   1.773854e+15  -1.122111e+13   1.135138e+15   3.809671e+07   2.369432e-11   0.000000e+00   0.000000e+00
     1120000   1.119999e-05   8.812635e+00   1.085226e+01   5.946165e+00   3.702764e+07   8.758018e+06  -2.804997e+06  -3.786294e+14   2.084174e+15   1.485403e+15   3.815255e+07   3.586675e-11   0.000000e+00   0.000000e+00
     1128000   1.127999e-05   1.023658e+01   1.239963e+01   5.073496e+00  -1.330015e+06   2.723758e+07  -2.681978e+07   4.667280e+14  -2.445454e+15  -2.511357e+15   3.824860e+07   6.735455e-11   0.000000e+00   0.000000e+00
     1136000   1.135999e-05   1.177501e+01   1.339760e+01   4.363049e+00   1.709075e+06   3.786889e+07   6.337894e+06  -2.535848e+15   8.189994e+14  -4.171047e+15   3.843361e+07   1.332776e-10   0.000000e+00   0.000000e+00
     1144000   1.143999e-05   1.281343e+01   1.458231e+01   3.884450e+00  -3.297377e+06   2.211321e+07  -3.168076e+07   2.988789e+15  -4.643112e+15  -3.565612e+15   3.877547e+07   2.393967e-10   0.000000e+00   0.000000e+00
     1152000   1.151999e-05   1.393601e+01   1.511236e+01   3.592188e+00   1.144573e+07   1.337352e+07   3.516921e+07  -5.450914e+15   5.992857e+15  -4.861430e+14   3.932847e+07   3.757780e-10   0.000000e+00   0.000000e+00
     1160000   1.159999e-05   1.449437e+01   1.561806e+01   3.403119e+00   2.146398e+07  -1.015337e+07   3.231660e+07  -4.810157e+15   6.050548e+15   5.122397e+15   4.010182e+07   5.107863e-10   0.000000e+00   0.000000e+00
     1168000   1.167999e-05   1.472007e+01   1.576227e+01   3.430197e+00   9.236601e+06  -6.076456e+06   3.950766e+07  -6.238261e+15   7.223149e+15   2.594172e+15   4.102552e+07   6.092007e-10   0.000000e+00   0.000000e+00
     1176000   1.175999e-05   1.453477e+01   1.555999e+01   3.503486e+00  -3.340441e+06  -9.994612e+05   4.182297e+07  -6.539227e+15   7.198687e+15  -3.276236e+14   4.196806e+07   6.182271e-10   0.000000e+00   0.000000e+00
     1184000   1.183999e-05   1.389166e+01   1.501173e+01   3.468374e+00   1.067711e+07  -2.636169e+07   3.195952e+07  -3.778368e+15   5.329644e+15   5.681878e+15   4.278259e+07   5.094447e-10   0.000000e+00   0.000000e+00
     1192000   1.191999e-05   1.268605e+01   1.436032e+01   3.896927e+00  -2.883883e+07  -9.655546e+06  -3.092067e+07   4.069985e+15  -5.419332e+15  -2.119983e+15   4.337045e+07   3.526209e-10   0.000000e+00   0.000000e+00
     1200000   1.199999e-05   1.131024e+01   1.308287e+01   4.230283e+00  -1.325972e+07  -3.698362e+07  -1.917955e+07   3.566183e+15  -2.676277e+15   2.681039e+15   4.372029e+07   1.924756e-10   0.000000e+00   0.000000e+00
     1208000   1.207999e-05   9.995781e+00   1.163560e+01   5.511007e+00  -4.291450e+07   8.340484e+05   9.204779e+06  -6.956721e+14  -1.900086e+15  -3.056596e+15   4.389850e+07   9.636067e-11   0.000000e+00   0.000000e+00
     1216000   1.215999e-05   8.219236e+00   1.003869e+01   6.662500e+00  -1.188003e+07  -4.134105e+07   9.203365e+06   2.194688e+15  -2.874304e+14   1.549792e+15   4.398772e+07   5.257943e-11   0.000000e+00   0.000000e+00
     1224000   1.223999e-05   7.108378e+00   8.490846e+00   8.751187e+00   7.701633e+06  -2.997052e+07   3.134064e+07   1.065250e+15   1.596039e+15   1.266178e+15   4.404297e+07   3.816093e-11   0.000000e+00   0.000000e+00
     1232000   1.231999e-05   6.260729e+00   7.397297e+00   1.125485e+01   1.317876e+07  -1.628799e+07   3.879168e+07   1.747073e+14   2.007534e+15   7.847826e+14   4.408824e+07   3.383688e-11   0.000000e+00   0.000000e+00
     1240000   1.239999e-05   5.397253e+00   6.493532e+00   1.380739e+01   9.222783e+06  -7.839794e+06   4.243877e+07  -7.028145e+14   1.982996e+15   5.201647e+14   4.413130e+07   3.404918e-11   0.000000e+00   0.000000e+00
     1248000   1.247999e-05   4.241963e+00   5.540754e+00   1.616076e+01  -1.112966e+07   4.395150e+06   4.253339e+07  -2.342237e+15   1.451887e+15  -7.609981e+14   4.418457e+07   5.939352e-11   0.000000e+00   0.000000e+00
     1256000   1.255999e-05   2.376223e+00   4.561420e+00   1.758366e+01  -2.314308e+07  -3.620351e+07  -1.083072e+07   3.844607e+15  -2.856221e+15   1.309481e+15   4.431253e+07   1.802731e-10   0.000000e+00   0.000000e+00
     1264000   1.263999e-05   1.546933e+00   3.293364e+00   1.840018e+01   2.636169e+07  -2.866080e+07   2.208456e+07   5.906016e+14   5.680618e+15   6.702295e+15   4.476727e+07   5.791443e-10   0.000000e+00   0.000000e+00
     1272000   1.271999e-05   1.602041e+00   3.462365e+00   1.836094e+01   2.829662e+07  -2.597346e+07  -2.466945e+07   5.553153e+15  -4.418336e+13   6.387119e+15   4.564976e+07   5.575897e-10   0.000000e+00   0.000000e+00
     1280000   1.279999e-05   2.942177e+00   4.375527e+00   1.741151e+01   4.517894e+07  -3.535797e+06  -8.121064e+06   8.526486e+14   2.666472e+15   3.557261e+15   4.603900e+07   1.623389e-10   0.000000e+00   0.000000e+00
     1288000   1.287999e-05   4.714428e+00   6.066897e+00   1.625966e+01   2.196766e+06   4.266822e+07  -1.745482e+07  -1.911869e+15  -7.575207e+14  -2.097315e+15   4.615272e+07   6.870084e-11   0.000000e+00   0.000000e+00
     1296000   1.295999e-05   5.804980e+00   7.523705e+00   1.390142e+01  -1.240804e+07   2.393469e+07  -3.752841e+07  -6.621976e+14  -2.140567e+15  -1.147947e+15   4.620834e+07   5.059869e-11   0.000000e+00   0.000000e+00
     1304000   1.303999e-05   6.640011e+00   8.474461e+00   1.124298e+01  -1.311603e+07   6.500985e+06  -4.388257e+07   7.153190e+14  -2.369774e+15  -5.663408e+14   4.625984e+07   5.159641e-11   0.000000e+00   0.000000e+00
     1312000   1.311999e-05   7.623684e+00   9.285144e+00   8.638595e+00   6.576628e+06  -9.155853e+06  -4.492514e+07   2.319964e+15  -1.310734e+15   6.050903e+14   4.631792e+07   5.989835e-11   0.000000e+00   0.000000e+00
     1320000   1.319999e-05   9.277137e+00   1.012816e+01   6.460741e+00   4.423977e+07  -1.346611e+06  -1.391296e+07   8.512887e+14   2.069642e+15   2.498485e+15   4.639548e+07   9.056954e-11   0.000000e+00   0.000000e+00
     1328000   1.327999e-05   1.100022e+01   1.185964e+01   5.507850e+00  -7.134989e+06   3.893024e+07  -2.447293e+07  -4.524124e+14  -2.584987e+15  -3.989479e+15   4.653381e+07   1.847159e-10   0.000000e+00   0.000000e+00
     1336000   1.335999e-05   1.255492e+01   1.303772e+01   4.694093e+00  -7.445006e+06   4.604681e+07   3.984698e+06  -2.928771e+15   6.863229e+13  -6.148802e+15   4.681469e+07   3.805624e-10   0.000000e+00   0.000000e+00
     1344000   1.343999e-05   1.342418e+01   1.422241e+01   4.027209e+00   1.092147e+07  -2.511193e+06  -4.599155e+07   6.161853e+15  -6.062102e+15   1.777301e+15   4.733717e+07   6.539886e-10   0.000000e+00   0.000000e+00
     1352000   1.351999e-05   1.430814e+01   1.461260e+01   4.114399e+00  -2.428501e+07   3.825120e+07   1.621603e+07  -3.838068e+15   1.680536e+15  -9.643821e+15   4.812354e+07   9.611495e-10   0.000000e+00   0.000000e+00
     1360000   1.359999e-05   1.448651e+01   1.454771e+01   3.889890e+00   3.721967e+06   1.377018e+06   4.890173e+07  -7.543622e+15   7.667399e+15   3.819369e+14   4.906250e+07   1.048935e-09   0.000000e+00   0.000000e+00
     1368000   1.367999e-05   1.380038e+01   1.421465e+01   3.783781e+00   2.197963e+07  -4.430933e+07  -6.892037e+06   2.546048e+15  -2.106456e+14   9.337954e+15   4.993918e+07   8.808660e-10   0.000000e+00   0.000000e+00
     1376000   1.375999e-05   1.301783e+01   1.309727e+01   4.541061e+00  -3.342948e+07   1.393331e+07   3.528984e+07  -4.911397e+15   2.528544e+15  -5.633179e+15   5.056719e+07   6.008750e-10   0.000000e+00   0.000000e+00
     1384000   1.383999e-05   1.166054e+01   1.160766e+01   5.290717e+00  -2.880794e+07   7.379384e+06   4.133343e+07  -4.129574e+15   1.915516e+15  -3.212640e+15   5.091960e+07   3.041107e-10   0.000000e+00   0.000000e+00
     1392000   1.391999e-05   9.624349e+00   9.997158e+00   6.326201e+00  -6.078168e+06  -5.023900e+07   7.014181e+06   2.820676e+15   1.639044e+13   2.582517e+15   5.108913e+07   1.442939e-10   0.000000e+00   0.000000e+00
     1400000   1.399999e-05   8.628645e+00   8.099818e+00   8.586746e+00   1.398276e+07  -1.489627e+07   4.692411e+07  -7.256398e+14   2.762040e+15   1.095047e+15   5.117898e+07   9.252911e-11   0.000000e+00   0.000000e+00
     1408000   1.407999e-05   7.772354e+00   6.974906e+00   1.143977e+01   2.850761e+06   1.086141e+07   4.999915e+07  -2.297655e+15   1.632352e+15  -2.219969e+14   5.124463e+07   7.935736e-11   0.000000e+00   0.000000e+00
     1416000   1.415999e-05   6.717849e+00   6.034079e+00   1.435933e+01  -1.624283e+07   1.482829e+07   4.634887e+07  -2.620680e+15   3.644012e+14  -1.033251e+15   5.130229e+07   8.029166e-11   0.000000e+00   0.000000e+00
     1424000   1.423999e-05   4.962745e+00   4.872809e+00   1.681708e+01  -4.706371e+07   4.298312e+06   2.014250e+07  -1.440856e+15  -1.669048e+15  -3.003553e+15   5.137303e+07   1.385654e-10   0.000000e+00   0.000000e+00
     1432000   1.431999e-05   3.226753e+00   2.943387e+00   1.775382e+01   1.652898e+07  -3.801680e+07   3.065623e+07   1.240377e+14   3.912301e+15   4.797273e+15   5.155860e+07   3.855002e-10   0.000000e+00   0.000000e+00
     1440000   1.439999e-05   2.516673e+00   2.099186e+00   1.879291e+01  -2.879700e+07   3.478526e+07   2.614788e+07  -6.629921e+15   1.577042e+15  -9.348416e+15   5.218231e+07   1.380746e-09   0.000000e+00   0.000000e+00
     1448000   1.447999e-05   2.817269e+00   2.427066e+00   1.803438e+01   4.716428e+07  -2.044004e+07  -1.293880e+07   3.037565e+15   2.624446e+15   6.877502e+15   5.300639e+07   6.765513e-10   0.000000e+00   0.000000e+00
     1456000   1.455999e-05   4.125789e+00   4.151181e+00   1.697541e+01   1.574787e+07  -2.625700e+06  -5.086448e+07   3.441101e+15  -2.246801e+15   1.177770e+15   5.331121e+07   1.974316e-10   0.000000e+00   0.000000e+00
     1464000   1.463999e-05   5.776029e+00   5.407135e+00   1.467314e+01   4.408267e+07   1.599377e+05  -3.014037e+07   1.064688e+15   1.960838e+15   1.565130e+15   5.340177e+07   8.050472e-11   0.000000e+00   0.000000e+00
     1472000   1.471999e-05   7.046280e+00   6.552451e+00   1.191651e+01   4.522253e+07   7.328193e+06  -2.755759e+07   2.174429e+14   2.571824e+15   1.037927e+15   5.346214e+07   8.407226e-11   0.000000e+00   0.000000e+00
     1480000   1.479999e-05   8.471158e+00   7.659534e+00   9.151389e+00   4.367260e+07   2.690205e+07  -1.530317e+07  -1.420472e+15   2.667432e+15   6.291783e+14   5.352760e+07   1.037887e-10   0.000000e+00   0.000000e+00
     1488000   1.487999e-05   1.013987e+01   9.345945e+00   7.038530e+00   9.714230e+06   5.180866e+07  -9.794469e+06  -3.101815e+15   1.598018e+14  -2.246120e+15   5.361376e+07   1.605689e-10   0.000000e+00   0.000000e+00
     1496000   1.495999e-05   1.137830e+01   1.107955e+01   5.007651e+00   3.268253e+07  -1.009188e+07  -4.149175e+07   3.975990e+15  -1.513415e+15   3.492637e+15   5.377321e+07   3.332269e-10   0.000000e+00   0.000000e+00
     1504000   1.503999e-05   1.292486e+01   1.266608e+01   4.345057e+00   9.380058e+06   2.955801e+06  -5.321879e+07   5.904836e+15  -5.475085e+15   7.243824e+14   5.411989e+07   7.289170e-10   0.000000e+00   0.000000e+00
     1512000   1.511999e-05   1.421142e+01   1.333708e+01   3.773883e+00   4.567042e+07  -1.909604e+07   2.341808e+07  -2.523378e+15   4.703715e+15   8.801993e+15   5.476178e+07   1.211723e-09   0.000000e+00   0.000000e+00
     1520000   1.519999e-05   1.434493e+01   1.396241e+01   4.045458e+00  -2.602696e+07   1.215206e+07  -4.767366e+07   6.542068e+15  -7.749856e+15  -5.575117e+15   5.565836e+07   1.585980e-09   0.000000e+00   0.000000e+00
     1528000   1.527999e-05   1.435110e+01   1.315362e+01   3.995541e+00   3.176603e+06  -5.688277e+06   5.617432e+07  -7.659025e+15   7.242733e+15   1.186549e+15   5.655087e+07   1.378541e-09   0.000000e+00   0.000000e+00
     1536000   1.535999e-05   1.316902e+01   1.226674e+01   4.734494e+00  -5.523271e+07   1.445082e+07   3.413889e+06  -1.185734e+15  -2.620834e+15  -7.883626e+15   5.719382e+07   8.841093e-10   0.000000e+00   0.000000e+00
     1544000   1.543999e-05   1.193197e+01   1.028658e+01   5.580481e+00  -2.467647e+07   4.947565e+06   5.173012e+07  -4.560644e+15   2.267360e+15  -2.386273e+15   5.752749e+07   4.021294e-10   0.000000e+00   0.000000e+00
     1552000   1.551999e-05   9.774898e+00   8.738448e+00   7.335978e+00  -3.969831e+07  -4.181617e+07   1.525693e+06   2.827056e+15  -2.688006e+15  -1.349444e+13   5.767907e+07   1.945447e-10   0.000000e+00   0.000000e+00
     1560000   1.559999e-05   8.444036e+00   6.767665e+00   9.854155e+00  -4.012837e+06  -5.154872e+07   2.576001e+07   2.945320e+15   4.512699e+14   1.366029e+15   5.776635e+07   1.377997e-10   0.000000e+00   0.000000e+00
     1568000   1.567999e-05   7.525063e+00   5.305800e+00   1.291813e+01   1.138517e+07  -4.202805e+07   3.807006e+07   1.991706e+15   1.814304e+15   1.409722e+15   5.783864e+07   1.188960e-10   0.000000e+00   0.000000e+00
     1576000   1.575999e-05   6.406329e+00   3.831138e+00   1.574239e+01   1.428683e+07  -3.161930e+07   4.636998e+07   1.165951e+14   2.895902e+15   1.941392e+15   5.791432e+07   1.568992e-10   0.000000e+00   0.000000e+00
     1584000   1.583999e-05   4.862355e+00   2.630469e+00   1.808300e+01  -5.800998e+07   2.693934e+06  -1.984428e+06  -3.127792e+12  -4.315002e+15  -6.044266e+15   5.810639e+07   7.163222e-10   0.000000e+00   0.000000e+00
     1592000   1.591999e-05   4.025111e+00   1.632409e+00   1.824081e+01   1.287425e+07  -4.067430e+07  -4.048431e+07   8.959464e+15  -2.749510e+15   5.582183e+15   5.881432e+07   1.586737e-09   0.000000e+00   0.000000e+00
     1600000   1.599999e-05   5.100122e+00   2.448845e+00   1.695241e+01   4.794547e+07  -1.469712e+07  -3.179551e+07   3.293712e+15   2.153668e+15   3.961378e+15   5.937784e+07   4.243890e-10   0.000000e+00   0.000000e+00
     1608000   1.607999e-05   7.115442e+00   4.081285e+00   1.478901e+01   3.042446e+07   4.884313e+07  -1.517681e+07  -3.023065e+15   1.754873e+15  -4.207459e+14   5.951163e+07   1.695220e-10   0.000000e+00   0.000000e+00
     1616000   1.615999e-05   8.287827e+00   5.511314e+00   1.168407e+01   1.774395e+07   5.004001e+07  -2.703900e+07  -2.994202e+15   6.718036e+14  -7.252979e+14   5.958152e+07   1.363171e-10   0.000000e+00   0.000000e+00
     1624000   1.623999e-05   9.569889e+00   6.811424e+00   8.608472e+00   1.219990e+07   5.371599e+07  -2.288358e+07  -2.962006e+15   1.213245e+14  -1.298917e+15   5.964816e+07   1.439696e-10   0.000000e+00   0.000000e+00
     1632000   1.631999e-05   1.107821e+01   8.721455e+00   6.208527e+00  -9.947577e+06   4.971216e+07  -3.159261e+07  -1.203520e+15  -2.323188e+15  -3.282249e+15   5.973563e+07   2.428976e-10   0.000000e+00   0.000000e+00
     1640000   1.639999e-05   1.271563e+01   1.035605e+01   4.053983e+00   5.686838e+07  -9.881401e+06  -1.609926e+07   1.935616e+15   1.304147e+15   6.011007e+15   5.992363e+07   5.771408e-10   0.000000e+00   0.000000e+00
     1648000   1.647999e-05   1.410286e+01   1.206125e+01   3.444377e+00   4.825312e+07  -2.130771e+07  -2.935619e+07   4.454388e+15  -1.348420e+15   8.269784e+15   6.036695e+07   1.270109e-09   0.000000e+00   0.000000e+00
     1656000   1.655999e-05   1.523655e+01   1.262104e+01   3.527678e+00   8.000308e+06   1.481908e+07   5.877360e+07  -9.234820e+15   7.200827e+15  -5.351734e+14   6.113875e+07   1.992396e-09   0.000000e+00   0.000000e+00
     1664000   1.663999e-05   1.468059e+01   1.287198e+01   3.595414e+00  -2.144692e+07  -9.800909e+06  -5.740102e+07   8.466804e+15  -7.696352e+15  -1.872787e+15   6.205567e+07   2.013537e-09   0.000000e+00   0.000000e+00
     1672000   1.671999e-05   1.395020e+01   1.149391e+01   3.530253e+00   2.602486e+07  -5.695171e+07  -4.333036e+06   2.717798e+15   5.761050e+14   8.564322e+15   6.276596e+07   1.244784e-09   0.000000e+00   0.000000e+00
     1680000   1.679999e-05   1.225642e+01   9.793325e+00   4.759993e+00  -3.215929e+07  -4.666926e+07  -2.781723e+07   4.728654e+15  -3.628667e+15   6.081861e+14   6.313507e+07   5.583558e-10   0.000000e+00   0.000000e+00
     1688000   1.687999e-05   1.098915e+01   6.884788e+00   6.392645e+00   2.064917e+07  -4.073609e+07   4.380602e+07   3.239675e+14   2.933958e+15   2.579142e+15   6.328336e+07   2.401951e-10   0.000000e+00   0.000000e+00
     1696000   1.695999e-05   1.001577e+01   4.927942e+00   9.605661e+00   2.543067e+07  -8.311893e+06   5.744078e+07  -1.061679e+15   3.189500e+15   9.336869e+14   6.336599e+07   1.908038e-10   0.000000e+00   0.000000e+00
     1704000   1.703999e-05   9.294348e+00   3.744760e+00   1.317674e+01   1.602448e+07   1.372463e+07   5.983567e+07  -2.768926e+15   2.573868e+15   1.535602e+14   6.344649e+07   2.250043e-10   0.000000e+00   0.000000e+00
     1712000   1.711999e-05   8.124984e+00   2.839050e+00   1.653834e+01  -4.202217e+07   1.907563e+07   4.370807e+07  -4.220071e+15  -1.802985e+15  -3.263159e+15   6.356208e+07   5.003732e-10   0.000000e+00   0.000000e+00
     1720000   1.719999e-05   7.118815e+00   1.168937e+00   1.797793e+01   2.829556e+07   2.903545e+07   4.950200e+07  -9.088840e+15   7.744320e+15   6.816786e+14   6.398550e+07   2.289693e-09   0.000000e+00   0.000000e+00
     1728000   1.727999e-05   7.692885e+00   1.992449e+00   1.714903e+01  -1.136668e+07   6.298137e+07  -9.383747e+06  -6.035521e+15  -1.677729e+15  -4.008521e+15   6.468314e+07   9.072749e-10   0.000000e+00   0.000000e+00
     1736000   1.735999e-05   7.929153e+00   3.525319e+00   1.394359e+01  -9.449671e+06  -1.856941e+07  -6.141534e+07   3.250658e+15  -2.210769e+15   1.657601e+14   6.485340e+07   2.554057e-10   0.000000e+00   0.000000e+00
     1744000   1.743999e-05   8.803202e+00   4.449088e+00   1.021848e+01   9.226635e+06  -2.527504e+07  -5.909575e+07   3.165524e+15  -5.529671e+14   7.288988e+14   6.493278e+07   1.795834e-10   0.000000e+00   0.000000e+00
     1752000   1.751999e-05   1.028714e+01   5.875429e+00   6.700273e+00   2.008718e+07  -1.293451e+07  -6.044738e+07   3.033137e+15  -7.046559e+14   1.156894e+15   6.499755e+07   1.829007e-10   0.000000e+00   0.000000e+00
     1760000   1.759999e-05   1.249061e+01   7.809378e+00   4.138752e+00   5.195980e+07  -4.273411e+06  -3.896938e+07   2.838074e+15   2.606873e+14   3.749864e+15   6.508990e+07   3.688083e-10   0.000000e+00   0.000000e+00
     1768000   1.767999e-05   1.476074e+01   1.004268e+01   3.763725e+00  -2.163100e+07   6.062790e+07   1.120021e+07  -3.859063e+15  -3.364819e+13  -7.211155e+15   6.533825e+07   1.121417e-09   0.000000e+00   0.000000e+00
     1776000   1.775999e-05   1.578464e+01   1.152550e+01   3.349963e+00  -4.223510e+07   4.982121e+07   8.934205e+06  -3.006024e+15  -5.450012e+14  -1.102485e+16   6.592250e+07   2.237646e-09   0.000000e+00   0.000000e+00
     1784000   1.783999e-05   1.566957e+01   1.201590e+01   2.856317e+00   3.371871e+06  -1.983778e+07  -6.368436e+07   9.843544e+15  -6.653003e+15   2.570401e+15   6.678776e+07   2.600404e-09   0.000000e+00   0.000000e+00
     1792000   1.791999e-05   1.533818e+01   1.080718e+01   2.751954e+00   3.929553e+07  -5.477673e+07   4.490914e+06   1.048707e+15   1.539519e+15   9.824324e+15   6.756328e+07   1.805134e-09   0.000000e+00   0.000000e+00
     1800000   1.799999e-05   1.366232e+01   8.976366e+00   3.755272e+00  -1.870234e+07  -5.535276e+07  -3.476056e+07   5.407598e+15  -3.030543e+15   1.904275e+15   6.798531e+07   7.698245e-10   0.000000e+00   0.000000e+00
     1808000   1.807999e-05   1.247601e+01   5.679988e+00   5.306218e+00   2.443047e+07  -4.816453e+07   4.154284e+07   5.004447e+14   2.666616e+15   2.801019e+15   6.813573e+07   2.797231e-10   0.000000e+00   0.000000e+00
     1816000   1.815999e-05   1.146482e+01   3.418853e+00   8.806291e+00   3.505143e+07  -2.501537e+07   5.290249e+07   5.290604e+14   3.443060e+15   1.280144e+15   6.821323e+07   2.539559e-10   0.000000e+00   0.000000e+00
     1824000   1.823999e-05   1.121411e+01   2.355378e+00   1.264225e+01   3.434070e+07   1.466418e+07   5.720723e+07  -2.507030e+15   3.970005e+15   4.911828e+14   6.831537e+07   4.122663e-10   0.000000e+00   0.000000e+00
     1832000   1.831999e-05   1.044558e+01   2.220286e+00   1.614052e+01  -6.186677e+07   7.008764e+06   2.857335e+07  -2.164234e+15  -6.024348e+15  -3.190363e+15   6.850589e+07   9.522915e-10   0.000000e+00   0.000000e+00
     1840000   1.839999e-05   1.005847e+01   1.402924e+00   1.762827e+01  -5.861372e+07   3.658931e+07  -1.225415e+06  -5.440114e+15  -8.903304e+15  -6.908973e+15   6.910750e+07   2.972822e-09   0.000000e+00   0.000000e+00
     1848000   1.847999e-05   1.061156e+01   1.926756e+00   1.568716e+01  -2.665981e+07   5.777771e+07  -2.837291e+07  -5.495454e+15  -3.676898e+15  -2.341210e+15   6.967087e+07   9.510818e-10   0.000000e+00   0.000000e+00
     1856000   1.855999e-05   1.029131e+01   2.727928e+00   1.201868e+01  -1.790989e+07  -3.095211e+07  -5.999685e+07   3.783735e+15  -2.357615e+15   8.347236e+13   6.984568e+07   3.864743e-10   0.000000e+00   0.000000e+00
     1864000   1.863999e-05   1.102489e+01   3.435929e+00   7.968300e+00   7.502064e+06  -2.679225e+07  -6.416155e+07   3.268712e+15  -6.288305e+14   6.429853e+14   6.993433e+07   2.240350e-10   0.000000e+00   0.000000e+00
     1872000   1.871999e-05   1.295045e+01   5.460913e+00   4.561314e+00   1.048907e+07   1.092976e+07  -6.833187e+07   2.885193e+15  -1.759761e+15   1.597318e+14   6.999089e+07   2.234627e-10   0.000000e+00   0.000000e+00
     1880000   1.879999e-05   1.513750e+01   7.915038e+00   2.535013e+00   5.287618e+07   2.835909e+06  -4.596261e+07   4.096578e+15  -9.764413e+14   4.643976e+15   7.011772e+07   7.703931e-10   0.000000e+00   0.000000e+00
     1888000   1.887999e-05   1.661287e+01   1.017895e+01   2.667112e+00  -3.763242e+07   3.930248e+07  -4.487009e+07   4.918386e+15  -4.566274e+15  -8.149554e+15   7.052807e+07   2.213561e-09   0.000000e+00   0.000000e+00
     1896000   1.895999e-05   1.695314e+01   1.099153e+01   2.238033e+00  -8.057774e+06  -5.137080e+06  -7.065503e+07   1.065557e+16  -6.318304e+15  -7.776265e+14   7.129832e+07   3.135401e-09   0.000000e+00   0.000000e+00
     1904000   1.903999e-05   1.664006e+01   1.009697e+01   2.032577e+00   2.868362e+07  -4.948061e+07  -4.387181e+07   6.913370e+15  -2.716215e+15   7.557871e+15   7.208202e+07   2.342156e-09   0.000000e+00   0.000000e+00
     1912000   1.911999e-05   1.555529e+01   7.936398e+00   3.343357e+00  -6.528750e+07  -2.438773e+07  -2.000752e+07   2.830175e+15  -3.612678e+15  -4.853990e+15   7.250876e+07   9.431911e-10   0.000000e+00   0.000000e+00
     1920000   1.919999e-05   1.381360e+01   4.661564e+00   4.915544e+00  -2.738232e+07  -6.720551e+07   3.094615e+06   3.280933e+15  -1.311427e+15   5.922411e+14   7.263573e+07   2.723293e-10   0.000000e+00   0.000000e+00
     1928000   1.927999e-05   1.350376e+01   2.864260e+00   8.497529e+00  -4.040049e+07  -5.105011e+07   3.239696e+07   3.307390e+15  -2.787681e+15  -2.624770e+14   7.271778e+07   3.994087e-10   0.000000e+00   0.000000e+00
     1936000   1.935999e-05   1.324791e+01   1.325159e+00   1.190151e+01   3.384085e+07  -5.248862e+07   3.757370e+07   5.052501e+15   3.791561e+15   7.568493e+14   7.288375e+07   8.652848e-10   0.000000e+00   0.000000e+00
     1944000   1.943999e-05   1.377821e+01   1.584338e+00   1.487731e+01  -5.692708e+07   3.425515e+07   3.076241e+07  -5.351451e+15  -7.220626e+15  -1.835272e+15   7.321498e+07   1.817539e-09   0.000000e+00   0.000000e+00
     1952000   1.951999e-05   1.375710e+01   1.016014e+00   1.616321e+01  -2.250070e+07   6.908133e+07   1.314212e+07  -1.149841e+16  -3.399985e+15  -1.702927e+15   7.383243e+07   3.228956e-09   0.000000e+00   0.000000e+00
     1960000   1.959999e-05   1.383834e+01   9.085119e-01   1.494156e+01   9.933758e+06   7.144236e+07  -1.857868e+07  -9.748435e+15   1.267290e+15  -3.912166e+14   7.448394e+07   2.173692e-09   0.000000e+00   0.000000e+00
     1968000   1.967999e-05   1.294307e+01   1.039839e+00   1.200446e+01   1.832665e+07  -5.572786e+07  -4.645880e+07   6.203665e+15   1.631038e+15   4.818104e+14   7.483235e+07   9.390719e-10   0.000000e+00   0.000000e+00
     1976000   1.975999e-05   1.389859e+01   8.774151e-01   8.214383e+00   5.871478e+07   1.007969e+07  -4.556498e+07  -4.046073e+14   4.449249e+15   4.584430e+14   7.500129e+07   4.600619e-10   0.000000e+00   0.000000e+00
     1984000   1.983999e-05   1.455015e+01   1.978120e+00   3.657325e+00   5.624317e+07  -8.646838e+06  -4.895782e+07   1.385362e+15   1.633748e+15   1.301683e+15   7.506617e+07   1.436002e-10   0.000000e+00   0.000000e+00
     1992000   1.991999e-05   1.716829e+01   5.799632e+00   1.884744e+00   1.464853e+07   4.620516e+07  -5.736875e+07   3.350401e+15  -1.595960e+15  -4.323391e+14   7.510439e+07   3.192562e-10   0.000000e+00   0.000000e+00
     2000000   1.999999e-05   1.960102e+01   9.280965e+00   1.241742e+00   9.621716e+06   4.903521e+07   5.639431e+07  -9.027905e+15   3.069162e+15  -1.112018e+15   7.534817e+07   2.123796e-09   0.000000e+00   0.000000e+00
     2008000   2.007999e-05   1.997802e+01   1.214812e+01   1.212395e+00  -2.169481e+07   3.438897e+07  -6.445348e+07   1.270129e+16  -5.152632e+15  -7.061264e+15   7.620706e+07   5.622308e-09   0.000000e+00   0.000000e+00
     2016000   2.015999e-05   2.056989e+01   1.332472e+01   1.330154e+00  -5.907476e+07   3.016707e+07  -4.054426e+07   9.156566e+15  -3.285038e+15  -1.587123e+16   7.774134e+07   8.577104e-09   0.000000e+00   0.000000e+00
     2024000   2.023999e-05   2.046979e+01   1.320990e+01   1.275346e+00  -5.245944e+07   7.992936e+06  -5.924387e+07   1.309010e+16  -4.933855e+15  -1.231535e+16   7.953437e+07   9.060177e-09   0.000000e+00   0.000000e+00
     2032000   2.031999e-05   2.024461e+01   1.150986e+01   1.436964e+00  -7.858966e+07  -4.995644e+06   1.899608e+07  -3.644042e+15   6.453897e+14  -1.478396e+16   8.100705e+07   6.320389e-09   0.000000e+00   0.000000e+00
     2040000   2.039999e-05   1.869809e+01   8.469735e+00   1.577170e+00  -5.343375e+07  -4.353383e+07  -4.392050e+07   6.368904e+15  -3.178323e+15  -4.614460e+15   8.172742e+07   1.999029e-09   0.000000e+00   0.000000e+00
     2048000   2.047999e-05   1.719857e+01   3.577868e+00   2.040970e+00   1.363061e+07  -8.069422e+07   2.450535e+06   1.941087e+15   3.934395e+14   2.194406e+15   8.187403e+07   2.437627e-10   0.000000e+00   0.000000e+00
     2056000   2.055999e-05   1.847988e+01   1.704761e+00   6.663225e+00  -4.924968e+07  -1.481632e+07   6.376033e+07  -1.880482e+14  -3.774243e+15  -1.019890e+15   8.191724e+07   4.277577e-10   0.000000e+00   0.000000e+00
     2064000   2.063999e-05   1.824823e+01   2.079393e-01   1.137364e+01   5.789826e+07  -1.827798e+07   5.529260e+07   2.414921e+15   8.224357e+15   2.032838e+14   8.211921e+07   2.064273e-09   0.000000e+00   0.000000e+00
     2072000   2.071999e-05   1.833733e+01   2.272381e-02   1.533824e+01   6.956876e+07   1.010629e+07   4.352715e+07  -2.030747e+15   1.343012e+16   1.698505e+14   8.268351e+07   5.264616e-09   0.000000e+00   0.000000e+00
