     timestep     time              x             y              z              vx             vy             vz             ax             ay             az         v_magnitude      ELoss        Electronic      Nuclear
           0   0.000000e+00   1.000000e-01   9.460869e+00   1.970590e+01  -6.889657e+04  -2.269146e+04   1.283514e+05   0.000000e+00   0.000000e+00   0.000000e+00   1.474304e+05   0.000000e+00   0.000000e+00   0.000000e+00
        8000   7.999000e-08   9.297773e-02   9.456469e+00   1.971287e+01  -1.009050e+05   1.559913e+05   2.045278e+05  -3.582123e+14   1.447023e+14  -2.760655e+14   2.763091e+05   6.129048e-17   0.000000e+00   0.000000e+00
       16000   1.599900e-07   8.697309e-02   9.452123e+00   1.971859e+01   8.482760e+05  -4.772163e+04   9.484863e+05  -6.952895e+14   2.414227e+15   8.168809e+14   1.273372e+06   4.028401e-14   0.000000e+00   0.000000e+00
       24000   2.399900e-07   1.096397e-01   9.468616e+00   1.969979e+01  -3.442417e+06   3.194861e+06  -4.019887e+06  -8.534256e+14  -8.163873e+15  -6.015140e+15   6.181979e+06   1.410840e-11   0.000000e+00   0.000000e+00
       32000   3.199900e-07   3.175073e-01   9.583307e+00   1.948870e+01   1.105529e+07  -1.787187e+06  -4.674158e+05   1.172403e+15   5.720593e+15   4.662096e+15   1.120857e+07   2.506747e-11   0.000000e+00   0.000000e+00
       40000   3.999900e-07   7.629430e-01   9.868390e+00   1.907163e+01   1.020042e+06   8.379264e+06  -8.644393e+06  -8.684246e+14  -2.044213e+15  -2.094774e+15   1.208214e+07   4.864766e-12   0.000000e+00   0.000000e+00
       48000   4.799900e-07   1.271822e+00   1.018819e+01   1.851998e+01   1.932283e+06   4.853966e+06  -1.106979e+07   1.894967e+14  -1.432044e+15  -5.970630e+14   1.224071e+07   1.308982e-12   0.000000e+00   0.000000e+00
       56000   5.599900e-07   1.823002e+00   1.047750e+01   1.790667e+01   5.878697e+06   8.760203e+06  -6.304548e+06  -7.798793e+14   1.086927e+14  -5.776849e+14   1.229014e+07   5.150525e-13   0.000000e+00   0.000000e+00
       64000   6.399900e-07   2.318987e+00   1.079461e+01   1.722345e+01   3.359054e+06   7.557020e+06  -9.121540e+06  -4.613134e+14  -3.268192e+14  -4.412082e+14   1.231236e+07   2.787408e-13   0.000000e+00   0.000000e+00
       72000   7.199900e-07   2.764478e+00   1.102239e+01   1.645418e+01   8.478770e+06   5.105579e+06  -7.345235e+06  -2.938990e+14   4.806852e+14  -5.568297e+12   1.232513e+07   1.724183e-13   0.000000e+00   0.000000e+00
       80000   7.999900e-07   3.109574e+00   1.131795e+01   1.564925e+01   1.913956e+06  -6.419745e+04  -1.218470e+07   3.366568e+14  -3.569829e+14   5.456238e+13   1.233427e+07   1.325913e-13   0.000000e+00   0.000000e+00
       88000   8.799900e-07   3.485513e+00   1.146706e+01   1.481171e+01   7.394146e+06   4.042478e+06  -9.016696e+06  -2.042903e+14   4.136856e+14   1.770390e+13   1.234163e+07   1.160907e-13   0.000000e+00   0.000000e+00
       96000   9.599900e-07   3.771478e+00   1.172331e+01   1.396216e+01  -3.556423e+05   3.415912e+06  -1.186117e+07  -1.047099e+14  -4.236087e+14  -1.190284e+14   1.234837e+07   1.115304e-13   0.000000e+00   0.000000e+00
      104000   1.039990e-06   4.001671e+00   1.184580e+01   1.306597e+01   5.085464e+06  -1.610617e+06  -1.114376e+07   3.773391e+14   1.688803e+14   1.476176e+14   1.235474e+07   1.051596e-13   0.000000e+00   0.000000e+00
      112000   1.119990e-06   4.335257e+00   1.201118e+01   1.220958e+01   5.413453e+06   5.540834e+06  -9.632546e+06  -3.533736e+14   2.395725e+14  -6.098074e+13   1.236092e+07   1.016008e-13   0.000000e+00   0.000000e+00
      120000   1.199990e-06   4.584646e+00   1.225123e+01   1.134198e+01  -2.818050e+05   2.756995e+06  -1.205241e+07  -1.125093e+13  -4.173372e+14  -9.535519e+13   1.236693e+07   1.002785e-13   0.000000e+00   0.000000e+00
      128000   1.279990e-06   4.855122e+00   1.239660e+01   1.045832e+01   5.532023e+06  -1.243008e+06  -1.099723e+07   3.739150e+14   1.316136e+14   1.730471e+14   1.237285e+07   1.023944e-13   0.000000e+00   0.000000e+00
      136000   1.359990e-06   5.259500e+00   1.259745e+01   9.638545e+00   7.285663e+06   5.404759e+06  -8.422630e+06  -2.675621e+14   3.268753e+14  -2.190221e+13   1.237873e+07   9.802456e-14   0.000000e+00   0.000000e+00
      144000   1.439990e-06   5.638479e+00   1.290939e+01   8.843387e+00   1.786582e+06   5.384124e+06  -1.100893e+07  -1.413212e+14  -3.457828e+14  -1.922062e+14   1.238455e+07   9.677451e-14   0.000000e+00   0.000000e+00
      152000   1.519990e-06   6.033955e+00   1.316287e+01   8.034608e+00   6.131695e+06  -2.078533e+05  -1.076503e+07   3.873197e+14  -5.046761e+13   2.214020e+14   1.239060e+07   1.106460e-13   0.000000e+00   0.000000e+00
      160000   1.599990e-06   6.590800e+00   1.344018e+01   7.337015e+00   9.303413e+06   5.874324e+06  -5.712194e+06  -2.385573e+14   3.936278e+14   1.589219e+13   1.239719e+07   1.165564e-13   0.000000e+00   0.000000e+00
      168000   1.679990e-06   7.123297e+00   1.386000e+01   6.698272e+00   3.890738e+06   5.498951e+06  -1.041607e+07   5.902837e+13  -4.379286e+14  -2.093761e+14   1.240447e+07   1.315331e-13   0.000000e+00   0.000000e+00
      176000   1.759990e-06   7.734684e+00   1.417517e+01   6.075259e+00   1.120356e+07   3.300615e+06  -4.204248e+06  -1.244324e+13   4.539215e+14   3.224619e+14   1.241328e+07   1.708895e-13   0.000000e+00   0.000000e+00
      184000   1.839990e-06   8.366076e+00   1.464687e+01   5.592569e+00   5.707751e+06   4.822446e+06  -9.926016e+06   2.708621e+14  -5.449418e+14  -1.093855e+14   1.242418e+07   2.109716e-13   0.000000e+00   0.000000e+00
      192000   1.919990e-06   9.079718e+00   1.503650e+01   5.177789e+00   6.861875e+06   9.830757e+06  -3.314750e+06  -3.919819e+14   7.806790e+13  -5.814140e+14   1.243852e+07   2.753592e-13   0.000000e+00   0.000000e+00
      200000   1.999990e-06   9.781579e+00   1.545699e+01   4.795005e+00   9.007461e+06   8.603638e+06   1.888065e+05  -5.141840e+14   5.467072e+14  -3.461089e+14   1.245763e+07   3.790189e-13   0.000000e+00   0.000000e+00
      208000   2.079990e-06   1.049097e+01   1.591569e+01   4.502570e+00   7.251334e+06   1.015007e+07  -4.835909e+05  -4.966275e+14   3.192579e+14  -7.652368e+14   1.248358e+07   5.205030e-13   0.000000e+00   0.000000e+00
      216000   2.159990e-06   1.118026e+01   1.640384e+01   4.240352e+00   6.874251e+06   6.362617e+06  -8.306031e+06   5.108935e+14  -9.661452e+14  -3.188240e+14   1.251912e+07   7.262878e-13   0.000000e+00   0.000000e+00
      224000   2.239990e-06   1.193075e+01   1.680021e+01   4.036758e+00   1.044547e+07   5.590967e+06   4.193867e+06  -6.792157e+14   1.139141e+15   1.773376e+14   1.256803e+07   1.011209e-12   0.000000e+00   0.000000e+00
      232000   2.319990e-06   1.262953e+01   1.727015e+01   3.870042e+00   1.258111e+07  -2.258893e+05  -1.140695e+06   1.457961e+14   1.694310e+14   1.552904e+15   1.263474e+07   1.405032e-12   0.000000e+00   0.000000e+00
      240000   2.399990e-06   1.334384e+01   1.770655e+01   3.778247e+00   1.266469e+07  -4.018894e+05   1.173918e+06  -1.438492e+14   5.059234e+14   1.753658e+15   1.272533e+07   1.940973e-12   0.000000e+00   0.000000e+00
      248000   2.479990e-06   1.405154e+01   1.812921e+01   3.776710e+00   6.218113e+06   9.593789e+06   5.861309e+06  -9.281461e+14   1.402365e+15  -1.303023e+15   1.284759e+07   2.671577e-12   0.000000e+00   0.000000e+00
      256000   2.559990e-06   1.471693e+01   1.857934e+01   3.728808e+00   1.269530e+07  -1.565798e+06  -2.383045e+06   3.612737e+14  -6.919438e+14   2.353477e+15   1.301158e+07   3.722676e-12   0.000000e+00   0.000000e+00
      264000   2.639990e-06   1.537110e+01   1.900348e+01   3.783743e+00   1.109492e+07   1.504939e+06  -7.048319e+06   1.215391e+15  -2.185415e+15   1.434759e+15   1.323030e+07   5.204040e-12   0.000000e+00   0.000000e+00
      272000   2.719990e-06   1.602570e+01   1.937488e+01   3.855876e+00   1.276426e+07  -3.586915e+06   2.654226e+06  -6.460022e+14   1.139560e+14   3.303380e+15   1.352173e+07   7.419195e-12   0.000000e+00   0.000000e+00
      280000   2.799990e-06   1.661652e+01   1.975199e+01   4.041047e+00   2.171489e+06   1.373731e+07  -3.345203e+05   1.128158e+15  -2.592390e+14  -3.792596e+15   1.391190e+07   1.088953e-11   0.000000e+00   0.000000e+00
      288000   2.879990e-06   1.719184e+01   2.007919e+01   4.203339e+00   1.280926e+04   1.121050e+07   9.100576e+06  -6.143235e+14   2.957518e+15  -3.617930e+15   1.443939e+07   1.657830e-11   0.000000e+00   0.000000e+00
      296000   2.959990e-06   1.767822e+01   2.042963e+01   4.393106e+00   5.089324e+06   1.211711e+07  -7.562021e+06   3.399502e+15  -3.331050e+15  -3.092252e+15   1.516277e+07   2.652456e-11   0.000000e+00   0.000000e+00
      304000   3.039990e-06   1.814466e+01   2.065383e+01   4.597763e+00  -3.172157e+06   5.981888e+06   1.467495e+07  -2.210184e+15   5.864164e+15  -2.835899e+15   1.616167e+07   4.428938e-11   0.000000e+00   0.000000e+00
      312000   3.119990e-06   1.847998e+01   2.087472e+01   4.805813e+00  -7.225181e+06   1.307205e+07   9.177868e+06   7.532150e+14   5.093132e+15  -6.585065e+15   1.753040e+07   7.702742e-11   0.000000e+00   0.000000e+00
      320000   3.199990e-06   1.871703e+01   2.106338e+01   4.898774e+00   1.488764e+07  -8.748388e+06  -8.730256e+06  -9.523115e+13  -7.147090e+15   6.886691e+15   1.934925e+07   1.325191e-10   0.000000e+00   0.000000e+00
      328000   3.279990e-06   1.877308e+01   2.109702e+01   5.006664e+00  -3.605760e+06   1.794140e+07  -1.148434e+07   7.532814e+15  -3.501530e+15  -7.950480e+15   2.160522e+07   2.221978e-10   0.000000e+00   0.000000e+00
      336000   3.359990e-06   1.871133e+01   2.097022e+01   4.915280e+00  -1.525449e+07  -2.789467e+06   1.845044e+07  -5.210865e+15   1.085263e+16  -2.585298e+15   2.410185e+07   3.178856e-10   0.000000e+00   0.000000e+00
      344000   3.439990e-06   1.832226e+01   2.082213e+01   4.725709e+00  -5.886457e+06   1.350385e+07  -2.203268e+07   7.866619e+15  -6.859563e+15  -6.373835e+15   2.650365e+07   3.802752e-10   0.000000e+00   0.000000e+00
      352000   3.519990e-06   1.776117e+01   2.039098e+01   4.455312e+00  -2.442389e+07   1.463716e+07   1.729975e+06   1.825776e+15   4.355159e+15  -1.032682e+16   2.852658e+07   3.807471e-10   0.000000e+00   0.000000e+00
      360000   3.599990e-06   1.689761e+01   1.990717e+01   4.135863e+00  -1.805947e+07   1.037289e+07  -2.169891e+07   5.216584e+15  -5.107611e+15  -6.829323e+15   3.007631e+07   3.287226e-10   0.000000e+00   0.000000e+00
      368000   3.679990e-06   1.590864e+01   1.913165e+01   3.808263e+00  -8.883953e+06  -2.323847e+07   1.882892e+07  -4.310466e+15   5.554215e+15   4.859970e+15   3.120063e+07   2.589617e-10   0.000000e+00   0.000000e+00
      376000   3.759990e-06   1.463611e+01   1.832664e+01   3.677834e+00  -5.488476e+06  -2.870471e+07   1.299573e+07  -2.089737e+15   3.116288e+15   6.039539e+15   3.198394e+07   1.885455e-10   0.000000e+00   0.000000e+00
      384000   3.839990e-06   1.321333e+01   1.741471e+01   3.921773e+00  -3.011535e+07   6.785920e+06   1.014240e+07  -1.505183e+15   1.299984e+15  -5.307370e+15   3.249387e+07   1.237529e-10   0.000000e+00   0.000000e+00
      392000   3.919990e-06   1.169438e+01   1.632037e+01   4.118742e+00  -1.452290e+07  -1.307702e+07   2.633755e+07  -2.215095e+15   3.600933e+15   5.733976e+14   3.279618e+07   7.146526e-11   0.000000e+00   0.000000e+00
      400000   3.999990e-06   1.005632e+01   1.532842e+01   4.835146e+00  -3.047241e+07   2.766402e+06   1.225148e+07  -1.158376e+15  -2.527265e+14  -2.816475e+15   3.295936e+07   3.703863e-11   0.000000e+00   0.000000e+00
      408000   4.079990e-06   8.497564e+00   1.409343e+01   5.694288e+00  -1.285267e+07  -6.838791e+06   2.966388e+07  -1.333441e+15   1.779568e+15  -1.658064e+14   3.304400e+07   1.982699e-11   0.000000e+00   0.000000e+00
      416000   4.159990e-06   6.886372e+00   1.327067e+01   7.092332e+00  -2.576276e+07  -1.880684e+07   8.808841e+06   1.068536e+15  -1.425624e+15   8.500002e+13   3.309097e+07   1.272060e-11   0.000000e+00   0.000000e+00
      424000   4.239990e-06   5.783701e+00   1.215099e+01   8.819107e+00   7.426626e+05  -1.812938e+07   2.771367e+07   6.694881e+14   1.259213e+15   8.067644e+14   3.312512e+07   1.075788e-11   0.000000e+00   0.000000e+00
      432000   4.319990e-06   5.139341e+00   1.155047e+01   1.098996e+01  -4.579402e+06   7.034843e+06   3.207575e+07  -1.407352e+15   6.602549e+14  -3.449418e+14   3.315590e+07   1.017943e-11   0.000000e+00   0.000000e+00
      440000   4.399990e-06   4.314374e+00   1.125381e+01   1.315090e+01  -2.409399e+07  -2.861539e+06   2.264273e+07  -2.033757e+14  -1.588779e+15  -4.159877e+14   3.318738e+07   1.101581e-11   0.000000e+00   0.000000e+00
      448000   4.479990e-06   3.385514e+00   1.058125e+01   1.516483e+01  -5.837518e+06  -2.232471e+07   2.390098e+07   1.525523e+15   4.007660e+14   7.482006e+14   3.322237e+07   1.228569e-11   0.000000e+00   0.000000e+00
      456000   4.559990e-06   2.557934e+00   1.005062e+01   1.720914e+01  -2.389097e+07   8.202500e+06   2.166371e+07  -1.896874e+15  -8.134738e+14  -1.780459e+15   3.327726e+07   3.004809e-11   0.000000e+00   0.000000e+00
      464000   4.639990e-06   1.207254e+00   9.341300e+00   1.850611e+01  -1.629735e+07  -2.925674e+07  -9.310244e+05   5.277841e+15  -3.048367e+15   2.915056e+15   3.350265e+07   1.871724e-10   0.000000e+00   0.000000e+00
      472000   4.719990e-06   8.569433e-01   8.916200e+00   1.913883e+01   6.751732e+06   2.854326e+07   1.921100e+07  -9.844505e+15   6.839708e+15  -6.604908e+15   3.506232e+07   8.433010e-10   0.000000e+00   0.000000e+00
      480000   4.799990e-06   1.733226e+00   9.451025e+00   1.813228e+01   3.527652e+07  -2.390993e+06  -7.155887e+06   8.665820e+14   3.795045e+15   2.970463e+15   3.607432e+07   1.145014e-10   0.000000e+00   0.000000e+00
      488000   4.879990e-06   2.946246e+00   1.034806e+01   1.646701e+01   2.480195e+07  -6.844100e+06  -2.547018e+07   1.613526e+15   9.655815e+14   1.309670e+15   3.620370e+07   2.525726e-11   0.000000e+00   0.000000e+00
      496000   4.959990e-06   4.221977e+00   1.107699e+01   1.447454e+01   1.333260e+07   2.478642e+07  -2.284767e+07  -1.800754e+15   4.394428e+14  -5.757343e+14   3.625108e+07   1.816659e-11   0.000000e+00   0.000000e+00
      504000   5.039990e-06   4.798539e+00   1.182088e+01   1.214645e+01  -7.727657e+06   3.979670e+06  -3.523537e+07   3.686396e+14  -1.867784e+15  -2.928588e+14   3.629168e+07   1.793428e-11   0.000000e+00   0.000000e+00
      512000   5.119990e-06   5.568223e+00   1.212023e+01   9.773338e+00   2.167711e+07  -8.462140e+06  -2.790234e+07   1.528407e+15   8.286745e+14   9.346930e+14   3.633243e+07   1.887681e-11   0.000000e+00   0.000000e+00
      520000   5.199990e-06   7.030904e+00   1.282364e+01   7.875458e+00   2.350474e+07   2.509171e+07  -1.188312e+07  -1.587353e+15   1.252374e+15  -4.989846e+14   3.637685e+07   2.106545e-11   0.000000e+00   0.000000e+00
      528000   5.279990e-06   8.309587e+00   1.399965e+01   6.151458e+00   1.490483e+07   1.026178e+06  -3.323308e+07   1.843729e+15  -1.756008e+15   7.705495e+14   3.643686e+07   3.448413e-11   0.000000e+00   0.000000e+00
      536000   5.359990e-06   1.011439e+01   1.507536e+01   5.204941e+00   6.256512e+06   2.775215e+07  -2.294117e+07   1.221142e+14  -2.375038e+15  -2.845797e+15   3.654617e+07   6.743978e-11   0.000000e+00   0.000000e+00
      544000   5.439990e-06   1.172410e+01   1.616705e+01   4.349555e+00   2.455546e+07  -2.401052e+06  -2.726088e+07   3.019682e+15  -3.199946e+15   2.991461e+15   3.676807e+07   1.405389e-10   0.000000e+00   0.000000e+00
      552000   5.519990e-06   1.328422e+01   1.718747e+01   4.166490e+00   5.631155e+06   2.489846e+07  -2.706331e+07   2.909491e+15  -5.267528e+15  -4.260869e+15   3.720304e+07   2.765540e-10   0.000000e+00   0.000000e+00
      560000   5.599990e-06   1.463176e+01   1.794851e+01   3.876733e+00   3.319307e+07  -1.834384e+07   1.893342e+06  -2.518540e+14   4.801919e+14   9.551129e+15   3.797184e+07   4.855979e-10   0.000000e+00   0.000000e+00
      568000   5.679990e-06   1.557570e+01   1.867722e+01   3.955955e+00   2.646370e+07  -1.386492e+07  -2.535706e+07   4.129960e+15  -7.409583e+15   8.306081e+15   3.918602e+07   7.982126e-10   0.000000e+00   0.000000e+00
      576000   5.759990e-06   1.628104e+01   1.893086e+01   4.040964e+00   1.662665e+07  -2.166610e+07   3.042179e+07  -6.951321e+15   7.636214e+15   9.301083e+15   4.088216e+07   1.194105e-09   0.000000e+00   0.000000e+00
      584000   5.839990e-06   1.632269e+01   1.912805e+01   4.242421e+00  -1.756733e+07   3.006967e+07  -2.511137e+07   6.592088e+15  -6.276042e+15  -1.221938e+16   4.293456e+07   1.589431e-09   0.000000e+00   0.000000e+00
      592000   5.919990e-06   1.603189e+01   1.881915e+01   3.951826e+00   1.718503e+07  -4.153435e+07  -1.993923e+06  -1.266359e+15  -1.269365e+15   1.446204e+16   4.499337e+07   1.603277e-09   0.000000e+00   0.000000e+00
      600000   5.999990e-06   1.517208e+01   1.813446e+01   3.864446e+00   8.696679e+06  -4.368913e+07   1.399666e+07  -2.793371e+15   3.285275e+15   1.210831e+16   4.669345e+07   1.348080e-09   0.000000e+00   0.000000e+00
      608000   6.079990e-06   1.373118e+01   1.725083e+01   4.193608e+00  -4.251878e+07   1.457305e+07  -1.642822e+07   1.997876e+15  -4.410414e+15  -9.148389e+15   4.785506e+07   9.206240e-10   0.000000e+00   0.000000e+00
      616000   6.159990e-06   1.204263e+01   1.584398e+01   4.581968e+00  -4.184164e+07   1.176946e+07   2.152729e+07  -3.003256e+15   1.369692e+15  -6.561080e+15   4.850430e+07   4.768836e-10   0.000000e+00   0.000000e+00
      624000   6.239990e-06   9.868817e+00   1.449763e+01   5.455560e+00  -4.807533e+07  -7.060053e+06  -4.531727e+06   8.087612e+14  -3.649370e+15  -2.944381e+15   4.880183e+07   2.027568e-10   0.000000e+00   0.000000e+00
      632000   6.319990e-06   8.083136e+00   1.255164e+01   6.988605e+00  -8.279210e+06  -6.777140e+06   4.774498e+07  -1.933838e+15   2.610008e+15   3.734997e+13   4.892912e+07   9.502926e-11   0.000000e+00   0.000000e+00
      640000   6.399990e-06   6.404381e+00   1.163531e+01   9.596802e+00  -4.073631e+07  -5.950185e+06   2.657059e+07  -3.315656e+14  -2.429951e+15  -1.049817e+15   4.899845e+07   6.426661e-11   0.000000e+00   0.000000e+00
      648000   6.479990e-06   4.998750e+00   1.051351e+01   1.235487e+01  -1.697664e+07  -3.499375e+07   2.989417e+07   2.409570e+15  -5.880874e+14   6.821792e+14   4.905538e+07   5.990696e-11   0.000000e+00   0.000000e+00
      656000   6.559990e-06   4.018897e+00   9.404294e+00   1.529809e+01   5.413188e+06  -2.026012e+07   4.440677e+07   3.530423e+14   2.310984e+15   1.012788e+15   4.910943e+07   5.889073e-11   0.000000e+00   0.000000e+00
      664000   6.639990e-06   2.345425e+00   8.764496e+00   1.788675e+01  -4.891990e+07  -2.971121e+06   4.499424e+06  -1.870355e+13  -4.343781e+15  -3.009631e+15   4.921614e+07   2.544866e-10   0.000000e+00   0.000000e+00
      672000   6.719990e-06   1.088766e+00   7.790576e+00   1.911561e+01  -3.878132e+07   2.544471e+07  -1.894736e+07  -1.067569e+15  -1.085887e+16  -1.254333e+16   5.010416e+07   2.615758e-09   0.000000e+00   0.000000e+00
      680000   6.799990e-06   2.014392e+00   8.439426e+00   1.812955e+01   2.907356e+07  -1.593895e+07  -3.919949e+07   4.777985e+15  -1.340075e+15   4.078111e+15   5.134123e+07   4.114088e-10   0.000000e+00   0.000000e+00
      688000   6.879990e-06   4.257261e+00   9.954658e+00   1.638032e+01   3.341608e+06   4.027818e+07  -3.189167e+07  -2.010696e+15  -1.409463e+15  -1.993926e+15   5.148376e+07   1.003216e-10   0.000000e+00   0.000000e+00
      696000   6.959990e-06   5.178866e+00   1.108168e+01   1.321702e+01  -8.342883e+06  -5.384811e+06  -5.058120e+07   1.650239e+15  -2.414063e+15  -1.688358e+13   5.154665e+07   8.596922e-11   0.000000e+00   0.000000e+00
      704000   7.039990e-06   6.405109e+00   1.144470e+01   1.002313e+01   3.973452e+07  -7.601510e+06  -3.205728e+07   1.668585e+15   2.222338e+15   1.538072e+15   5.161671e+07   1.017128e-10   0.000000e+00   0.000000e+00
      712000   7.119990e-06   8.435435e+00   1.278451e+01   7.726507e+00   1.136929e+07   4.528478e+07  -2.221953e+07  -2.705336e+15  -5.878942e+14  -2.588898e+15   5.170764e+07   1.453793e-10   0.000000e+00   0.000000e+00
      720000   7.199990e-06   1.043334e+01   1.395952e+01   5.671882e+00   4.802171e+07   1.460219e+07   1.310905e+07  -2.085006e+15   4.699514e+15   2.427758e+15   5.187635e+07   3.293726e-10   0.000000e+00   0.000000e+00
      728000   7.279990e-06   1.246154e+01   1.559697e+01   5.028448e+00   4.404043e+05   5.224891e+07   1.683633e+06  -3.062595e+15   3.102891e+14  -8.357117e+15   5.227788e+07   8.215000e-10   0.000000e+00   0.000000e+00
      736000   7.359990e-06   1.408799e+01   1.669819e+01   4.630604e+00  -6.451237e+06   4.749786e+07   2.297088e+07  -4.997690e+15   4.542623e+15  -1.072660e+16   5.315381e+07   1.723997e-09   0.000000e+00   0.000000e+00
      744000   7.439990e-06   1.494513e+01   1.752818e+01   4.227029e+00   3.579964e+07  -3.329025e+07  -2.446271e+07   4.346089e+15  -5.542752e+15   1.380494e+16   5.466516e+07   2.736330e-09   0.000000e+00   0.000000e+00
      752000   7.519990e-06   1.508277e+01   1.771643e+01   4.435183e+00  -1.112834e+07   8.315385e+06  -5.488930e+07   9.693275e+15  -1.321799e+16  -4.019564e+15   5.661997e+07   3.498986e-09   0.000000e+00   0.000000e+00
      760000   7.599990e-06   1.463551e+01   1.690724e+01   4.553936e+00  -3.420230e+07   2.011918e+07   4.290944e+07  -7.629176e+15   8.626383e+15  -1.007123e+16   5.844484e+07   3.078073e-09   0.000000e+00   0.000000e+00
      768000   7.679990e-06   1.308126e+01   1.588483e+01   4.897990e+00  -5.572018e+07   2.133833e+07   4.808963e+02  -1.033284e+15  -2.635752e+15  -1.116562e+16   5.966626e+07   1.825012e-09   0.000000e+00   0.000000e+00
      776000   7.759990e-06   1.085655e+01   1.410888e+01   5.277813e+00  -4.965621e+06  -5.986402e+07   4.676634e+06   3.326558e+15   2.186723e+14   6.443823e+15   6.025138e+07   7.394698e-10   0.000000e+00   0.000000e+00
      784000   7.839990e-06   8.596410e+00   1.243734e+01   7.438171e+00  -4.860223e+07  -3.589627e+07   2.656433e+06   2.766110e+15  -3.762595e+15  -1.527323e+14   6.047955e+07   3.092142e-10   0.000000e+00   0.000000e+00
      792000   7.919990e-06   7.073244e+00   1.022121e+01   1.024054e+01   1.547910e+07  -2.433463e+07   5.328511e+07   3.529155e+14   3.351779e+15   1.430710e+15   6.058943e+07   1.906164e-10   0.000000e+00   0.000000e+00
      800000   7.999990e-06   6.125784e+00   9.278932e+00   1.403325e+01  -1.156154e+07   1.826531e+07   5.668393e+07  -3.007686e+15   9.291700e+14  -9.109753e+14   6.066596e+07   1.531124e-10   0.000000e+00   0.000000e+00
      808000   8.079990e-06   3.862350e+00   8.352719e+00   1.733143e+01  -5.857566e+07   1.622460e+06   1.598362e+07  -9.281331e+14  -2.744108e+15  -3.111503e+15   6.073892e+07   2.583024e-10   0.000000e+00   0.000000e+00
      816000   8.159990e-06   1.622093e+00   6.701815e+00   1.902088e+01  -5.644166e+07   1.539710e+07  -1.775399e+07   8.985106e+14  -8.613645e+15  -1.043013e+16   6.113866e+07   2.663726e-09   0.000000e+00   0.000000e+00
      824000   8.239990e-06   1.889526e+00   6.925315e+00   1.871162e+01   2.388294e+07  -1.241666e+07  -5.653845e+07   7.316637e+15  -6.086913e+15   4.408006e+15   6.261920e+07   1.681639e-09   0.000000e+00   0.000000e+00
      832000   8.319990e-06   4.658984e+00   8.946588e+00   1.752916e+01   4.162605e+06   5.249189e+07  -3.435288e+07  -1.319860e+15  -1.928852e+15  -3.111664e+15   6.287167e+07   2.334006e-10   0.000000e+00   0.000000e+00
      840000   8.399990e-06   6.129383e+00   1.074272e+01   1.389318e+01  -1.486886e+07   1.062244e+06  -6.114775e+07   1.372826e+15  -3.322801e+15  -3.936822e+14   6.293853e+07   2.020421e-10   0.000000e+00   0.000000e+00
      848000   8.479990e-06   7.552074e+00   1.118429e+01   1.006796e+01   5.024869e+07  -1.073868e+07  -3.651890e+07   2.316714e+15   2.983485e+15   2.305036e+15   6.303872e+07   3.034975e-10   0.000000e+00   0.000000e+00
      856000   8.559990e-06   9.800118e+00   1.309999e+01   7.570847e+00  -5.711234e+06   3.657465e+07  -5.123133e+07   2.092756e+14  -4.953506e+15  -3.566977e+15   6.320579e+07   5.815029e-10   0.000000e+00   0.000000e+00
      864000   8.639990e-06   1.199172e+01   1.477311e+01   5.852645e+00   9.403596e+05   2.584097e+07  -5.810651e+07   4.613451e+15  -8.094503e+15  -3.542202e+15   6.360036e+07   1.569983e-09   0.000000e+00   0.000000e+00
      872000   8.719990e-06   1.399613e+01   1.595653e+01   5.348734e+00  -1.962187e+07   6.148090e+07   2.336455e+06  -3.292259e+15  -4.476163e+14  -1.487599e+16   6.457846e+07   3.796171e-09   0.000000e+00   0.000000e+00
      880000   8.799990e-06   1.471617e+01   1.671742e+01   4.788145e+00   3.171555e+07  -3.784254e+07  -4.433289e+07   8.528288e+15  -8.797540e+15   1.353549e+16   6.635766e+07   5.782965e-09   0.000000e+00   0.000000e+00
      888000   8.879990e-06   1.463839e+01   1.619685e+01   5.215827e+00  -4.387511e+07   3.528738e+07   3.882628e+07  -8.027578e+15   6.407069e+15  -1.481087e+16   6.839374e+07   6.025203e-09   0.000000e+00   0.000000e+00
      896000   8.959990e-06   1.315730e+01   1.501038e+01   5.680161e+00  -6.318203e+07   2.575437e+07   1.477347e+07  -3.647990e+15  -1.641997e+15  -1.262033e+16   6.981054e+07   3.403053e-09   0.000000e+00   0.000000e+00
      904000   9.039990e-06   1.061989e+01   1.313482e+01   6.645799e+00  -3.808229e+07  -5.681689e+07  -1.680996e+07   5.898390e+15  -4.684152e+15   2.432384e+15   7.043433e+07   1.240799e-09   0.000000e+00   0.000000e+00
      912000   9.119990e-06   9.107329e+00   1.095488e+01   9.727920e+00  -4.545250e+07   1.594233e+07   5.170859e+07  -3.942710e+15  -1.694313e+15  -2.938086e+15   7.066729e+07   5.396321e-10   0.000000e+00   0.000000e+00
      920000   9.199990e-06   6.959554e+00   9.520260e+00   1.335026e+01  -3.754091e+07  -4.868137e+07   3.509319e+07   3.195998e+15  -2.094374e+15   5.178313e+14   7.078649e+07   2.977872e-10   0.000000e+00   0.000000e+00
      928000   9.279990e-06   4.798754e+00   7.967581e+00   1.684198e+01  -3.087008e+07  -6.040064e+07   2.048761e+07   2.743047e+15  -7.403186e+14   1.956372e+15   7.085860e+07   2.388451e-10   0.000000e+00   0.000000e+00
      936000   9.359990e-06   2.018583e+00   5.799284e+00   1.917271e+01  -6.525516e+07   1.375555e+06  -2.827332e+07   3.560388e+15  -8.330229e+15  -8.678364e+15   7.113023e+07   3.184237e-09   0.000000e+00   0.000000e+00
      944000   9.439990e-06   1.885232e+00   5.386413e+00   1.904782e+01   6.350200e+07  -2.854373e+07  -2.178585e+07   4.907523e+15   9.285138e+14   1.299904e+16   7.295116e+07   4.156840e-09   0.000000e+00   0.000000e+00
      952000   9.519990e-06   4.728897e+00   8.189986e+00   1.823473e+01   4.143795e+07   1.696955e+07  -5.805640e+07   2.448085e+15  -2.405047e+15   1.042132e+15   7.331858e+07   2.789105e-10   0.000000e+00   0.000000e+00
      960000   9.599990e-06   6.590300e+00   1.070475e+01   1.519767e+01  -1.236317e+06  -2.862294e+07  -6.756230e+07   3.886375e+15  -2.230363e+15   8.706984e+14   7.338573e+07   4.524014e-10   0.000000e+00   0.000000e+00
      968000   9.679990e-06   8.406024e+00   1.089316e+01   1.153849e+01   7.014147e+07   1.209514e+07  -1.858717e+07  -5.778836e+14   6.347231e+15   1.925724e+15   7.356359e+07   9.677127e-10   0.000000e+00   0.000000e+00
      976000   9.759990e-06   9.583450e+00   1.268278e+01   8.818111e+00  -1.218069e+06  -2.914247e+07  -6.790491e+07   7.027408e+15  -5.151627e+15   2.073032e+15   7.390429e+07   1.769815e-09   0.000000e+00   0.000000e+00
      984000   9.839990e-06   1.114262e+01   1.373477e+01   7.290616e+00  -2.998859e+06  -2.682502e+07  -6.945526e+07   8.741740e+15  -7.928415e+15   2.663599e+15   7.451582e+07   3.290115e-09   0.000000e+00   0.000000e+00
      992000   9.919990e-06   1.215922e+01   1.360048e+01   6.611242e+00   5.640755e+07  -3.402470e+07   3.683002e+07  -1.109169e+15   9.099548e+15   1.015603e+16   7.547146e+07   4.329937e-09   0.000000e+00   0.000000e+00
     1000000   9.999990e-06   1.194929e+01   1.325837e+01   7.646932e+00  -4.010611e+07   4.810166e+07   4.385625e+07  -9.184938e+15   8.438231e+14  -9.285983e+15   7.645679e+07   4.081693e-09   0.000000e+00   0.000000e+00
     1008000   1.007999e-05   1.077750e+01   1.191005e+01   9.162205e+00  -3.676189e+07   4.074033e+07   5.415399e+07  -8.094372e+15  -2.638391e+13  -5.457336e+15   7.709647e+07   2.314428e-09   0.000000e+00   0.000000e+00
     1016000   1.015999e-05   8.849547e+00   1.001495e+01   1.149760e+01   3.441687e+07  -5.095470e+07   4.708708e+07   3.289053e+15   5.121003e+15   3.147568e+15   7.744737e+07   1.152105e-09   0.000000e+00   0.000000e+00
     1024000   1.023999e-05   8.480400e+00   8.979770e+00   1.573163e+01  -6.887111e+05   3.031513e+07   7.145273e+07  -3.895660e+15   1.743001e+15  -7.744162e+14   7.762070e+07   4.640981e-10   0.000000e+00   0.000000e+00
     1032000   1.031999e-05   4.771921e+00   7.279832e+00   1.888886e+01  -5.655754e+07  -1.429044e+07   5.129468e+07  -2.864701e+15   2.500305e+15  -2.458052e+15   7.767957e+07   5.062236e-10   0.000000e+00   0.000000e+00
     1040000   1.039999e-05   1.177730e+00   5.291881e+00   1.989672e+01  -6.851790e+07   3.771220e+07   3.481181e+06   8.833549e+13   1.231029e+14   4.055963e+14   7.828813e+07   4.812283e-12   0.000000e+00   0.000000e+00
     1048000   1.047999e-05   4.316608e+00   6.180502e+00   2.045834e+01   7.555572e+07   2.443835e+07  -1.333260e+07  -1.214271e+15   2.217212e+15  -2.827954e+15   8.052117e+07   3.862513e-10   0.000000e+00   0.000000e+00
     1056000   1.055999e-05   8.959603e+00   1.012937e+01   1.865828e+01   4.586162e+07   6.385315e+07  -1.748744e+07  -1.693746e+15   1.147844e+15  -2.531519e+14   8.053772e+07   1.140282e-10   0.000000e+00   0.000000e+00
     1064000   1.063999e-05   5.658339e+00   1.238644e+01   1.927347e+01  -6.690859e+07  -3.701714e+07   2.542744e+07   1.728478e+13   4.645679e+13   1.131199e+14   8.058277e+07   4.087918e-13   0.000000e+00   0.000000e+00
     1072000   1.071999e-05   6.848877e-01   9.283732e+00   1.998557e+01  -2.340354e+07  -5.826957e+07   5.126658e+07   2.041495e+16  -2.730894e+16  -2.140365e+16   8.106375e+07   4.363078e-08   0.000000e+00   0.000000e+00
     1080000   1.079999e-05   4.971708e+00   6.152047e+00   1.972160e+01   7.768930e+07  -2.792796e+07   1.180077e+07  -7.235072e+14   1.255684e+15   7.788052e+15   8.339578e+07   1.827209e-09   0.000000e+00   0.000000e+00
     1088000   1.087999e-05   1.116330e+01   5.152249e+00   1.971351e+01   8.297379e+07  -1.509079e+06   9.272348e+06  -5.735024e+14   7.695945e+14   5.288405e+15   8.350392e+07   8.436156e-10   0.000000e+00   0.000000e+00
     1096000   1.095999e-05   1.724881e+01   7.073786e+00   2.026708e+01   4.723493e+07   5.357303e+07   4.332555e+07  -4.898909e+15   2.779223e+15   1.912545e+15   8.353629e+07   1.032896e-09   0.000000e+00   0.000000e+00
     1104000   1.103999e-05   1.657593e+01   8.442440e+00   2.065346e+01  -6.987592e+07  -1.014496e+07   4.564939e+07  -6.048872e+15   1.608937e+14  -9.196755e+15   8.407991e+07   3.598030e-09   0.000000e+00   0.000000e+00
     1112000   1.111999e-05   1.786415e+01   4.141855e+00   2.061314e+01   6.876550e+07   2.000111e+07  -4.432036e+07  -2.631991e+15   3.073645e+15  -2.701932e+15   8.422015e+07   7.058479e-10   0.000000e+00   0.000000e+00
     1120000   1.119999e-05   1.890396e+01   7.562142e+00   1.979175e+01   1.700430e+07  -2.484930e+07   7.879503e+07   5.891214e+15  -2.230231e+15  -1.969161e+15   8.435218e+07   1.302912e-09   0.000000e+00   0.000000e+00
     1128000   1.127999e-05   1.981815e+01   4.715455e+00   1.902238e+01   5.862806e+07   3.551573e+07   4.956267e+07  -3.548389e+15   2.713915e+15   2.257729e+15   8.458768e+07   7.546967e-10   0.000000e+00   0.000000e+00
     1136000   1.135999e-05   1.872397e+01   6.153775e+00   1.746879e+01  -1.522680e+07  -2.325483e+07  -8.004914e+07   1.857297e+15  -1.009817e+15  -6.049123e+13   8.473787e+07   1.349700e-10   0.000000e+00   0.000000e+00
     1144000   1.143999e-05   1.934797e+01   7.162308e+00   1.140302e+01  -1.795886e+07   2.071467e+07  -8.030097e+07   2.597940e+15  -4.790807e+15  -1.820977e+15   8.485202e+07   1.000639e-09   0.000000e+00   0.000000e+00
     1152000   1.151999e-05   2.111487e+01   1.101285e+01   7.362225e+00   1.661436e+07   8.247607e+07   1.330546e+07  -1.139864e+16   2.547686e+15  -1.454793e+15   8.517848e+07   4.237829e-09   0.000000e+00   0.000000e+00
     1160000   1.159999e-05   2.259885e+01   1.598638e+01   7.015364e+00  -1.719919e+07   4.630020e+07   7.244726e+07  -3.299192e+16   1.227283e+16  -1.547173e+16   8.768196e+07   4.841374e-08   0.000000e+00   0.000000e+00
     1168000   1.167999e-05   2.319454e+01   1.797455e+01   7.671462e+00   4.446993e+07  -6.833704e+07   7.210603e+07  -7.968961e+16  -5.369949e+15   4.522607e+16   1.088430e+08   4.716926e-07   0.000000e+00   0.000000e+00
     1176000   1.175999e-05   2.192579e+01   1.344634e+01   6.593012e+00   3.343876e+07  -1.054918e+08  -5.440432e+07   2.086632e+16  -4.083898e+15   2.058300e+16   1.233147e+08   6.876654e-08   0.000000e+00   0.000000e+00
     1184000   1.183999e-05   2.087568e+01   6.579536e+00   1.087109e+01   3.465102e+07  -9.124368e+07   7.694199e+07   7.807333e+15   6.473734e+15   4.176632e+15   1.242826e+08   9.653903e-09   0.000000e+00   0.000000e+00
     1192000   1.191999e-05   2.115888e+01   5.959607e+00   1.984773e+01  -9.369215e+06   8.617316e+05   1.241184e+08  -3.012524e+14  -1.694558e+14  -2.155420e+13   1.244745e+08   7.223114e-12   0.000000e+00   0.000000e+00
     1200000   1.199999e-05   2.050447e+01   5.807951e+00   1.913295e+01  -2.997712e+07   8.518825e+07  -8.614484e+07  -3.452528e+15  -5.316462e+14   6.742165e+14   1.248062e+08   1.024379e-09   0.000000e+00   0.000000e+00
     1208000   1.207999e-05   1.898432e+01   5.020402e+00   2.023532e+01  -5.203365e+07   6.660938e+07   9.223578e+07  -1.901096e+15  -2.056801e+14  -9.234556e+14   1.251069e+08   3.665741e-10   0.000000e+00   0.000000e+00
     1216000   1.215999e-05   1.682084e+01   5.011299e+00   2.014681e+01  -7.729198e+07   7.826745e+07  -6.031349e+07  -1.343964e+15  -1.010482e+15   4.105186e+14   1.254494e+08   2.481584e-10   0.000000e+00   0.000000e+00
     1224000   1.223999e-05   1.562822e+01   6.866727e+00   1.348726e+01  -3.424897e+07   1.036816e+08  -6.216003e+07  -1.111672e+16  -5.256952e+15  -2.668857e+15   1.256453e+08   1.310513e-08   0.000000e+00   0.000000e+00
     1232000   1.231999e-05   1.717824e+01   8.115573e+00   8.335383e+00   9.817454e+07   7.243696e+07   3.276218e+07  -1.083226e+16   1.188562e+16   6.271659e+15   1.263278e+08   2.503959e-08   0.000000e+00   0.000000e+00
     1240000   1.239999e-05   1.823804e+01   1.067167e+01   7.577285e+00  -1.133505e+08   5.923421e+07   7.427383e+05  -6.176696e+15  -1.139493e+16  -2.391506e+16   1.278967e+08   6.444971e-08   0.000000e+00   0.000000e+00
     1248000   1.247999e-05   1.707880e+01   8.479671e+00   7.891612e+00   3.186939e+07  -1.213078e+08  -3.256882e+07   1.545414e+16   1.472799e+15   9.534668e+15   1.295838e+08   3.004050e-08   0.000000e+00   0.000000e+00
     1256000   1.255999e-05   1.652335e+01   6.214184e+00   1.272897e+01  -6.670715e+07  -1.054070e+08   3.800157e+07   1.199745e+16  -7.888736e+15  -7.669389e+14   1.304017e+08   1.905964e-08   0.000000e+00   0.000000e+00
     1264000   1.263999e-05   1.628082e+01   2.987840e+00   1.905740e+01  -5.149512e+07  -1.307291e+07   1.195704e+08  -1.379173e+16   2.172384e+15  -5.683139e+15   1.308424e+08   2.113416e-08   0.000000e+00   0.000000e+00
     1272000   1.271999e-05   1.582213e+01   4.258534e+00   1.592250e+01   5.790295e+07   9.650743e+07  -6.857364e+07  -7.743407e+15   5.243074e+15   8.275511e+14   1.317907e+08   8.378459e-09   0.000000e+00   0.000000e+00
     1280000   1.279999e-05   1.584780e+01   7.060152e+00   9.102369e+00   1.164247e+07  -3.900400e+07  -1.257879e+08   1.253719e+16  -3.324252e+15   2.177421e+15   1.322099e+08   1.660349e-08   0.000000e+00   0.000000e+00
     1288000   1.287999e-05   1.839752e+01   1.076626e+01   5.757885e+00   4.591040e+07  -1.595184e+07  -1.240454e+08   2.177999e+16  -6.821640e+15   8.889861e+15   1.332272e+08   5.891702e-08   0.000000e+00   0.000000e+00
     1296000   1.295999e-05   1.927360e+01   1.122264e+01   6.333021e+00  -1.273548e+08  -2.826057e+06  -4.675181e+07   9.265002e+15  -1.267172e+16  -2.465518e+16   1.356944e+08   8.867062e-08   0.000000e+00   0.000000e+00
     1304000   1.303999e-05   1.773275e+01   6.910906e+00   8.457588e+00  -2.788619e+07  -1.340115e+08  -5.611205e+06   1.417374e+16  -3.059289e+15   2.241169e+15   1.369971e+08   2.300263e-08   0.000000e+00   0.000000e+00
     1312000   1.311999e-05   1.856206e+01   4.809984e+00   1.480335e+01  -9.853943e+07   3.504811e+07   8.942399e+07  -6.992506e+15  -1.214459e+16  -2.922521e+15   1.376046e+08   2.219599e-08   0.000000e+00   0.000000e+00
     1320000   1.319999e-05   1.722662e+01   2.559345e+00   1.872269e+01  -8.495065e+07   1.031088e+08   3.711667e+07  -1.392641e+16  -5.973569e+15  -1.515591e+16   1.386568e+08   5.096684e-08   0.000000e+00   0.000000e+00
     1328000   1.327999e-05   1.698894e+01   3.589068e+00   1.200537e+01   1.188274e+08   3.070238e+07  -6.584227e+07  -1.679106e+15   1.332303e+16   3.153325e+15   1.392760e+08   2.138418e-08   0.000000e+00   0.000000e+00
     1336000   1.335999e-05   1.832602e+01   7.994787e+00   6.724397e+00  -3.055815e+07   1.841676e+07  -1.351970e+08   1.320684e+16  -8.452324e+15  -4.155953e+15   1.398256e+08   2.993831e-08   0.000000e+00   0.000000e+00
     1344000   1.343999e-05   2.007440e+01   1.065282e+01   4.485443e+00   1.016969e+08  -4.604849e+07  -8.669744e+07   1.726017e+16  -1.138862e+15   2.076699e+16   1.413477e+08   8.598790e-08   0.000000e+00   0.000000e+00
     1352000   1.351999e-05   2.100719e+01   7.830585e+00   5.776265e+00   3.637760e+07  -1.493583e+07   1.376101e+08  -1.619690e+16   6.682246e+15   5.031116e+15   1.431186e+08   4.068492e-08   0.000000e+00   0.000000e+00
     1360000   1.359999e-05   1.937917e+01   3.520114e+00   1.089912e+01   6.599556e+07  -1.160518e+08   5.338814e+07   1.247736e+16   8.642366e+15   3.407715e+15   1.437836e+08   3.006328e-08   0.000000e+00   0.000000e+00
     1368000   1.367999e-05   1.889642e+01   2.998298e+00   1.676044e+01  -7.345023e+07  -1.233369e+08   1.784569e+07   1.513687e+16  -9.395833e+15  -2.455020e+15   1.446561e+08   4.090749e-08   0.000000e+00   0.000000e+00
     1376000   1.375999e-05   1.819941e+01   2.035628e+00   1.581882e+01   9.622480e+07  -6.076203e+07  -9.188757e+07   1.260081e+16   1.358347e+16   4.174061e+15   1.462688e+08   4.736244e-08   0.000000e+00   0.000000e+00
     1384000   1.383999e-05   1.859829e+01   4.733038e+00   9.370427e+00  -5.888208e+07  -3.474474e+07  -1.301190e+08   1.034113e+16  -8.541017e+15  -2.413246e+15   1.469872e+08   2.478054e-08   0.000000e+00   0.000000e+00
     1392000   1.391999e-05   2.238310e+01   8.639176e+00   4.522011e+00   3.553517e+07   1.037951e+08   9.865946e+07  -1.969770e+16   4.116060e+15   2.806241e+15   1.475461e+08   5.574362e-08   0.000000e+00   0.000000e+00
     1400000   1.399999e-05   2.174076e+01   1.127859e+01   4.090281e+00  -8.586372e+06  -3.383704e+07  -1.456005e+08   3.023608e+16  -7.167693e+15  -1.836603e+14   1.497270e+08   1.369538e-07   0.000000e+00   0.000000e+00
     1408000   1.407999e-05   2.178365e+01   6.186293e+00   4.812928e+00   9.669442e+07  -1.163172e+08   1.354437e+06   6.707985e+15   5.688392e+15   1.110422e+16   1.512658e+08   2.945110e-08   0.000000e+00   0.000000e+00
     1416000   1.415999e-05   2.276440e+01   3.600068e+00   1.250388e+01  -1.212151e+08  -2.722072e+07   8.723801e+07   1.117503e+15  -1.723026e+16  -3.787764e+15   1.518042e+08   4.640282e-08   0.000000e+00   0.000000e+00
     1424000   1.423999e-05   2.151127e+01   1.628703e+00   1.788374e+01  -3.951421e+07  -1.359855e+08  -5.856879e+07   3.178923e+16  -8.311741e+15  -2.334017e+15   1.532441e+08   1.662701e-07   0.000000e+00   0.000000e+00
     1432000   1.431999e-05   2.184948e+01   1.711506e+00   1.284970e+01   1.260831e+08   2.974813e+07  -8.512162e+07  -2.957049e+15   1.862703e+16   2.087422e+15   1.550084e+08   5.743071e-08   0.000000e+00   0.000000e+00
     1440000   1.439999e-05   2.250428e+01   6.314672e+00   5.711678e+00  -3.930483e+07   5.988246e+07  -1.380432e+08   9.277789e+15  -4.619556e+15  -4.654943e+15   1.555207e+08   2.081574e-08   0.000000e+00   0.000000e+00
     1448000   1.447999e-05   2.364970e+01   1.208099e+01   3.334590e+00   6.120992e+07   3.104706e+07  -1.411538e+08   3.081098e+16  -2.625539e+15   1.270420e+16   1.569553e+08   1.861843e-07   0.000000e+00   0.000000e+00
     1456000   1.455999e-05   2.385769e+01   1.142224e+01   3.554085e+00   1.141563e+07  -6.829762e+07  -1.445292e+08   3.095440e+16  -2.162235e+15   3.399281e+15   1.602610e+08   1.748566e-07   0.000000e+00   0.000000e+00
     1464000   1.463999e-05   2.466487e+01   4.479645e+00   6.934211e+00  -8.278839e+06  -1.572313e+08   3.498714e+07   1.150624e+16  -7.070623e+14  -4.168219e+14   1.612896e+08   2.442297e-08   0.000000e+00   0.000000e+00
     1472000   1.471999e-05   2.704746e+01   2.931641e+00   1.401076e+01  -9.640534e+07   8.946735e+07   9.462847e+07  -1.573260e+16  -1.450682e+16  -2.263476e+15   1.620276e+08   8.644128e-08   0.000000e+00   0.000000e+00
     1480000   1.479999e-05   2.497999e+01   2.160051e+00   1.744639e+01  -1.074703e+08  -9.914331e+07  -7.410854e+07   2.159967e+16  -1.720962e+16  -8.412499e+15   1.639248e+08   1.623295e-07   0.000000e+00   0.000000e+00
     1488000   1.487999e-05   2.421844e+01   2.891036e+00   1.161067e+01  -2.026605e+07  -1.166165e+08  -1.155197e+08   1.927521e+16  -2.906288e+15  -4.805522e+14   1.653932e+08   7.659508e-08   0.000000e+00   0.000000e+00
     1496000   1.495999e-05   2.747996e+01   6.589002e+00   4.804995e+00   3.572520e+07   1.426866e+08   7.685624e+07  -1.572129e+16   8.756440e+14   5.718597e+15   1.659597e+08   5.723108e-08   0.000000e+00   0.000000e+00
     1504000   1.503999e-05   2.766112e+01   9.717187e+00   3.758454e+00   5.537979e+07   1.934265e+07   1.568722e+08  -2.552210e+16  -2.799867e+15   9.402825e+15   1.674811e+08   1.578839e-07   0.000000e+00   0.000000e+00
     1512000   1.511999e-05   2.817021e+01   3.671882e+00   6.133239e+00   1.487640e+08  -7.480240e+07   2.595677e+07   4.255859e+15   1.077767e+16   6.737112e+15   1.685227e+08   3.886184e-08   0.000000e+00   0.000000e+00
     1520000   1.519999e-05   3.052994e+01   4.023078e+00   1.294975e+01  -1.353060e+08   5.569040e+07   8.502881e+07  -9.600399e+15  -1.782946e+16  -3.549804e+15   1.692307e+08   9.289366e-08   0.000000e+00   0.000000e+00
     1528000   1.527999e-05   3.070615e+01   2.457481e+00   1.666705e+01  -1.247606e+07   1.512169e+08   7.785282e+07  -2.491161e+16  -2.600973e+15   1.140599e+15   1.705382e+08   1.424456e-07   0.000000e+00   0.000000e+00
     1536000   1.535999e-05   2.916018e+01   2.155801e+00   1.518185e+01   1.111373e+08   1.288987e+08  -2.484326e+07  -1.845282e+16   1.667121e+16   3.694379e+15   1.719987e+08   1.480983e-07   0.000000e+00   0.000000e+00
     1544000   1.543999e-05   2.749918e+01   2.889524e+00   1.120421e+01   1.370938e+08  -6.694602e+07  -8.206096e+07   1.091002e+16   1.778632e+16   3.661724e+15   1.732354e+08   1.081802e-07   0.000000e+00   0.000000e+00
     1552000   1.551999e-05   2.886935e+01   7.771306e+00   7.715299e+00  -1.658578e+08   5.212544e+07  -9.620999e+06  -3.909045e+15  -1.551644e+16  -1.725315e+16   1.741219e+08   1.361829e-07   0.000000e+00   0.000000e+00
     1560000   1.559999e-05   3.045519e+01   8.670649e+00   6.438281e+00  -4.693533e+07   2.720855e+07   1.669320e+08  -2.218626e+16  -1.052023e+16  -4.485951e+15   1.755264e+08   1.583232e-07   0.000000e+00   0.000000e+00
     1568000   1.567999e-05   3.133229e+01   3.749396e+00   1.044302e+01   1.541262e+08  -7.654674e+07   3.893975e+07   6.835531e+15   1.593939e+16   4.359848e+15   1.764387e+08   8.303943e-08   0.000000e+00   0.000000e+00
     1576000   1.575999e-05   3.302399e+01   4.651485e+00   1.788779e+01  -1.277849e+08   3.968234e+07   1.161236e+08  -7.257789e+15  -9.527910e+15  -4.716434e+15   1.771676e+08   4.378769e-08   0.000000e+00   0.000000e+00
     1584000   1.583999e-05   2.691871e+01   4.685062e+00   1.853041e+01  -1.532027e+08  -8.389357e+07  -3.376581e+07   5.676657e+15  -8.705014e+15  -4.165096e+15   1.779026e+08   3.364840e-08   0.000000e+00   0.000000e+00
     1592000   1.591999e-05   2.200002e+01   2.654826e+00   1.822881e+01   2.546102e+07  -1.637225e+08  -6.680295e+07   2.418585e+16   2.023941e+15   4.166997e+15   1.786504e+08   1.655859e-07   0.000000e+00   0.000000e+00
     1600000   1.599999e-05   2.138974e+01   5.168005e+00   1.223357e+01  -4.322355e+07   9.423982e+07  -1.465128e+08  -6.646356e+15  -6.808765e+15  -2.425330e+15   1.794865e+08   2.689597e-08   0.000000e+00   0.000000e+00
     1608000   1.607999e-05   2.349900e+01   1.327180e+01   5.915638e+00  -8.314369e+07   1.447487e+08  -6.798794e+07   1.884328e+16  -2.813472e+15  -2.921268e+16   1.802427e+08   3.452275e-07   0.000000e+00   0.000000e+00
     1616000   1.615999e-05   2.452628e+01   1.661902e+01   6.599012e+00  -1.781910e+08  -7.837345e+07  -2.025025e+06  -1.300816e+16   3.067422e+16  -7.821007e+16   1.946754e+08   2.918999e-06   0.000000e+00   0.000000e+00
     1624000   1.623999e-05   2.490588e+01   6.266380e+00   8.620244e+00   8.322625e+05  -1.839130e+08   7.355292e+07   1.254922e+16   6.927102e+13   5.262195e+13   1.980776e+08   6.931124e-08   0.000000e+00   0.000000e+00
     1632000   1.631999e-05   2.527104e+01   9.479713e-01   2.047701e+01   5.011489e+07  -1.152495e+08   1.541850e+08   7.162963e+16   1.081746e+16  -1.484142e+16   1.989145e+08   2.457162e-06   0.000000e+00   0.000000e+00
     1640000   1.639999e-05   2.187886e+01   3.845625e+00   2.931705e+01  -1.597306e+08  -2.392769e+06   1.211410e+08  -4.048082e+15  -4.680387e+15  -5.424461e+15   2.004862e+08   3.177302e-08   0.000000e+00   0.000000e+00
     1648000   1.647999e-05   2.089978e+01   3.799799e+00   4.002068e+01   1.741443e+08   8.948437e+06   1.002859e+08   2.851649e+15   1.687132e+16  -6.423930e+15   2.011556e+08   1.593386e-07   0.000000e+00   0.000000e+00
     1656000   1.655999e-05   2.300184e+01   1.109849e+01   4.512444e+01   1.658126e+08  -8.098900e+05   1.163317e+08   2.109797e+16   1.766316e+15  -2.994396e+16   2.025525e+08   6.650992e-07   0.000000e+00   0.000000e+00
     1664000   1.663999e-05   2.559500e+01   7.452231e+00   4.347954e+01   8.354045e+07  -2.057179e+07  -1.861037e+08  -1.843380e+16   4.852575e+15  -8.834901e+15   2.050288e+08   2.333868e-07   0.000000e+00   0.000000e+00
     1672000   1.671999e-05   2.457324e+01   3.027742e+00   3.377219e+01   5.334986e+07  -1.693005e+08  -1.041234e+08   1.811997e+16   6.783224e+15  -1.781356e+15   2.057925e+08   2.036987e-07   0.000000e+00   0.000000e+00
     1680000   1.679999e-05   2.237155e+01   2.615927e+00   2.116902e+01  -8.157083e+07  -1.434712e+08  -1.242324e+08   2.761668e+15  -6.514288e+15   5.703142e+15   2.065707e+08   4.555158e-08   0.000000e+00   0.000000e+00
