     timestep     time              x             y              z              vx             vy             vz             ax             ay             az         v_magnitude      ELoss        Electronic      Nuclear
           0   0.000000e+00   1.000000e-01   1.420062e+01   1.210971e+01   1.387136e+05   4.718685e+04   1.636045e+04   0.000000e+00   0.000000e+00   0.000000e+00   1.474304e+05   0.000000e+00   0.000000e+00   0.000000e+00
        8000   7.999000e-08   9.904536e-02   1.420289e+01   1.211081e+01  -1.330036e+05  -6.456723e+04   1.112626e+04   7.676916e+12  -1.586268e+13  -4.173054e+09   1.482656e+05   2.432526e-20   0.000000e+00   0.000000e+00
       16000   1.599900e-07   1.002480e-01   1.420072e+01   1.211191e+01   1.242558e+05   8.080204e+04   1.625012e+04  -9.640751e+12   1.487127e+13  -3.499977e+10   1.491058e+05   2.488217e-20   0.000000e+00   0.000000e+00
       24000   2.399900e-07   9.874474e-02   1.420271e+01   1.211299e+01  -1.142333e+05  -9.651222e+04   1.102131e+04   1.149428e+13  -1.362938e+13   7.318541e+10   1.499511e+05   2.546827e-20   0.000000e+00   0.000000e+00
       32000   3.199900e-07   1.004634e-01   1.420090e+01   1.211409e+01   1.013648e+05   1.105043e+05   1.597048e+04  -1.319095e+13   1.214537e+13  -1.128119e+11   1.508015e+05   2.605289e-20   0.000000e+00   0.000000e+00
       40000   3.999900e-07   9.848693e-02   1.420247e+01   1.211514e+01  -8.744439e+04  -1.234125e+05   1.107642e+04   1.471146e+13  -1.043690e+13   1.484521e+11   1.516570e+05   2.666520e-20   0.000000e+00   0.000000e+00
       48000   4.799900e-07   1.006278e-01   1.420114e+01   1.211624e+01   7.102798e+04   1.340739e+05   1.551932e+04  -1.601125e+13   8.528343e+12  -1.862117e+11   1.525176e+05   2.727947e-20   0.000000e+00   0.000000e+00
       56000   5.599900e-07   9.828968e-02   1.420217e+01   1.211727e+01  -5.393563e+04  -1.431435e+05   1.128743e+04   1.707425e+13  -6.439672e+12   2.165238e+11   1.533835e+05   2.791860e-20   0.000000e+00   0.000000e+00
       64000   6.399900e-07   1.007246e-01   1.420142e+01   1.211836e+01   3.484531e+04   1.495262e+05   1.490613e+04  -1.786405e+13   4.210441e+12  -2.498317e+11   1.542546e+05   2.856454e-20   0.000000e+00   0.000000e+00
       72000   7.199900e-07   9.816805e-02   1.420184e+01   1.211938e+01  -1.559913e+04  -1.539052e+05   1.163857e+04   1.836703e+13  -1.863150e+12   2.723773e+11   1.551309e+05   2.923121e-20   0.000000e+00   0.000000e+00
       80000   7.999900e-07   1.007406e-01   1.420174e+01   1.212046e+01  -5.022292e+03   1.552880e+05   1.415278e+04  -1.856059e+13  -5.508644e+11  -2.985394e+11   1.560125e+05   2.991082e-20   0.000000e+00   0.000000e+00
       88000   8.799900e-07   9.813288e-02   1.420148e+01   1.212145e+01   2.515826e+04  -1.543957e+05   1.210235e+04   1.843350e+13   3.005490e+12   3.114345e+11   1.568994e+05   3.060592e-20   0.000000e+00   0.000000e+00
       96000   9.599900e-07   1.006677e-01   1.420207e+01   1.212253e+01  -4.595739e+04   1.503643e+05   1.329317e+04  -1.798097e+13  -5.443242e+12  -3.278877e+11   1.577917e+05   3.132115e-20   0.000000e+00   0.000000e+00
      104000   1.039990e-06   9.818958e-02   1.420112e+01   1.212351e+01   6.554588e+04  -1.439661e+05   1.264045e+04   1.719535e+13   7.832977e+12   3.299390e+11   1.586893e+05   3.204578e-20   0.000000e+00   0.000000e+00
      112000   1.119990e-06   1.005035e-01   1.420238e+01   1.212457e+01  -8.504185e+04   1.344787e+05   1.237175e+04  -1.609106e+13  -1.011803e+13  -3.345631e+11   1.595923e+05   3.279849e-20   0.000000e+00   0.000000e+00
      120000   1.199990e-06   9.833704e-02   1.420080e+01   1.212553e+01   1.025692e+05  -1.227423e+05   1.320540e+04   1.466671e+13   1.226140e+13   3.253212e+11   1.605008e+05   3.355404e-20   0.000000e+00   0.000000e+00
      128000   1.279990e-06   1.002527e-01   1.420265e+01   1.212658e+01  -1.192580e+05   1.081726e+05   1.144099e+04  -1.295441e+13  -1.421426e+13  -3.167846e+11   1.614146e+05   3.434590e-20   0.000000e+00   0.000000e+00
      136000   1.359990e-06   9.856710e-02   1.420053e+01   1.212753e+01   1.332494e+05  -9.169553e+04   1.374335e+04   1.096279e+13   1.593446e+13   2.965256e+11   1.623341e+05   3.513411e-20   0.000000e+00   0.000000e+00
      144000   1.439990e-06   9.992714e-02   1.420285e+01   1.212855e+01  -1.457239e+05   7.284632e+04   1.055760e+04  -8.737220e+12  -1.738636e+13  -2.749029e+11   1.632590e+05   3.596508e-20   0.000000e+00   0.000000e+00
      152000   1.519990e-06   9.886445e-02   1.420033e+01   1.212949e+01   1.548697e+05  -5.264979e+04   1.419767e+04   6.300758e+12   1.852684e+13   2.442668e+11   1.641895e+05   3.678956e-20   0.000000e+00   0.000000e+00
      160000   1.599990e-06   9.954545e-02   1.420297e+01   1.213050e+01  -1.619457e+05   3.073156e+04   9.777657e+03  -3.705922e+12  -1.933589e+13  -2.106436e+11   1.651255e+05   3.766219e-20   0.000000e+00   0.000000e+00
      168000   1.679990e-06   9.920725e-02   1.420023e+01   1.213143e+01   1.652277e+05  -8.215859e+03   1.451327e+04   9.919654e+11   1.977446e+13   1.711821e+11   1.660672e+05   3.852412e-20   0.000000e+00   0.000000e+00
      176000   1.759990e-06   9.913243e-02   1.420299e+01   1.213241e+01  -1.660680e+05  -1.521542e+04   9.153380e+03   1.786780e+12  -1.983954e+13  -1.280190e+11   1.670146e+05   3.943936e-20   0.000000e+00   0.000000e+00
      184000   1.839990e-06   9.956825e-02   1.420023e+01   1.213334e+01   1.628737e+05   3.835248e+04   1.464141e+04  -4.575140e+12   1.950290e+13   8.184006e+10   1.679676e+05   4.034167e-20   0.000000e+00   0.000000e+00
      192000   1.919990e-06   9.871739e-02   1.420290e+01   1.213429e+01  -1.570938e+05  -6.149395e+04   8.727114e+03   7.322445e+12  -1.877678e+13  -3.279010e+10   1.689264e+05   4.130024e-20   0.000000e+00   0.000000e+00
      200000   1.999990e-06   9.991670e-02   1.420035e+01   1.213521e+01   1.473082e+05   8.337664e+04   1.454460e+04  -9.960997e+12   1.765120e+13  -1.742510e+10   1.698909e+05   4.224622e-20   0.000000e+00   0.000000e+00
      208000   2.079990e-06   9.833203e-02   1.420270e+01   1.213613e+01  -1.350547e+05  -1.043123e+05   8.527056e+03   1.244742e+13  -1.615018e+13   6.786926e+10   1.708612e+05   4.324868e-20   0.000000e+00   0.000000e+00
      216000   2.159990e-06   1.002207e-01   1.420057e+01   1.213705e+01   1.191158e+05   1.230360e+05   1.419916e+04  -1.470899e+13   1.428836e+13  -1.200698e+11   1.718372e+05   4.424447e-20   0.000000e+00   0.000000e+00
      224000   2.239990e-06   9.800789e-02   1.420240e+01   1.213794e+01  -1.011051e+05  -1.398961e+05   8.563715e+03   1.670977e+13  -1.209668e+13   1.658861e+11   1.728192e+05   4.528878e-20   0.000000e+00   0.000000e+00
      232000   2.319990e-06   1.004498e-01   1.420088e+01   1.213886e+01   8.001509e+04   1.536926e+05   1.360379e+04  -1.838299e+13   9.617567e+12  -2.151569e+11   1.738070e+05   4.633588e-20   0.000000e+00   0.000000e+00
      240000   2.399990e-06   9.777348e-02   1.420203e+01   1.213971e+01  -5.752138e+04  -1.648293e+05   8.827465e+03   1.970013e+13  -6.887744e+12   2.529125e+11   1.748008e+05   4.742491e-20   0.000000e+00   0.000000e+00
      248000   2.479990e-06   1.005782e-01   1.420127e+01   1.214063e+01   3.280716e+04   1.722388e+05   1.277861e+04  -2.061058e+13   3.973271e+12  -2.950481e+11   1.758005e+05   4.852715e-20   0.000000e+00   0.000000e+00
      256000   2.559990e-06   9.765146e-02   1.420160e+01   1.214145e+01  -7.595317e+03  -1.763986e+05   9.287835e+03   2.109297e+13  -9.165878e+11   3.210154e+11   1.768062e+05   4.966173e-20   0.000000e+00   0.000000e+00
      264000   2.639990e-06   1.005872e-01   1.420168e+01   1.214236e+01  -1.878565e+04   1.764309e+05   1.176499e+04  -2.112204e+13  -2.199964e+12  -3.517790e+11   1.778178e+05   5.082285e-20   0.000000e+00   0.000000e+00
      272000   2.719990e-06   9.765594e-02   1.420115e+01   1.214316e+01   4.458172e+04  -1.729068e+05   9.894480e+03   2.068420e+13   5.327549e+12   3.633849e+11   1.788356e+05   5.200424e-20   0.000000e+00   0.000000e+00
      280000   2.799990e-06   1.004678e-01   1.420210e+01   1.214405e+01  -7.038587e+04   1.651737e+05   1.062409e+04  -1.978484e+13  -8.378626e+12  -3.790063e+11   1.798594e+05   5.322768e-20   0.000000e+00   0.000000e+00
      288000   2.879990e-06   9.779051e-02   1.420072e+01   1.214483e+01   9.443449e+04  -1.539193e+05   1.058005e+04   1.842077e+13   1.129717e+13   3.750111e+11   1.808894e+05   5.445777e-20   0.000000e+00   0.000000e+00
      296000   2.959990e-06   1.002218e-01   1.420248e+01   1.214570e+01  -1.173383e+05   1.387071e+05   9.430991e+03  -1.662612e+13  -1.400532e+13  -3.727857e+11   1.819254e+05   5.574661e-20   0.000000e+00   0.000000e+00
      304000   3.039990e-06   9.804687e-02   1.420034e+01   1.214646e+01   1.373303e+05  -1.203774e+05   1.126339e+04   1.441424e+13   1.643754e+13   3.532445e+11   1.829678e+05   5.702808e-20   0.000000e+00   0.000000e+00
      312000   3.119990e-06   9.986296e-02   1.420278e+01   1.214730e+01  -1.550939e+05   9.868890e+04   8.269386e+03  -1.184248e+13  -1.853408e+13  -3.325104e+11   1.840163e+05   5.838082e-20   0.000000e+00   0.000000e+00
      320000   3.199990e-06   9.840505e-02   1.420007e+01   1.214805e+01   1.689231e+05  -7.467061e+04   1.185844e+04   8.949533e+12   2.022785e+13   2.982573e+11   1.850711e+05   5.972109e-20   0.000000e+00   0.000000e+00
      328000   3.279990e-06   9.941743e-02   1.420297e+01   1.214887e+01  -1.796337e+05   4.821542e+04   7.226773e+03  -5.804454e+12  -2.148361e+13  -2.602637e+11   1.861322e+05   6.114313e-20   0.000000e+00   0.000000e+00
      336000   3.359990e-06   9.883394e-02   1.419992e+01   1.214960e+01   1.856659e+05  -2.051924e+04   1.228218e+04   2.471896e+12   2.225016e+13   2.134690e+11   1.871997e+05   6.258571e-20   0.000000e+00   0.000000e+00
      344000   3.439990e-06   9.892131e-02   1.420303e+01   1.215038e+01  -1.879776e+05  -8.402404e+03   6.383543e+03   9.730511e+11  -2.249509e+13  -1.615144e+11   1.882735e+05   6.403535e-20   0.000000e+00   0.000000e+00
      352000   3.519990e-06   9.929350e-02   1.419991e+01   1.215111e+01   1.852308e+05   3.727218e+04   1.245668e+04  -4.448248e+12   2.220933e+13   1.038079e+11   1.893537e+05   6.554517e-20   0.000000e+00   0.000000e+00
      360000   3.599990e-06   9.841802e-02   1.420294e+01   1.215186e+01  -1.785535e+05  -6.597361e+04   5.803949e+03   7.868640e+12  -2.137858e+13  -4.475324e+10   1.904404e+05   6.706328e-20   0.000000e+00   0.000000e+00
      368000   3.679990e-06   9.973813e-02   1.420005e+01   1.215258e+01   1.668583e+05   9.322812e+04   1.232615e+04  -1.114886e+13   2.001264e+13  -1.724193e+10   1.915335e+05   6.859899e-20   0.000000e+00   0.000000e+00
      376000   3.759990e-06   9.795440e-02   1.420270e+01   1.215328e+01  -1.514663e+05  -1.188904e+05   5.528738e+03   1.421044e+13  -1.814509e+13   7.934664e+10   1.926332e+05   7.023306e-20   0.000000e+00   0.000000e+00
      384000   3.839990e-06   1.001210e-01   1.420034e+01   1.215400e+01   1.315545e+05   1.417307e+05   1.186393e+04  -1.696296e+13   1.579500e+13  -1.440217e+11   1.937393e+05   7.185211e-20   0.000000e+00   0.000000e+00
      392000   3.919990e-06   9.757617e-02   1.420233e+01   1.215466e+01  -1.086134e+05  -1.616770e+05   5.569493e+03   1.934196e+13  -1.302056e+13   1.988963e+11   1.948521e+05   7.355129e-20   0.000000e+00   0.000000e+00
      400000   3.999990e-06   1.003990e-01   1.420074e+01   1.215537e+01   8.209276e+04   1.776038e+05   1.106711e+04  -2.126766e+13   9.877516e+12  -2.588186e+11   1.959715e+05   7.525529e-20   0.000000e+00   0.000000e+00
      408000   4.079990e-06   9.732304e-02   1.420186e+01   1.215600e+01  -5.361722e+04  -1.895725e+05   5.905899e+03   2.269199e+13  -6.437973e+12   3.019064e+11   1.970975e+05   7.702506e-20   0.000000e+00   0.000000e+00
      416000   4.159990e-06   1.005371e-01   1.420122e+01   1.215670e+01   2.286868e+04   1.966539e+05   9.974710e+03  -2.355980e+13   2.786176e+12  -3.510173e+11   1.982302e+05   7.882088e-20   0.000000e+00   0.000000e+00
      424000   4.239990e-06   9.722413e-02   1.420134e+01   1.215728e+01   8.435045e+03  -1.990856e+05   6.485776e+03   2.384121e+13   9.938159e+11   3.774538e+11   1.993697e+05   8.066204e-20   0.000000e+00   0.000000e+00
      432000   4.319990e-06   1.005130e-01   1.420174e+01   1.215796e+01  -4.045607e+04   1.962014e+05   8.655572e+03  -2.351676e+13  -4.801623e+12  -4.098928e+11   2.005159e+05   8.255604e-20   0.000000e+00   0.000000e+00
      440000   4.399990e-06   9.729407e-02   1.420080e+01   1.215852e+01   7.143393e+04  -1.884550e+05   7.228455e+03   2.257751e+13   8.543067e+12   4.168010e+11   2.016689e+05   8.447046e-20   0.000000e+00   0.000000e+00
      448000   4.479990e-06   1.003206e-01   1.420224e+01   1.215918e+01  -1.014747e+05   1.754721e+05   7.205847e+03  -2.104387e+13  -1.211839e+13  -4.277785e+11   2.028287e+05   8.646814e-20   0.000000e+00   0.000000e+00
      456000   4.559990e-06   9.753054e-02   1.420031e+01   1.215971e+01   1.288389e+05  -1.579563e+05   8.031131e+03   1.893273e+13   1.542600e+13   4.143885e+11   2.039954e+05   8.845912e-20   0.000000e+00   0.000000e+00
      464000   4.639990e-06   9.997099e-02   1.420267e+01   1.216034e+01  -1.536800e+05   1.358081e+05   5.739902e+03  -1.629937e+13  -1.838289e+13  -4.013666e+11   2.051691e+05   9.055674e-20   0.000000e+00   0.000000e+00
      472000   4.719990e-06   9.791333e-02   1.419992e+01   1.216085e+01   1.743656e+05  -1.099987e+05   8.779701e+03   1.319895e+13   2.089650e+13   3.707125e+11   2.063496e+05   9.270215e-20   0.000000e+00   0.000000e+00
      480000   4.799990e-06   9.949317e-02   1.420297e+01   1.216144e+01  -1.911709e+05   8.066115e+04   4.376971e+03  -9.697119e+12  -2.288799e+13  -3.323717e+11   2.075372e+05   9.484517e-20   0.000000e+00   0.000000e+00
      488000   4.879990e-06   9.840555e-02   1.419968e+01   1.216193e+01   2.026857e+05  -4.898826e+04   9.358092e+03   5.891434e+12   2.430179e+13   2.828102e+11   2.087317e+05   9.708298e-20   0.000000e+00   0.000000e+00
      496000   4.959990e-06   9.893148e-02   1.420311e+01   1.216248e+01  -2.093475e+05   1.533565e+04   3.230079e+03  -1.870938e+12  -2.508011e+13  -2.263046e+11   2.099333e+05   9.933417e-20   0.000000e+00   0.000000e+00
      504000   5.039990e-06   9.895655e-02   1.419961e+01   1.216296e+01   2.100644e+05   1.899345e+04   9.652992e+03  -2.255318e+12   2.519830e+13   1.615932e+11   2.111421e+05   1.016733e-19   0.000000e+00   0.000000e+00
      512000   5.119990e-06   9.834171e-02   1.420307e+01   1.216347e+01  -2.054981e+05  -5.348553e+04   2.392766e+03   6.378500e+12  -2.463223e+13  -9.355291e+10   2.123579e+05   1.040324e-19   0.000000e+00   0.000000e+00
      520000   5.199990e-06   9.950687e-02   1.419973e+01   1.216394e+01   1.949048e+05   8.681669e+04   9.581698e+03  -1.038726e+13   2.339295e+13   1.872610e+10   2.135809e+05   1.064832e-19   0.000000e+00   0.000000e+00
      528000   5.279990e-06   9.778551e-02   1.420285e+01   1.216439e+01  -1.792158e+05  -1.184138e+05   1.927017e+03   1.416525e+13  -2.149380e+13   5.223688e+10   2.148111e+05   1.089491e-19   0.000000e+00   0.000000e+00
      536000   5.359990e-06   9.999445e-02   1.420003e+01   1.216485e+01   1.580360e+05   1.470336e+05   9.097575e+03  -1.760548e+13   1.897630e+13  -1.267674e+11   2.160486e+05   1.114433e-19   0.000000e+00   0.000000e+00
      544000   5.439990e-06   9.732372e-02   1.420245e+01   1.216526e+01  -1.325749e+05  -1.721536e+05   1.855299e+03   2.061402e+13  -1.591208e+13   1.955968e+11   2.172933e+05   1.140942e-19   0.000000e+00   0.000000e+00
      552000   5.519990e-06   1.003615e-01   1.420048e+01   1.216570e+01   1.027669e+05   1.927014e+05   8.200321e+03  -2.308843e+13   1.235998e+13  -2.681730e+11   2.185454e+05   1.167311e-19   0.000000e+00   0.000000e+00
      560000   5.599990e-06   9.700941e-02   1.420192e+01   1.216606e+01  -7.002743e+04  -2.083403e+05   2.156349e+03   2.496082e+13  -8.419836e+12   3.208693e+11   2.198048e+05   1.194787e-19   0.000000e+00   0.000000e+00
      568000   5.679990e-06   1.005615e-01   1.420105e+01   1.216649e+01   3.459701e+04   2.182377e+05   6.931054e+03  -2.616031e+13   4.191446e+12  -3.811905e+11   2.210716e+05   1.222592e-19   0.000000e+00   0.000000e+00
      576000   5.759990e-06   9.688137e-02   1.420131e+01   1.216680e+01   1.983627e+03  -2.223198e+05   2.767140e+03   2.664663e+13   2.109555e+11   4.138573e+11   2.223459e+05   1.251143e-19   0.000000e+00   0.000000e+00
      584000   5.839990e-06   1.005649e-01   1.420166e+01   1.216721e+01  -3.926735e+04   2.200874e+05   5.377876e+03  -2.639393e+13  -4.665374e+12  -4.543923e+11   2.236276e+05   1.280492e-19   0.000000e+00   0.000000e+00
      592000   5.919990e-06   9.695891e-02   1.420069e+01   1.216748e+01   7.567291e+04  -2.117742e+05   3.587002e+03   2.539253e+13   9.046993e+12   4.633570e+11   2.249168e+05   1.310137e-19   0.000000e+00   0.000000e+00
      600000   5.999990e-06   1.003635e-01   1.420225e+01   1.216786e+01  -1.106803e+05   1.972538e+05   3.663127e+03  -2.366771e+13  -1.323393e+13  -4.779593e+11   2.262136e+05   1.341119e-19   0.000000e+00   0.000000e+00
      608000   6.079990e-06   9.723869e-02   1.420013e+01   1.216810e+01   1.427600e+05  -1.770985e+05   4.485988e+03   2.124486e+13   1.709531e+13   4.624443e+11   2.275179e+05   1.371905e-19   0.000000e+00   0.000000e+00
      616000   6.159990e-06   9.997245e-02   1.420275e+01   1.216845e+01  -1.714585e+05   1.515302e+05   1.931787e+03  -1.819376e+13  -2.053112e+13  -4.479380e+11   2.288299e+05   1.404438e-19   0.000000e+00   0.000000e+00
      624000   6.239990e-06   9.769418e-02   1.419969e+01   1.216865e+01   1.954207e+05  -1.214546e+05   5.325454e+03   1.458691e+13   2.342570e+13   4.116324e+11   2.301496e+05   1.437615e-19   0.000000e+00   0.000000e+00
      632000   6.319990e-06   9.942924e-02   1.420310e+01   1.216896e+01  -2.143358e+05   8.741646e+04   3.325563e+02  -1.051244e+13  -2.568585e+13  -3.669879e+11   2.314769e+05   1.470851e-19   0.000000e+00   0.000000e+00
      640000   6.399990e-06   9.827774e-02   1.419942e+01   1.216914e+01   2.271783e+05  -5.055714e+04   5.952683e+03   6.089564e+12   2.724558e+13   3.085632e+11   2.328120e+05   1.505424e-19   0.000000e+00   0.000000e+00
      648000   6.479990e-06   9.879055e-02   1.420326e+01   1.216939e+01  -2.338606e+05   1.169496e+04  -9.967574e+02  -1.435000e+12  -2.804175e+13  -2.425742e+11   2.341549e+05   1.540341e-19   0.000000e+00   0.000000e+00
      656000   6.559990e-06   9.892533e-02   1.419936e+01   1.216956e+01   2.337629e+05   2.790911e+04   6.236840e+03  -3.318962e+12   2.804770e+13   1.669125e+11   2.355056e+05   1.576460e-19   0.000000e+00   0.000000e+00
      664000   6.639990e-06   9.812614e-02   1.420320e+01   1.216976e+01  -2.271021e+05  -6.727170e+04  -1.946526e+03   8.035780e+12  -2.724533e+13  -8.815447e+10   2.368642e+05   1.613038e-19   0.000000e+00   0.000000e+00
      672000   6.719990e-06   9.956348e-02   1.419953e+01   1.216992e+01   2.136921e+05   1.051309e+05   6.083242e+03  -1.258228e+13   2.565268e+13   1.541555e+09   2.382306e+05   1.650882e-19   0.000000e+00   0.000000e+00
      680000   6.799990e-06   9.751114e-02   1.420292e+01   1.217005e+01  -1.940937e+05  -1.404713e+05  -2.449456e+03   1.681856e+13  -2.329891e+13   7.915482e+10   2.396050e+05   1.689083e-19   0.000000e+00   0.000000e+00
      688000   6.879990e-06   1.001177e-01   1.419990e+01   1.217020e+01   1.685459e+05   1.721556e+05   5.445840e+03  -2.061847e+13   2.023989e+13  -1.659983e+11   2.409874e+05   1.727443e-19   0.000000e+00   0.000000e+00
      696000   6.959990e-06   9.701738e-02   1.420245e+01   1.217027e+01  -1.379320e+05  -1.992876e+05  -2.489142e+03   2.387913e+13  -1.657275e+13   2.405660e+11   2.423778e+05   1.768628e-19   0.000000e+00   0.000000e+00
      704000   7.039990e-06   1.005210e-01   1.420045e+01   1.217040e+01   1.028881e+05   2.209572e+05   4.335580e+03  -2.648101e+13   1.237581e+13  -3.219992e+11   2.437762e+05   1.809383e-19   0.000000e+00   0.000000e+00
      712000   7.119990e-06   9.670474e-02   1.420184e+01   1.217042e+01  -6.450829e+04  -2.365350e+05  -2.102929e+03   2.835478e+13  -7.772877e+12   3.777239e+11   2.451827e+05   1.851841e-19   0.000000e+00   0.000000e+00
      720000   7.199990e-06   1.007227e-01   1.420111e+01   1.217053e+01   2.377685e+04   2.454323e+05   2.811904e+03  -2.942715e+13   2.891539e+12  -4.434576e+11   2.465974e+05   1.894855e-19   0.000000e+00   0.000000e+00
      728000   7.279990e-06   9.661372e-02   1.420115e+01   1.217050e+01   1.810764e+04  -2.473545e+05  -1.378139e+03   2.966196e+13   2.133003e+12   4.746915e+11   2.480202e+05   1.938906e-19   0.000000e+00   0.000000e+00
      736000   7.359990e-06   1.006940e-01   1.420180e+01   1.217058e+01  -5.995565e+04   2.421369e+05   9.887562e+02  -2.904403e+13  -7.152539e+12  -5.161490e+11   2.494513e+05   1.984345e-19   0.000000e+00   0.000000e+00
      744000   7.439990e-06   9.676008e-02   1.420046e+01   1.217050e+01   1.005654e+05  -2.298532e+05  -4.434161e+02   2.757305e+13   1.202339e+13   5.196525e+11   2.508906e+05   2.030018e-19   0.000000e+00   0.000000e+00
      752000   7.519990e-06   1.004327e-01   1.420246e+01   1.217055e+01  -1.387157e+05   2.107880e+05  -9.825965e+02  -2.529575e+13  -1.660569e+13  -5.302470e+11   2.523382e+05   2.078014e-19   0.000000e+00   0.000000e+00
      760000   7.599990e-06   9.713237e-02   1.419986e+01   1.217043e+01   1.733172e+05  -1.853978e+05   5.476334e+02   2.225922e+13   2.076032e+13   5.101006e+11   2.537942e+05   2.126894e-19   0.000000e+00   0.000000e+00
      768000   7.679990e-06   9.996387e-02   1.420300e+01   1.217043e+01  -2.032650e+05   1.543750e+05  -2.930938e+03  -1.853807e+13  -2.435747e+13  -4.834966e+11   2.552585e+05   2.175783e-19   0.000000e+00   0.000000e+00
      776000   7.759990e-06   9.769272e-02   1.419941e+01   1.217028e+01   2.277337e+05  -1.185169e+05   1.430244e+03   1.424446e+13   2.729641e+13   4.363013e+11   2.567313e+05   2.226818e-19   0.000000e+00   0.000000e+00
      784000   7.839990e-06   9.933738e-02   1.420336e+01   1.217023e+01  -2.458237e+05   7.888249e+04  -4.688763e+03  -9.490155e+12  -2.947548e+13  -3.806295e+11   2.582125e+05   2.278298e-19   0.000000e+00   0.000000e+00
      792000   7.919990e-06   9.838063e-02   1.419916e+01   1.217006e+01   2.571196e+05  -3.647790e+04   2.032833e+03   4.409478e+12   3.083215e+13   3.101715e+11   2.597023e+05   2.331458e-19   0.000000e+00   0.000000e+00
      800000   7.999990e-06   9.862269e-02   1.420349e+01   1.216995e+01  -2.610251e+05  -7.369436e+03  -6.107584e+03   8.518988e+11  -3.131323e+13  -2.323545e+11   2.612005e+05   2.385509e-19   0.000000e+00   0.000000e+00
      808000   8.079990e-06   9.911980e-02   1.419916e+01   1.216976e+01   2.575877e+05   5.156379e+04   2.220923e+03  -6.148339e+12   3.090040e+13   1.445907e+11   2.627074e+05   2.441047e-19   0.000000e+00   0.000000e+00
      816000   8.159990e-06   9.790085e-02   1.420337e+01   1.216958e+01  -2.465834e+05  -9.465853e+04  -7.077834e+03   1.132176e+13  -2.959488e+13  -5.533909e+10   2.642229e+05   2.497612e-19   0.000000e+00   0.000000e+00
      824000   8.239990e-06   9.982684e-02   1.419941e+01   1.216937e+01   2.285381e+05   1.356031e+05   1.903580e+03  -1.622958e+13   2.742794e+13  -4.248659e+10   2.657470e+05   2.555825e-19   0.000000e+00   0.000000e+00
      832000   8.319990e-06   9.725523e-02   1.420301e+01   1.216913e+01  -2.036104e+05  -1.729869e+05  -7.542059e+03   2.071963e+13  -2.445266e+13   1.305273e+11   2.672799e+05   2.614822e-19   0.000000e+00   0.000000e+00
      840000   8.399990e-06   1.004210e-01   1.419988e+01   1.216890e+01   1.727921e+05   2.059290e+05   1.052406e+03  -2.465980e+13   2.074327e+13  -2.261450e+11   2.688215e+05   2.673877e-19   0.000000e+00   0.000000e+00
      848000   8.479990e-06   9.676173e-02   1.420246e+01   1.216859e+01  -1.365255e+05  -2.332498e+05  -7.500935e+03   2.795280e+13  -1.641615e+13   3.044870e+11   2.703719e+05   2.737373e-19   0.000000e+00   0.000000e+00
      856000   8.559990e-06   1.008336e-01   1.420052e+01   1.216835e+01   9.625268e+04   2.543262e+05  -3.102005e+02  -3.047354e+13   1.157437e+13  -3.920660e+11   2.719311e+05   2.800163e-19   0.000000e+00   0.000000e+00
      864000   8.639990e-06   9.647987e-02   1.420176e+01   1.216797e+01  -5.256969e+04  -2.683078e+05  -7.012740e+03   3.216451e+13  -6.353769e+12   4.471994e+11   2.734992e+05   2.865523e-19   0.000000e+00   0.000000e+00
      872000   8.719990e-06   1.010162e-01   1.420127e+01   1.216770e+01   7.265788e+03   2.749722e+05  -2.098638e+03  -3.295976e+13   9.065300e+11  -5.157731e+11   2.750762e+05   2.931843e-19   0.000000e+00   0.000000e+00
      880000   8.799990e-06   9.644582e-02   1.420101e+01   1.216727e+01   3.901795e+04  -2.738271e+05  -6.186445e+03   3.283489e+13   4.626256e+12   5.427258e+11   2.766622e+05   2.999552e-19   0.000000e+00   0.000000e+00
      888000   8.879990e-06   1.009461e-01   1.420204e+01   1.216696e+01  -8.432204e+04   2.651403e+05  -4.176776e+03  -3.179240e+13  -1.007810e+13  -5.834346e+11   2.782571e+05   3.069652e-19   0.000000e+00   0.000000e+00
      896000   8.959990e-06   9.666810e-02   1.420027e+01   1.216648e+01   1.280597e+05  -2.487896e+05  -5.169693e+03   2.984193e+13   1.530329e+13   5.800899e+11   2.798612e+05   3.139759e-19   0.000000e+00   0.000000e+00
      904000   9.039990e-06   1.006291e-01   1.420275e+01   1.216613e+01  -1.682969e+05   2.255289e+05  -6.375345e+03  -2.705368e+13  -2.015443e+13  -5.865537e+11   2.814743e+05   3.213824e-19   0.000000e+00   0.000000e+00
      912000   9.119990e-06   9.712662e-02   1.419964e+01   1.216560e+01   2.046180e+05  -1.955967e+05  -4.125193e+03   2.348177e+13   2.449414e+13   5.583552e+11   2.830965e+05   3.288733e-19   0.000000e+00   0.000000e+00
      920000   9.199990e-06   1.000992e-01   1.420331e+01   1.216520e+01  -2.352435e+05   1.601812e+05  -8.511443e+03  -1.922722e+13  -2.819241e+13  -5.243080e+11   2.847279e+05   3.364600e-19   0.000000e+00   0.000000e+00
      928000   9.279990e-06   9.777501e-02   1.419918e+01   1.216463e+01   2.600810e+05  -1.198098e+05  -3.234637e+03   1.440174e+13   3.115205e+13   4.691274e+11   2.863686e+05   3.442373e-19   0.000000e+00   0.000000e+00
      936000   9.359990e-06   9.941397e-02   1.420368e+01   1.216417e+01  -2.776087e+05   7.602361e+04  -1.041429e+04  -9.142356e+12  -3.328313e+13  -4.053728e+11   2.880184e+05   3.521857e-19   0.000000e+00   0.000000e+00
      944000   9.439990e-06   9.854592e-02   1.419896e+01   1.216358e+01   2.881574e+05  -2.951800e+04  -2.665920e+03   3.581771e+12   3.452784e+13   3.264024e+11   2.896776e+05   3.603196e-19   0.000000e+00   0.000000e+00
      952000   9.519990e-06   9.864860e-02   1.420379e+01   1.216305e+01  -2.905480e+05  -1.794190e+04  -1.193838e+04   2.119843e+12  -3.484784e+13  -2.403133e+11   2.913461e+05   3.686609e-19   0.000000e+00   0.000000e+00
      960000   9.599990e-06   9.935870e-02   1.419899e+01   1.216243e+01   2.855736e+05   6.560731e+04  -2.548593e+03  -7.819217e+12   3.422877e+13   1.445273e+11   2.930240e+05   3.771557e-19   0.000000e+00   0.000000e+00
      968000   9.679990e-06   9.788703e-02   1.420365e+01   1.216183e+01  -2.724343e+05  -1.116503e+05  -1.298194e+04   1.335326e+13  -3.268897e+13  -4.782421e+10   2.947113e+05   3.858787e-19   0.000000e+00   0.000000e+00
      976000   9.759990e-06   1.001285e-01   1.419928e+01   1.216119e+01   2.523950e+05   1.553890e+05  -2.964115e+03  -1.857470e+13   3.025053e+13  -5.480490e+10   2.964081e+05   3.944784e-19   0.000000e+00   0.000000e+00
      984000   9.839990e-06   9.721271e-02   1.420327e+01   1.216051e+01  -2.250023e+05  -1.950999e+05  -1.349738e+04   2.335824e+13  -2.701416e+13   1.516479e+11   2.981144e+05   4.038714e-19   0.000000e+00   0.000000e+00
      992000   9.919990e-06   1.007758e-01   1.419979e+01   1.215985e+01   1.919916e+05   2.302649e+05  -3.931235e+03  -2.754969e+13   2.302218e+13  -2.542531e+11   2.998302e+05   4.129142e-19   0.000000e+00   0.000000e+00
     1000000   9.999990e-06   9.669943e-02   1.420268e+01   1.215910e+01  -1.531078e+05  -2.594451e+05  -1.349436e+04   3.107407e+13  -1.840574e+13   3.374930e+11   3.015557e+05   4.226744e-19   0.000000e+00   0.000000e+00
     1008000   1.007999e-05   1.012347e-01   1.420049e+01   1.215841e+01   1.105552e+05   2.823710e+05  -5.423788e+03  -3.380177e+13   1.327263e+13  -4.322480e+11   3.032907e+05   4.322801e-19   0.000000e+00   0.000000e+00
     1016000   1.015999e-05   9.640362e-02   1.420195e+01   1.215759e+01  -6.414614e+04  -2.979295e+05  -1.303664e+04   3.569102e+13  -7.750773e+12   4.910178e+11   3.050356e+05   4.423264e-19   0.000000e+00   0.000000e+00
     1024000   1.023999e-05   1.014598e-01   1.420129e+01   1.215687e+01   1.643375e+04   3.062613e+05  -7.352000e+03  -3.667275e+13   1.998266e+12  -5.673950e+11   3.067900e+05   4.524728e-19   0.000000e+00   0.000000e+00
     1032000   1.031999e-05   9.635864e-02   1.420115e+01   1.215598e+01   3.279329e+04  -3.065627e+05  -1.223356e+04   3.673149e+13   3.860864e+12   5.971309e+11   3.085543e+05   4.628691e-19   0.000000e+00   0.000000e+00
     1040000   1.039999e-05   1.014306e-01   1.420211e+01   1.215522e+01  -8.081136e+04   2.994685e+05  -9.581991e+03  -3.586860e+13  -9.653716e+12  -6.465118e+11   3.103283e+05   4.735950e-19   0.000000e+00   0.000000e+00
     1048000   1.047999e-05   9.657191e-02   1.420037e+01   1.215427e+01   1.279277e+05  -2.844688e+05  -1.122771e+04   3.409148e+13   1.525666e+13   6.455535e+11   3.121123e+05   4.843469e-19   0.000000e+00   0.000000e+00
     1056000   1.055999e-05   1.011527e-01   1.420288e+01   1.215347e+01  -1.714397e+05   2.626835e+05  -1.195159e+04  -3.147137e+13  -2.051606e+13  -6.614378e+11   3.139061e+05   4.956814e-19   0.000000e+00   0.000000e+00
     1064000   1.063999e-05   9.702483e-02   1.419969e+01   1.215246e+01   2.118268e+05  -2.338774e+05  -1.017355e+04   2.804827e+13   2.531505e+13   6.364641e+11   3.157099e+05   5.071373e-19   0.000000e+00   0.000000e+00
     1072000   1.071999e-05   1.006571e-01   1.420353e+01   1.215160e+01  -2.465380e+05   1.995898e+05  -1.428834e+04  -2.392185e+13  -2.952022e+13  -6.110541e+11   3.175236e+05   5.187678e-19   0.000000e+00   0.000000e+00
     1080000   1.079999e-05   9.767558e-02   1.419917e+01   1.215055e+01   2.763338e+05  -1.598032e+05  -9.237479e+03   1.918198e+13   3.304601e+13   5.593140e+11   3.193475e+05   5.306418e-19   0.000000e+00   0.000000e+00
     1088000   1.087999e-05   9.999538e-02   1.420398e+01   1.214963e+01  -2.988993e+05   1.163903e+05  -1.642837e+04  -1.396235e+13  -3.580041e+13  -5.023973e+11   3.211813e+05   5.428916e-19   0.000000e+00   0.000000e+00
     1096000   1.095999e-05   9.846406e-02   1.419886e+01   1.214854e+01   3.153514e+05  -6.946405e+04  -8.579270e+03   8.368782e+12   3.772465e+13   4.273483e+11   3.230253e+05   5.552294e-19   0.000000e+00   0.000000e+00
     1104000   1.103999e-05   9.923449e-02   1.420420e+01   1.214754e+01  -3.236802e+05   2.109783e+04  -1.823728e+04  -2.554866e+12  -3.877889e+13  -3.451740e+11   3.248794e+05   5.680449e-19   0.000000e+00   0.000000e+00
     1112000   1.111999e-05   9.931858e-02   1.419879e+01   1.214642e+01   3.253878e+05   2.854758e+04  -8.323264e+03  -3.362402e+12   3.893355e+13   2.525695e+11   3.267438e+05   5.809522e-19   0.000000e+00   0.000000e+00
     1120000   1.119999e-05   9.844914e-02   1.420418e+01   1.214534e+01  -3.187852e+05  -7.733945e+04  -1.961209e+04   9.229431e+12  -3.820309e+13  -1.553155e+11   3.286183e+05   5.943679e-19   0.000000e+00   0.000000e+00
     1128000   1.127999e-05   1.001634e-01   1.419897e+01   1.214420e+01   3.057729e+05   1.251484e+05  -8.554085e+03  -1.491925e+13   3.658027e+13   5.300742e+10   3.305032e+05   6.074409e-19   0.000000e+00   0.000000e+00
     1136000   1.135999e-05   9.771439e-02   1.420392e+01   1.214303e+01  -2.849402e+05  -1.699342e+05  -2.049711e+04   2.031376e+13  -3.416036e+13   4.931415e+10   3.323984e+05   6.218597e-19   0.000000e+00   0.000000e+00
     1144000   1.143999e-05   1.009261e-01   1.419939e+01   1.214186e+01   2.586027e+05   2.116535e+05  -9.305939e+03  -2.526956e+13   3.094346e+13  -1.554941e+11   3.343040e+05   6.355767e-19   0.000000e+00   0.000000e+00
     1152000   1.151999e-05   9.709848e-02   1.420344e+01   1.214061e+01  -2.254889e+05  -2.485206e+05  -2.088404e+04   2.972021e+13  -2.705192e+13   2.504947e+11   3.362200e+05   6.505718e-19   0.000000e+00   0.000000e+00
     1160000   1.159999e-05   1.015443e-01   1.420000e+01   1.213941e+01   1.883590e+05   2.806280e+05  -1.057299e+04  -3.352319e+13   2.254577e+13  -3.539009e+11   3.381464e+05   6.650070e-19   0.000000e+00   0.000000e+00
     1168000   1.167999e-05   9.665684e-02   1.420280e+01   1.213808e+01  -1.459397e+05  -3.064724e+05  -2.080925e+04   3.665593e+13  -1.753842e+13   4.313206e+11   3.400835e+05   6.805599e-19   0.000000e+00   0.000000e+00
     1176000   1.175999e-05   1.019708e-01   1.420074e+01   1.213684e+01   1.013867e+05   3.264268e+05  -1.230425e+04  -3.900733e+13   1.214683e+13  -5.255889e+11   3.420309e+05   6.958596e-19   0.000000e+00   0.000000e+00
     1184000   1.183999e-05   9.642776e-02   1.420205e+01   1.213543e+01  -5.333811e+04  -3.392190e+05  -2.034755e+04   4.057492e+13  -6.464333e+12   5.774998e+11   3.439891e+05   7.118837e-19   0.000000e+00   0.000000e+00
     1192000   1.191999e-05   1.021770e-01   1.420157e+01   1.213415e+01   5.222401e+03   3.456183e+05  -1.440538e+04  -4.130769e+13   6.462976e+11  -6.542570e+11   3.459577e+05   7.280405e-19   0.000000e+00   0.000000e+00
     1200000   1.199999e-05   9.643005e-02   1.420125e+01   1.213267e+01   4.446066e+04  -3.445277e+05  -1.960256e+04   4.121159e+13   5.229586e+12   6.782522e+11   3.479373e+05   7.446066e-19   0.000000e+00   0.000000e+00
     1208000   1.207999e-05   1.021540e-01   1.420241e+01   1.213135e+01  -9.216011e+04   3.371570e+05  -1.675707e+04  -4.030139e+13  -1.100071e+13  -7.307214e+11   3.499273e+05   7.616765e-19   0.000000e+00   0.000000e+00
     1216000   1.215999e-05   9.666265e-02   1.420048e+01   1.212979e+01   1.395352e+05  -3.225430e+05  -1.869632e+04   3.858507e+13   1.659544e+13   7.268198e+11   3.519284e+05   7.787952e-19   0.000000e+00   0.000000e+00
     1224000   1.223999e-05   1.019124e-01   1.420319e+01   1.212842e+01  -1.830675e+05   3.023082e+05  -1.922502e+04  -3.614004e+13  -2.187381e+13  -7.498835e+11   3.539400e+05   7.968219e-19   0.000000e+00   0.000000e+00
     1232000   1.231999e-05   9.710618e-02   1.419979e+01   1.212680e+01   2.245887e+05  -2.755979e+05  -1.775390e+04   3.298597e+13   2.676844e+13   7.264361e+11   3.559627e+05   8.149961e-19   0.000000e+00   0.000000e+00
     1240000   1.239999e-05   1.014798e-01   1.420387e+01   1.212536e+01  -2.607183e+05   2.443716e+05  -2.167364e+04  -2.921877e+13  -3.116174e+13  -7.118348e+11   3.579961e+05   8.335328e-19   0.000000e+00   0.000000e+00
     1248000   1.247999e-05   9.772594e-02   1.419924e+01   1.212369e+01   2.935009e+05  -2.078485e+05  -1.689863e+04   2.489078e+13   3.500513e+13   6.656411e+11   3.600407e+05   8.523450e-19   0.000000e+00   0.000000e+00
     1256000   1.255999e-05   1.008971e-01   1.420439e+01   1.212218e+01  -3.197351e+05   1.682499e+05  -2.397771e+04  -2.012448e+13  -3.822136e+13  -6.213972e+11   3.620960e+05   8.718677e-19   0.000000e+00   0.000000e+00
     1264000   1.263999e-05   9.847595e-02   1.419887e+01   1.212046e+01   3.417178e+05  -1.248162e+05  -1.625497e+04   1.497226e+13   4.076695e+13   5.566188e+11   3.641626e+05   8.913788e-19   0.000000e+00   0.000000e+00
     1272000   1.271999e-05   1.002141e-01   1.420473e+01   1.211887e+01  -3.564647e+05   7.991859e+04  -2.603260e+04  -9.572374e+12  -4.261607e+13  -4.872066e+11   3.662400e+05   9.118891e-19   0.000000e+00   0.000000e+00
     1280000   1.279999e-05   9.930363e-02   1.419869e+01   1.211711e+01   3.665201e+05  -3.279853e+04  -1.591650e+04   3.983597e+12   4.373040e+13   4.078753e+11   3.683287e+05   9.321748e-19   0.000000e+00   0.000000e+00
     1288000   1.287999e-05   9.948525e-02   1.420486e+01   1.211543e+01  -3.691159e+05  -1.414221e+04  -2.776188e+04   1.662188e+12  -4.413160e+13  -3.215360e+11   3.704285e+05   9.536289e-19   0.000000e+00   0.000000e+00
     1296000   1.295999e-05   1.001545e-01   1.419871e+01   1.211363e+01   3.670512e+05   6.168203e+04  -1.595077e+04  -7.293788e+12   4.378222e+13   2.307691e+11   3.725395e+05   9.742569e-19   0.000000e+00   0.000000e+00
     1304000   1.303999e-05   9.876421e-02   1.420480e+01   1.211186e+01  -3.577253e+05  -1.074998e+05  -2.911740e+04   1.280958e+13  -4.277517e+13  -1.349729e+11   3.746617e+05   9.972340e-19   0.000000e+00   0.000000e+00
     1312000   1.311999e-05   1.009765e-01   1.419893e+01   1.211002e+01   3.442130e+05   1.523921e+05  -1.639385e+04  -1.811687e+13   4.105747e+13   3.843413e+10   3.767953e+05   1.018802e-18   0.000000e+00   0.000000e+00
     1320000   1.319999e-05   9.810049e-02   1.420454e+01   1.210816e+01  -3.239724e+05  -1.942488e+05  -3.008134e+04   2.316430e+13  -3.874796e+13   5.887219e+10   3.789401e+05   1.042742e-18   0.000000e+00   0.000000e+00
     1328000   1.327999e-05   1.017238e-01   1.419933e+01   1.210628e+01   3.003983e+05   2.338751e+05  -1.725414e+04  -2.783620e+13   3.583029e+13  -1.577807e+11   3.810963e+05   1.065351e-18   0.000000e+00   0.000000e+00
     1336000   1.335999e-05   9.753600e-02   1.420413e+01   1.210433e+01  -2.708841e+05  -2.693934e+05  -3.066452e+04   3.212986e+13  -3.241321e+13   2.480021e+11   3.832640e+05   1.090234e-18   0.000000e+00   0.000000e+00
     1344000   1.343999e-05   1.023593e-01   1.419987e+01   1.210241e+01   2.391646e+05   3.017015e+05  -1.851381e+04  -3.592401e+13   2.852619e+13  -3.457966e+11   3.854430e+05   1.113989e-18   0.000000e+00   0.000000e+00
     1352000   1.351999e-05   9.710287e-02   1.420359e+01   1.210037e+01  -2.024679e+05  -3.291075e+05  -3.090163e+04   3.925025e+13  -2.425117e+13   4.219554e+11   3.876337e+05   1.139796e-18   0.000000e+00   0.000000e+00
     1360000   1.359999e-05   1.028572e-01   1.420053e+01   1.209840e+01   1.647994e+05   3.527080e+05  -2.025144e+04  -4.200383e+13   1.965731e+13  -5.148638e+11   3.898357e+05   1.164758e-18   0.000000e+00   0.000000e+00
     1368000   1.367999e-05   9.682410e-02   1.420296e+01   1.209625e+01  -1.231175e+05  -3.709237e+05  -3.099365e+04   4.423833e+13  -1.479035e+13   5.749091e+11   3.920497e+05   1.191783e-18   0.000000e+00   0.000000e+00
     1376000   1.375999e-05   1.032026e-01   1.420126e+01   1.209423e+01   8.189536e+04   3.850268e+05  -2.236257e+04  -4.585392e+13   9.772108e+12  -6.566445e+11   3.942748e+05   1.217751e-18   0.000000e+00   0.000000e+00
     1384000   1.383999e-05   9.670942e-02   1.420228e+01   1.209198e+01  -3.773818e+04  -3.935009e+05  -3.089491e+04   4.692418e+13  -4.611283e+12   6.950839e+11   3.965119e+05   1.245682e-18   0.000000e+00   0.000000e+00
     1392000   1.391999e-05   1.033884e-01   1.420203e+01   1.208988e+01  -4.643811e+03   3.979669e+05  -2.470710e+04  -4.739286e+13  -5.440309e+11  -7.646569e+11   3.987602e+05   1.273070e-18   0.000000e+00   0.000000e+00
     1400000   1.399999e-05   9.675887e-02   1.420159e+01   1.208753e+01   4.895455e+04  -3.968398e+05  -3.064557e+04   4.731515e+13   5.719258e+12   7.812492e+11   4.010206e+05   1.301917e-18   0.000000e+00   0.000000e+00
     1408000   1.407999e-05   1.034194e-01   1.420278e+01   1.208536e+01  -9.031948e+04   3.921055e+05  -2.720794e+04  -4.669061e+13  -1.075434e+13  -8.354127e+11   4.032922e+05   1.330803e-18   0.000000e+00   0.000000e+00
     1416000   1.415999e-05   9.696334e-02   1.420093e+01   1.208291e+01   1.327085e+05  -3.820486e+05  -3.031946e+04   4.554556e+13   1.569394e+13   8.317468e+11   4.055761e+05   1.360586e-18   0.000000e+00   0.000000e+00
     1424000   1.423999e-05   1.033086e-01   1.420350e+01   1.208065e+01  -1.711850e+05   3.690085e+05  -2.978847e+04  -4.393499e+13  -2.038815e+13  -8.680436e+11   4.078712e+05   1.391038e-18   0.000000e+00   0.000000e+00
     1432000   1.431999e-05   9.730642e-02   1.420032e+01   1.207811e+01   2.099282e+05  -3.511089e+05  -2.998660e+04   4.185370e+13   2.488447e+13   8.469292e+11   4.101787e+05   1.421794e-18   0.000000e+00   0.000000e+00
     1440000   1.439999e-05   1.030755e-01   1.420416e+01   1.207577e+01  -2.440268e+05   3.309936e+05  -3.237787e+04  -3.940344e+13  -2.906247e+13  -8.640095e+11   4.124974e+05   1.453869e-18   0.000000e+00   0.000000e+00
     1448000   1.447999e-05   9.776644e-02   1.419979e+01   1.207314e+01   2.778149e+05  -3.066244e+05  -2.971688e+04   3.655154e+13   3.295889e+13   8.187996e+11   4.148286e+05   1.485660e-18   0.000000e+00   0.000000e+00
     1456000   1.455999e-05   1.027437e-01   1.420473e+01   1.207070e+01  -3.064667e+05   2.808752e+05  -3.491528e+04  -3.343251e+13  -3.649418e+13  -8.266569e+11   4.171711e+05   1.519393e-18   0.000000e+00   0.000000e+00
     1464000   1.463999e-05   9.831862e-02   1.419936e+01   1.206798e+01   3.344290e+05  -2.515658e+05  -2.956343e+04   2.999505e+13   3.968588e+13   7.729653e+11   4.195261e+05   1.552293e-18   0.000000e+00   0.000000e+00
     1472000   1.471999e-05   1.023388e-01   1.420520e+01   1.206544e+01  -3.569880e+05   2.217155e+05  -3.735190e+04  -2.638807e+13  -4.250313e+13  -7.606952e+11   4.218926e+05   1.587710e-18   0.000000e+00   0.000000e+00
     1480000   1.479999e-05   9.893709e-02   1.419903e+01   1.206264e+01   3.786807e+05  -1.890333e+05  -2.955663e+04   2.255398e+13   4.493773e+13   7.018687e+11   4.242715e+05   1.621798e-18   0.000000e+00   0.000000e+00
     1488000   1.487999e-05   1.018866e-01   1.420556e+01   1.205999e+01  -3.948985e+05   1.565991e+05  -3.965254e+04  -1.863846e+13  -4.700766e+13  -6.716596e+11   4.266620e+05   1.658927e-18   0.000000e+00   0.000000e+00
     1496000   1.495999e-05   9.959658e-02   1.419881e+01   1.205711e+01   4.102653e+05  -1.220471e+05  -2.972611e+04   1.458856e+13   4.867962e+13   6.104221e+11   4.290650e+05   1.694290e-18   0.000000e+00   0.000000e+00
     1504000   1.503999e-05   1.014118e-01   1.420582e+01   1.205435e+01  -4.202443e+05   8.844497e+04  -4.179597e+04  -1.053197e+13  -5.001421e+13  -5.654116e+11   4.314797e+05   1.733155e-18   0.000000e+00   0.000000e+00
     1512000   1.511999e-05   1.002739e-01   1.419870e+01   1.205139e+01   4.295577e+05  -5.338602e+04  -3.008690e+04   6.429368e+12   5.095257e+13   5.069502e+11   4.339068e+05   1.769543e-18   0.000000e+00   0.000000e+00
     1520000   1.519999e-05   1.009363e-01   1.420599e+01   1.204852e+01  -4.336901e+05   1.986243e+04  -4.377313e+04  -2.379697e+12  -5.160303e+13  -4.477169e+11   4.363459e+05   1.810509e-18   0.000000e+00   0.000000e+00
     1528000   1.527999e-05   1.009488e-01   1.419868e+01   1.204547e+01   4.374842e+05   1.453672e+04  -3.064745e+04  -1.635091e+12   5.187804e+13   3.872512e+11   4.387973e+05   1.848347e-18   0.000000e+00   0.000000e+00
     1536000   1.535999e-05   1.004786e-01   1.420606e+01   1.204248e+01  -4.363819e+05  -4.694497e+04  -4.558621e+04   5.555913e+12  -5.191166e+13  -3.239207e+11   4.412608e+05   1.891111e-18   0.000000e+00   0.000000e+00
     1544000   1.543999e-05   1.016047e-01   1.419874e+01   1.203936e+01   4.353794e+05   7.975207e+04  -3.140899e+04  -9.371883e+12   5.161111e+13   2.627255e+11   4.437366e+05   1.930503e-18   0.000000e+00   0.000000e+00
     1552000   1.551999e-05   1.000535e-01   1.420606e+01   1.203625e+01  -4.298059e+05  -1.102320e+05  -4.724645e+04   1.306729e+13  -5.111806e+13  -1.987230e+11   4.462246e+05   1.975087e-18   0.000000e+00   0.000000e+00
     1560000   1.559999e-05   1.022291e-01   1.419888e+01   1.203304e+01   4.248474e+05   1.407540e+05  -3.235925e+04  -1.660242e+13   5.034351e+13   1.377490e+11   4.487250e+05   2.016137e-18   0.000000e+00   0.000000e+00
     1568000   1.567999e-05   9.967184e-02   1.420599e+01   1.202981e+01  -4.156543e+05  -1.687254e+05  -4.877163e+04   2.000418e+13  -4.942688e+13  -7.548045e+10   4.512377e+05   2.062766e-18   0.000000e+00   0.000000e+00
     1576000   1.575999e-05   1.028131e-01   1.419908e+01   1.202651e+01   4.076365e+05   1.964996e+05  -3.348015e+04  -2.320331e+13   4.828382e+13   1.602031e+10   4.537626e+05   2.105380e-18   0.000000e+00   0.000000e+00
     1584000   1.583999e-05   9.934062e-02   1.420588e+01   1.202316e+01  -3.957089e+05  -2.215980e+05  -5.018522e+04   2.626696e+13  -4.704549e+13   4.152761e+10   4.563001e+05   2.153856e-18   0.000000e+00   0.000000e+00
     1592000   1.591999e-05   1.033517e-01   1.419932e+01   1.201977e+01   3.855320e+05   2.463750e+05  -3.474955e+04  -2.910229e+13   4.564469e+13  -9.950268e+10   4.588498e+05   2.198366e-18   0.000000e+00   0.000000e+00
     1600000   1.599999e-05   9.906352e-02   1.420574e+01   1.201630e+01  -3.717430e+05  -2.684300e+05  -5.151330e+04   3.180707e+13  -4.418825e+13   1.505211e+11   4.614121e+05   2.248722e-18   0.000000e+00   0.000000e+00
     1608000   1.607999e-05   1.038429e-01   1.419959e+01   1.201282e+01   3.602706e+05   2.901419e+05  -3.614291e+04  -3.427169e+13   4.263272e+13  -2.066043e+11   4.639866e+05   2.295230e-18   0.000000e+00   0.000000e+00
     1616000   1.615999e-05   9.884129e-02   1.420558e+01   1.200923e+01  -3.454469e+05  -3.091465e+05  -5.278331e+04   3.661630e+13  -4.105640e+13   2.499265e+11   4.665739e+05   2.347509e-18   0.000000e+00   0.000000e+00
     1624000   1.623999e-05   1.042872e-01   1.419987e+01   1.200565e+01   3.334788e+05   3.278705e+05  -3.763502e+04  -3.872050e+13   3.944113e+13  -3.037619e+11   4.691733e+05   2.396113e-18   0.000000e+00   0.000000e+00
     1632000   1.631999e-05   9.867240e-02   1.420541e+01   1.200193e+01  -3.183780e+05  -3.439459e+05  -5.402256e+04   4.071893e+13  -3.783505e+13   3.387948e+11   4.717857e+05   2.450365e-18   0.000000e+00   0.000000e+00
     1640000   1.639999e-05   1.046875e-01   1.420016e+01   1.199825e+01   3.065884e+05   3.598928e+05  -3.931601e+04  -4.248847e+13   3.623947e+13  -3.901164e+11   4.744101e+05   2.501024e-18   0.000000e+00   0.000000e+00
     1648000   1.647999e-05   9.855335e-02   1.420525e+01   1.199439e+01  -2.918193e+05  -3.732752e+05  -5.551012e+04   4.417221e+13  -3.467853e+13   4.106374e+11   4.770474e+05   2.557480e-18   0.000000e+00   0.000000e+00
     1656000   1.655999e-05   1.050484e-01   1.420044e+01   1.199058e+01   2.808305e+05   3.867026e+05  -4.128285e+04  -4.563509e+13   3.317360e+13  -4.660135e+11   4.796967e+05   2.609996e-18   0.000000e+00   0.000000e+00
     1664000   1.663999e-05   9.848059e-02   1.420510e+01   1.198657e+01  -2.670181e+05  -3.976317e+05  -5.709967e+04   4.702966e+13  -3.173097e+13   4.777409e+11   4.823588e+05   2.668567e-18   0.000000e+00   0.000000e+00
     1672000   1.671999e-05   1.053746e-01   1.420070e+01   1.198263e+01   2.574211e+05   4.088036e+05  -4.325289e+04  -4.822029e+13   3.038735e+13  -5.306873e+11   4.850328e+05   2.723378e-18   0.000000e+00   0.000000e+00
     1680000   1.679999e-05   9.844973e-02   1.420499e+01   1.197847e+01  -2.450890e+05  -4.175597e+05  -5.870142e+04   4.935889e+13  -2.912523e+13   5.341375e+11   4.877198e+05   2.784147e-18   0.000000e+00   0.000000e+00
     1688000   1.687999e-05   1.056709e-01   1.420094e+01   1.197439e+01   2.373633e+05   4.267619e+05  -4.520400e+04  -5.031159e+13   2.799892e+13  -5.842023e+11   4.904187e+05   2.841328e-18   0.000000e+00   0.000000e+00
     1696000   1.695999e-05   9.845611e-02   1.420490e+01   1.197008e+01  -2.269606e+05  -4.336204e+05  -6.033277e+04   5.122691e+13  -2.697060e+13   5.800199e+11   4.931306e+05   2.904390e-18   0.000000e+00   0.000000e+00
     1704000   1.703999e-05   1.059417e-01   1.420114e+01   1.196586e+01   2.215147e+05   4.411154e+05  -4.711664e+04  -5.197307e+13   2.610904e+13  -6.267223e+11   4.958544e+05   2.964007e-18   0.000000e+00   0.000000e+00
     1712000   1.711999e-05   9.849554e-02   1.420486e+01   1.196140e+01  -2.134246e+05  -4.463162e+05  -6.200850e+04   5.269375e+13  -2.535986e+13   6.155850e+11   4.985913e+05   3.029469e-18   0.000000e+00   0.000000e+00
     1720000   1.719999e-05   1.061909e-01   1.420131e+01   1.195705e+01   2.106052e+05   4.523150e+05  -4.897381e+04  -5.325849e+13   2.480305e+13  -6.583786e+11   5.013401e+05   3.091582e-18   0.000000e+00   0.000000e+00
     1728000   1.727999e-05   9.856479e-02   1.420487e+01   1.195245e+01  -2.051533e+05  -4.560351e+05  -6.374073e+04   5.380584e+13  -2.437135e+13   6.409200e+11   5.041020e+05   3.159563e-18   0.000000e+00   0.000000e+00
     1736000   1.735999e-05   1.064211e-01   1.420143e+01   1.194796e+01   2.052532e+05   4.606706e+05  -5.076160e+04  -5.420495e+13   2.415280e+13  -6.791463e+11   5.068758e+05   3.224226e-18   0.000000e+00   0.000000e+00
     1744000   1.743999e-05   9.866205e-02   1.420492e+01   1.194321e+01  -2.027140e+05  -4.629988e+05  -6.553881e+04   5.458991e+13  -2.407074e+13   6.558979e+11   5.096628e+05   3.294858e-18   0.000000e+00   0.000000e+00
     1752000   1.751999e-05   1.066333e-01   1.420150e+01   1.193858e+01   2.059772e+05   4.663018e+05  -5.246938e+04  -5.482705e+13   2.421804e+13  -6.887357e+11   5.124617e+05   3.362118e-18   0.000000e+00   0.000000e+00
     1760000   1.759999e-05   9.878731e-02   1.420504e+01   1.193368e+01  -2.065768e+05  -4.672143e+05  -6.740906e+04   5.504743e+13  -2.451195e+13   6.600872e+11   5.152739e+05   3.435545e-18   0.000000e+00   0.000000e+00
     1768000   1.767999e-05   1.068264e-01   1.420151e+01   1.192891e+01   2.131968e+05   4.690916e+05  -5.408999e+04  -5.511163e+13   2.504659e+13  -6.865016e+11   5.180980e+05   3.505442e-18   0.000000e+00   0.000000e+00
     1776000   1.775999e-05   9.894277e-02   1.420521e+01   1.192388e+01  -2.171088e+05  -4.684308e+05  -6.935397e+04   5.514954e+13  -2.573648e+13   6.526776e+11   5.209354e+05   3.581822e-18   0.000000e+00   0.000000e+00
     1784000   1.783999e-05   1.069971e-01   1.420148e+01   1.191897e+01   2.272237e+05   4.686431e+05  -5.561871e+04  -5.501272e+13   2.667325e+13  -6.713708e+11   5.237847e+05   3.654391e-18   0.000000e+00   0.000000e+00
     1792000   1.791999e-05   9.913323e-02   1.420544e+01   1.191379e+01  -2.345551e+05  -4.660982e+05  -7.137012e+04   5.483234e+13  -2.777124e+13   6.324228e+11   5.266473e+05   3.733896e-18   0.000000e+00   0.000000e+00
     1800000   1.799999e-05   1.071393e-01   1.420138e+01   1.190874e+01   2.482178e+05   4.642475e+05  -5.705802e+04  -5.444792e+13   2.911475e+13  -6.418270e+11   5.295219e+05   3.809161e-18   0.000000e+00   0.000000e+00
     1808000   1.807999e-05   9.936619e-02   1.420574e+01   1.190343e+01  -2.589786e+05  -4.593420e+05  -7.345264e+04   5.399407e+13  -3.062150e+13   5.976433e+11   5.324098e+05   3.891974e-18   0.000000e+00   0.000000e+00
     1816000   1.815999e-05   1.072439e-01   1.420123e+01   1.189823e+01   2.761480e+05   4.548498e+05  -5.839871e+04  -5.329452e+13   3.236507e+13  -5.960592e+11   5.353097e+05   3.969980e-18   0.000000e+00   0.000000e+00
     1824000   1.823999e-05   9.965222e-02   1.420609e+01   1.189279e+01  -2.902366e+05  -4.469193e+05  -7.556408e+04   5.248853e+13  -3.426708e+13   5.456632e+11   5.382230e+05   4.056065e-18   0.000000e+00   0.000000e+00
     1832000   1.831999e-05   1.072988e-01   1.420102e+01   1.188745e+01   3.106599e+05   4.390584e+05  -5.966365e+04  -5.139113e+13   3.638018e+13  -5.327438e+11   5.411484e+05   4.137076e-18   0.000000e+00   0.000000e+00
     1840000   1.839999e-05   1.000045e-01   1.420650e+01   1.188188e+01  -3.277062e+05  -4.273127e+05  -7.773923e+04   5.014431e+13  -3.863617e+13   4.765795e+11   5.440872e+05   4.227054e-18   0.000000e+00   0.000000e+00
     1848000   1.847999e-05   1.072899e-01   1.420076e+01   1.187639e+01   3.509022e+05   4.152153e+05  -6.094642e+04  -4.854547e+13   4.105776e+13  -4.483664e+11   5.470380e+05   4.310526e-18   0.000000e+00   0.000000e+00
     1856000   1.855999e-05   1.004389e-01   1.420696e+01   1.187070e+01  -3.703298e+05  -3.987011e+05  -7.997331e+04   4.674595e+13  -4.359926e+13   3.850816e+11   5.500023e+05   4.404394e-18   0.000000e+00   0.000000e+00
     1864000   1.863999e-05   1.072006e-01   1.420047e+01   1.186505e+01   3.955475e+05   3.813764e+05  -6.228576e+04  -4.453280e+13   4.623998e+13  -3.405679e+11   5.529786e+05   4.490533e-18   0.000000e+00   0.000000e+00
     1872000   1.871999e-05   1.009731e-01   1.420745e+01   1.185923e+01  -4.164368e+05  -3.590545e+05  -8.222430e+04   4.205988e+13  -4.895948e+13   2.696967e+11   5.559682e+05   4.588473e-18   0.000000e+00   0.000000e+00
     1880000   1.879999e-05   1.070132e-01   1.420017e+01   1.185341e+01   4.425420e+05   3.354729e+05  -6.373350e+04  -3.911489e+13   5.168455e+13  -2.075428e+11   5.589700e+05   4.677310e-18   0.000000e+00   0.000000e+00
     1888000   1.887999e-05   1.016252e-01   1.420796e+01   1.184746e+01  -4.635424e+05  -3.063100e+05  -8.443745e+04   3.584863e+13  -5.442425e+13   1.285980e+11   5.619849e+05   4.779480e-18   0.000000e+00   0.000000e+00
     1896000   1.895999e-05   1.067104e-01   1.419986e+01   1.184148e+01   4.889329e+05   2.755211e+05  -6.535655e+04  -3.206506e+13   5.704628e+13  -4.645781e+10   5.650121e+05   4.871269e-18   0.000000e+00   0.000000e+00
     1904000   1.903999e-05   1.024114e-01   1.420844e+01   1.183540e+01  -5.081809e+05  -2.386333e+05  -8.654350e+04   2.790264e+13  -5.958731e+13  -3.884126e+10   5.680524e+05   4.977598e-18   0.000000e+00   0.000000e+00
     1912000   1.911999e-05   1.062784e-01   1.419960e+01   1.182923e+01   5.307213e+05   1.999382e+05  -6.723412e+04  -2.320322e+13   6.185547e+13   1.365742e+11   5.711049e+05   5.072260e-18   0.000000e+00   0.000000e+00
     1920000   1.919999e-05   1.033428e-01   1.420887e+01   1.182303e+01  -5.457884e+05  -1.547954e+05  -8.845916e+04   1.808425e+13  -6.391560e+13  -2.312219e+11   5.741703e+05   5.182999e-18   0.000000e+00   0.000000e+00
     1928000   1.927999e-05   1.057107e-01   1.419943e+01   1.181668e+01   5.627893e+05   1.079798e+05  -6.945514e+04  -1.244956e+13   6.551768e+13   3.401494e+11   5.772482e+05   5.280716e-18   0.000000e+00   0.000000e+00
     1936000   1.935999e-05   1.044212e-01   1.420920e+01   1.181034e+01  -5.706905e+05  -5.467277e+04  -9.009036e+04   6.385913e+12  -6.674866e+13  -4.440938e+11   5.803387e+05   5.395839e-18   0.000000e+00   0.000000e+00
     1944000   1.943999e-05   1.050125e-01   1.419939e+01   1.180380e+01   5.789677e+05   2.961846e+02  -7.211472e+04   1.131674e+11   6.731753e+13   5.565984e+11   5.834417e+05   5.496891e-18   0.000000e+00   0.000000e+00
     1952000   1.951999e-05   1.056350e-01   1.420936e+01   1.179733e+01  -5.762581e+05   6.021574e+04  -9.137808e+04  -7.007650e+12  -6.731895e+13  -6.703908e+11   5.865571e+05   5.616340e-18   0.000000e+00   0.000000e+00
     1960000   1.959999e-05   1.042074e-01   1.419955e+01   1.179058e+01   5.722822e+05  -1.205697e+05  -7.539558e+04   1.417948e+13   6.643746e+13   7.714482e+11   5.896851e+05   5.718767e-18   0.000000e+00   0.000000e+00
     1968000   1.967999e-05   1.069523e-01   1.420930e+01   1.178397e+01  -5.553044e+05   1.859131e+05  -9.227664e+04  -2.162828e+13  -6.479399e+13  -8.934369e+11   5.928251e+05   5.844012e-18   0.000000e+00   0.000000e+00
     1976000   1.975999e-05   1.033416e-01   1.419998e+01   1.177701e+01   5.356129e+05  -2.490407e+05  -7.929194e+04   2.909866e+13   6.208350e+13   9.746244e+11   5.959779e+05   5.950891e-18   0.000000e+00   0.000000e+00
     1984000   1.983999e-05   1.083097e-01   1.420895e+01   1.177025e+01  -5.010180e+05   3.152373e+05  -9.261736e+04  -3.663359e+13  -5.839372e+13  -1.094026e+12   5.991424e+05   6.079483e-18   0.000000e+00   0.000000e+00
     1992000   1.991999e-05   1.024898e-01   1.420072e+01   1.176308e+01   4.627305e+05  -3.763608e+05  -8.379889e+04   4.385473e+13   5.353767e+13   1.140105e+12   6.023199e+05   6.192977e-18   0.000000e+00   0.000000e+00
     2000000   1.999999e-05   1.096169e-01   1.420828e+01   1.175616e+01  -4.081606e+05   4.376179e+05  -9.239276e+04  -5.079136e+13  -4.752484e+13  -1.245668e+12   6.055088e+05   6.322870e-18   0.000000e+00   0.000000e+00
     2008000   2.007999e-05   1.017583e-01   1.420180e+01   1.174879e+01   3.497898e+05  -4.901809e+05  -8.887416e+04   5.700464e+13   4.035363e+13   1.240704e+12   6.087108e+05   6.442158e-18   0.000000e+00   0.000000e+00
     2016000   2.015999e-05   1.107528e-01   1.420725e+01   1.174170e+01  -2.747869e+05   5.390155e+05  -9.168142e+04  -6.247325e+13  -3.198115e+13  -1.317343e+12   6.119240e+05   6.574320e-18   0.000000e+00   0.000000e+00
     2024000   2.023999e-05   1.012815e-01   1.420324e+01   1.173413e+01   1.972089e+05  -5.749864e+05  -9.438926e+04   6.675911e+13   2.260519e+13   1.251398e+12   6.151504e+05   6.700342e-18   0.000000e+00   0.000000e+00
     2032000   2.031999e-05   1.115731e-01   1.420591e+01   1.172685e+01  -1.042796e+05   6.027492e+05  -9.067892e+04  -6.975435e+13  -1.217695e+13  -1.277524e+12   6.183878e+05   6.834044e-18   0.000000e+00   0.000000e+00
     2040000   2.039999e-05   1.012103e-01   1.420497e+01   1.171910e+01   1.176530e+04  -6.134128e+05  -1.001033e+05   7.111843e+13   1.094244e+12   1.147841e+12   6.216384e+05   6.967734e-18   0.000000e+00   0.000000e+00
     2048000   2.047999e-05   1.119269e-01   1.420434e+01   1.171161e+01   9.263151e+04   6.114489e+05  -8.971869e+04  -7.064239e+13   1.062390e+13  -1.101055e+12   6.248999e+05   7.102361e-18   0.000000e+00   0.000000e+00
     2056000   2.055999e-05   1.016899e-01   1.420686e+01   1.170370e+01  -1.915737e+05  -5.888464e+05  -1.056529e+05   6.817894e+13  -2.243251e+13   9.132252e+11   6.281744e+05   7.244483e-18   0.000000e+00   0.000000e+00
     2064000   2.063999e-05   1.116848e-01   1.420271e+01   1.169597e+01   2.964746e+05   5.503465e+05  -8.923538e+04  -6.345994e+13   3.415439e+13  -7.783663e+11   6.314598e+05   7.379940e-18   0.000000e+00   0.000000e+00
     2072000   2.071999e-05   1.028255e-01   1.420870e+01   1.168793e+01  -3.888515e+05  -4.894020e+05  -1.104451e+05   5.659290e+13  -4.519563e+13   5.444928e+11   6.347582e+05   7.531051e-18   0.000000e+00   0.000000e+00
     2080000   2.079999e-05   1.107782e-01   1.420126e+01   1.167995e+01   4.790004e+05   4.118664e+05  -8.974880e+04  -4.737006e+13   5.514890e+13  -3.247933e+11   6.380675e+05   7.667412e-18   0.000000e+00   0.000000e+00
     2088000   2.087999e-05   1.046368e-01   1.421022e+01   1.167178e+01  -5.480736e+05  -3.130297e+05  -1.140537e+05   3.615749e+13  -6.350074e+13   6.360840e+10   6.413895e+05   7.827036e-18   0.000000e+00   0.000000e+00
     2096000   2.095999e-05   1.092472e-01   1.420029e+01   1.166353e+01   6.056551e+05   2.009970e+05  -9.192145e+04  -2.298967e+13   6.963640e+13   2.079641e+11   6.447228e+05   7.965003e-18   0.000000e+00   0.000000e+00
     2104000   2.103999e-05   1.070127e-01   1.421111e+01   1.165524e+01  -6.334210e+05  -7.286278e+04  -1.160216e+05   8.425124e+12  -7.323101e+13  -4.755609e+11   6.480680e+05   8.131969e-18   0.000000e+00   0.000000e+00
     2112000   2.111999e-05   1.072820e-01   1.420011e+01   1.164671e+01   6.414911e+05  -6.005272e+04  -9.611067e+04   7.088235e+12   7.362631e+13   7.373047e+11   6.514249e+05   8.273332e-18   0.000000e+00   0.000000e+00
     2120000   2.119999e-05   1.096790e-01   1.421109e+01   1.163830e+01  -6.128871e+05   1.991591e+05  -1.160132e+05  -2.288914e+13  -7.073425e+13  -9.843027e+11   6.547931e+05   8.445567e-18   0.000000e+00   0.000000e+00
     2128000   2.127999e-05   1.052423e-01   1.420096e+01   1.162949e+01   5.603180e+05  -3.297890e+05  -1.023484e+05   3.807234e+13   6.415735e+13   1.158390e+12   6.581733e+05   8.592879e-18   0.000000e+00   0.000000e+00
     2136000   2.135999e-05   1.121976e-01   1.420999e+01   1.162093e+01  -4.689623e+05   4.524610e+05  -1.141082e+05  -5.194568e+13  -5.405487e+13  -1.344108e+12   6.615643e+05   8.767530e-18   0.000000e+00   0.000000e+00
     2144000   2.143999e-05   1.036302e-01   1.420288e+01   1.161186e+01   3.563197e+05  -5.505181e+05  -1.102178e+05   6.334034e+13   4.062064e+13   1.364387e+12   6.649676e+05   8.923854e-18   0.000000e+00   0.000000e+00
     2152000   2.151999e-05   1.140241e-01   1.420790e+01   1.160311e+01  -2.105232e+05   6.245799e+05  -1.109645e+05  -7.157887e+13  -2.428946e+13  -1.431556e+12   6.683810e+05   9.097929e-18   0.000000e+00   0.000000e+00
     2160000   2.159999e-05   1.029996e-01   1.420566e+01   1.159384e+01   5.496504e+04  -6.589339e+05  -1.187833e+05   7.565980e+13   5.994266e+12   1.272899e+12   6.718069e+05   9.266064e-18   0.000000e+00   0.000000e+00
     2168000   2.167999e-05   1.146354e-01   1.420519e+01   1.158484e+01   1.184978e+05   6.559524e+05  -1.078761e+05  -7.501092e+13   1.344769e+13  -1.164962e+12   6.752426e+05   9.437223e-18   0.000000e+00   0.000000e+00
     2176000   2.175999e-05   1.037956e-01   1.420875e+01   1.157539e+01  -2.812413e+05  -6.045520e+05  -1.266544e+05   6.930504e+13  -3.251726e+13   8.552216e+11   6.786907e+05   9.619968e-18   0.000000e+00   0.000000e+00
     2184000   2.183999e-05   1.137212e-01   1.420255e+01   1.156610e+01   4.382628e+05   5.117627e+05  -1.065441e+05  -5.835808e+13   4.997572e+13  -5.584721e+11   6.821488e+05   9.788300e-18   0.000000e+00   0.000000e+00
     2192000   2.191999e-05   1.061434e-01   1.421135e+01   1.155652e+01  -5.593004e+05  -3.738650e+05  -1.322166e+05   4.280585e+13  -6.425448e+13   1.630995e+11   6.856188e+05   9.984387e-18   0.000000e+00   0.000000e+00
     2200000   2.199999e-05   1.113919e-01   1.420087e+01   1.154689e+01   6.487371e+05   2.054571e+05  -1.085591e+05  -2.326536e+13   7.388299e+13   2.457386e+11   6.890991e+05   1.015204e-17   0.000000e+00   0.000000e+00
     2208000   2.207999e-05   1.096684e-01   1.421258e+01   1.153721e+01  -6.793949e+05  -1.049802e+04  -1.341415e+05   1.240960e+12  -7.783475e+13  -6.455369e+11   6.925905e+05   1.035802e-17   0.000000e+00   0.000000e+00
     2216000   2.215999e-05   1.083015e-01   1.420093e+01   1.152721e+01   6.604428e+05  -1.876115e+05  -1.147277e+05   2.158402e+13   7.504595e+13   9.983484e+11   6.960928e+05   1.052961e-17   0.000000e+00   0.000000e+00
     2224000   2.223999e-05   1.134506e-01   1.421183e+01   1.151740e+01  -5.724661e+05   3.798625e+05  -1.320396e+05  -4.324675e+13  -6.546696e+13  -1.308153e+12   6.996052e+05   1.073930e-17   0.000000e+00   0.000000e+00
     2232000   2.231999e-05   1.055887e-01   1.420306e+01   1.150709e+01   4.360074e+05  -5.373963e+05  -1.244714e+05   6.135137e+13   4.933145e+13   1.422967e+12   7.031290e+05   1.092121e-17   0.000000e+00   0.000000e+00
     2240000   2.239999e-05   1.162117e-01   1.420912e+01   1.149709e+01  -2.425077e+05   6.514564e+05  -1.271458e+05  -7.403589e+13  -2.776247e+13  -1.528253e+12   7.066622e+05   1.112873e-17   0.000000e+00   0.000000e+00
     2248000   2.247999e-05   1.045522e-01   1.420683e+01   1.148652e+01   2.735918e+04  -6.965822e+05  -1.357164e+05   7.932494e+13   2.767131e+12   1.324183e+12   7.102072e+05   1.132598e-17   0.000000e+00   0.000000e+00
     2256000   2.255999e-05   1.167830e-01   1.420534e+01   1.147624e+01   2.076780e+05   6.718313e+05  -1.223401e+05  -7.614884e+13   2.343014e+13  -1.118406e+12   7.137608e+05   1.152492e-17   0.000000e+00   0.000000e+00
     2264000   2.263999e-05   1.060779e-01   1.421093e+01   1.146550e+01  -4.166086e+05  -5.655908e+05  -1.452604e+05   6.429687e+13  -4.764365e+13   6.618641e+11   7.173258e+05   1.174225e-17   0.000000e+00   0.000000e+00
     2272000   2.271999e-05   1.147242e-01   1.420213e+01   1.145483e+01   5.922839e+05   3.926363e+05  -1.213774e+05  -4.430566e+13   6.694485e+13  -1.729902e+11   7.208995e+05   1.193395e-17   0.000000e+00   0.000000e+00
     2280000   2.279999e-05   1.100305e-01   1.421354e+01   1.144399e+01  -6.902436e+05  -1.612474e+05  -1.497982e+05   1.833619e+13  -7.854901e+13  -3.716417e+11   7.244836e+05   1.216825e-17   0.000000e+00   0.000000e+00
     2288000   2.287999e-05   1.108353e-01   1.420127e+01   1.143291e+01   7.107624e+05  -9.380725e+04  -1.269383e+05   1.082996e+13   8.015829e+13   8.875529e+11   7.280772e+05   1.235939e-17   0.000000e+00   0.000000e+00
     2296000   2.295999e-05   1.149445e-01   1.421318e+01   1.142196e+01  -6.259236e+05   3.489528e+05  -1.476722e+05  -3.941218e+13  -7.106487e+13  -1.322734e+12   7.316799e+05   1.260000e-17   0.000000e+00   0.000000e+00
     2304000   2.303999e-05   1.071468e-01   1.420368e+01   1.141048e+01   4.595706e+05  -5.569808e+05  -1.386465e+05   6.310955e+13   5.157752e+13   1.508553e+12   7.352928e+05   1.280191e-17   0.000000e+00   0.000000e+00
     2312000   2.311999e-05   1.184313e-01   1.420971e+01   1.139934e+01  -2.097782e+05   6.943964e+05  -1.407136e+05  -7.827896e+13  -2.387788e+13  -1.609628e+12   7.389138e+05   1.303529e-17   0.000000e+00   0.000000e+00
     2320000   2.319999e-05   1.060849e-01   1.420856e+01   1.138759e+01  -6.893911e+04  -7.234363e+05  -1.525155e+05   8.173822e+13  -8.156878e+12   1.301686e+12   7.425454e+05   1.326009e-17   0.000000e+00   0.000000e+00
     2328000   2.327999e-05   1.184124e-01   1.420490e+01   1.137610e+01   3.558581e+05   6.418931e+05  -1.346463e+05  -7.212289e+13   3.989731e+13  -9.183381e+11   7.461845e+05   1.347960e-17   0.000000e+00   0.000000e+00
     2336000   2.335999e-05   1.089720e-01   1.421332e+01   1.136421e+01  -5.806087e+05  -4.458428e+05  -1.623845e+05   5.029745e+13  -6.575706e+13   2.810611e+11   7.498340e+05   1.373111e-17   0.000000e+00   0.000000e+00
     2344000   2.343999e-05   1.146816e-01   1.420186e+01   1.135227e+01   7.211222e+05   1.709526e+05  -1.360409e+05  -1.898711e+13   8.081154e+13   3.969356e+11   7.534913e+05   1.394077e-17   0.000000e+00   0.000000e+00
     2352000   2.351999e-05   1.146935e-01   1.421483e+01   1.134030e+01  -7.244012e+05   1.478584e+05  -1.633047e+05  -1.654711e+13  -8.173501e+13  -1.028822e+12   7.571576e+05   1.420812e-17   0.000000e+00   0.000000e+00
     2360000   2.359999e-05   1.096764e-01   1.420313e+01   1.132789e+01   6.013638e+05  -4.422055e+05  -1.472499e+05   4.983669e+13   6.713322e+13   1.449051e+12   7.608328e+05   1.442311e-17   0.000000e+00   0.000000e+00
     2368000   2.367999e-05   1.197600e-01   1.421169e+01   1.131578e+01  -3.456914e+05   6.639018e+05  -1.556138e+05  -7.434320e+13  -3.900270e+13  -1.700786e+12   7.645154e+05   1.468456e-17   0.000000e+00   0.000000e+00
     2376000   2.375999e-05   1.073846e-01   1.420850e+01   1.130302e+01   2.388780e+04  -7.502030e+05  -1.636094e+05   8.420300e+13   2.269599e+12   1.453405e+12   7.682077e+05   1.492434e-17   0.000000e+00   0.000000e+00
     2384000   2.383999e-05   1.204401e-01   1.420594e+01   1.129057e+01   3.238587e+05   6.850712e+05  -1.470809e+05  -7.645104e+13   3.602123e+13  -1.044754e+12   7.719066e+05   1.516598e-17   0.000000e+00   0.000000e+00
     2392000   2.391999e-05   1.104243e-01   1.421429e+01   1.127767e+01  -5.978241e+05  -4.619448e+05  -1.754763e+05   5.176359e+13  -6.725783e+13   2.955018e+11   7.756150e+05   1.544024e-17   0.000000e+00   0.000000e+00
     2400000   2.399999e-05   1.159879e-01   1.420232e+01   1.126472e+01   7.536377e+05   1.319237e+05  -1.482639e+05  -1.448015e+13   8.384082e+13   5.086087e+11   7.793304e+05   1.566651e-17   0.000000e+00   0.000000e+00
     2408000   2.407999e-05   1.172283e-01   1.421567e+01   1.125177e+01  -7.232076e+05   2.438460e+05  -1.751654e+05  -2.712796e+13  -8.103707e+13  -1.224360e+12   7.830537e+05   1.595905e-17   0.000000e+00   0.000000e+00
     2416000   2.415999e-05   1.102470e-01   1.420460e+01   1.123831e+01   5.247215e+05  -5.633223e+05  -1.623767e+05   6.297937e+13   5.807235e+13   1.599775e+12   7.867852e+05   1.619298e-17   0.000000e+00   0.000000e+00
     2424000   2.423999e-05   1.223138e-01   1.421100e+01   1.122520e+01  -1.745278e+05   7.532635e+05  -1.645005e+05  -8.370948e+13  -1.966943e+13  -1.705781e+12   7.905228e+05   1.647123e-17   0.000000e+00   0.000000e+00
     2432000   2.431999e-05   1.091356e-01   1.421152e+01   1.121143e+01  -2.186498e+05  -7.418957e+05  -1.806847e+05   8.266176e+13  -2.475348e+13   1.195722e+12   7.942695e+05   1.674029e-17   0.000000e+00   0.000000e+00
     2440000   2.439999e-05   1.208515e-01   1.420451e+01   1.119788e+01   5.744156e+05   5.312575e+05  -1.570046e+05  -5.874810e+13   6.352243e+13  -4.708357e+11   7.980215e+05   1.698849e-17   0.000000e+00   0.000000e+00
     2448000   2.447999e-05   1.148998e-01   1.421668e+01   1.118404e+01  -7.630055e+05  -1.579179e+05  -1.890446e+05   1.762586e+13  -8.508843e+13  -4.610315e+11   8.017814e+05   1.729618e-17   0.000000e+00   0.000000e+00
     2456000   2.455999e-05   1.141990e-01   1.420324e+01   1.116990e+01   7.422206e+05  -2.657694e+05  -1.654768e+05   2.969538e+13   8.186000e+13   1.261790e+12   8.055478e+05   1.753663e-17   0.000000e+00   0.000000e+00
     2464000   2.463999e-05   1.225008e-01   1.421442e+01   1.115598e+01  -4.812613e+05   6.250049e+05  -1.809853e+05  -6.907951e+13  -5.357933e+13  -1.759853e+12   8.093202e+05   1.784442e-17   0.000000e+00   0.000000e+00
     2472000   2.471999e-05   1.100074e-01   1.420953e+01   1.114139e+01   7.388067e+04  -7.880836e+05  -1.860065e+05   8.733140e+13   7.719886e+12   1.566067e+12   8.131006e+05   1.811286e-17   0.000000e+00   0.000000e+00
     2480000   2.479999e-05   1.237696e-01   1.420689e+01   1.112712e+01   3.810210e+05   7.025908e+05  -1.687933e+05  -7.735047e+13   4.181355e+13  -1.016996e+12   8.168855e+05   1.838570e-17   0.000000e+00   0.000000e+00
     2488000   2.487999e-05   1.143236e-01   1.421686e+01   1.111238e+01  -7.044182e+05  -3.705013e+05  -2.000907e+05   4.100771e+13  -7.818017e+13   6.698994e+09   8.206781e+05   1.870389e-17   0.000000e+00   0.000000e+00
     2496000   2.495999e-05   1.171191e-01   1.420334e+01   1.109749e+01   8.006337e+05  -9.386479e+04  -1.730185e+05   1.061032e+13   8.782199e+13   1.001768e+12   8.244758e+05   1.895614e-17   0.000000e+00   0.000000e+00
     2504000   2.503999e-05   1.231660e-01   1.421617e+01   1.108273e+01  -5.958111e+05   5.416402e+05  -1.941173e+05  -5.950315e+13  -6.592263e+13  -1.713418e+12   8.282792e+05   1.928559e-17   0.000000e+00   0.000000e+00
     2512000   2.511999e-05   1.113585e-01   1.420930e+01   1.106729e+01   1.754472e+05  -7.897021e+05  -1.948364e+05   8.700837e+13   1.881753e+13   1.672437e+12   8.320892e+05   1.955721e-17   0.000000e+00   0.000000e+00
     2520000   2.519999e-05   1.256078e-01   1.420797e+01   1.105220e+01   3.368917e+05   7.436190e+05  -1.796313e+05  -8.138072e+13   3.669893e+13  -1.147773e+12   8.359023e+05   1.984537e-17   0.000000e+00   0.000000e+00
     2528000   2.527999e-05   1.155569e-01   1.421768e+01   1.103660e+01  -7.121581e+05  -3.915099e+05  -2.113857e+05   4.307649e+13  -7.857937e+13   3.324132e+10   8.397220e+05   2.017632e-17   0.000000e+00   0.000000e+00
     2536000   2.535999e-05   1.182939e-01   1.420390e+01   1.102083e+01   8.136971e+05  -1.251732e+05  -1.838413e+05   1.398401e+13   8.866992e+13   1.082781e+12   8.435455e+05   2.043343e-17   0.000000e+00   0.000000e+00
     2544000   2.543999e-05   1.252813e-01   1.421656e+01   1.100521e+01  -5.550236e+05   6.069835e+05  -2.038643e+05  -6.625255e+13  -6.105841e+13  -1.819453e+12   8.473729e+05   2.077727e-17   0.000000e+00   0.000000e+00
     2552000   2.551999e-05   1.125112e-01   1.421110e+01   1.098888e+01   5.816064e+04  -8.232580e+05  -2.083634e+05   9.012218e+13   5.856216e+12   1.625995e+12   8.512060e+05   2.106410e-17   0.000000e+00   0.000000e+00
     2560000   2.559999e-05   1.265435e-01   1.420729e+01   1.097288e+01   4.910274e+05   6.741482e+05  -1.884470e+05  -7.323999e+13   5.323112e+13  -8.446094e+11   8.550415e+05   2.135698e-17   0.000000e+00   0.000000e+00
     2568000   2.567999e-05   1.188709e-01   1.421935e+01   1.095645e+01  -8.059649e+05  -1.963416e+05  -2.225982e+05   2.153093e+13  -8.829939e+13  -4.444691e+11   8.588826e+05   2.171282e-17   0.000000e+00   0.000000e+00
     2576000   2.575999e-05   1.175009e-01   1.420523e+01   1.093972e+01   7.481017e+05  -3.811148e+05  -1.984779e+05   4.172344e+13   8.089659e+13   1.509554e+12   8.627271e+05   2.197878e-17   0.000000e+00   0.000000e+00
     2584000   2.583999e-05   1.285622e-01   1.421502e+01   1.092326e+01  -2.978835e+05   7.865958e+05  -2.085272e+05  -8.527034e+13  -3.269778e+13  -1.931378e+12   8.665744e+05   2.232644e-17   0.000000e+00   0.000000e+00
     2592000   2.591999e-05   1.144258e-01   1.421522e+01   1.090606e+01  -3.021393e+05  -7.844585e+05  -2.257865e+05   8.530553e+13  -3.330894e+13   1.202247e+12   8.704268e+05   2.264440e-17   0.000000e+00   0.000000e+00
     2600000   2.599999e-05   1.253955e-01   1.420551e+01   1.088905e+01   7.679558e+05   3.682926e+05  -1.974111e+05  -3.957102e+13   8.277948e+13   7.137220e+10   8.742807e+05   2.292798e-17   0.000000e+00   0.000000e+00
     2608000   2.607999e-05   1.247929e-01   1.422020e+01   1.087189e+01  -8.043090e+05   2.673145e+05  -2.296891e+05  -2.878493e+13  -8.747962e+13  -1.381991e+12   8.781384e+05   2.330897e-17   0.000000e+00   0.000000e+00
     2616000   2.615999e-05   1.156742e-01   1.420925e+01   1.085413e+01   3.973775e+05  -7.561375e+05  -2.197068e+05   8.192067e+13   4.240074e+13   1.854830e+12   8.819999e+05   2.359509e-17   0.000000e+00   0.000000e+00
     2624000   2.623999e-05   1.306062e-01   1.421064e+01   1.083676e+01   2.663177e+05   8.186093e+05  -2.090601e+05  -8.802029e+13   2.838469e+13  -1.391673e+12   8.858626e+05   2.392223e-17   0.000000e+00   0.000000e+00
     2632000   2.631999e-05   1.198343e-01   1.422040e+01   1.081880e+01  -7.671381e+05  -3.801705e+05  -2.420504e+05   4.112847e+13  -8.319154e+13  -4.286337e+10   8.897297e+05   2.429290e-17   0.000000e+00   0.000000e+00
     2640000   2.639999e-05   1.209689e-01   1.420587e+01   1.080064e+01   8.151471e+05  -2.966108e+05  -2.146515e+05   3.219547e+13   8.716130e+13   1.419493e+12   8.935984e+05   2.457083e-17   0.000000e+00   0.000000e+00
     2648000   2.647999e-05   1.315641e-01   1.421668e+01   1.078271e+01  -3.267440e+05   8.043538e+05  -2.273829e+05  -8.619249e+13  -3.547018e+13  -1.999290e+12   8.974685e+05   2.494370e-17   0.000000e+00   0.000000e+00
     2656000   2.655999e-05   1.171356e-01   1.421727e+01   1.076403e+01  -3.713175e+05  -7.836568e+05  -2.458114e+05   8.426178e+13  -4.039190e+13   1.131718e+12   9.013422e+05   2.527987e-17   0.000000e+00   0.000000e+00
     2664000   2.663999e-05   1.270366e-01   1.420609e+01   1.074548e+01   8.463266e+05   2.377529e+05  -2.159180e+05  -2.511642e+13   9.014907e+13   4.118926e+11   9.052158e+05   2.557067e-17   0.000000e+00   0.000000e+00
     2672000   2.671999e-05   1.297792e-01   1.422095e+01   1.072686e+01  -7.238941e+05   4.921965e+05  -2.452887e+05  -5.246839e+13  -7.786830e+13  -1.765848e+12   9.090911e+05   2.597164e-17   0.000000e+00   0.000000e+00
     2680000   2.679999e-05   1.173723e-01   1.421348e+01   1.070755e+01   9.422862e+04  -8.742500e+05  -2.456005e+05   9.356706e+13   9.485868e+12   1.771966e+12   9.129686e+05   2.627805e-17   0.000000e+00   0.000000e+00
     2688000   2.687999e-05   1.318087e-01   1.420862e+01   1.068855e+01   6.328515e+05   6.246923e+05  -2.233002e+05  -6.622778e+13   6.701726e+13  -6.088603e+11   9.168449e+05   2.659114e-17   0.000000e+00   0.000000e+00
     2696000   2.695999e-05   1.273801e-01   1.422298e+01   1.066919e+01  -8.761869e+05   1.121245e+05  -2.597207e+05  -1.176567e+13  -9.379744e+13  -1.145233e+12   9.207226e+05   2.699751e-17   0.000000e+00   0.000000e+00
     2704000   2.703999e-05   1.195145e-01   1.421066e+01   1.064928e+01   4.544979e+05  -7.667458e+05  -2.458028e+05   8.172188e+13   4.769894e+13   1.952312e+12   9.246007e+05   2.728565e-17   0.000000e+00   0.000000e+00
     2712000   2.711999e-05   1.349062e-01   1.421178e+01   1.062973e+01   3.563045e+05   8.247114e+05  -2.344511e+05  -8.714281e+13   3.737803e+13  -1.335924e+12   9.284768e+05   2.762328e-17   0.000000e+00   0.000000e+00
     2720000   2.719999e-05   1.256940e-01   1.422355e+01   1.060960e+01  -8.706943e+05  -1.945208e+05  -2.708083e+05   2.079142e+13  -9.281481e+13  -5.133770e+11   9.323540e+05   2.802292e-17   0.000000e+00   0.000000e+00
     2728000   2.727999e-05   1.222422e-01   1.420918e+01   1.058911e+01   6.711761e+05  -6.037013e+05  -2.481833e+05   6.411183e+13   7.035747e+13   1.872779e+12   9.362305e+05   2.830914e-17   0.000000e+00   0.000000e+00
     2736000   2.735999e-05   1.368691e-01   1.421448e+01   1.056894e+01   1.330824e+05   8.975541e+05  -2.459331e+05  -9.442328e+13   1.362503e+13  -1.739995e+12   9.401050e+05   2.867114e-17   0.000000e+00   0.000000e+00
     2744000   2.743999e-05   1.251329e-01   1.422368e+01   1.054810e+01  -8.152817e+05  -3.849080e+05  -2.797504e+05   4.077422e+13  -8.654680e+13  -7.664981e+10   9.439802e+05   2.906197e-17   0.000000e+00   0.000000e+00
     2752000   2.751999e-05   1.246403e-01   1.420878e+01   1.052701e+01   7.758246e+05  -4.822537e+05  -2.528893e+05   5.103331e+13   8.097986e+13   1.773142e+12   9.478531e+05   2.934059e-17   0.000000e+00   0.000000e+00
     2760000   2.759999e-05   1.383858e-01   1.421625e+01   1.050622e+01   1.373726e+04   9.165407e+05  -2.560100e+05  -9.592857e+13   9.979076e+11  -1.934466e+12   9.517231e+05   2.971534e-17   0.000000e+00   0.000000e+00
     2768000   2.767999e-05   1.257043e-01   1.422409e+01   1.048468e+01  -7.860003e+05  -4.606263e+05  -2.884173e+05   4.851223e+13  -8.304684e+13   1.054952e+11   9.555928e+05   3.009811e-17   0.000000e+00   0.000000e+00
     2776000   2.775999e-05   1.262275e-01   1.420911e+01   1.046296e+01   8.047934e+05  -4.529766e+05  -2.601570e+05   4.771406e+13   8.355555e+13   1.762945e+12   9.594592e+05   3.037839e-17   0.000000e+00   0.000000e+00
     2784000   2.783999e-05   1.398762e-01   1.421689e+01   1.044150e+01   1.553520e+04   9.263034e+05  -2.640269e+05  -9.641723e+13   1.157936e+12  -1.962968e+12   9.633221e+05   3.075638e-17   0.000000e+00   0.000000e+00
     2792000   2.791999e-05   1.273649e-01   1.422508e+01   1.041931e+01  -8.150668e+05  -4.275048e+05  -2.972397e+05   4.480999e+13  -8.565312e+13   1.818071e+09   9.671844e+05   3.114663e-17   0.000000e+00   0.000000e+00
     2800000   2.799999e-05   1.268492e-01   1.421011e+01   1.039689e+01   7.675870e+05  -5.299499e+05  -2.699762e+05   5.546342e+13   7.919284e+13   1.893676e+12   9.710427e+05   3.141878e-17   0.000000e+00   0.000000e+00
     2808000   2.807999e-05   1.413260e-01   1.421634e+01   1.037476e+01   1.452167e+05   9.254917e+05  -2.698116e+05  -9.574740e+13   1.459072e+13  -1.832278e+12   9.748954e+05   3.177868e-17   0.000000e+00   0.000000e+00
     2816000   2.815999e-05   1.302864e-01   1.422656e+01   1.035192e+01  -8.895392e+05  -2.698790e+05  -3.063144e+05   2.821847e+13  -9.289793e+13  -4.064551e+11   9.787457e+05   3.217589e-17   0.000000e+00   0.000000e+00
     2824000   2.823999e-05   1.266226e-01   1.421214e+01   1.032872e+01   6.288030e+05  -6.997539e+05  -2.836124e+05   7.270261e+13   6.435361e+13   2.078960e+12   9.825908e+05   3.244609e-17   0.000000e+00   0.000000e+00
     2832000   2.831999e-05   1.421926e-01   1.421458e+01   1.030584e+01   4.017353e+05   8.581017e+05  -2.744329e+05  -8.818403e+13   4.094873e+13  -1.395642e+12   9.864296e+05   3.278252e-17   0.000000e+00   0.000000e+00
     2840000   2.839999e-05   1.347330e-01   1.422783e+01   1.028235e+01  -9.385317e+05   3.715318e+04  -3.136924e+05  -3.586936e+12  -9.740773e+13  -1.108018e+12   9.902652e+05   3.320290e-17   0.000000e+00   0.000000e+00
     2848000   2.847999e-05   1.262432e-01   1.421579e+01   1.025833e+01   3.269496e+05  -8.892410e+05  -3.009644e+05   9.174807e+13   3.290329e+13   2.136434e+12   9.940951e+05   3.346922e-17   0.000000e+00   0.000000e+00
     2856000   2.855999e-05   1.414667e-01   1.421212e+01   1.023463e+01   7.291716e+05   6.213343e+05  -2.794480e+05  -6.331037e+13   7.422181e+13  -5.107890e+11   9.979171e+05   3.377116e-17   0.000000e+00   0.000000e+00
     2864000   2.863999e-05   1.405674e-01   1.422753e+01   1.021055e+01  -8.229096e+05   4.755631e+05  -3.164328e+05  -4.844324e+13  -8.492456e+13  -1.953681e+12   1.001734e+06   3.419231e-17   0.000000e+00   0.000000e+00
     2872000   2.871999e-05   1.272953e-01   1.422145e+01   1.018573e+01  -1.725756e+05  -9.370902e+05  -3.212453e+05   9.606592e+13  -1.838405e+13   1.721993e+12   1.005544e+06   3.447771e-17   0.000000e+00   0.000000e+00
     2880000   2.879999e-05   1.381955e-01   1.421062e+01   1.016110e+01   9.594279e+05   1.202247e+05  -2.895222e+05  -1.181963e+13   9.711333e+13   8.276783e+11   1.009346e+06   3.474536e-17   0.000000e+00   0.000000e+00
     2888000   2.887999e-05   1.462562e-01   1.422407e+01   1.013642e+01  -3.814453e+05   8.850838e+05  -3.123764e+05  -8.972111e+13  -3.940908e+13  -2.409693e+12   1.013140e+06   3.514371e-17   0.000000e+00   0.000000e+00
     2896000   2.895999e-05   1.320884e-01   1.422785e+01   1.011091e+01  -7.373095e+05  -6.124940e+05  -3.396608e+05   6.249776e+13  -7.564830e+13   4.641436e+11   1.016929e+06   3.548117e-17   0.000000e+00   0.000000e+00
     2904000   2.903999e-05   1.331610e-01   1.421303e+01   1.008525e+01   7.943074e+05  -5.609285e+05  -3.102893e+05   5.719108e+13   7.967368e+13   2.062056e+12   1.020708e+06   3.572354e-17   0.000000e+00   0.000000e+00
     2912000   2.911999e-05   1.482276e-01   1.421751e+01   1.005984e+01   3.706530e+05   9.049206e+05  -3.054334e+05  -9.099370e+13   3.684629e+13  -1.573233e+12   1.024478e+06   3.605144e-17   0.000000e+00   0.000000e+00
     2920000   2.919999e-05   1.414488e-01   1.423094e+01   1.003382e+01  -9.547946e+05   1.614262e+05  -3.458143e+05  -1.598155e+13  -9.704790e+13  -1.456675e+12   1.028241e+06   3.645188e-17   0.000000e+00   0.000000e+00
     2928000   2.927999e-05   1.307775e-01   1.422130e+01   1.000718e+01   4.668827e+04  -9.731223e+05  -3.403907e+05   9.823673e+13   3.889045e+12   2.071997e+12   1.031994e+06   3.669598e-17   0.000000e+00   0.000000e+00
     2936000   2.935999e-05   1.432558e-01   1.421247e+01   9.980789e+00   9.632782e+05   2.202986e+05  -3.103476e+05  -2.162826e+13   9.591066e+13   6.389100e+11   1.035737e+06   3.695180e-17   0.000000e+00   0.000000e+00
     2944000   2.943999e-05   1.507923e-01   1.422602e+01   9.954285e+00  -3.634276e+05   9.146587e+05  -3.343954e+05  -9.121411e+13  -3.704462e+13  -2.483403e+12   1.039471e+06   3.733969e-17   0.000000e+00   0.000000e+00
     2952000   2.951999e-05   1.372946e-01   1.423112e+01   9.926958e+00  -8.415779e+05  -4.974303e+05  -3.641016e+05   5.003078e+13  -8.491434e+13   1.017113e+11   1.043197e+06   3.766632e-17   0.000000e+00   0.000000e+00
     2960000   2.959999e-05   1.351052e-01   1.421685e+01   9.899386e+00   6.137672e+05  -7.771694e+05  -3.395910e+05   7.781960e+13   6.032419e+13   2.308660e+12   1.046912e+06   3.788310e-17   0.000000e+00   0.000000e+00
     2968000   2.967999e-05   1.504967e-01   1.421607e+01   9.872075e+00   7.217318e+05   6.916912e+05  -3.232003e+05  -6.824123e+13   7.102907e+13  -6.766957e+11   1.050615e+06   3.816025e-17   0.000000e+00   0.000000e+00
     2976000   2.975999e-05   1.507874e-01   1.423115e+01   9.844346e+00  -7.422333e+05   6.568463e+05  -3.594570e+05  -6.480314e+13  -7.436265e+13  -2.345573e+12   1.054309e+06   3.855696e-17   0.000000e+00   0.000000e+00
     2984000   2.983999e-05   1.368153e-01   1.422997e+01   9.815832e+00  -5.921552e+05  -7.919454e+05  -3.761946e+05   7.872204e+13  -5.945846e+13   9.964490e+11   1.057992e+06   3.882182e-17   0.000000e+00   0.000000e+00
     2992000   2.991999e-05   1.398367e-01   1.421586e+01   9.787260e+00   8.346405e+05  -5.573583e+05  -3.462027e+05   5.542013e+13   8.149917e+13   2.121488e+12   1.061664e+06   3.902963e-17   0.000000e+00   0.000000e+00
     3000000   2.999999e-05   1.547773e-01   1.421911e+01   9.758870e+00   5.464866e+05   8.493682e+05  -3.388775e+05  -8.308490e+13   5.307341e+13  -1.248612e+12   1.065322e+06   3.931294e-17   0.000000e+00   0.000000e+00
     3008000   3.007999e-05   1.522656e-01   1.423361e+01   9.729953e+00  -8.446151e+05   5.356640e+05  -3.773429e+05  -5.224859e+13  -8.374864e+13  -2.196061e+12   1.068971e+06   3.969314e-17   0.000000e+00   0.000000e+00
     3016000   3.015999e-05   1.388674e-01   1.423078e+01   9.700307e+00  -5.320093e+05  -8.458408e+05  -3.898795e+05   8.323100e+13  -5.301121e+13   1.184953e+12   1.072607e+06   3.992450e-17   0.000000e+00   0.000000e+00
     3024000   3.023999e-05   1.424320e-01   1.421707e+01   9.670633e+00   8.426984e+05  -5.645614e+05  -3.597206e+05   5.556869e+13   8.138098e+13   2.184824e+12   1.076229e+06   4.009768e-17   0.000000e+00   0.000000e+00
     3032000   3.031999e-05   1.572308e-01   1.421968e+01   9.641113e+00   6.229734e+05   8.090639e+05  -3.512356e+05  -7.824261e+13   5.989475e+13  -1.086127e+12   1.079836e+06   4.034587e-17   0.000000e+00   0.000000e+00
     3040000   3.039999e-05   1.566145e-01   1.423417e+01   9.611091e+00  -7.501133e+05   6.785192e+05  -3.882839e+05  -6.552324e+13  -7.369863e+13  -2.455382e+12   1.083431e+06   4.070002e-17   0.000000e+00   0.000000e+00
     3048000   3.047999e-05   1.432521e-01   1.423440e+01   9.580305e+00  -7.348278e+05  -6.892526e+05  -4.081108e+05   6.718597e+13  -7.214700e+13   6.375498e+11   1.087012e+06   4.092223e-17   0.000000e+00   0.000000e+00
     3056000   3.055999e-05   1.426636e-01   1.422084e+01   9.549333e+00   6.129665e+05  -8.166770e+05  -3.829745e+05   7.931484e+13   5.825525e+13   2.466776e+12   1.090577e+06   4.106842e-17   0.000000e+00   0.000000e+00
     3064000   3.063999e-05   1.569648e-01   1.421815e+01   9.518523e+00   9.083467e+05   4.898450e+05  -3.634139e+05  -4.659870e+13   8.660356e+13  -5.963072e+09   1.094126e+06   4.125507e-17   0.000000e+00   0.000000e+00
     3072000   3.071999e-05   1.627567e-01   1.423138e+01   9.487400e+00  -3.263911e+05   9.725870e+05  -3.903835e+05  -9.295478e+13  -3.216458e+13  -2.664196e+12   1.097659e+06   4.156755e-17   0.000000e+00   0.000000e+00
     3080000   3.079999e-05   1.518295e-01   1.423886e+01   9.455503e+00  -1.004919e+06  -1.511017e+05  -4.241457e+05   1.488981e+13  -9.725408e+13  -8.596304e+11   1.101178e+06   4.182839e-17   0.000000e+00   0.000000e+00
     3088000   3.087999e-05   1.435020e-01   1.422922e+01   9.423148e+00  -4.292543e+04  -1.022394e+06  -4.161591e+05   9.807278e+13  -5.094998e+12   2.169339e+12   1.104681e+06   4.195639e-17   0.000000e+00   0.000000e+00
     3096000   3.095999e-05   1.520942e-01   1.421866e+01   9.390869e+00   1.000639e+06  -2.788981e+05  -3.859659e+05   2.707090e+13   9.423879e+13   1.836978e+12   1.108166e+06   4.208245e-17   0.000000e+00   0.000000e+00
     3104000   3.103999e-05   1.652897e-01   1.422399e+01   9.358600e+00   5.329482e+05   8.961921e+05  -3.854013e+05  -8.444333e+13   4.969497e+13  -1.462655e+12   1.111633e+06   4.228115e-17   0.000000e+00   0.000000e+00
     3112000   3.111999e-05   1.646182e-01   1.423752e+01   9.325784e+00  -7.073060e+05   7.516432e+05  -4.220928e+05  -7.066045e+13  -6.787997e+13  -2.698544e+12   1.115084e+06   4.256825e-17   0.000000e+00   0.000000e+00
     3120000   3.119999e-05   1.526199e-01   1.424016e+01   9.292224e+00  -9.144893e+05  -4.637924e+05  -4.468630e+05   4.422257e+13  -8.735433e+13  -5.070823e+10   1.118517e+06   4.273528e-17   0.000000e+00   0.000000e+00
     3128000   3.127999e-05   1.475436e-01   1.422916e+01   9.258333e+00   1.642418e+05  -1.022454e+06  -4.316731e+05   9.660816e+13   1.436871e+13   2.502571e+12   1.121931e+06   4.281467e-17   0.000000e+00   0.000000e+00
     3136000   3.135999e-05   1.571887e-01   1.422035e+01   9.224508e+00   1.031550e+06  -1.993428e+05  -4.031424e+05   1.924935e+13   9.557586e+13   1.759265e+12   1.125326e+06   4.290498e-17   0.000000e+00   0.000000e+00
     3144000   3.143999e-05   1.696945e-01   1.422570e+01   9.190628e+00   5.733544e+05   8.845945e+05  -4.033869e+05  -8.196451e+13   5.257331e+13  -1.446479e+12   1.128700e+06   4.305297e-17   0.000000e+00   0.000000e+00
     3152000   3.151999e-05   1.704346e-01   1.423859e+01   9.156214e+00  -5.840278e+05   8.650646e+05  -4.383188e+05  -8.000358e+13  -5.539267e+13  -2.940094e+12   1.132055e+06   4.327887e-17   0.000000e+00   0.000000e+00
     3160000   3.159999e-05   1.600674e-01   1.424376e+01   9.121060e+00  -1.017063e+06  -1.879522e+05  -4.683678e+05   1.795411e+13  -9.554389e+13  -8.482421e+11   1.135390e+06   4.341559e-17   0.000000e+00   0.000000e+00
     3168000   3.167999e-05   1.521743e-01   1.423605e+01   9.085445e+00  -2.561915e+05  -1.007766e+06  -4.641344e+05   9.371570e+13  -2.486117e+13   2.049042e+12   1.138704e+06   4.345322e-17   0.000000e+00   0.000000e+00
     3176000   3.175999e-05   1.565311e-01   1.422515e+01   9.049750e+00   7.945936e+05  -6.942710e+05  -4.367645e+05   6.450723e+13   7.202012e+13   2.660475e+12   1.141996e+06   4.347361e-17   0.000000e+00   0.000000e+00
     3184000   3.183999e-05   1.689915e-01   1.422336e+01   9.014045e+00   1.002879e+06   3.595332e+05  -4.202378e+05  -3.232368e+13   9.091636e+13   4.226111e+11   1.145264e+06   4.351539e-17   0.000000e+00   0.000000e+00
     3192000   3.191999e-05   1.774833e-01   1.423258e+01   8.978032e+00   2.042764e+05   1.042580e+06  -4.363167e+05  -9.467000e+13   1.763444e+13  -2.398092e+12   1.148509e+06   4.361350e-17   0.000000e+00   0.000000e+00
     3200000   3.199999e-05   1.749456e-01   1.424379e+01   8.941391e+00  -7.698265e+05   7.146259e+05  -4.724015e+05  -6.455799e+13  -7.130382e+13  -2.857106e+12   1.151732e+06   4.376880e-17   0.000000e+00   0.000000e+00
     3208000   3.207999e-05   1.652681e-01   1.424698e+01   8.904080e+00  -1.008875e+06  -2.622293e+05  -4.972671e+05   2.437689e+13  -9.287385e+13  -6.660036e+11   1.154932e+06   4.382281e-17   0.000000e+00   0.000000e+00
     3216000   3.215999e-05   1.583083e-01   1.424025e+01   8.866347e+00  -3.471780e+05  -9.882292e+05  -4.940505e+05   8.996849e+13  -3.266353e+13   1.927585e+12   1.158109e+06   4.380007e-17   0.000000e+00   0.000000e+00
     3224000   3.223999e-05   1.606332e-01   1.423027e+01   8.828454e+00   6.029890e+05  -8.734190e+05  -4.712431e+05   7.927088e+13   5.306610e+13   2.884792e+12   1.161261e+06   4.376615e-17   0.000000e+00   0.000000e+00
     3232000   3.231999e-05   1.706791e-01   1.422560e+01   8.790476e+00   1.071256e+06  -6.772530e+04  -4.512471e+05   6.749677e+12   9.490459e+13   1.579270e+12   1.164388e+06   4.374484e-17   0.000000e+00   0.000000e+00
     3240000   3.239999e-05   1.812534e-01   1.422979e+01   8.752271e+00   7.435255e+05   7.786430e+05  -4.515771e+05  -6.887401e+13   6.531173e+13  -9.857869e+11   1.167492e+06   4.376112e-17   0.000000e+00   0.000000e+00
     3248000   3.247999e-05   1.856340e-01   1.423971e+01   8.713627e+00  -9.005073e+04   1.065982e+06  -4.751954e+05  -9.426305e+13  -9.176317e+12  -2.910616e+12   1.170571e+06   4.383587e-17   0.000000e+00   0.000000e+00
     3256000   3.255999e-05   1.821357e-01   1.424871e+01   8.674402e+00  -8.357743e+05   6.492214e+05  -5.073359e+05  -5.695988e+13  -7.541370e+13  -2.846201e+12   1.173626e+06   4.387631e-17   0.000000e+00   0.000000e+00
     3264000   3.263999e-05   1.742580e-01   1.425165e+01   8.634592e+00  -1.039360e+06  -1.532321e+05  -5.298753e+05   1.417653e+13  -9.320856e+13  -1.020754e+12   1.176655e+06   4.385701e-17   0.000000e+00   0.000000e+00
     3272000   3.271999e-05   1.676173e-01   1.424767e+01   8.594340e+00  -6.307485e+05  -8.422741e+05  -5.332213e+05   7.477821e+13  -5.687679e+13   1.221500e+12   1.179659e+06   4.377576e-17   0.000000e+00   0.000000e+00
     3280000   3.279999e-05   1.663526e-01   1.423985e+01   8.553803e+00   1.124843e+05  -1.056081e+06  -5.202591e+05   9.318184e+13   8.500347e+12   2.723293e+12   1.182636e+06   4.366954e-17   0.000000e+00   0.000000e+00
     3288000   3.287999e-05   1.712216e-01   1.423279e+01   8.513073e+00   7.840952e+05  -7.349169e+05  -5.007095e+05   6.478163e+13   6.703091e+13   2.887572e+12   1.185588e+06   4.356527e-17   0.000000e+00   0.000000e+00
     3296000   3.295999e-05   1.799382e-01   1.422998e+01   8.472149e+00   1.081379e+06  -8.438485e+04  -4.858598e+05   8.071110e+12   9.255427e+13   1.711206e+12   1.188512e+06   4.345945e-17   0.000000e+00   0.000000e+00
     3304000   3.303999e-05   1.889195e-01   1.423246e+01   8.430941e+00   9.201659e+05   5.817287e+05  -4.840888e+05  -4.949999e+13   7.824340e+13  -2.427008e+11   1.191409e+06   4.335780e-17   0.000000e+00   0.000000e+00
     3312000   3.311999e-05   1.951383e-01   1.423892e+01   8.389336e+00   4.186811e+05   1.002066e+06  -4.968601e+05  -8.545828e+13   3.472916e+13  -2.141424e+12   1.194278e+06   4.326942e-17   0.000000e+00   0.000000e+00
     3320000   3.319999e-05   1.971926e-01   1.424683e+01   8.347221e+00  -2.015537e+05   1.059161e+06  -5.202376e+05  -9.002196e+13  -1.863695e+13  -3.229072e+12   1.197118e+06   4.320940e-17   0.000000e+00   0.000000e+00
     3328000   3.327999e-05   1.953924e-01   1.425368e+01   8.304568e+00  -7.253677e+05   7.842326e+05  -5.464922e+05  -6.619329e+13  -6.336193e+13  -3.220702e+12   1.199930e+06   4.313020e-17   0.000000e+00   0.000000e+00
     3336000   3.335999e-05   1.911883e-01   1.425785e+01   8.261370e+00  -1.014649e+06   3.055516e+05  -5.688952e+05  -2.521307e+13  -8.773553e+13  -2.300408e+12   1.202712e+06   4.297926e-17   0.000000e+00   0.000000e+00
     3344000   3.343999e-05   1.864053e-01   1.425884e+01   8.217695e+00  -1.031295e+06  -2.210044e+05  -5.837244e+05   1.945841e+13  -8.880393e+13  -8.976034e+11   1.205465e+06   4.279859e-17   0.000000e+00   0.000000e+00
     3352000   3.351999e-05   1.825659e-01   1.425711e+01   8.173581e+00  -8.170344e+05  -6.665899e+05  -5.897720e+05   5.688756e+13  -7.039518e+13   6.166845e+11   1.208188e+06   4.260981e-17   0.000000e+00   0.000000e+00
     3360000   3.359999e-05   1.805874e-01   1.425363e+01   8.129097e+00  -4.570832e+05  -9.545690e+05  -5.883086e+05   8.072780e+13  -3.989846e+13   1.878929e+12   1.210881e+06   4.238382e-17   0.000000e+00   0.000000e+00
     3368000   3.367999e-05   1.807470e-01   1.424950e+01   8.084262e+00  -4.493935e+04  -1.063811e+06  -5.822163e+05   8.941185e+13  -5.367959e+12   2.768862e+12   1.213545e+06   4.214310e-17   0.000000e+00   0.000000e+00
     3376000   3.375999e-05   1.828204e-01   1.424563e+01   8.039100e+00   3.430168e+05  -1.016020e+06  -5.736983e+05   8.500128e+13   2.680529e+13   3.211825e+12   1.216177e+06   4.192084e-17   0.000000e+00   0.000000e+00
     3384000   3.383999e-05   1.863057e-01   1.424259e+01   7.993598e+00   6.600426e+05  -8.545450e+05  -5.652610e+05   7.126667e+13   5.277395e+13   3.295082e+12   1.218779e+06   4.168139e-17   0.000000e+00   0.000000e+00
     3392000   3.391999e-05   1.906295e-01   1.424064e+01   7.947768e+00   8.862035e+05  -6.283192e+05  -5.581743e+05   5.236605e+13   7.102051e+13   3.055444e+12   1.221352e+06   4.143530e-17   0.000000e+00   0.000000e+00
     3400000   3.399999e-05   1.952779e-01   1.423976e+01   7.901571e+00   1.023075e+06  -3.804735e+05  -5.535989e+05   3.190530e+13   8.178677e+13   2.613228e+12   1.223893e+06   4.117238e-17   0.000000e+00   0.000000e+00
     3408000   3.407999e-05   1.998673e-01   1.423980e+01   7.854981e+00   1.086017e+06  -1.425933e+05  -5.516322e+05   1.247029e+13   8.644361e+13   2.067220e+12   1.226403e+06   4.090422e-17   0.000000e+00   0.000000e+00
     3416000   3.415999e-05   2.041503e-01   1.424050e+01   7.807984e+00   1.095964e+06   6.564935e+04  -5.519956e+05  -4.373232e+12   8.675406e+13   1.498137e+12   1.228880e+06   4.061420e-17   0.000000e+00   0.000000e+00
     3424000   3.423999e-05   2.079931e-01   1.424161e+01   7.760526e+00   1.073842e+06   2.338041e+05  -5.552997e+05  -1.780443e+13   8.446626e+13   9.992508e+11   1.231324e+06   4.026218e-17   0.000000e+00   0.000000e+00
     3432000   3.431999e-05   2.113765e-01   1.424290e+01   7.712557e+00   1.038871e+06   3.601218e+05  -5.596049e+05  -2.775777e+13   8.117712e+13   5.777347e+11   1.233733e+06   3.992093e-17   0.000000e+00   0.000000e+00
     3440000   3.439999e-05   2.143026e-01   1.424420e+01   7.664094e+00   1.005376e+06   4.457552e+05  -5.643431e+05  -3.436591e+13   7.802654e+13   2.788685e+11   1.236108e+06   3.957756e-17   0.000000e+00   0.000000e+00
     3448000   3.447999e-05   2.168065e-01   1.424538e+01   7.615148e+00   9.828701e+05   4.935902e+05  -5.692875e+05  -3.791343e+13   7.576302e+13   1.056336e+11   1.238448e+06   3.922609e-17   0.000000e+00   0.000000e+00
     3456000   3.455999e-05   2.189046e-01   1.424638e+01   7.565733e+00   9.768772e+05   5.055152e+05  -5.741404e+05  -3.860671e+13   7.481154e+13   5.831381e+10   1.240755e+06   3.887741e-17   0.000000e+00   0.000000e+00
     3464000   3.463999e-05   2.205937e-01   1.424718e+01   7.515860e+00   9.887400e+05   4.820270e+05  -5.789311e+05  -3.652479e+13   7.525166e+13   1.551932e+11   1.243028e+06   3.852256e-17   0.000000e+00   0.000000e+00
     3472000   3.471999e-05   2.218428e-01   1.424779e+01   7.465529e+00   1.015921e+06   4.212388e+05  -5.840832e+05  -3.157616e+13   7.685322e+13   3.863157e+11   1.245267e+06   3.814611e-17   0.000000e+00   0.000000e+00
     3480000   3.479999e-05   2.226084e-01   1.424832e+01   7.414734e+00   1.051419e+06   3.205118e+05  -5.898974e+05  -2.362009e+13   7.907555e+13   7.491305e+11   1.247473e+06   3.777008e-17   0.000000e+00   0.000000e+00
     3488000   3.487999e-05   2.228331e-01   1.424889e+01   7.363470e+00   1.083641e+06   1.765372e+05  -5.967998e+05  -1.244606e+13   8.099560e+13   1.247503e+12   1.249645e+06   3.737497e-17   0.000000e+00   0.000000e+00
     3496000   3.495999e-05   2.225078e-01   1.424976e+01   7.311742e+00   1.095588e+06  -1.121211e+04  -6.054105e+05   1.914299e+12   8.134094e+13   1.848407e+12   1.251783e+06   3.698192e-17   0.000000e+00   0.000000e+00
     3504000   3.503999e-05   2.216820e-01   1.425120e+01   7.259574e+00   1.065619e+06  -2.379774e+05  -6.164864e+05   1.903552e+13   7.850297e+13   2.493757e+12   1.253887e+06   3.659016e-17   0.000000e+00   0.000000e+00
     3512000   3.511999e-05   2.205316e-01   1.425356e+01   7.206970e+00   9.689811e+05  -4.900678e+05  -6.311402e+05   3.784009e+13   7.067371e+13   3.116672e+12   1.255957e+06   3.617753e-17   0.000000e+00   0.000000e+00
     3520000   3.519999e-05   2.194259e-01   1.425719e+01   7.153932e+00   7.822326e+05  -7.401868e+05  -6.502154e+05   5.624744e+13   5.621341e+13   3.578486e+12   1.257992e+06   3.573190e-17   0.000000e+00   0.000000e+00
     3528000   3.527999e-05   2.189447e-01   1.426225e+01   7.100492e+00   4.931010e+05  -9.444331e+05  -6.726648e+05   7.102072e+13   3.436612e+13   3.718791e+12   1.259992e+06   3.529278e-17   0.000000e+00   0.000000e+00
     3536000   3.535999e-05   2.198859e-01   1.426869e+01   7.046679e+00   1.095755e+05  -1.045872e+06  -6.976248e+05   7.804959e+13   5.832764e+12   3.426808e+12   1.261957e+06   3.482809e-17   0.000000e+00   0.000000e+00
     3544000   3.543999e-05   2.230723e-01   1.427594e+01   6.992501e+00  -3.252948e+05  -9.853190e+05  -7.216204e+05   7.314926e+13  -2.606188e+13   2.527398e+12   1.263885e+06   3.435931e-17   0.000000e+00   0.000000e+00
     3552000   3.551999e-05   2.290897e-01   1.428285e+01   6.937937e+00  -7.285605e+05  -7.233816e+05  -7.403465e+05   5.370919e+13  -5.526501e+13   1.064229e+12   1.265778e+06   3.391201e-17   0.000000e+00   0.000000e+00
     3560000   3.559999e-05   2.379225e-01   1.428788e+01   6.883004e+00  -9.873011e+05  -2.671071e+05  -7.488587e+05   2.051452e+13  -7.361364e+13  -8.675689e+11   1.267635e+06   3.344208e-17   0.000000e+00   0.000000e+00
     3568000   3.567999e-05   2.484958e-01   1.428935e+01   6.827602e+00  -9.850655e+05   3.013410e+05  -7.418612e+05  -2.024204e+13  -7.296130e+13  -2.835976e+12   1.269456e+06   3.296720e-17   0.000000e+00   0.000000e+00
     3576000   3.575999e-05   2.585208e-01   1.428628e+01   6.771606e+00  -6.567982e+05   8.170057e+05  -7.191466e+05  -5.661785e+13  -4.907790e+13  -4.125350e+12   1.271241e+06   3.242710e-17   0.000000e+00   0.000000e+00
     3584000   3.583999e-05   2.650036e-01   1.427928e+01   6.714857e+00  -5.428867e+04   1.069338e+06  -6.885312e+05  -7.388171e+13  -6.235737e+12  -3.939251e+12   1.272991e+06   3.183313e-17   0.000000e+00   0.000000e+00
     3592000   3.591999e-05   2.655164e-01   1.427118e+01   6.657277e+00   6.181649e+05   8.946822e+05  -6.650477e+05  -6.105799e+13   4.076114e+13  -1.999221e+12   1.274705e+06   3.122786e-17   0.000000e+00   0.000000e+00
     3600000   3.599999e-05   2.599602e-01   1.426647e+01   6.598981e+00   1.048157e+06   2.967345e+05  -6.651852e+05  -1.918290e+13   7.009740e+13   9.633589e+11   1.276383e+06   3.066593e-17   0.000000e+00   0.000000e+00
     3608000   3.607999e-05   2.517949e-01   1.426924e+01   6.540241e+00   9.594233e+05  -4.761339e+05  -6.972464e+05   3.399739e+13   6.334394e+13   3.450560e+12   1.278026e+06   3.014907e-17   0.000000e+00   0.000000e+00
     3616000   3.615999e-05   2.473507e-01   1.428017e+01   6.481415e+00   3.191618e+05  -9.860982e+05  -7.504685e+05   6.850775e+13   1.911935e+13   3.945212e+12   1.279632e+06   2.960782e-17   0.000000e+00   0.000000e+00
     3624000   3.623999e-05   2.523734e-01   1.429440e+01   6.422662e+00  -5.304620e+05  -8.510976e+05  -7.973206e+05   5.896386e+13  -3.863576e+13   1.950254e+12   1.281202e+06   2.908885e-17   0.000000e+00   0.000000e+00
     3632000   3.631999e-05   2.670773e-01   1.430311e+01   6.363790e+00  -9.931616e+05  -7.435819e+04  -8.084000e+05   6.507933e+12  -6.950662e+13  -1.662303e+12   1.282735e+06   2.858996e-17   0.000000e+00   0.000000e+00
     3640000   3.639999e-05   2.836034e-01   1.429971e+01   6.304211e+00  -6.405313e+05   8.033584e+05  -7.704472e+05  -5.181373e+13  -4.542435e+13  -4.349929e+12   1.284233e+06   2.801415e-17   0.000000e+00   0.000000e+00
     3648000   3.647999e-05   2.904489e-01   1.428701e+01   6.243320e+00   3.199052e+05   1.019215e+06  -7.154545e+05  -6.553218e+13   1.832523e+13  -3.261067e+12   1.285696e+06   2.733561e-17   0.000000e+00   0.000000e+00
     3656000   3.655999e-05   2.829876e-01   1.427780e+01   6.181171e+00   1.038300e+06   2.906685e+05  -7.029458e+05  -1.744201e+13   6.494788e+13   1.028568e+12   1.287124e+06   2.670337e-17   0.000000e+00   0.000000e+00
     3664000   3.663999e-05   2.708968e-01   1.428412e+01   6.118705e+00   7.454958e+05  -7.286280e+05  -7.573713e+05   4.852995e+13   4.528745e+13   4.141876e+12   1.288516e+06   2.616813e-17   0.000000e+00   0.000000e+00
     3672000   3.671999e-05   2.714379e-01   1.430290e+01   6.056821e+00  -3.346841e+05  -9.256558e+05  -8.336183e+05   6.087829e+13  -2.454193e+13   2.758124e+12   1.289873e+06   2.558783e-17   0.000000e+00   0.000000e+00
     3680000   3.679999e-05   2.900649e-01   1.431507e+01   5.995373e+00  -9.715707e+05   2.188900e+04  -8.501487e+05   3.605891e+11  -6.495443e+13  -2.134171e+12   1.291194e+06   2.509187e-17   0.000000e+00   0.000000e+00
     3688000   3.687999e-05   3.094157e-01   1.430653e+01   5.932878e+00  -2.922493e+05   9.869616e+05  -7.816671e+05  -6.021482e+13  -2.152429e+13  -4.716866e+12   1.292481e+06   2.447279e-17   0.000000e+00   0.000000e+00
     3696000   3.695999e-05   3.079859e-01   1.429006e+01   5.868267e+00   8.687873e+05   6.276065e+05  -7.246150e+05  -3.728591e+13   5.091122e+13  -6.639915e+11   1.293734e+06   2.375256e-17   0.000000e+00   0.000000e+00
     3704000   3.703999e-05   2.920847e-01   1.429282e+01   5.802801e+00   8.283824e+05  -6.215010e+05  -7.774459e+05   3.982011e+13   4.775702e+13   4.201446e+12   1.294953e+06   2.320815e-17   0.000000e+00   0.000000e+00
     3712000   3.711999e-05   2.925179e-01   1.431574e+01   5.738579e+00  -4.331871e+05  -8.521512e+05  -8.753043e+05   5.367696e+13  -2.982579e+13   2.429041e+12   1.296137e+06   2.260812e-17   0.000000e+00   0.000000e+00
     3720000   3.719999e-05   3.174102e-01   1.432557e+01   5.675029e+00  -8.785456e+05   3.938289e+05  -8.694853e+05  -2.182739e+13  -5.654277e+13  -3.598323e+12   1.297285e+06   2.210709e-17   0.000000e+00   0.000000e+00
     3728000   3.727999e-05   3.321155e-01   1.430774e+01   5.609359e+00   3.375177e+05   9.910722e+05  -7.679209e+05  -5.720311e+13   1.681500e+13  -3.487152e+12   1.298401e+06   2.142803e-17   0.000000e+00   0.000000e+00
     3736000   3.735999e-05   3.166898e-01   1.429850e+01   5.541361e+00   1.024519e+06  -2.134477e+05  -7.703667e+05   1.430455e+13   5.701968e+13   3.180185e+12   1.299486e+06   2.085548e-17   0.000000e+00   0.000000e+00
     3744000   3.743999e-05   3.092892e-01   1.432180e+01   5.474611e+00  -1.924841e+05  -9.273710e+05  -8.912543e+05   5.597509e+13  -1.492443e+13   3.402498e+12   1.300539e+06   2.029591e-17   0.000000e+00   0.000000e+00
     3752000   3.751999e-05   3.362565e-01   1.433628e+01   5.409601e+00  -8.699616e+05   3.537070e+05  -9.011728e+05  -1.828701e+13  -5.413853e+13  -3.631895e+12   1.301558e+06   1.979086e-17   0.000000e+00   0.000000e+00
     3760000   3.759999e-05   3.515540e-01   1.431533e+01   5.341786e+00   4.919710e+05   9.213473e+05  -7.782712e+05  -5.045752e+13   2.445121e+13  -2.990097e+12   1.302545e+06   1.906016e-17   0.000000e+00   0.000000e+00
     3768000   3.767999e-05   3.314685e-01   1.431152e+01   5.271314e+00   8.649256e+05  -5.340516e+05  -8.159694e+05   3.195943e+13   4.493507e+13   4.429437e+12   1.303500e+06   1.852768e-17   0.000000e+00   0.000000e+00
     3776000   3.775999e-05   3.356050e-01   1.434175e+01   5.203689e+00  -6.559252e+05  -6.077285e+05  -9.497111e+05   3.606246e+13  -4.074055e+13   1.132240e+12   1.304424e+06   1.795611e-17   0.000000e+00   0.000000e+00
     3784000   3.783999e-05   3.689304e-01   1.433927e+01   5.136607e+00  -3.404963e+05   9.171787e+05  -8.641143e+05  -4.811411e+13  -2.284591e+13  -5.323091e+12   1.305315e+06   1.739567e-17   0.000000e+00   0.000000e+00
     3792000   3.791999e-05   3.610937e-01   1.431725e+01   5.064504e+00   1.032012e+06   1.422016e+05  -7.879240e+05  -5.654608e+12   5.207679e+13   1.957421e+12   1.306176e+06   1.670473e-17   0.000000e+00   0.000000e+00
     3800000   3.799999e-05   3.482596e-01   1.434315e+01   4.993579e+00  -1.869602e+05  -8.801688e+05  -9.479501e+05   4.936927e+13  -1.439196e+13   3.597964e+12   1.307004e+06   1.617566e-17   0.000000e+00   0.000000e+00
     3808000   3.807999e-05   3.838959e-01   1.435495e+01   4.925927e+00  -6.259731e+05   6.847624e+05  -9.217408e+05  -3.370278e+13  -3.758427e+13  -5.061080e+12   1.307803e+06   1.568755e-17   0.000000e+00   0.000000e+00
     3816000   3.815999e-05   3.845097e-01   1.432783e+01   4.852631e+00   9.782812e+05   3.518501e+05  -7.946878e+05  -1.614722e+13   4.690139e+13   8.571074e+11   1.308572e+06   1.501742e-17   0.000000e+00   0.000000e+00
     3824000   3.823999e-05   3.676443e-01   1.435273e+01   4.779640e+00  -1.236160e+05  -8.742830e+05  -9.667715e+05   4.728455e+13  -1.095222e+13   3.833903e+12   1.309312e+06   1.448017e-17   0.000000e+00   0.000000e+00
     3832000   3.831999e-05   4.063279e-01   1.436452e+01   4.710858e+00  -5.290121e+05   7.523304e+05  -9.329006e+05  -3.552382e+13  -3.159146e+13  -5.357018e+12   1.310022e+06   1.399552e-17   0.000000e+00   0.000000e+00
     3840000   3.839999e-05   4.011165e-01   1.433754e+01   4.635159e+00   1.022927e+06   9.428602e+04  -8.140528e+05  -2.437351e+12   4.670311e+13   2.319621e+12   1.310706e+06   1.342155e-17   0.000000e+00   0.000000e+00
     3848000   3.847999e-05   3.933196e-01   1.437194e+01   4.561880e+00  -4.787109e+05  -6.702904e+05  -1.020402e+06   3.569229e+13  -2.873987e+13   2.113601e+12   1.311363e+06   1.289506e-17   0.000000e+00   0.000000e+00
     3856000   3.855999e-05   4.347768e-01   1.436622e+01   4.491251e+00   9.714300e+03   9.708493e+05  -8.824263e+05  -4.434814e+13  -4.414810e+12  -5.368241e+12   1.311990e+06   1.235950e-17   0.000000e+00   0.000000e+00
     3864000   3.863999e-05   4.117271e-01   1.435468e+01   4.412411e+00   7.770088e+05  -5.662207e+05  -8.936161e+05   2.946276e+13   3.215313e+13   5.223449e+12   1.312592e+06   1.184350e-17   0.000000e+00   0.000000e+00
     3872000   3.871999e-05   4.348042e-01   1.439244e+01   4.341260e+00  -7.895980e+05   1.345259e+05  -1.040599e+06  -3.245580e+12  -4.281288e+13  -3.089826e+12   1.313167e+06   1.138606e-17   0.000000e+00   0.000000e+00
     3880000   3.879999e-05   4.521734e-01   1.436109e+01   4.264768e+00   8.937161e+05   5.068068e+05  -8.187001e+05  -2.075752e+13   3.641963e+13  -1.358089e+11   1.313717e+06   1.080681e-17   0.000000e+00   0.000000e+00
     3888000   3.887999e-05   4.349452e-01   1.439243e+01   4.187341e+00  -3.068829e+05  -7.191287e+05  -1.056365e+06   3.574765e+13  -1.975221e+13   3.045599e+12   1.314241e+06   1.032329e-17   0.000000e+00   0.000000e+00
     3896000   3.895999e-05   4.815214e-01   1.438765e+01   4.115117e+00   1.428874e+05   9.543865e+05  -8.928995e+05  -3.961717e+13   1.011658e+12  -5.276367e+12   1.314740e+06   9.844890e-18   0.000000e+00   0.000000e+00
     3904000   3.903999e-05   4.541548e-01   1.438559e+01   4.032716e+00   4.795274e+05  -7.417905e+05  -9.744703e+05   3.539492e+13   1.536675e+13   5.704341e+12   1.315216e+06   9.378009e-18   0.000000e+00   0.000000e+00
     3912000   3.911999e-05   4.973226e-01   1.441292e+01   3.961353e+00  -4.655063e+05   7.006590e+05  -1.011611e+06  -2.681763e+13  -2.631254e+13  -5.898325e+12   1.315665e+06   8.920886e-18   0.000000e+00   0.000000e+00
     3920000   3.919999e-05   4.850196e-01   1.438698e+01   3.877667e+00   8.999492e+05  -3.418060e+05  -8.974193e+05   1.733564e+13   3.237011e+13   5.040187e+12   1.316093e+06   8.478794e-18   0.000000e+00   0.000000e+00
     3928000   3.927999e-05   5.114071e-01   1.443067e+01   3.804417e+00  -6.711566e+05   2.985757e+05  -1.092506e+06  -8.663452e+12  -3.482241e+13  -4.206516e+12   1.316499e+06   8.061587e-18   0.000000e+00   0.000000e+00
     3936000   3.935999e-05   5.175845e-01   1.439658e+01   3.721492e+00   1.000203e+06   1.245814e+04  -8.565173e+05   2.482772e+12   3.488355e+13   3.392244e+12   1.316884e+06   7.628716e-18   0.000000e+00   0.000000e+00
     3944000   3.943999e-05   5.310629e-01   1.444480e+01   3.645894e+00  -6.652737e+05   5.244167e+04  -1.135696e+06   1.914346e+12  -3.407274e+13  -2.705051e+12   1.317249e+06   7.245895e-18   0.000000e+00   0.000000e+00
     3952000   3.951999e-05   5.482158e-01   1.440991e+01   3.563312e+00   9.959588e+05   1.683930e+05  -8.460280e+05  -3.464851e+12   3.293599e+13   2.463646e+12   1.317594e+06   6.822366e-18   0.000000e+00   0.000000e+00
     3960000   3.959999e-05   5.580242e-01   1.445945e+01   3.486341e+00  -6.296053e+05   1.666324e+04  -1.157683e+06   3.551966e+12  -3.199166e+13  -2.401209e+12   1.317919e+06   6.448157e-18   0.000000e+00   0.000000e+00
     3968000   3.967999e-05   5.761676e-01   1.442428e+01   3.402580e+00   9.990803e+05   1.164468e+05  -8.520560e+05  -1.126491e+12   3.119290e+13   2.930593e+12   1.318226e+06   6.085877e-18   0.000000e+00   0.000000e+00
     3976000   3.975999e-05   5.929463e-01   1.447545e+01   3.326218e+00  -5.922457e+05   1.850398e+05  -1.163394e+06  -2.255361e+12  -3.015485e+13  -3.656022e+12   1.318515e+06   5.747284e-18   0.000000e+00   0.000000e+00
     3984000   3.983999e-05   6.022880e-01   1.444120e+01   3.239281e+00   9.756876e+05  -1.202565e+05  -8.790755e+05   7.769955e+12   2.816659e+13   4.760760e+12   1.318788e+06   5.431294e-18   0.000000e+00   0.000000e+00
     3992000   3.991999e-05   6.364369e-01   1.449039e+01   3.165960e+00  -4.505688e+05   5.210800e+05  -1.124873e+06  -1.348236e+13  -2.456871e+13  -5.988003e+12   1.319044e+06   5.091516e-18   0.000000e+00   0.000000e+00
     4000000   3.999999e-05   6.286838e-01   1.446574e+01   3.074376e+00   7.664897e+05  -4.636521e+05  -9.685212e+05   1.972908e+13   1.843702e+13   6.779427e+12   1.319285e+06   4.807277e-18   0.000000e+00   0.000000e+00
     4008000   4.007999e-05   6.849639e-01   1.449883e+01   3.004295e+00  -3.259198e+04   8.574978e+05  -1.002369e+06  -2.403162e+13  -9.466456e+12  -7.324082e+12   1.319511e+06   4.471743e-18   0.000000e+00   0.000000e+00
     4016000   4.015999e-05   6.631330e-01   1.450260e+01   2.910564e+00   2.410196e+05  -6.314756e+05  -1.133497e+06   2.522232e+13  -1.408338e+12   6.141739e+12   1.319723e+06   4.194498e-18   0.000000e+00   0.000000e+00
     4024000   4.023999e-05   7.269323e-01   1.450008e+01   2.837825e+00   6.526427e+05   7.862602e+05  -8.354900e+05  -2.084808e+13   1.321066e+13  -3.860696e+12   1.319921e+06   3.874201e-18   0.000000e+00   0.000000e+00
     4032000   4.031999e-05   7.197578e-01   1.454456e+01   2.751415e+00  -3.345577e+05  -1.936853e+05  -1.262234e+06   1.173027e+13  -2.128686e+13   1.525816e+11   1.320105e+06   3.668391e-18   0.000000e+00   0.000000e+00
     4040000   4.039999e-05   7.535200e-01   1.451245e+01   2.665513e+00   1.032636e+06   5.517671e+04  -8.208275e+05   2.331669e+12   2.311526e+13   4.480346e+12   1.320280e+06   3.477284e-18   0.000000e+00   0.000000e+00
     4048000   4.047999e-05   7.977335e-01   1.456572e+01   2.595568e+00  -1.758206e+05   6.931401e+05  -1.110050e+06  -1.447903e+13  -1.579672e+13  -7.575149e+12   1.320442e+06   3.209315e-18   0.000000e+00   0.000000e+00
     4056000   4.055999e-05   7.873171e-01   1.456108e+01   2.497492e+00   4.389260e+05  -5.461804e+05  -1.119375e+06   2.094803e+13   1.487066e+12   7.484050e+12   1.320594e+06   3.088752e-18   0.000000e+00   0.000000e+00
     4064000   4.063999e-05   8.585591e-01   1.456132e+01   2.428804e+00   7.982009e+05   7.334408e+05  -7.545151e+05  -1.583606e+13   1.394094e+13  -3.207433e+12   1.320740e+06   2.830738e-18   0.000000e+00   0.000000e+00
     4072000   4.071999e-05   8.689570e-01   1.461738e+01   2.347177e+00  -2.604658e+05   1.629618e+05  -1.284643e+06   2.772963e+12  -2.033954e+13  -3.145732e+12   1.320874e+06   2.681242e-18   0.000000e+00   0.000000e+00
     4080000   4.079999e-05   8.894672e-01   1.459192e+01   2.252973e+00   9.159428e+05  -3.023146e+05  -9.026080e+05   1.279964e+13   1.359589e+13   8.430350e+12   1.321002e+06   2.610057e-18   0.000000e+00   0.000000e+00
     4088000   4.087999e-05   9.641398e-01   1.462235e+01   2.193667e+00   5.069877e+05   9.109929e+05  -8.114308e+05  -1.764995e+13   3.213983e+12  -7.424122e+12   1.321122e+06   2.344464e-18   0.000000e+00   0.000000e+00
     4096000   4.095999e-05   9.665206e-01   1.466723e+01   2.103769e+00  -4.588384e+04  -7.290893e+04  -1.318423e+06   9.770401e+12  -1.643382e+13   5.659870e+11   1.321235e+06   2.275698e-18   0.000000e+00   0.000000e+00
     4104000   4.103999e-05   1.009797e+00   1.464196e+01   2.016706e+00   1.083140e+06  -9.320187e+04  -7.510496e+05   6.905672e+12   1.575650e+13   7.999038e+12   1.321345e+06   2.239325e-18   0.000000e+00   0.000000e+00
     4112000   4.111999e-05   1.084343e+00   1.468509e+01   1.964191e+00   4.547304e+05   9.403168e+05  -8.094761e+05  -1.561165e+13  -2.550899e+11  -9.070334e+12   1.321449e+06   2.028850e-18   0.000000e+00   0.000000e+00
     4120000   4.119999e-05   1.092285e+00   1.472803e+01   1.872957e+00   1.220313e+05  -7.064935e+04  -1.314002e+06   1.045910e+13  -1.451658e+13   1.749383e+12   1.321547e+06   2.011238e-18   0.000000e+00   0.000000e+00
     4128000   4.127999e-05   1.145768e+00   1.470652e+01   1.790018e+00   1.145070e+06  -5.020845e+04  -6.580577e+05   5.714703e+12   1.460326e+13   8.824896e+12   1.321645e+06   2.015343e-18   0.000000e+00   0.000000e+00
     4136000   4.135999e-05   1.225824e+00   1.475072e+01   1.746379e+00   5.701960e+05   9.652012e+05  -7.001831e+05  -1.414583e+13   1.317628e+12  -9.707577e+12   1.321739e+06   1.843099e-18   0.000000e+00   0.000000e+00
     4144000   4.143999e-05   1.244325e+00   1.480131e+01   1.660292e+00   2.226593e+05   6.674459e+04  -1.301229e+06   8.713178e+12  -1.498620e+13   7.199442e+11   1.321828e+06   1.874117e-18   0.000000e+00   0.000000e+00
     4152000   4.151999e-05   1.301476e+00   1.478457e+01   1.578415e+00   1.174149e+06  -9.602458e+04  -5.996928e+05   6.583296e+12   1.230919e+13   1.091333e+13   1.321922e+06   1.954936e-18   0.000000e+00   0.000000e+00
     4160000   4.159999e-05   1.388967e+00   1.482411e+01   1.545811e+00   7.276460e+05   9.767236e+05  -5.140654e+05  -1.324176e+13   4.675812e+12  -9.865051e+12   1.322014e+06   1.834205e-18   0.000000e+00   0.000000e+00
     4168000   4.167999e-05   1.418802e+00   1.488449e+01   1.469775e+00   3.094214e+05   2.363333e+05  -1.263472e+06   6.891839e+12  -1.595375e+13  -1.298769e+12   1.322103e+06   1.891600e-18   0.000000e+00   0.000000e+00
     4176000   4.175999e-05   1.479024e+00   1.487363e+01   1.389227e+00   1.198702e+06  -1.350832e+05  -5.413665e+05   7.128635e+12   1.012239e+13   1.325250e+13   1.322200e+06   2.048891e-18   0.000000e+00   0.000000e+00
     4184000   4.183999e-05   1.571301e+00   1.490911e+01   1.367924e+00   8.214951e+05   9.817835e+05  -3.312387e+05  -1.270920e+13   7.124612e+12  -1.041222e+13   1.322298e+06   1.998046e-18   0.000000e+00   0.000000e+00
     4192000   4.191999e-05   1.609302e+00   1.497527e+01   1.301398e+00   4.124296e+05   3.260769e+05  -1.213387e+06   6.830589e+12  -1.681701e+13  -2.200324e+12   1.322396e+06   2.083126e-18   0.000000e+00   0.000000e+00
     4200000   4.199999e-05   1.676704e+00   1.496818e+01   1.226913e+00   1.255884e+06  -1.106193e+05  -3.994165e+05   5.699488e+12   1.048793e+13   1.500702e+13   1.322503e+06   2.291528e-18   0.000000e+00   0.000000e+00
     4208000   4.207999e-05   1.768697e+00   1.500769e+01   1.217278e+00   7.792199e+05   1.038069e+06  -2.540481e+05  -1.243739e+13   6.052873e+12  -1.343007e+13   1.322615e+06   2.316859e-18   0.000000e+00   0.000000e+00
     4216000   4.215999e-05   1.809672e+00   1.507179e+01   1.151571e+00   5.705085e+05   2.227944e+05  -1.172390e+06   9.735688e+12  -1.731174e+13   1.444373e+12   1.322730e+06   2.472296e-18   0.000000e+00   0.000000e+00
     4224000   4.223999e-05   1.890733e+00   1.506380e+01   1.093753e+00   1.318762e+06   5.401257e+04  -8.887955e+04   3.040741e+11   1.550061e+13   1.388282e+13   1.322857e+06   2.700570e-18   0.000000e+00   0.000000e+00
     4232000   4.231999e-05   1.972789e+00   1.512043e+01   1.091860e+00   5.875292e+05   1.099905e+06  -4.419518e+05  -9.371246e+12  -2.561604e+12  -1.884345e+13   1.322990e+06   2.803169e-18   0.000000e+00   0.000000e+00
     4240000   4.239999e-05   2.018827e+00   1.516607e+01   1.016481e+00   8.961064e+05  -1.006192e+05  -9.682694e+05   1.304914e+13  -1.212785e+13   1.333179e+13   1.323131e+06   3.088468e-18   0.000000e+00   0.000000e+00
     4248000   4.247999e-05   2.115201e+00   1.516508e+01   9.950192e-01   1.170912e+06   5.631331e+05   2.508684e+05  -1.009579e+13   2.066075e+13   7.646075e+11   1.323287e+06   3.303078e-18   0.000000e+00   0.000000e+00
     4256000   4.255999e-05   2.173572e+00   1.524188e+01   9.750296e-01   4.894889e+05   7.600140e+05  -9.665930e+05   3.436153e+12  -1.921281e+13  -1.337237e+13   1.323451e+06   3.493507e-18   0.000000e+00   0.000000e+00
     4264000   4.263999e-05   2.244635e+00   1.524763e+01   9.081015e-01   1.300841e+06  -1.785215e+05  -1.671544e+05   4.287025e+12   1.022176e+13   2.240854e+13   1.323631e+06   3.901788e-18   0.000000e+00   0.000000e+00
     4272000   4.271999e-05   2.330335e+00   1.529175e+01   9.210455e-01   6.158269e+05   1.153253e+06  -2.080377e+05  -1.037822e+13   1.289314e+12  -2.360603e+13   1.323826e+06   4.162782e-18   0.000000e+00   0.000000e+00
     4280000   4.279999e-05   2.381558e+00   1.533883e+01   8.538145e-01   1.032514e+06  -1.823837e+05  -8.085299e+05   1.355535e+13  -1.208035e+13   2.002653e+13   1.324035e+06   4.564662e-18   0.000000e+00   0.000000e+00
     4288000   4.287999e-05   2.477119e+00   1.534686e+01   8.551332e-01   9.212218e+05   8.865052e+05   3.451614e+05  -1.471435e+13   2.024183e+13  -1.269387e+13   1.324265e+06   4.920154e-18   0.000000e+00   0.000000e+00
