     timestep     time              x             y              z              vx             vy             vz             ax             ay             az         v_magnitude      ELoss        Electronic      Nuclear
           0   0.000000e+00   1.000000e-01   9.733640e+00   1.729343e+01  -1.503485e+05  -2.483180e+04   1.234067e+05   0.000000e+00   0.000000e+00   0.000000e+00   1.960880e+05   0.000000e+00   0.000000e+00   0.000000e+00
        8000   7.999000e-08   9.909305e-02   9.731749e+00   1.730398e+01   1.252944e+05  -6.435049e+04   1.386186e+05   1.112689e+13   2.543936e+13   1.808134e+12   1.976228e+05   1.077405e-19   0.000000e+00   0.000000e+00
       16000   1.599900e-07   9.930721e-02   9.732495e+00   1.731464e+01  -1.000390e+05   1.124583e+05   1.305077e+05  -2.241571e+13  -1.727883e+13  -2.231584e+12   1.992158e+05   1.139761e-19   0.000000e+00   0.000000e+00
       24000   2.399900e-07   9.721201e-02   9.731412e+00   1.732505e+01   2.347642e+04  -1.534503e+05   1.274625e+05   2.824568e+13   6.039690e+12   2.134534e+12   2.008602e+05   1.205879e-19   0.000000e+00   0.000000e+00
       32000   3.199900e-07   9.807164e-02   9.731003e+00   1.733565e+01   1.787846e+04   1.460665e+05   1.391920e+05  -2.902667e+13   5.259704e+12  -1.728422e+12   2.025574e+05   1.276555e-19   0.000000e+00   0.000000e+00
       40000   3.999900e-07   9.587430e-02   9.731108e+00   1.734605e+01  -8.470831e+04  -1.418913e+05   1.201398e+05   2.625712e+13  -1.477790e+13   1.135614e+12   2.043091e+05   1.352145e-19   0.000000e+00   0.000000e+00
       48000   4.799900e-07   9.647014e-02   9.729696e+00   1.735655e+01   1.037898e+05   1.066758e+05   1.425910e+05  -2.163719e+13   2.186193e+13  -5.396824e+11   2.061170e+05   1.432629e-19   0.000000e+00   0.000000e+00
       56000   5.599900e-07   9.475354e-02   9.730559e+00   1.736696e+01  -1.453998e+05  -9.103380e+04   1.175951e+05   1.661610e+13  -2.663724e+13   8.041958e+09   2.079828e+05   1.519154e-19   0.000000e+00   0.000000e+00
       64000   6.399900e-07   9.483370e-02   9.728644e+00   1.737735e+01   1.431942e+05   5.722978e+04   1.424137e+05  -1.217625e+13   2.962882e+13   4.085367e+11   2.099083e+05   1.611242e-19   0.000000e+00   0.000000e+00
       72000   7.199900e-07   9.358907e-02   9.729825e+00   1.738775e+01  -1.691295e+05  -5.099831e+04   1.170210e+05   8.938930e+12  -3.144559e+13  -6.934040e+11   2.118951e+05   1.710546e-19   0.000000e+00   0.000000e+00
       80000   7.999900e-07   9.333641e-02   9.727732e+00   1.739806e+01   1.573322e+05   3.157275e+04   1.415002e+05  -7.230424e+12   3.256762e+13   8.513425e+11   2.139452e+05   1.816289e-19   0.000000e+00   0.000000e+00
       88000   8.799900e-07   9.225802e-02   9.729007e+00   1.740844e+01  -1.774130e+05  -4.157819e+04   1.160822e+05   7.126024e+12  -3.323909e+13  -9.149330e+11   2.160537e+05   1.923452e-19   0.000000e+00   0.000000e+00
       96000   9.599900e-07   9.197845e-02   9.726853e+00   1.741871e+01   1.606525e+05   4.028017e+04   1.420997e+05  -9.034655e+12   3.352227e+13   7.967412e+11   2.182293e+05   2.046463e-19   0.000000e+00   0.000000e+00
      104000   1.039990e-06   9.071442e-02   9.728122e+00   1.742902e+01  -1.747692e+05  -7.079635e+04   1.142509e+05   1.297150e+13  -3.301391e+13  -5.047057e+11   2.204760e+05   2.179626e-19   0.000000e+00   0.000000e+00
      112000   1.119990e-06   9.083176e-02   9.726070e+00   1.743924e+01   1.465990e+05   8.897211e+04   1.422344e+05  -1.875422e+13   3.100140e+13   2.965870e+10   2.227957e+05   2.321904e-19   0.000000e+00   0.000000e+00
      120000   1.199990e-06   8.901670e-02   9.727090e+00   1.744943e+01  -1.405711e+05  -1.347944e+05   1.130537e+05   2.583008e+13  -2.650825e+13   6.324623e+11   2.251908e+05   2.475941e-19   0.000000e+00   0.000000e+00
      128000   1.279990e-06   8.980609e-02   9.725544e+00   1.745965e+01   8.290075e+04   1.593569e+05   1.398696e+05  -3.294749e+13   1.850264e+13  -1.450293e+12   2.276635e+05   2.640881e-19   0.000000e+00   0.000000e+00
      136000   1.359990e-06   8.736268e-02   9.725736e+00   1.746969e+01  -3.918749e+04  -1.946827e+05   1.164581e+05   3.803936e+13  -6.373438e+12   2.273752e+12   2.302162e+05   2.819022e-19   0.000000e+00   0.000000e+00
      144000   1.439990e-06   8.856863e-02   9.725394e+00   1.747991e+01  -5.535254e+04   1.846715e+05   1.305840e+05  -3.825321e+13  -9.291260e+12  -2.955933e+12   2.328511e+05   3.010633e-19   0.000000e+00   0.000000e+00
      152000   1.519990e-06   8.621197e-02   9.724112e+00   1.748981e+01   1.204016e+05  -1.571916e+05   1.276241e+05   3.072104e+13   2.595072e+13   3.107884e+12   2.355709e+05   3.216836e-19   0.000000e+00   0.000000e+00
      160000   1.599990e-06   8.663171e-02   9.725272e+00   1.749995e+01  -1.986585e+05   6.433767e+04   1.149759e+05  -1.407294e+13  -3.866330e+13  -2.532791e+12   2.383778e+05   3.440603e-19   0.000000e+00   0.000000e+00
      168000   1.679990e-06   8.583147e-02   9.722924e+00   1.750985e+01   1.921005e+05   4.019279e+04   1.403268e+05  -9.300673e+12   4.102310e+13   1.108391e+12   2.412668e+05   3.672410e-19   0.000000e+00   0.000000e+00
      176000   1.759990e-06   8.414347e-02   9.724157e+00   1.751979e+01  -1.450943e+05  -1.642522e+05   1.078300e+05   3.252327e+13  -2.816441e+13   1.033064e+12   2.442508e+05   3.936928e-19   0.000000e+00   0.000000e+00
      184000   1.839990e-06   8.528395e-02   9.723053e+00   1.752978e+01  -6.033425e+03   2.087336e+05   1.325417e+05  -4.389899e+13   7.246623e+11  -2.993446e+12   2.473326e+05   4.221179e-19   0.000000e+00   0.000000e+00
      192000   1.919990e-06   8.279859e-02   9.721933e+00   1.753946e+01   1.397846e+05  -1.653882e+05   1.259562e+05   3.296825e+13   3.042588e+13   3.524080e+12   2.505153e+05   4.528307e-19   0.000000e+00   0.000000e+00
      200000   1.999990e-06   8.290529e-02   9.723311e+00   1.754937e+01  -2.301829e+05  -4.141715e+03   1.068365e+05  -1.696124e+11  -4.599096e+13  -1.950021e+12   2.538018e+05   4.863505e-19   0.000000e+00   0.000000e+00
      208000   2.079990e-06   8.308294e-02   9.721132e+00   1.755908e+01   1.357867e+05   1.690272e+05   1.383513e+05  -3.614696e+13   3.014817e+13  -1.195631e+12   2.571951e+05   5.225276e-19   0.000000e+00   0.000000e+00
      216000   2.159990e-06   8.051721e-02   9.721148e+00   1.756864e+01   4.929831e+04  -2.287183e+05   1.149839e+05   4.656421e+13   1.176042e+13   3.630805e+12   2.606985e+05   5.617480e-19   0.000000e+00   0.000000e+00
      224000   2.239990e-06   8.128546e-02   9.722087e+00   1.757839e+01  -2.313849e+05   6.880725e+04   1.076521e+05  -1.539192e+13  -4.671153e+13  -3.001206e+12   2.643149e+05   6.043669e-19   0.000000e+00   0.000000e+00
      232000   2.319990e-06   8.106808e-02   9.719780e+00   1.758789e+01   1.678395e+05   1.573348e+05   1.375692e+05  -3.406167e+13   3.715479e+13  -7.518637e+11   2.680478e+05   6.505781e-19   0.000000e+00   0.000000e+00
      240000   2.399990e-06   7.854706e-02   9.719887e+00   1.759726e+01   6.361822e+04  -2.389152e+05   1.131467e+05   4.923777e+13   1.485203e+13   3.911369e+12   2.719006e+05   7.007623e-19   0.000000e+00   0.000000e+00
      248000   2.479990e-06   7.911168e-02   9.720995e+00   1.760686e+01  -2.557635e+05   1.916230e+04   1.015931e+05  -5.071744e+12  -5.240330e+13  -2.610541e+12   2.758683e+05   7.534688e-19   0.000000e+00   0.000000e+00
      256000   2.559990e-06   7.943913e-02   9.718926e+00   1.761624e+01   9.598711e+04   2.262542e+05   1.340698e+05  -4.904064e+13   2.239408e+13  -2.464083e+12   2.799628e+05   8.133983e-19   0.000000e+00   0.000000e+00
      264000   2.639990e-06   7.693359e-02   9.718082e+00   1.762540e+01   1.918841e+05  -1.700192e+05   1.226333e+05   3.508283e+13   4.246968e+13   4.234941e+12   2.841918e+05   8.784068e-19   0.000000e+00   0.000000e+00
      272000   2.719990e-06   7.628618e-02   9.719586e+00   1.763471e+01  -2.129011e+05  -1.708273e+05   9.358074e+04   3.547140e+13  -4.408290e+13   5.701505e+11   2.885588e+05   9.499450e-19   0.000000e+00   0.000000e+00
      280000   2.799990e-06   7.750701e-02   9.718881e+00   1.764397e+01  -1.469622e+05   2.264890e+05   1.139900e+05  -4.956087e+13  -2.963765e+13  -4.714490e+12   2.930680e+05   1.027316e-18   0.000000e+00   0.000000e+00
      288000   2.879990e-06   7.638398e-02   9.716707e+00   1.765291e+01   2.377061e+05   1.181635e+05   1.348050e+05  -2.648722e+13   5.308780e+13   4.327280e+11   2.977234e+05   1.111748e-18   0.000000e+00   0.000000e+00
      296000   2.959990e-06   7.402621e-02   9.716904e+00   1.766179e+01   1.146244e+05  -2.578216e+05   1.091474e+05   5.461661e+13   2.618590e+13   4.835826e+12   3.025291e+05   1.204017e-18   0.000000e+00   0.000000e+00
      304000   3.039990e-06   7.395444e-02   9.718255e+00   1.767077e+01  -2.591733e+05  -1.405703e+05   8.728570e+04   2.948269e+13  -5.481669e+13  -2.948123e+11   3.074892e+05   1.305176e-18   0.000000e+00   0.000000e+00
      312000   3.119990e-06   7.508888e-02   9.717481e+00   1.767964e+01  -1.731295e+05   2.368858e+05   1.078661e+05  -5.247023e+13  -3.583696e+13  -5.138221e+12   3.126080e+05   1.415022e-18   0.000000e+00   0.000000e+00
      320000   3.199990e-06   7.434188e-02   9.715370e+00   1.768823e+01   2.070801e+05   2.024058e+05   1.311633e+05  -4.516840e+13   4.713987e+13  -1.107544e+12   3.178900e+05   1.535171e-18   0.000000e+00   0.000000e+00
      328000   3.279990e-06   7.205012e-02   9.714831e+00   1.769667e+01   2.478208e+05  -1.717813e+05   1.167242e+05   3.657723e+13   5.578325e+13   4.820337e+12   3.233397e+05   1.666236e-18   0.000000e+00   0.000000e+00
      336000   3.359990e-06   7.086733e-02   9.716051e+00   1.770511e+01  -9.823952e+04  -3.022873e+05   8.479515e+04   6.538705e+13  -2.036609e+13   3.705665e+12   3.289663e+05   1.813833e-18   0.000000e+00   0.000000e+00
      344000   3.439990e-06   7.157310e-02   9.716716e+00   1.771352e+01  -3.247083e+05  -1.765804e+04   7.954975e+04   2.968703e+12  -7.017357e+13  -2.837886e+12   3.347768e+05   1.973202e-18   0.000000e+00   0.000000e+00
      352000   3.519990e-06   7.238791e-02   9.715554e+00   1.772172e+01  -1.475042e+05   2.891612e+05   1.037068e+05  -6.486706e+13  -3.077737e+13  -5.945979e+12   3.407739e+05   2.147619e-18   0.000000e+00   0.000000e+00
      360000   3.599990e-06   7.168537e-02   9.713656e+00   1.772964e+01   1.963423e+05   2.573954e+05   1.248211e+05  -5.808130e+13   4.554690e+13  -2.124816e+12   3.469625e+05   2.338770e-18   0.000000e+00   0.000000e+00
      368000   3.679990e-06   6.974902e-02   9.712727e+00   1.773738e+01   3.287594e+05  -5.154397e+04   1.188068e+05   1.047679e+13   7.484387e+13   3.961689e+12   3.533477e+05   2.547801e-18   0.000000e+00   0.000000e+00
      376000   3.759990e-06   6.801929e-02   9.713238e+00   1.774505e+01   1.422386e+05  -3.174654e+05   9.239438e+04   6.994216e+13   3.297121e+13   6.265820e+12   3.599344e+05   2.778099e-18   0.000000e+00   0.000000e+00
      384000   3.839990e-06   6.749445e-02   9.714318e+00   1.775267e+01  -1.720348e+05  -3.165206e+05   6.861439e+04   7.003140e+13  -3.755830e+13   3.251762e+12   3.667276e+05   3.031225e-18   0.000000e+00   0.000000e+00
      392000   3.919990e-06   6.803948e-02   9.714832e+00   1.776019e+01  -3.599806e+05  -7.767294e+04   6.369344e+04   1.662983e+13  -7.978129e+13  -2.260286e+12   3.737325e+05   3.307942e-18   0.000000e+00   0.000000e+00
      400000   3.999990e-06   6.880939e-02   9.714287e+00   1.776750e+01  -3.084733e+05   2.096905e+05   7.746115e+04  -4.807516e+13  -6.806330e+13  -6.297897e+12   3.809543e+05   3.611169e-18   0.000000e+00   0.000000e+00
      408000   4.079990e-06   6.901701e-02   9.712960e+00   1.777457e+01  -7.800568e+04   3.676121e+05   9.813027e+04  -8.392481e+13  -1.585403e+13  -6.573922e+12   3.883981e+05   3.944188e-18   0.000000e+00   0.000000e+00
      416000   4.159990e-06   6.837745e-02   9.711498e+00   1.778140e+01   1.866683e+05   3.306539e+05   1.126668e+05  -7.580166e+13   4.418599e+13  -3.403006e+12   3.960693e+05   4.309418e-18   0.000000e+00   0.000000e+00
      424000   4.239990e-06   6.709336e-02   9.710455e+00   1.778801e+01   3.598288e+05   1.437916e+05   1.141986e+05  -3.353891e+13   8.350674e+13   1.240784e+12   4.039730e+05   4.709844e-18   0.000000e+00   0.000000e+00
      432000   4.319990e-06   6.559385e-02   9.710064e+00   1.779444e+01   3.872529e+05  -9.597856e+04   1.032550e+05   2.103932e+13   8.966241e+13   5.261035e+12   4.121144e+05   5.149656e-18   0.000000e+00   0.000000e+00
      440000   4.399990e-06   6.426959e-02   9.710256e+00   1.780070e+01   2.829842e+05  -2.990082e+05   8.562686e+04   6.745417e+13   6.573841e+13   7.674693e+12   4.204972e+05   5.626417e-18   0.000000e+00   0.000000e+00
      448000   4.479990e-06   6.333964e-02   9.710790e+00   1.780683e+01   1.002258e+05  -4.122171e+05   6.463983e+04   9.364314e+13   2.374256e+13   7.666347e+12   4.291229e+05   6.162105e-18   0.000000e+00   0.000000e+00
      456000   4.559990e-06   6.286981e-02   9.711401e+00   1.781275e+01  -9.896411e+04  -4.241017e+05   4.685409e+04   9.669593e+13  -2.214785e+13   5.874376e+12   4.380085e+05   6.750533e-18   0.000000e+00   0.000000e+00
      464000   4.639990e-06   6.277000e-02   9.711894e+00   1.781843e+01  -2.697040e+05  -3.549942e+05   3.449550e+04   8.109643e+13  -6.160763e+13   3.058191e+12   4.471589e+05   7.396274e-18   0.000000e+00   0.000000e+00
      472000   4.719990e-06   6.290307e-02   9.712176e+00   1.782385e+01  -3.896879e+05  -2.363006e+05   2.774714e+04   5.395279e+13  -8.944480e+13  -7.197637e+10   4.565791e+05   8.104710e-18   0.000000e+00   0.000000e+00
      480000   4.799990e-06   6.314058e-02   9.712232e+00   1.782900e+01  -4.552058e+05  -9.769661e+04   2.557933e+04   2.205812e+13  -1.047376e+14  -3.005208e+12   4.662738e+05   8.881926e-18   0.000000e+00   0.000000e+00
      488000   4.879990e-06   6.338897e-02   9.712098e+00   1.783385e+01  -4.739081e+05   3.898938e+04   2.650370e+04  -9.543450e+12  -1.091994e+14  -5.457652e+12   4.762474e+05   9.734532e-18   0.000000e+00   0.000000e+00
      496000   4.959990e-06   6.359394e-02   9.711830e+00   1.783838e+01  -4.582089e+05   1.608896e+05   2.907626e+04  -3.784419e+13  -1.056675e+14  -7.333199e+12   4.865042e+05   1.066959e-17   0.000000e+00   0.000000e+00
      504000   5.039990e-06   6.373336e-02   9.711483e+00   1.784260e+01  -4.208232e+05   2.625480e+05   3.214626e+04  -6.153930e+13  -9.707140e+13  -8.660690e+12   4.970483e+05   1.169464e-17   0.000000e+00   0.000000e+00
      512000   5.119990e-06   6.380676e-02   9.711105e+00   1.784647e+01  -3.724470e+05   3.435247e+05   3.492103e+04  -8.048771e+13  -8.588899e+13  -9.534511e+12   5.078834e+05   1.281772e-17   0.000000e+00   0.000000e+00
      520000   5.199990e-06   6.382565e-02   9.710729e+00   1.785000e+01  -3.209834e+05   4.061777e+05   3.692825e+04  -9.520521e+13  -7.396035e+13  -1.007050e+13   5.190129e+05   1.404741e-17   0.000000e+00   0.000000e+00
      528000   5.279990e-06   6.380643e-02   9.710380e+00   1.785317e+01  -2.716489e+05   4.540198e+05   3.793840e+04  -1.064851e+14  -6.250666e+13  -1.037885e+13   5.304398e+05   1.539290e-17   0.000000e+00   0.000000e+00
      536000   5.359990e-06   6.376598e-02   9.710069e+00   1.785596e+01  -2.274585e+05   4.906854e+05   3.788541e+04  -1.151572e+14  -5.223865e+13  -1.055077e+13   5.421668e+05   1.686394e-17   0.000000e+00   0.000000e+00
      544000   5.439990e-06   6.371933e-02   9.709804e+00   1.785836e+01  -1.897803e+05   5.193863e+05   3.680280e+04  -1.219591e+14  -4.348315e+13  -1.065422e+13   5.541960e+05   1.847083e-17   0.000000e+00   0.000000e+00
      552000   5.519990e-06   6.367883e-02   9.709586e+00   1.786036e+01  -1.588129e+05   5.427006e+05   3.477988e+04  -1.274852e+14  -3.629273e+13  -1.073481e+13   5.665290e+05   2.022445e-17   0.000000e+00   0.000000e+00
      560000   5.599990e-06   6.365409e-02   9.709413e+00   1.786192e+01  -1.339358e+05   5.625615e+05   3.193583e+04  -1.321819e+14  -3.052673e+13  -1.081890e+13   5.791667e+05   2.213614e-17   0.000000e+00   0.000000e+00
      568000   5.679990e-06   6.365242e-02   9.709280e+00   1.786305e+01  -1.139383e+05   5.803490e+05   2.840715e+04  -1.363679e+14  -2.590428e+13  -1.091740e+13   5.921097e+05   2.421770e-17   0.000000e+00   0.000000e+00
      576000   5.759990e-06   6.367937e-02   9.709182e+00   1.786371e+01  -9.715099e+04   5.970149e+05   2.434366e+04  -1.402625e+14  -2.203519e+13  -1.102919e+13   6.053575e+05   2.648128e-17   0.000000e+00   0.000000e+00
      584000   5.839990e-06   6.373923e-02   9.709109e+00   1.786388e+01  -8.150975e+04   6.131952e+05   1.990899e+04  -1.440112e+14  -1.843529e+13  -1.114366e+13   6.189091e+05   2.893929e-17   0.000000e+00   0.000000e+00
      592000   5.919990e-06   6.383530e-02   9.709054e+00   1.786354e+01  -6.457546e+04   6.292733e+05   1.528201e+04  -1.477006e+14  -1.453185e+13  -1.124196e+13   6.327625e+05   3.160428e-17   0.000000e+00   0.000000e+00
      600000   5.999990e-06   6.396983e-02   9.709004e+00   1.786268e+01  -4.352874e+04   6.453607e+05   1.065663e+04  -1.513530e+14  -9.663640e+12  -1.129664e+13   6.469148e+05   3.448875e-17   0.000000e+00   0.000000e+00
      608000   6.079990e-06   6.414341e-02   9.708947e+00   1.786125e+01  -1.515816e+04   6.611589e+05   6.236763e+03  -1.548944e+14  -3.079960e+12  -1.126914e+13   6.613621e+05   3.760496e-17   0.000000e+00   0.000000e+00
      616000   6.159990e-06   6.435375e-02   9.708868e+00   1.785925e+01   2.412717e+04   6.756651e+05   2.222741e+03  -1.580858e+14   6.053823e+12  -1.110498e+13   6.760994e+05   4.096470e-17   0.000000e+00   0.000000e+00
      624000   6.239990e-06   6.459357e-02   9.708753e+00   1.785663e+01   7.819760e+04   6.866814e+05  -1.217479e+03  -1.604095e+14   1.862947e+13  -1.072647e+13   6.911207e+05   4.457901e-17   0.000000e+00   0.000000e+00
      632000   6.319990e-06   6.484750e-02   9.708585e+00   1.785337e+01   1.508915e+05   6.901034e+05  -4.002486e+03  -1.609053e+14   3.551881e+13  -1.002412e+13   7.064184e+05   4.845785e-17   0.000000e+00   0.000000e+00
      640000   6.399990e-06   6.508812e-02   9.708352e+00   1.784945e+01   2.452726e+05   6.790164e+05  -6.231971e+03  -1.579653e+14   5.739575e+13  -8.849688e+12   7.219839e+05   5.260986e-17   0.000000e+00   0.000000e+00
      648000   6.479990e-06   6.527184e-02   9.708051e+00   1.784482e+01   3.621142e+05   6.427775e+05  -8.338687e+03  -1.491293e+14   8.437973e+13  -7.018082e+12   7.378070e+05   5.704203e-17   0.000000e+00   0.000000e+00
      656000   6.559990e-06   6.533665e-02   9.707702e+00   1.783945e+01   4.971812e+05   5.665793e+05  -1.130590e+04  -1.309992e+14   1.154055e+14  -4.331652e+12   7.538760e+05   6.175959e-17   0.000000e+00   0.000000e+00
      664000   6.639990e-06   6.520656e-02   9.707362e+00   1.783330e+01   6.369926e+05   4.325826e+05  -1.692099e+04  -9.952242e+13   1.472550e+14  -6.487150e+11   7.701777e+05   6.676582e-17   0.000000e+00   0.000000e+00
      672000   6.719990e-06   6.481103e-02   9.707154e+00   1.782635e+01   7.534496e+05   2.245555e+05  -2.794307e+04  -5.108524e+13   1.733563e+14   3.978584e+12   7.866971e+05   7.206166e-17   0.000000e+00   0.000000e+00
      680000   6.799990e-06   6.413137e-02   9.707285e+00   1.781857e+01   7.996387e+05  -6.134791e+04  -4.789445e+04   1.499841e+13   1.828979e+14   9.089126e+12   8.034174e+05   7.764429e-17   0.000000e+00   0.000000e+00
      688000   6.879990e-06   6.328275e-02   9.708031e+00   1.780993e+01   7.128784e+05  -3.979094e+05  -7.998471e+04   9.224424e+13   1.616569e+14   1.357577e+13   8.203201e+05   8.350435e-17   0.000000e+00   0.000000e+00
      696000   6.959990e-06   6.261685e-02   9.709653e+00   1.780044e+01   4.358890e+05  -7.040430e+05  -1.246492e+05   1.619305e+14   9.698273e+13   1.560389e+13   8.373847e+05   8.962409e-17   0.000000e+00   0.000000e+00
      704000   7.039990e-06   6.272625e-02   9.712103e+00   1.779032e+01  -2.404813e+04  -8.370989e+05  -1.705071e+05   1.917454e+14  -8.528315e+12   1.265596e+13   8.546260e+05   9.628994e-17   0.000000e+00   0.000000e+00
      712000   7.119990e-06   6.430380e-02   9.714873e+00   1.777943e+01  -5.438837e+05  -6.484832e+05  -2.099230e+05   1.483579e+14  -1.265745e+14   4.818248e+12   8.720135e+05   1.031070e-16   0.000000e+00   0.000000e+00
      720000   7.199990e-06   6.756970e-02   9.716784e+00   1.776769e+01  -8.564466e+05  -9.549646e+04  -2.205286e+05   2.316838e+13  -1.962147e+14  -6.781439e+12   8.895242e+05   1.101895e-16   0.000000e+00   0.000000e+00
      728000   7.279990e-06   7.156654e-02   9.716460e+00   1.775493e+01  -6.549301e+05   5.984026e+05  -1.894049e+05  -1.323847e+14  -1.492582e+14  -1.591486e+13   9.071347e+05   1.174515e-16   0.000000e+00   0.000000e+00
      736000   7.359990e-06   7.397109e-02   9.713693e+00   1.774095e+01   9.953155e+04   9.094397e+05  -1.352991e+05  -2.008766e+14   2.042353e+13  -1.351897e+13   9.248205e+05   1.248014e-16   0.000000e+00   0.000000e+00
      744000   7.439990e-06   7.270351e-02   9.710943e+00   1.772566e+01   8.528397e+05   3.834708e+05  -1.184262e+05  -8.316800e+13   1.867553e+14   2.264996e+12   9.425551e+05   1.323195e-16   0.000000e+00   0.000000e+00
      752000   7.519990e-06   6.926198e-02   9.712318e+00   1.770931e+01   7.007118e+05  -6.293284e+05  -1.874638e+05   1.402202e+14   1.506226e+14   1.619902e+13   9.603093e+05   1.400185e-16   0.000000e+00   0.000000e+00
      760000   7.599990e-06   6.948023e-02   9.718145e+00   1.769220e+01  -4.132489e+05  -8.381247e+05  -2.887125e+05   1.852007e+14  -9.475665e+13   8.487355e+12   9.780504e+05   1.477585e-16   0.000000e+00   0.000000e+00
      768000   7.679990e-06   7.598600e-02   9.721190e+00   1.767418e+01  -9.019042e+05   3.078750e+05  -2.886851e+05  -6.443362e+13  -1.994801e+14  -1.296607e+13   9.957697e+05   1.558530e-16   0.000000e+00   0.000000e+00
      776000   7.759990e-06   8.035846e-02   9.716510e+00   1.765458e+01   2.908642e+05   9.515270e+05  -1.925553e+05  -2.024238e+14   5.998079e+13  -1.169330e+13   1.013451e+06   1.636243e-16   0.000000e+00   0.000000e+00
      784000   7.839990e-06   7.566813e-02   9.714372e+00   1.763329e+01   9.362196e+05  -3.718433e+05  -2.198232e+05   8.160257e+13   1.960139e+14   1.391452e+13   1.031066e+06   1.714995e-16   0.000000e+00   0.000000e+00
      792000   7.919990e-06   7.518696e-02   9.722492e+00   1.761152e+01  -5.886200e+05  -7.903770e+05  -3.582629e+05   1.698698e+14  -1.298624e+14   6.123834e+12   1.048581e+06   1.792700e-16   0.000000e+00   0.000000e+00
      800000   7.999990e-06   8.480350e-02   9.722991e+00   1.758898e+01  -4.845613e+05   9.035626e+05  -2.917134e+05  -1.868101e+14  -1.052925e+14  -1.741531e+13   1.065984e+06   1.874168e-16   0.000000e+00   0.000000e+00
      808000   8.079990e-06   8.205528e-02   9.716622e+00   1.756420e+01   1.055724e+06  -2.722791e+04  -2.412499e+05   8.199358e+12   2.155635e+14   9.619254e+12   1.083280e+06   1.949686e-16   0.000000e+00   0.000000e+00
      816000   8.159990e-06   8.022981e-02   9.726125e+00   1.753892e+01  -6.876461e+05  -7.571413e+05  -4.059758e+05   1.588114e+14  -1.472915e+14   4.544914e+12   1.100426e+06   2.025234e-16   0.000000e+00   0.000000e+00
      824000   8.239990e-06   9.101873e-02   9.723565e+00   1.751272e+01   7.056919e+04   1.076105e+06  -2.925248e+05  -2.162388e+14   1.057699e+13  -1.486631e+13   1.117387e+06   2.095062e-16   0.000000e+00   0.000000e+00
      832000   8.319990e-06   8.305600e-02   9.722486e+00   1.748393e+01   5.288230e+05  -9.345119e+05  -3.651097e+05   1.914224e+14   1.013329e+14   1.659748e+13   1.134139e+06   2.162680e-16   0.000000e+00   0.000000e+00
      840000   8.399990e-06   9.326350e-02   9.730316e+00   1.745538e+01  -7.966370e+05   7.267713e+05  -4.015356e+05  -1.418229e+14  -1.640369e+14  -1.670830e+13   1.150677e+06   2.231621e-16   0.000000e+00   0.000000e+00
      848000   8.479990e-06   8.910792e-02   9.722648e+00   1.742391e+01   9.819258e+05  -5.245719e+05  -3.499965e+05   1.066156e+14   1.886770e+14   1.497751e+13   1.166984e+06   2.289953e-16   0.000000e+00   0.000000e+00
      856000   8.559990e-06   9.667181e-02   9.733820e+00   1.739265e+01  -9.483735e+05   5.434682e+05  -4.525321e+05  -1.027110e+14  -1.906563e+14  -1.475793e+13   1.183028e+06   2.349707e-16   0.000000e+00   0.000000e+00
      864000   8.639990e-06   9.276897e-02   9.725602e+00   1.735833e+01   9.181236e+05  -6.594235e+05  -3.991287e+05   1.305247e+14   1.716453e+14   1.549264e+13   1.198789e+06   2.393362e-16   0.000000e+00   0.000000e+00
      872000   8.719990e-06   1.035553e-01   9.734919e+00   1.732390e+01  -5.875319e+05   9.601672e+05  -4.551532e+05  -1.793030e+14  -1.175411e+14  -1.752294e+13   1.214199e+06   2.430792e-16   0.000000e+00   0.000000e+00
      880000   8.799990e-06   9.516373e-02   9.732901e+00   1.728603e+01   9.410778e+04  -1.111579e+06  -5.163490e+05   2.129936e+14   1.113952e+13   1.395384e+13   1.229260e+06   2.459845e-16   0.000000e+00   0.000000e+00
      888000   8.879990e-06   1.085917e-01   9.731088e+00   1.724764e+01   7.311046e+05   9.171618e+05  -4.142845e+05  -1.667070e+14   1.307125e+14  -5.901426e+12   1.243918e+06   2.476227e-16   0.000000e+00   0.000000e+00
      896000   8.959990e-06   1.065030e-01   9.742770e+00   1.720704e+01  -1.108746e+06   2.353551e+04  -5.942925e+05  -1.864479e+11  -2.105328e+14  -8.736906e+12   1.258196e+06   2.504559e-16   0.000000e+00   0.000000e+00
      904000   9.039990e-06   1.036713e-01   9.735418e+00   1.716426e+01   5.543888e+05  -1.008816e+06  -5.415409e+05   1.865535e+14   9.357887e+13   1.584582e+13   1.272134e+06   2.526325e-16   0.000000e+00   0.000000e+00
      912000   9.119990e-06   1.166080e-01   9.735272e+00   1.712155e+01   8.916999e+05   8.039928e+05  -4.600004e+05  -1.396644e+14   1.537291e+14  -2.985112e+12   1.285742e+06   2.541640e-16   0.000000e+00   0.000000e+00
      920000   9.199990e-06   1.196950e-01   9.746721e+00   1.707738e+01  -8.142824e+05   8.233453e+05  -5.886249e+05  -1.409144e+14  -1.500407e+14  -1.565915e+13   1.299012e+06   2.562297e-16   0.000000e+00   0.000000e+00
      928000   9.279990e-06   1.138287e-01   9.748901e+00   1.703100e+01  -8.549523e+05  -7.365452e+05  -6.691673e+05   1.323117e+14  -1.561959e+14   2.250695e+12   1.311955e+06   2.570346e-16   0.000000e+00   0.000000e+00
      936000   9.359990e-06   1.149572e-01   9.743003e+00   1.698351e+01   4.966704e+05  -1.065702e+06  -6.099633e+05   1.867303e+14   7.816820e+13   1.479997e+13   1.324559e+06   2.575507e-16   0.000000e+00   0.000000e+00
      944000   9.439990e-06   1.237536e-01   9.740634e+00   1.693545e+01   1.219466e+06  -9.251407e+04  -5.398930e+05   1.961359e+13   2.000007e+14   9.280572e+12   1.336840e+06   2.577236e-16   0.000000e+00   0.000000e+00
      952000   9.519990e-06   1.326878e-01   9.744569e+00   1.688641e+01   8.787945e+05   8.698225e+05  -5.388440e+05  -1.409377e+14   1.407115e+14  -3.448121e+12   1.348786e+06   2.571898e-16   0.000000e+00   0.000000e+00
      960000   9.599990e-06   1.381148e-01   9.751045e+00   1.683600e+01   1.360740e+05   1.219453e+06  -5.874718e+05  -1.963076e+14   1.634274e+13  -1.220940e+13   1.360407e+06   2.568772e-16   0.000000e+00   0.000000e+00
      968000   9.679990e-06   1.408850e-01   9.756826e+00   1.678416e+01  -4.667592e+05   1.116234e+06  -6.463133e+05  -1.767368e+14  -8.212182e+13  -1.478477e+13   1.371701e+06   2.561029e-16   0.000000e+00   0.000000e+00
      976000   9.759990e-06   1.429418e-01   9.761057e+00   1.673101e+01  -7.993757e+05   8.916010e+05  -6.912603e+05  -1.382411e+14  -1.346242e+14  -1.432006e+13   1.382677e+06   2.550466e-16   0.000000e+00   0.000000e+00
      984000   9.839990e-06   1.455644e-01   9.764069e+00   1.667661e+01  -9.249182e+05   7.535064e+05  -7.198118e+05  -1.144929e+14  -1.527626e+14  -1.330527e+13   1.393332e+06   2.533396e-16   0.000000e+00   0.000000e+00
      992000   9.919990e-06   1.492462e-01   9.766245e+00   1.662106e+01  -9.117529e+05   7.761705e+05  -7.325151e+05  -1.163288e+14  -1.487038e+14  -1.326195e+13   1.403678e+06   2.514925e-16   0.000000e+00   0.000000e+00
     1000000   9.999990e-06   1.539654e-01   9.767473e+00   1.656444e+01  -7.502370e+05   9.515578e+05  -7.282233e+05  -1.416216e+14  -1.217463e+14  -1.366271e+13   1.413728e+06   2.497257e-16   0.000000e+00   0.000000e+00
     1008000   1.007999e-05   1.591152e-01   9.767235e+00   1.650672e+01  -3.660223e+05   1.178540e+06  -7.095044e+05  -1.738805e+14  -6.179232e+13  -1.342189e+13   1.423490e+06   2.471744e-16   0.000000e+00   0.000000e+00
     1016000   1.015999e-05   1.631655e-01   9.765200e+00   1.644769e+01   2.791484e+05   1.228705e+06  -6.824471e+05  -1.789991e+14   3.550939e+13  -9.774680e+12   1.432960e+06   2.443593e-16   0.000000e+00   0.000000e+00
     1024000   1.023999e-05   1.639911e-01   9.762561e+00   1.638733e+01   1.000498e+06   7.933794e+05  -6.703314e+05  -1.125144e+14   1.410956e+14  -1.422850e+12   1.442148e+06   2.413704e-16   0.000000e+00   0.000000e+00
     1032000   1.031999e-05   1.608870e-01   9.763067e+00   1.632577e+01   1.250196e+06  -2.047696e+05  -7.075721e+05   3.377224e+13   1.749465e+14   8.592729e+12   1.451061e+06   2.387454e-16   0.000000e+00   0.000000e+00
     1040000   1.039999e-05   1.581559e-01   9.770726e+00   1.626342e+01   4.734512e+05  -1.124035e+06  -8.019497e+05   1.649506e+14   6.088363e+13   1.165930e+13   1.459704e+06   2.357573e-16   0.000000e+00   0.000000e+00
     1048000   1.047999e-05   1.640603e-01   9.782493e+00   1.620067e+01  -8.584205e+05  -8.014210e+05  -8.809759e+05   1.174482e+14  -1.284609e+14   2.075283e+12   1.468087e+06   2.327073e-16   0.000000e+00   0.000000e+00
     1056000   1.055999e-05   1.786455e-01   9.785784e+00   1.613699e+01  -9.729930e+05   7.200775e+05  -8.449698e+05  -9.602027e+13  -1.423052e+14  -1.105322e+13   1.476212e+06   2.297935e-16   0.000000e+00   0.000000e+00
     1064000   1.063999e-05   1.853543e-01   9.776484e+00   1.607139e+01   6.494645e+05   1.104676e+06  -7.486084e+05  -1.476207e+14   8.326547e+13  -5.584481e+12   1.484092e+06   2.256871e-16   0.000000e+00   0.000000e+00
     1072000   1.071999e-05   1.764466e-01   9.775663e+00   1.600421e+01   1.081870e+06  -6.427756e+05  -8.010479e+05   9.110920e+13   1.402039e+14   1.019664e+13   1.491737e+06   2.225146e-16   0.000000e+00   0.000000e+00
     1080000   1.079999e-05   1.786926e-01   9.792267e+00   1.593746e+01  -8.255910e+05  -8.417167e+05  -9.259653e+05   1.168233e+14  -1.174247e+14   2.284806e+12   1.499166e+06   2.197673e-16   0.000000e+00   0.000000e+00
     1088000   1.087999e-05   1.975554e-01   9.792132e+00   1.587009e+01  -4.698193e+05   1.154158e+06  -8.463759e+05  -1.482878e+14  -6.825957e+13  -1.108443e+13   1.506374e+06   2.164673e-16   0.000000e+00   0.000000e+00
     1096000   1.095999e-05   1.924906e-01   9.781244e+00   1.580002e+01   1.282210e+06  -3.789593e+04  -8.029896e+05   8.934856e+12   1.609973e+14   6.344816e+12   1.513371e+06   2.125161e-16   0.000000e+00   0.000000e+00
     1104000   1.103999e-05   1.894555e-01   9.799252e+00   1.573018e+01  -7.267365e+05  -9.300089e+05  -9.580294e+05   1.238015e+14  -1.003349e+14   3.222528e+12   1.520159e+06   2.091904e-16   0.000000e+00   0.000000e+00
     1112000   1.111999e-05   2.104983e-01   9.797031e+00   1.566001e+01  -1.134270e+05   1.257113e+06  -8.589142e+05  -1.555943e+14  -2.042332e+13  -9.631939e+12   1.526739e+06   2.053162e-16   0.000000e+00   0.000000e+00
     1120000   1.119999e-05   1.981366e-01   9.791128e+00   1.558683e+01   9.475823e+05  -8.148849e+05  -8.879728e+05   1.060193e+14   1.126989e+14   9.442920e+12   1.533116e+06   2.012637e-16   0.000000e+00   0.000000e+00
     1128000   1.127999e-05   2.108357e-01   9.810605e+00   1.551490e+01  -1.157633e+06   2.786894e+05  -9.755191e+05  -3.044065e+13  -1.499555e+14  -6.956842e+12   1.539292e+06   1.980880e-16   0.000000e+00   0.000000e+00
     1136000   1.135999e-05   2.152365e-01   9.793629e+00   1.544039e+01   1.249314e+06   3.139974e+05  -8.535423e+05  -3.450500e+13   1.469719e+14   3.295887e+12   1.545288e+06   1.940227e-16   0.000000e+00   0.000000e+00
     1144000   1.143999e-05   2.116978e-01   9.814766e+00   1.536599e+01  -1.004968e+06  -6.029248e+05  -1.016109e+06   7.688367e+13  -1.279905e+14  -3.148776e+11   1.551115e+06   1.911216e-16   0.000000e+00   0.000000e+00
     1152000   1.151999e-05   2.279256e-01   9.800964e+00   1.529064e+01   9.653839e+05   8.565203e+05  -8.706058e+05  -9.834393e+13   1.095996e+14  -1.472828e+12   1.556775e+06   1.872764e-16   0.000000e+00   0.000000e+00
     1160000   1.159999e-05   2.175119e-01   9.818440e+00   1.521419e+01  -7.987131e+05  -8.591354e+05  -1.031824e+06   1.052551e+14  -1.005565e+14   2.045964e+12   1.562279e+06   1.843306e-16   0.000000e+00   0.000000e+00
     1168000   1.167999e-05   2.364960e-01   9.806279e+00   1.513752e+01   9.337680e+05   8.901816e+05  -8.905677e+05  -9.987138e+13   1.032716e+14  -1.720915e+12   1.567628e+06   1.807594e-16   0.000000e+00   0.000000e+00
     1176000   1.175999e-05   2.269650e-01   9.825178e+00   1.505970e+01  -9.490467e+05  -6.847383e+05  -1.050832e+06   8.276806e+13  -1.155449e+14   3.475936e+11   1.572833e+06   1.780751e-16   0.000000e+00   0.000000e+00
     1184000   1.183999e-05   2.411428e-01   9.809057e+00   1.498120e+01   1.198907e+06   4.720945e+05  -9.107698e+05  -4.998959e+13   1.310054e+14   1.885658e+12   1.577895e+06   1.744642e-16   0.000000e+00   0.000000e+00
     1192000   1.191999e-05   2.412733e-01   9.832726e+00   1.490263e+01  -1.179099e+06   2.903982e+04  -1.055563e+06   5.411958e+11  -1.387722e+14  -4.604970e+12   1.582823e+06   1.721126e-16   0.000000e+00   0.000000e+00
     1200000   1.199999e-05   2.405281e-01   9.814551e+00   1.482192e+01   1.151825e+06  -5.132143e+05  -9.645962e+05   6.069069e+13   1.225969e+14   7.048513e+12   1.587620e+06   1.685212e-16   0.000000e+00   0.000000e+00
     1208000   1.207999e-05   2.590132e-01   9.832917e+00   1.474273e+01  -5.868537e+05   1.084800e+06  -1.007071e+06  -1.156818e+14  -7.014394e+13  -8.328670e+12   1.592288e+06   1.659786e-16   0.000000e+00   0.000000e+00
     1216000   1.215999e-05   2.423823e-01   9.831104e+00   1.466045e+01  -9.178566e+04  -1.186849e+06  -1.064355e+06   1.327632e+14  -1.568910e+13   5.877518e+12   1.596837e+06   1.627035e-16   0.000000e+00   0.000000e+00
     1224000   1.223999e-05   2.649435e-01   9.823712e+00   1.457930e+01   9.934022e+05   8.173138e+05  -9.535205e+05  -8.434470e+13   1.017777e+14  -8.165625e+11   1.601266e+06   1.596475e-16   0.000000e+00   0.000000e+00
     1232000   1.231999e-05   2.635387e-01   9.846522e+00   1.449733e+01  -1.159626e+06   2.292055e+05  -1.086568e+06  -2.078425e+13  -1.291705e+14  -5.223857e+12   1.605583e+06   1.574869e-16   0.000000e+00   0.000000e+00
     1240000   1.239999e-05   2.554475e-01   9.832605e+00   1.441321e+01   6.026630e+05  -1.060842e+06  -1.050161e+06   1.152144e+14   5.809003e+13   7.278941e+12   1.609791e+06   1.542270e-16   0.000000e+00   0.000000e+00
     1248000   1.247999e-05   2.798044e-01   9.834253e+00   1.433058e+01   7.080570e+05   1.066707e+06  -9.825695e+05  -1.076231e+14   6.879673e+13  -3.033473e+12   1.613893e+06   1.515161e-16   0.000000e+00   0.000000e+00
     1256000   1.255999e-05   2.753542e-01   9.855047e+00   1.424656e+01  -1.163438e+06   1.774068e+05  -1.110189e+06  -1.472501e+13  -1.256046e+14  -4.784426e+12   1.617894e+06   1.493894e-16   0.000000e+00   0.000000e+00
     1264000   1.263999e-05   2.665098e-01   9.843047e+00   1.416071e+01   3.517208e+05  -1.151819e+06  -1.086202e+06   1.210148e+14   3.064610e+13   6.544286e+12   1.621798e+06   1.464593e-16   0.000000e+00   0.000000e+00
     1272000   1.271999e-05   2.883080e-01   9.838283e+00   1.407600e+01   1.104396e+06   6.500160e+05  -1.000193e+06  -6.225607e+13   1.067232e+14   4.636928e+11   1.625607e+06   1.437514e-16   0.000000e+00   0.000000e+00
     1280000   1.279999e-05   2.953823e-01   9.859549e+00   1.399087e+01  -7.612591e+05   9.462858e+05  -1.086153e+06  -9.130336e+13  -8.135207e+13  -7.021877e+12   1.629325e+06   1.419300e-16   0.000000e+00   0.000000e+00
     1288000   1.287999e-05   2.811881e-01   9.862308e+00   1.390360e+01  -7.548380e+05  -8.797453e+05  -1.150136e+06   9.064857e+13  -8.010456e+13   1.652206e+12   1.632956e+06   1.390755e-16   0.000000e+00   0.000000e+00
     1296000   1.295999e-05   2.867079e-01   9.847316e+00   1.381609e+01   9.939154e+05  -7.352813e+05  -1.072197e+06   7.540806e+13   9.248501e+13   6.345788e+12   1.636494e+06   1.362763e-16   0.000000e+00   0.000000e+00
     1304000   1.303999e-05   3.080352e-01   9.851406e+00   1.372939e+01   8.567827e+05   9.449351e+05  -1.030750e+06  -8.837404e+13   7.847418e+13  -1.653210e+12   1.639946e+06   1.338883e-16   0.000000e+00   0.000000e+00
     1312000   1.311999e-05   3.121545e-01   9.870909e+00   1.364183e+01  -7.596805e+05   9.392612e+05  -1.114078e+06  -8.701895e+13  -7.810724e+13  -6.636596e+12   1.643318e+06   1.319969e-16   0.000000e+00   0.000000e+00
     1320000   1.319999e-05   3.003489e-01   9.876146e+00   1.355250e+01  -9.857255e+05  -5.915651e+05  -1.178863e+06   5.977831e+13  -9.911261e+13  -3.625657e+11   1.646609e+06   1.294333e-16   0.000000e+00   0.000000e+00
     1328000   1.327999e-05   2.987900e-01   9.864520e+00   1.346259e+01   3.874308e+05  -1.128005e+06  -1.139916e+06   1.096869e+14   3.164609e+13   5.849949e+12   1.649820e+06   1.267378e-16   0.000000e+00   0.000000e+00
     1336000   1.335999e-05   3.146048e-01   9.858006e+00   1.337311e+01   1.258468e+06  -2.937337e+04  -1.071289e+06   6.031769e+12   1.128815e+14   3.871171e+12   1.652957e+06   1.245592e-16   0.000000e+00   0.000000e+00
     1344000   1.343999e-05   3.311473e-01   9.868021e+00   1.328372e+01   5.846440e+05   1.119411e+06  -1.071225e+06  -1.003585e+14   4.957864e+13  -3.081042e+12   1.656023e+06   1.225369e-16   0.000000e+00   0.000000e+00
     1352000   1.351999e-05   3.341493e-01   9.884487e+00   1.319344e+01  -6.693011e+05   1.004064e+06  -1.138526e+06  -8.887958e+13  -6.622072e+13  -6.258872e+12   1.659021e+06   1.208683e-16   0.000000e+00   0.000000e+00
     1360000   1.359999e-05   3.264948e-01   9.892675e+00   1.310195e+01  -1.146549e+06  -8.333281e+04  -1.200236e+06   1.093277e+13  -1.092699e+14  -2.957638e+12   1.661953e+06   1.187792e-16   0.000000e+00   0.000000e+00
     1368000   1.367999e-05   3.204083e-01   9.888900e+00   1.300972e+01  -5.346968e+05  -1.014267e+06  -1.207054e+06   9.467598e+13  -5.307228e+13   2.558839e+12   1.664817e+06   1.164096e-16   0.000000e+00   0.000000e+00
     1376000   1.375999e-05   3.238652e-01   9.880229e+00   1.291730e+01   5.047899e+05  -1.077916e+06  -1.168006e+06   9.937567e+13   4.029816e+13   5.659654e+12   1.667619e+06   1.142720e-16   0.000000e+00   0.000000e+00
     1384000   1.383999e-05   3.358968e-01   9.875476e+00   1.282495e+01   1.178087e+06  -3.814703e+05  -1.121022e+06   3.688255e+13   9.955239e+13   4.782794e+12   1.670358e+06   1.122853e-16   0.000000e+00   0.000000e+00
     1392000   1.391999e-05   3.503503e-01   9.878601e+00   1.273253e+01   1.151249e+06   5.159243e+05  -1.098865e+06  -4.198512e+13   9.641544e+13   1.180449e+12   1.673038e+06   1.103139e-16   0.000000e+00   0.000000e+00
     1400000   1.399999e-05   3.615400e-01   9.888044e+00   1.263971e+01   5.794655e+05   1.112914e+06  -1.110618e+06  -9.344229e+13   4.589541e+13  -2.860924e+12   1.675658e+06   1.085180e-16   0.000000e+00   0.000000e+00
     1408000   1.407999e-05   3.671432e-01   9.899660e+00   1.254629e+01  -1.681184e+05   1.213379e+06  -1.147117e+06  -1.012725e+14  -1.905861e+13  -5.410100e+12   1.678222e+06   1.068689e-16   0.000000e+00   0.000000e+00
     1416000   1.415999e-05   3.679148e-01   9.909793e+00   1.245217e+01  -7.759567e+05   8.973639e+05  -1.190581e+06  -7.340521e+13  -7.096600e+13  -5.734710e+12   1.680731e+06   1.052639e-16   0.000000e+00   0.000000e+00
     1424000   1.423999e-05   3.661444e-01   9.916611e+00   1.235741e+01  -1.090820e+06   3.701993e+05  -1.227262e+06  -2.805772e+13  -9.711511e+13  -4.439477e+12   1.683184e+06   1.033599e-16   0.000000e+00   0.000000e+00
     1432000   1.431999e-05   3.641080e-01   9.920085e+00   1.226207e+01  -1.116767e+06  -1.720548e+05  -1.250765e+06   1.772753e+13  -9.848813e+13  -2.360451e+12   1.685581e+06   1.014421e-16   0.000000e+00   0.000000e+00
     1440000   1.439999e-05   3.632646e-01   9.921190e+00   1.216636e+01  -9.409513e+05  -6.100115e+05  -1.261585e+06   5.401564e+13  -8.302029e+13  -2.226191e+11   1.687928e+06   9.959645e-17   0.000000e+00   0.000000e+00
     1448000   1.447999e-05   3.640621e-01   9.921040e+00   1.207030e+01  -6.632975e+05  -9.061718e+05  -1.263232e+06   7.797342e+13  -5.938813e+13   1.583381e+12   1.690227e+06   9.782379e-17   0.000000e+00   0.000000e+00
     1456000   1.455999e-05   3.664497e-01   9.920612e+00   1.197389e+01  -3.663614e+05  -1.068694e+06  -1.260216e+06   9.054833e+13  -3.458637e+13   2.931883e+12   1.692475e+06   9.598664e-17   0.000000e+00   0.000000e+00
     1464000   1.463999e-05   3.700442e-01   9.920590e+00   1.187715e+01  -1.048188e+05  -1.132955e+06  -1.255924e+06   9.492321e+13  -1.307997e+13   3.803829e+12   1.694674e+06   9.410912e-17   0.000000e+00   0.000000e+00
     1472000   1.471999e-05   3.743730e-01   9.921264e+00   1.178001e+01   9.895790e+04  -1.140180e+06  -1.252759e+06   9.473273e+13   3.355380e+12   4.357399e+12   1.696823e+06   9.238390e-17   0.000000e+00   0.000000e+00
     1480000   1.479999e-05   3.790370e-01   9.922755e+00   1.168250e+01   2.379537e+05  -1.124929e+06  -1.250705e+06   9.272866e+13   1.431098e+13   4.699780e+12   1.698926e+06   9.077158e-17   0.000000e+00   0.000000e+00
     1488000   1.487999e-05   3.837486e-01   9.925087e+00   1.158471e+01   3.104295e+05  -1.109498e+06  -1.251399e+06   9.070236e+13   1.992776e+13   4.762994e+12   1.700986e+06   8.914864e-17   0.000000e+00   0.000000e+00
     1496000   1.495999e-05   3.883549e-01   9.928250e+00   1.148652e+01   3.190239e+05  -1.104410e+06  -1.256467e+06   8.956856e+13   2.040915e+13   4.735367e+12   1.703000e+06   8.744554e-17   0.000000e+00   0.000000e+00
     1504000   1.503999e-05   3.928733e-01   9.932277e+00   1.138790e+01   2.655858e+05  -1.111412e+06  -1.265360e+06   8.939544e+13   1.598398e+13   4.658503e+12   1.704966e+06   8.565103e-17   0.000000e+00   0.000000e+00
     1512000   1.511999e-05   3.974304e-01   9.937200e+00   1.128888e+01   1.498258e+05  -1.122680e+06  -1.276952e+06   8.958308e+13   6.803060e+12   4.466326e+12   1.706887e+06   8.400273e-17   0.000000e+00   0.000000e+00
     1520000   1.519999e-05   4.022230e-01   9.943025e+00   1.118952e+01  -2.990614e+04  -1.119837e+06  -1.290329e+06   8.862578e+13  -7.000820e+12   3.960333e+12   1.708765e+06   8.239671e-17   0.000000e+00   0.000000e+00
     1528000   1.527999e-05   4.076788e-01   9.949724e+00   1.108986e+01  -2.681589e+05  -1.072247e+06  -1.305578e+06   8.437761e+13  -2.503760e+13   3.172788e+12   1.710601e+06   8.087747e-17   0.000000e+00   0.000000e+00
     1536000   1.535999e-05   4.143177e-01   9.957065e+00   1.098990e+01  -5.439623e+05  -9.444033e+05  -1.320797e+06   7.417738e+13  -4.561977e+13   2.012337e+12   1.712395e+06   7.928110e-17   0.000000e+00   0.000000e+00
     1544000   1.543999e-05   4.226414e-01   9.964537e+00   1.088964e+01  -8.192363e+05  -7.021076e+05  -1.331990e+06   5.562357e+13  -6.580325e+13   4.188260e+11   1.714147e+06   7.773394e-17   0.000000e+00   0.000000e+00
     1552000   1.551999e-05   4.328462e-01   9.971177e+00   1.078906e+01  -1.027150e+06  -3.300408e+05  -1.334244e+06   2.784621e+13  -8.063083e+13  -1.546606e+12   1.715858e+06   7.636705e-17   0.000000e+00   0.000000e+00
     1560000   1.559999e-05   4.447324e-01   9.975833e+00   1.068817e+01  -1.082392e+06   1.527126e+05  -1.324771e+06  -7.517136e+12  -8.402293e+13  -3.597729e+12   1.717531e+06   7.494094e-17   0.000000e+00   0.000000e+00
     1568000   1.567999e-05   4.572654e-01   9.977376e+00   1.058682e+01  -9.044655e+05   6.674341e+05  -1.300769e+06  -4.464541e+13  -7.033143e+13  -5.097776e+12   1.719164e+06   7.336046e-17   0.000000e+00   0.000000e+00
     1576000   1.575999e-05   4.684437e-01   9.975177e+00   1.048490e+01  -4.583731e+05   1.072184e+06  -1.265435e+06  -7.320485e+13  -3.766109e+13  -5.446782e+12   1.720759e+06   7.182163e-17   0.000000e+00   0.000000e+00
     1584000   1.583999e-05   4.757624e-01   9.970082e+00   1.038231e+01   1.887450e+05   1.190271e+06  -1.230450e+06  -8.083943e+13   8.640845e+12  -4.095541e+12   1.722317e+06   7.004353e-17   0.000000e+00   0.000000e+00
     1592000   1.591999e-05   4.773578e-01   9.964841e+00   1.027898e+01   8.379971e+05   8.954845e+05  -1.211396e+06  -5.928980e+13   5.410135e+13  -1.074950e+12   1.723836e+06   6.822892e-17   0.000000e+00   0.000000e+00
     1600000   1.599999e-05   4.734350e-01   9.963678e+00   1.017509e+01   1.196609e+06   2.172621e+05  -1.223783e+06  -1.158957e+13   7.841568e+13   2.537773e+12   1.725317e+06   6.671693e-17   0.000000e+00   0.000000e+00
     1608000   1.607999e-05   4.677102e-01   9.970351e+00   1.007099e+01   1.015561e+06  -5.785573e+05  -1.271067e+06   4.336408e+13   6.503656e+13   4.995907e+12   1.726761e+06   6.518577e-17   0.000000e+00   0.000000e+00
     1616000   1.615999e-05   4.665158e-01   9.985070e+00   9.967053e+00   2.945826e+05  -1.057350e+06  -1.334840e+06   7.579527e+13   1.497491e+13   4.820295e+12   1.728168e+06   6.377291e-17   0.000000e+00   0.000000e+00
     1624000   1.623999e-05   4.754776e-01   1.000268e+01   9.863517e+00  -6.032645e+05  -8.470632e+05  -1.381980e+06   6.111815e+13  -4.608573e+13   1.525710e+12   1.729541e+06   6.248068e-17   0.000000e+00   0.000000e+00
     1632000   1.631999e-05   4.944583e-01   1.001386e+01   9.759993e+00  -1.047565e+06   2.206785e+04  -1.377704e+06   2.479707e+12  -7.572142e+13  -3.140123e+12   1.730881e+06   6.138278e-17   0.000000e+00   0.000000e+00
     1640000   1.639999e-05   5.147278e-01   1.001196e+01   9.655651e+00  -6.064484e+05   9.485226e+05  -1.316431e+06  -5.904143e+13  -4.561258e+13  -5.708597e+12   1.732185e+06   5.986320e-17   0.000000e+00   0.000000e+00
     1648000   1.647999e-05   5.239019e-01   1.000057e+01   9.549805e+00   4.538413e+05   1.113451e+06  -1.248647e+06  -6.928859e+13   2.470294e+13  -3.199236e+12   1.733455e+06   5.804923e-17   0.000000e+00   0.000000e+00
     1656000   1.655999e-05   5.175178e-01   9.994064e+00   9.442807e+00   1.176910e+06   2.586526e+05  -1.247852e+06  -1.308009e+13   7.135339e+13   2.411326e+12   1.734690e+06   5.648981e-17   0.000000e+00   0.000000e+00
     1664000   1.663999e-05   5.073881e-01   1.000518e+01   9.335952e+00   7.583520e+05  -8.238857e+05  -1.326438e+06   5.675640e+13   4.343891e+13   5.429014e+12   1.735893e+06   5.516680e-17   0.000000e+00   0.000000e+00
     1672000   1.671999e-05   5.126530e-01   1.002885e+01   9.230288e+00  -4.431042e+05  -9.112348e+05  -1.410922e+06   6.212797e+13  -3.385729e+13   2.319523e+12   1.737064e+06   5.388531e-17   0.000000e+00   0.000000e+00
     1680000   1.679999e-05   5.371190e-01   1.004284e+01   9.125069e+00  -1.006154e+06   2.090239e+05  -1.401896e+06  -9.009181e+12  -6.932678e+13  -3.905682e+12   1.738202e+06   5.278288e-17   0.000000e+00   0.000000e+00
     1688000   1.687999e-05   5.592293e-01   1.003383e+01   9.018229e+00  -1.124656e+05   1.146339e+06  -1.303245e+06  -6.754568e+13  -1.250046e+13  -5.202913e+12   1.739307e+06   5.115867e-17   0.000000e+00   0.000000e+00
     1696000   1.695999e-05   5.570482e-01   1.001987e+01   8.909129e+00   1.077337e+06   5.412106e+05  -1.255136e+06  -2.940129e+13   6.106811e+13   1.059380e+12   1.740382e+06   4.959368e-17   0.000000e+00   0.000000e+00
     1704000   1.703999e-05   5.429259e-01   1.003018e+01   8.799995e+00   7.697095e+05  -7.921550e+05  -1.346332e+06   5.246250e+13   4.118003e+13   5.730464e+12   1.741428e+06   4.842220e-17   0.000000e+00   0.000000e+00
     1712000   1.711999e-05   5.516518e-01   1.005897e+01   8.693087e+00  -6.367298e+05  -7.275331e+05  -1.449615e+06   4.848408e+13  -4.473743e+13   1.126619e+12   1.742445e+06   4.709911e-17   0.000000e+00   0.000000e+00
     1720000   1.719999e-05   5.836059e-01   1.006703e+01   8.586440e+00  -7.686640e+05   7.215047e+05  -1.388571e+06  -3.869284e+13  -5.214725e+13  -5.707439e+12   1.743428e+06   4.602169e-17   0.000000e+00   0.000000e+00
     1728000   1.727999e-05   5.962563e-01   1.004827e+01   8.476642e+00   7.004738e+05   9.730883e+05  -1.267009e+06  -5.314904e+13   3.558446e+13  -2.086524e+12   1.744384e+06   4.440648e-17   0.000000e+00   0.000000e+00
     1736000   1.735999e-05   5.795588e-01   1.004914e+01   8.365186e+00   1.002619e+06  -5.146344e+05  -1.332674e+06   3.438555e+13   5.251400e+13   5.560530e+12   1.745312e+06   4.310329e-17   0.000000e+00   0.000000e+00
     1744000   1.743999e-05   5.832671e-01   1.008156e+01   8.256677e+00  -5.205380e+05  -7.850921e+05  -1.470347e+06   5.008882e+13  -3.657404e+13   1.769897e+12   1.746210e+06   4.182951e-17   0.000000e+00   0.000000e+00
     1752000   1.751999e-05   6.194039e-01   1.009073e+01   8.149043e+00  -6.764978e+05   7.979185e+05  -1.399269e+06  -4.083794e+13  -4.516869e+13  -6.040006e+12   1.747077e+06   4.072609e-17   0.000000e+00   0.000000e+00
     1760000   1.759999e-05   6.278166e-01   1.006887e+01   8.036993e+00   9.383637e+05   7.447606e+05  -1.272800e+06  -3.749428e+13   4.688531e+13  -2.364751e+11   1.747917e+06   3.923769e-17   0.000000e+00   0.000000e+00
     1768000   1.767999e-05   6.087318e-01   1.008166e+01   7.924272e+00   5.977000e+05  -8.552224e+05  -1.403358e+06   5.238281e+13   2.673550e+13   5.992386e+12   1.748732e+06   3.808152e-17   0.000000e+00   0.000000e+00
     1776000   1.775999e-05   6.312329e-01   1.011575e+01   7.816033e+00  -9.016134e+05  -1.262466e+05  -1.493978e+06   1.221160e+13  -5.689043e+13  -2.584937e+12   1.749518e+06   3.699983e-17   0.000000e+00   0.000000e+00
     1784000   1.783999e-05   6.641422e-01   1.010232e+01   7.705421e+00   2.356211e+05   1.130631e+06  -1.315153e+06  -5.667295e+13   6.312731e+12  -4.751319e+12   1.750278e+06   3.574277e-17   0.000000e+00   0.000000e+00
     1792000   1.791999e-05   6.467835e-01   1.009465e+01   7.590184e+00   1.053340e+06  -3.807692e+05  -1.345934e+06   2.531207e+13   4.980732e+13   5.695357e+12   1.751014e+06   3.445817e-17   0.000000e+00   0.000000e+00
     1800000   1.799999e-05   6.538591e-01   1.013456e+01   7.479999e+00  -6.677211e+05  -5.508382e+05  -1.522913e+06   3.477470e+13  -4.298866e+13   2.819722e+11   1.751724e+06   3.343081e-17   0.000000e+00   0.000000e+00
     1808000   1.807999e-05   6.960500e-01   1.013116e+01   7.369918e+00  -6.882372e+04   1.108536e+06  -1.355486e+06  -5.283250e+13  -1.068838e+13  -6.080292e+12   1.752407e+06   3.219934e-17   0.000000e+00   0.000000e+00
     1816000   1.815999e-05   6.820753e-01   1.011674e+01   7.253005e+00   1.107179e+06  -2.285080e+05  -1.339844e+06   1.684360e+13   5.011396e+13   5.350771e+12   1.753066e+06   3.092339e-17   0.000000e+00   0.000000e+00
     1824000   1.823999e-05   6.878299e-01   1.015935e+01   7.141718e+00  -6.491707e+05  -5.142546e+05  -1.545827e+06   3.205136e+13  -4.112066e+13   2.021577e+11   1.753699e+06   2.978948e-17   0.000000e+00   0.000000e+00
     1832000   1.831999e-05   7.319882e-01   1.015263e+01   7.030551e+00   1.325922e+05   1.120145e+06  -1.343610e+06  -5.087720e+13  -7.085015e+11  -5.630911e+12   1.754307e+06   2.874029e-17   0.000000e+00   0.000000e+00
     1840000   1.839999e-05   7.122019e-01   1.014553e+01   6.911945e+00   9.403755e+05  -5.137949e+05  -1.389734e+06   3.085910e+13   3.904624e+13   6.427271e+12   1.754894e+06   2.763481e-17   0.000000e+00   0.000000e+00
     1848000   1.847999e-05   7.341543e-01   1.019044e+01   6.801666e+00  -8.210675e+05  -3.236230e+04  -1.551268e+06   7.780997e+12  -4.862554e+13  -3.119665e+12   1.755458e+06   2.673594e-17   0.000000e+00   0.000000e+00
     1856000   1.855999e-05   7.668412e-01   1.016742e+01   6.686919e+00   7.643946e+05   9.083785e+05  -1.293865e+06  -3.821447e+13   2.943571e+13  -1.928697e+12   1.756001e+06   2.560755e-17   0.000000e+00   0.000000e+00
     1864000   1.863999e-05   7.438862e-01   1.018837e+01   6.568791e+00   2.450598e+05  -8.576413e+05  -1.513199e+06   4.680979e+13   3.197003e+12   5.754020e+12   1.756523e+06   2.456684e-17   0.000000e+00   0.000000e+00
     1872000   1.871999e-05   7.939234e-01   1.021362e+01   6.459471e+00  -4.665494e+05   8.645086e+05  -1.456735e+06  -3.413748e+13  -3.047817e+13  -7.168959e+12   1.757020e+06   2.360381e-17   0.000000e+00   0.000000e+00
     1880000   1.879999e-05   7.888505e-01   1.019025e+01   6.338424e+00   1.130780e+06  -9.732385e+04  -1.341889e+06   1.040084e+13   4.383427e+13   5.570009e+12   1.757499e+06   2.268084e-17   0.000000e+00   0.000000e+00
     1888000   1.887999e-05   8.025493e-01   1.024170e+01   6.226431e+00  -7.122574e+05  -1.545047e+05  -1.599761e+06   1.418288e+13  -4.211916e+13  -2.259123e+12   1.757958e+06   2.180769e-17   0.000000e+00   0.000000e+00
     1896000   1.895999e-05   8.408531e-01   1.021850e+01   6.110286e+00   8.578980e+05   8.374938e+05  -1.286303e+06  -3.125576e+13   3.002916e+13  -1.309040e+12   1.758397e+06   2.071791e-17   0.000000e+00   0.000000e+00
     1904000   1.903999e-05   8.217635e-01   1.025187e+01   5.991277e+00  -7.850650e+04  -7.522997e+05  -1.587867e+06   4.017235e+13  -1.325497e+13   4.282374e+12   1.758818e+06   1.992827e-17   0.000000e+00   0.000000e+00
     1912000   1.911999e-05   8.806052e-01   1.025874e+01   5.880543e+00   1.482437e+05   1.100838e+06  -1.364197e+06  -4.097833e+13  -2.493246e+12  -6.477594e+12   1.759220e+06   1.905008e-17   0.000000e+00   0.000000e+00
     1920000   1.919999e-05   8.571986e-01   1.026160e+01   5.756590e+00   5.977874e+05  -7.041229e+05  -1.497689e+06   3.684595e+13   1.567363e+13   7.326834e+12   1.759605e+06   1.828138e-17   0.000000e+00   0.000000e+00
     1928000   1.927999e-05   9.126364e-01   1.029695e+01   5.648243e+00  -3.460192e+05   9.029842e+05  -1.470508e+06  -3.031224e+13  -2.451149e+13  -7.929709e+12   1.759972e+06   1.746731e-17   0.000000e+00   0.000000e+00
     1936000   1.935999e-05   9.020381e-01   1.027989e+01   5.522612e+00   9.740468e+05  -4.005143e+05  -1.410518e+06   2.346065e+13   3.004620e+13   7.658690e+12   1.760324e+06   1.669374e-17   0.000000e+00   0.000000e+00
     1944000   1.943999e-05   9.464687e-01   1.033127e+01   5.414273e+00  -5.393804e+05   6.350022e+05  -1.551050e+06  -1.744454e+13  -3.288041e+13  -7.404205e+12   1.760658e+06   1.590941e-17   0.000000e+00   0.000000e+00
     1952000   1.951999e-05   9.494094e-01   1.030612e+01   5.288500e+00   1.108813e+06  -1.570801e+05  -1.359007e+06   1.330278e+13   3.385970e+13   6.929982e+12   1.760977e+06   1.515510e-17   0.000000e+00   0.000000e+00
     1960000   1.959999e-05   9.866102e-01   1.036412e+01   5.179539e+00  -5.663363e+05   4.974012e+05  -1.591841e+06  -1.067729e+13  -3.383120e+13  -6.780691e+12   1.761279e+06   1.442037e-17   0.000000e+00   0.000000e+00
     1968000   1.967999e-05   9.960641e-01   1.033717e+01   5.053426e+00   1.137691e+06  -8.718736e+04  -1.342080e+06   1.064845e+13   3.289328e+13   6.880616e+12   1.761567e+06   1.374140e-17   0.000000e+00   0.000000e+00
     1976000   1.975999e-05   1.035247e+00   1.039733e+01   4.945162e+00  -5.102475e+05   5.507173e+05  -1.593876e+06  -1.150353e+13  -3.155129e+13  -7.226404e+12   1.761841e+06   1.305250e-17   0.000000e+00   0.000000e+00
     1984000   1.983999e-05   1.042649e+00   1.037288e+01   4.817452e+00   1.103288e+06  -1.884563e+05  -1.360972e+06   1.465879e+13   2.922646e+13   7.827975e+12   1.762103e+06   1.250659e-17   0.000000e+00   0.000000e+00
     1992000   1.991999e-05   1.093174e+00   1.043097e+01   4.711686e+00  -3.575907e+05   7.678666e+05  -1.545441e+06  -1.816987e+13  -2.569778e+13  -8.570838e+12   1.762350e+06   1.177558e-17   0.000000e+00   0.000000e+00
     2000000   1.999999e-05   1.090818e+00   1.041616e+01   4.581343e+00   9.349463e+05  -4.025815e+05  -1.438928e+06   2.267406e+13   2.059818e+13   8.962502e+12   1.762586e+06   1.127774e-17   0.000000e+00   0.000000e+00
     2008000   2.007999e-05   1.157938e+00   1.046266e+01   4.478064e+00  -2.152333e+04   1.032648e+06  -1.428520e+06  -2.630109e+13  -1.330728e+13  -9.229965e+12   1.762809e+06   1.056413e-17   0.000000e+00   0.000000e+00
     2016000   2.015999e-05   1.144998e+00   1.047000e+01   4.346840e+00   5.541898e+05  -5.624874e+05  -1.576302e+06   2.886370e+13   4.618872e+12   8.493707e+12   1.763022e+06   1.026282e-17   0.000000e+00   0.000000e+00
     2024000   2.023999e-05   1.224263e+00   1.049111e+01   4.243044e+00   5.512960e+05   1.112713e+06  -1.251763e+06  -2.788555e+13   6.296483e+12  -6.691072e+12   1.763226e+06   9.549907e-18   0.000000e+00   0.000000e+00
     2032000   2.031999e-05   1.214726e+00   1.053403e+01   4.117660e+00   8.612386e+03  -3.759826e+05  -1.722849e+06   2.375731e+13  -1.588384e+13   3.580327e+12   1.763418e+06   9.191877e-18   0.000000e+00   0.000000e+00
     2040000   2.039999e-05   1.283810e+00   1.052330e+01   4.004530e+00   1.138000e+06   7.152840e+05  -1.141763e+06  -1.409476e+13   2.422603e+13   1.121764e+12   1.763604e+06   8.720603e-18   0.000000e+00   0.000000e+00
     2048000   2.047999e-05   1.306715e+00   1.059593e+01   3.894696e+00  -3.075029e+05   3.253448e+05  -1.706019e+06   2.534541e+12  -2.662759e+13  -5.539205e+12   1.763776e+06   8.271210e-18   0.000000e+00   0.000000e+00
     2056000   2.055999e-05   1.337693e+00   1.057685e+01   3.766009e+00   1.209291e+06  -5.755389e+04  -1.282888e+06   1.133143e+13   2.258216e+13   9.662564e+12   1.763944e+06   8.112996e-18   0.000000e+00   0.000000e+00
     2064000   2.063999e-05   1.410811e+00   1.063841e+01   3.671794e+00   1.371683e+05   1.086903e+06  -1.382709e+06  -2.068030e+13  -1.115330e+13  -1.082363e+13   1.764102e+06   7.421332e-18   0.000000e+00   0.000000e+00
     2072000   2.071999e-05   1.410114e+00   1.066146e+01   3.539266e+00   5.158203e+05  -3.899687e+05  -1.641475e+06   2.402665e+13  -3.517947e+12   8.381928e+12   1.764252e+06   7.319303e-18   0.000000e+00   0.000000e+00
     2080000   2.079999e-05   1.498739e+00   1.067066e+01   3.438458e+00   1.084581e+06   9.369803e+05  -1.029007e+06  -1.715193e+13   1.790352e+13  -1.781899e+12   1.764399e+06   6.854566e-18   0.000000e+00   0.000000e+00
     2088000   2.087999e-05   1.525093e+00   1.074782e+01   3.330634e+00  -9.907145e+04   3.792487e+05  -1.720447e+06   4.569502e+12  -2.321734e+13  -5.384499e+12   1.764534e+06   6.533988e-18   0.000000e+00   0.000000e+00
     2096000   2.095999e-05   1.568109e+00   1.073740e+01   3.202962e+00   1.272513e+06  -2.824993e+04  -1.222279e+06   1.146474e+13   1.803396e+13   1.151430e+13   1.764668e+06   6.538621e-18   0.000000e+00   0.000000e+00
     2104000   2.103999e-05   1.657160e+00   1.079731e+01   3.120295e+00   4.880987e+05   1.216109e+06  -1.182092e+06  -1.997655e+13  -2.916245e+12  -1.125322e+13   1.764795e+06   5.928694e-18   0.000000e+00   0.000000e+00
     2112000   2.111999e-05   1.669890e+00   1.084710e+01   2.994634e+00   4.057233e+05  -1.111411e+05  -1.714049e+06   1.881003e+13  -1.258572e+13   5.265344e+12   1.764916e+06   5.993138e-18   0.000000e+00   0.000000e+00
     2120000   2.119999e-05   1.757072e+00   1.084661e+01   2.890903e+00   1.412264e+06   5.999240e+05  -8.723340e+05  -5.701277e+12   2.161968e+13   5.632182e+12   1.765039e+06   5.901912e-18   0.000000e+00   0.000000e+00
     2128000   2.127999e-05   1.823068e+00   1.093309e+01   2.809212e+00   1.933380e+05   1.002944e+06  -1.439617e+06  -8.719337e+12  -1.629805e+13  -1.252889e+13   1.765155e+06   5.536084e-18   0.000000e+00   0.000000e+00
     2136000   2.135999e-05   1.854917e+00   1.095592e+01   2.679022e+00   1.007984e+06  -1.701930e+05  -1.439160e+06   1.892643e+13   1.355202e+12   1.309207e+13   1.765271e+06   5.901247e-18   0.000000e+00   0.000000e+00
     2144000   2.143999e-05   1.963672e+00   1.098446e+01   2.602986e+00   1.196898e+06   1.088691e+06  -7.062494e+05  -1.607396e+13   1.525946e+13  -3.725438e+12   1.765390e+06   5.609552e-18   0.000000e+00   0.000000e+00
     2152000   2.151999e-05   2.009693e+00   1.107459e+01   2.511830e+00   2.646287e+05   6.356527e+05  -1.625705e+06   4.920468e+12  -2.059828e+13  -7.256094e+12   1.765502e+06   5.566264e-18   0.000000e+00   0.000000e+00
     2160000   2.159999e-05   2.075510e+00   1.108279e+01   2.393372e+00   1.457983e+06   6.811774e+04  -9.935119e+05   1.029458e+13   1.337858e+13   1.601916e+13   1.765622e+06   6.016160e-18   0.000000e+00   0.000000e+00
     2168000   2.167999e-05   2.183461e+00   1.114563e+01   2.340019e+00   8.256272e+05   1.354029e+06  -7.763924e+05  -1.779420e+13   3.051662e+12  -1.360710e+13   1.765741e+06   5.678369e-18   0.000000e+00   0.000000e+00
     2176000   2.175999e-05   2.222782e+00   1.122069e+01   2.233648e+00   6.585299e+05   2.339083e+05  -1.621691e+06   1.602827e+13  -1.652191e+13   4.122248e+12   1.765859e+06   6.076487e-18   0.000000e+00   0.000000e+00
     2184000   2.183999e-05   2.325260e+00   1.123078e+01   2.145884e+00   1.601174e+06   5.731687e+05  -4.758547e+05  -4.482472e+12   2.119959e+13   1.044004e+13   1.765989e+06   6.429125e-18   0.000000e+00   0.000000e+00
     2192000   2.191999e-05   2.410881e+00   1.132445e+01   2.098276e+00   4.906798e+05   1.254740e+06  -1.141943e+06  -7.577846e+12  -1.353735e+13  -1.813561e+13   1.766118e+06   6.330779e-18   0.000000e+00   0.000000e+00
     2200000   2.199999e-05   2.468725e+00   1.136676e+01   1.983605e+00   1.318234e+06  -3.784268e+03  -1.175541e+06   1.679898e+13  -5.580111e+11   1.883450e+13   1.766254e+06   7.083990e-18   0.000000e+00   0.000000e+00
     2208000   2.207999e-05   2.590122e+00   1.140799e+01   1.942086e+00   1.195441e+06   1.269990e+06  -2.796662e+05  -1.809363e+13   1.496642e+13  -9.400725e+12   1.766399e+06   7.112939e-18   0.000000e+00   0.000000e+00
     2216000   2.215999e-05   2.646233e+00   1.150396e+01   1.865671e+00   6.851956e+05   5.716063e+05  -1.524618e+06   1.358592e+13  -2.206386e+13  -2.170767e+12   1.766547e+06   7.518285e-18   0.000000e+00   0.000000e+00
     2224000   2.223999e-05   2.751444e+00   1.152005e+01   1.784095e+00   1.679954e+06   4.888254e+05  -2.450795e+05  -4.104214e+12   2.188841e+13   1.549440e+13   1.766709e+06   8.186231e-18   0.000000e+00   0.000000e+00
     2232000   2.231999e-05   2.842078e+00   1.161500e+01   1.756776e+00   5.704283e+05   1.326403e+06  -1.018390e+06  -4.835546e+12  -1.510058e+13  -2.238369e+13   1.766876e+06   8.370344e-18   0.000000e+00   0.000000e+00
     2240000   2.239999e-05   2.917302e+00   1.165777e+01   1.655091e+00   1.579852e+06   4.573639e+04  -7.902318e+05   1.272499e+13   4.948738e+12   2.571583e+13   1.767057e+06   9.432186e-18   0.000000e+00   0.000000e+00
     2248000   2.247999e-05   3.034522e+00   1.171893e+01   1.640812e+00   8.797746e+05   1.499778e+06  -3.159835e+05  -1.763209e+13   5.467772e+12  -2.316766e+13   1.767253e+06   9.766054e-18   0.000000e+00   0.000000e+00
     2256000   2.255999e-05   3.096879e+00   1.179647e+01   1.553014e+00   1.269042e+06   1.386729e+05  -1.222381e+06   2.017965e+13  -1.371809e+13   1.938576e+13   1.767459e+06   1.081108e-17   0.000000e+00   0.000000e+00
     2264000   2.263999e-05   3.221219e+00   1.183237e+01   1.528243e+00   1.195441e+06   1.298260e+06   1.008092e+05  -2.096742e+13   2.035263e+13  -1.336561e+13   1.767688e+06   1.149641e-17   0.000000e+00   0.000000e+00
     2272000   2.271999e-05   3.284524e+00   1.192766e+01   1.463315e+00   1.056253e+06   3.783503e+05  -1.366291e+06   2.118086e+13  -2.409672e+13   9.693481e+12   1.767929e+06   1.251004e-17   0.000000e+00   0.000000e+00
     2280000   2.279999e-05   3.407500e+00   1.195472e+01   1.429209e+00   1.344024e+06   1.115323e+06   2.759800e+05  -2.114573e+13   2.697376e+13  -5.985846e+12   1.768195e+06   1.348668e-17   0.000000e+00   0.000000e+00
     2288000   2.287999e-05   3.473902e+00   1.205425e+01   1.377937e+00   1.011958e+06   4.786556e+05  -1.369066e+06   2.182087e+13  -2.817840e+13   6.267756e+12   1.768477e+06   1.459305e-17   0.000000e+00   0.000000e+00
     2296000   2.295999e-05   3.595979e+00   1.208122e+01   1.346039e+00   1.312386e+06   1.130457e+06   3.582146e+05  -2.281143e+13   2.893528e+13  -7.700828e+12   1.768787e+06   1.579626e-17   0.000000e+00   0.000000e+00
     2304000   2.303999e-05   3.663029e+00   1.217807e+01   1.294433e+00   1.144498e+06   3.479589e+05  -1.303392e+06   2.405785e+13  -2.766154e+13   1.372860e+13   1.769119e+06   1.709019e-17   0.000000e+00   0.000000e+00
     2312000   2.311999e-05   3.784923e+00   1.221126e+01   1.277452e+00   1.085954e+06   1.363141e+06   3.059609e+05  -2.459165e+13   2.441388e+13  -2.143270e+13   1.769480e+06   1.852240e-17   0.000000e+00   0.000000e+00
     2320000   2.319999e-05   3.854507e+00   1.229611e+01   1.213739e+00   1.462520e+06   5.481544e+04  -9.952211e+05   2.244030e+13  -1.644930e+13   3.205288e+13   1.769869e+06   2.010862e-17   0.000000e+00   0.000000e+00
     2328000   2.327999e-05   3.968833e+00   1.234840e+01   1.217505e+00   7.167674e+05   1.610549e+06  -1.621892e+05  -1.625685e+13   3.150842e+12  -4.067525e+13   1.770291e+06   2.153830e-17   0.000000e+00   0.000000e+00
     2336000   2.335999e-05   4.053338e+00   1.240532e+01   1.145240e+00   1.762877e+06   4.300169e+03  -1.666824e+05   4.060676e+12   1.478075e+13   4.320202e+13   1.770745e+06   2.347874e-17   0.000000e+00   0.000000e+00
     2344000   2.343999e-05   4.144186e+00   1.248955e+01   1.149653e+00   6.417421e+05   1.250304e+06  -1.078045e+06   1.217682e+13  -3.328601e+13  -3.137686e+13   1.771235e+06   2.504972e-17   0.000000e+00   0.000000e+00
     2352000   2.351999e-05   4.254836e+00   1.251862e+01   1.105174e+00   1.423755e+06   8.385515e+05   6.394591e+05  -2.635248e+13   4.157739e+13   4.189617e+12   1.771766e+06   2.730129e-17   0.000000e+00   0.000000e+00
     2360000   2.359999e-05   4.326004e+00   1.260984e+01   1.066502e+00   1.380729e+06   1.147309e+05  -1.105260e+06   2.802427e+13  -2.877367e+13   3.199817e+13   1.772336e+06   2.951807e-17   0.000000e+00   0.000000e+00
     2368000   2.367999e-05   4.434760e+00   1.266172e+01   1.073648e+00   5.901731e+05   1.642318e+06  -3.128118e+05  -1.029843e+13  -6.148059e+12  -5.179853e+13   1.772954e+06   3.166446e-17   0.000000e+00   0.000000e+00
     2376000   2.375999e-05   4.530854e+00   1.270494e+01   1.017097e+00   1.650964e+06   3.491054e+05   5.460394e+05  -1.907846e+13   4.125030e+13   3.136704e+13   1.773616e+06   3.418236e-17   0.000000e+00   0.000000e+00
     2384000   2.383999e-05   4.605001e+00   1.279518e+01   9.962053e-01   1.245780e+06   2.542772e+05  -1.237585e+06   3.255222e+13  -4.031051e+13   2.445896e+13   1.774328e+06   3.682761e-17   0.000000e+00   0.000000e+00
     2392000   2.391999e-05   4.711549e+00   1.284395e+01   1.001756e+00   5.456108e+05   1.657411e+06  -3.259809e+05  -8.619824e+12  -8.562561e+12  -5.807075e+13   1.775096e+06   3.952080e-17   0.000000e+00   0.000000e+00
     2400000   2.399999e-05   4.810023e+00   1.288426e+01   9.553734e-01   1.470922e+06   6.138851e+05   7.832134e+05  -2.993502e+13   5.133923e+13   1.602831e+13   1.775920e+06   4.257934e-17   0.000000e+00   0.000000e+00
     2408000   2.407999e-05   4.884213e+00   1.296592e+01   9.225309e-01   1.605504e+06  -1.470669e+05  -7.468317e+05   2.435531e+13  -1.864239e+13   5.597444e+13   1.776803e+06   4.582931e-17   0.000000e+00   0.000000e+00
     2416000   2.415999e-05   4.975161e+00   1.303386e+01   9.303089e-01   6.560651e+05   1.154063e+06  -1.182419e+06   2.494365e+13  -5.000403e+13  -3.500166e+13   1.777750e+06   4.896218e-17   0.000000e+00   0.000000e+00
     2424000   2.423999e-05   5.080684e+00   1.307034e+01   9.169751e-01   6.875936e+05   1.596707e+06   3.764978e+05  -2.851542e+13   2.565160e+13  -5.658557e+13   1.778766e+06   5.268648e-17   0.000000e+00   0.000000e+00
     2432000   2.431999e-05   5.170437e+00   1.312052e+01   8.743997e-01   1.543068e+06   3.775732e+05   8.026535e+05  -2.999580e+13   5.571130e+13   3.152099e+13   1.779852e+06   5.640820e-17   0.000000e+00   0.000000e+00
     2440000   2.439999e-05   5.246470e+00   1.319558e+01   8.474014e-01   1.688053e+06  -2.639407e+05  -5.028102e+05   1.933077e+13  -9.637580e+12   6.985072e+13   1.781013e+06   6.042230e-17   0.000000e+00   0.000000e+00
     2448000   2.447999e-05   5.329705e+00   1.326582e+01   8.477198e-01   9.879115e+05   5.512458e+05  -1.377165e+06   4.144076e+13  -6.294265e+13   4.491798e+12   1.782253e+06   6.450869e-17   0.000000e+00   0.000000e+00
     2456000   2.455999e-05   5.425284e+00   1.331522e+01   8.491956e-01   4.450720e+05   1.558461e+06  -7.444804e+05   1.059653e+13  -3.571692e+13  -6.851496e+13   1.783576e+06   6.894620e-17   0.000000e+00   0.000000e+00
     2464000   2.463999e-05   5.522300e+00   1.335554e+01   8.328845e-01   6.113184e+05   1.611658e+06   4.637010e+05  -3.200590e+13   3.145082e+13  -6.697676e+13   1.784985e+06   7.379110e-17   0.000000e+00   0.000000e+00
     2472000   2.471999e-05   5.611557e+00   1.340299e+01   8.038106e-01   1.185694e+06   8.409296e+05   1.038503e+06  -4.542489e+13   6.944297e+13  -4.301936e+12   1.786483e+06   7.851885e-17   0.000000e+00   0.000000e+00
     2480000   2.479999e-05   5.692977e+00   1.346159e+01   7.759459e-01   1.645074e+06   7.187650e+03   7.006368e+05  -2.580823e+13   5.513146e+13   6.013585e+13   1.788074e+06   8.341664e-17   0.000000e+00   0.000000e+00
     2488000   2.487999e-05   5.771298e+00   1.352585e+01   7.572161e-01   1.746540e+06  -3.768548e+05  -1.040624e+05   7.309936e+12   9.552569e+12   8.734585e+13   1.789762e+06   8.873500e-17   0.000000e+00   0.000000e+00
     2496000   2.495999e-05   5.850522e+00   1.358912e+01   7.471324e-01   1.551805e+06  -2.728716e+05  -8.527055e+05   3.492311e+13  -3.700351e+13   7.529970e+13   1.791554e+06   9.445905e-17   0.000000e+00   0.000000e+00
     2504000   2.503999e-05   5.931922e+00   1.364820e+01   7.414511e-01   1.235070e+06   1.018052e+05  -1.296421e+06   4.931333e+13  -6.777634e+13   4.158981e+13   1.793452e+06   1.003467e-16   0.000000e+00   0.000000e+00
     2512000   2.511999e-05   6.014878e+00   1.370310e+01   7.364358e-01   9.338092e+05   5.249963e+05  -1.440855e+06   5.209942e+13  -8.089929e+13   4.224106e+12   1.795462e+06   1.065651e-16   0.000000e+00   0.000000e+00
     2520000   2.519999e-05   6.098213e+00   1.375518e+01   7.301942e-01   7.106427e+05   8.684312e+05  -1.404331e+06   4.861317e+13  -8.227435e+13  -2.634797e+13   1.797591e+06   1.131467e-16   0.000000e+00   0.000000e+00
     2528000   2.527999e-05   6.180932e+00   1.380596e+01   7.223245e-01   5.707282e+05   1.093225e+06  -1.310935e+06   4.381193e+13  -7.916315e+13  -4.702170e+13   1.799839e+06   1.200190e-16   0.000000e+00   0.000000e+00
     2536000   2.535999e-05   6.262435e+00   1.385646e+01   7.129789e-01   5.017858e+05   1.198935e+06  -1.248499e+06   4.123863e+13  -7.719154e+13  -5.764083e+13   1.802216e+06   1.270988e-16   0.000000e+00   0.000000e+00
     2544000   2.543999e-05   6.342472e+00   1.390705e+01   7.024657e-01   4.904467e+05   1.197004e+06  -1.258446e+06   4.264718e+13  -7.948046e+13  -5.907167e+13   1.804727e+06   1.349248e-16   0.000000e+00   0.000000e+00
     2552000   2.551999e-05   6.421058e+00   1.395776e+01   6.907963e-01   5.404509e+05   1.084796e+06  -1.340799e+06   4.807975e+13  -8.612220e+13  -5.039003e+13   1.807377e+06   1.427996e-16   0.000000e+00   0.000000e+00
     2560000   2.559999e-05   6.498480e+00   1.400808e+01   6.777858e-01   6.655317e+05   8.471494e+05  -1.454686e+06   5.608917e+13  -9.457405e+13  -2.950384e+13   1.810168e+06   1.513310e-16   0.000000e+00   0.000000e+00
     2568000   2.567999e-05   6.575310e+00   1.405709e+01   6.631766e-01   8.866567e+05   4.680772e+05  -1.510663e+06   6.272133e+13  -9.840605e+13   6.231764e+12   1.813107e+06   1.599739e-16   0.000000e+00   0.000000e+00
     2576000   2.575999e-05   6.652448e+00   1.410335e+01   6.473998e-01   1.198426e+06  -1.967487e+04  -1.364546e+06   6.124892e+13  -8.739091e+13   5.494696e+13   1.816204e+06   1.693508e-16   0.000000e+00   0.000000e+00
     2584000   2.583999e-05   6.730900e+00   1.414561e+01   6.323794e-01   1.527202e+06  -4.748152e+05  -8.675524e+05   4.326009e+13  -5.062778e+13   1.036870e+14   1.819462e+06   1.791346e-16   0.000000e+00   0.000000e+00
     2592000   2.591999e-05   6.810966e+00   1.418399e+01   6.216045e-01   1.708166e+06  -6.364549e+05   2.615233e+02   5.043887e+12   1.333807e+13   1.255009e+14   1.822884e+06   1.889056e-16   0.000000e+00   0.000000e+00
     2600000   2.599999e-05   6.891095e+00   1.422152e+01   6.186818e-01   1.539755e+06  -2.342446e+05   9.540910e+05  -4.280966e+13   8.312980e+13   8.967375e+13   1.826473e+06   1.995260e-16   0.000000e+00   0.000000e+00
     2608000   2.607999e-05   6.967540e+00   1.426406e+01   6.235450e-01   9.628795e+05   7.254430e+05   1.377083e+06  -7.111580e+13   1.117648e+14  -9.023971e+12   1.830236e+06   2.104431e-16   0.000000e+00   0.000000e+00
     2616000   2.615999e-05   7.036532e+00   1.431632e+01   6.288016e-01   2.831125e+05   1.670295e+06   7.029752e+05  -4.718939e+13   5.631568e+13  -1.145399e+14   1.834179e+06   2.219895e-16   0.000000e+00   0.000000e+00
     2624000   2.623999e-05   7.099149e+00   1.437466e+01   6.222592e-01   1.223405e+05   1.661150e+06  -7.778013e+05   2.462869e+13  -5.948317e+13  -1.234135e+14   1.838304e+06   2.333217e-16   0.000000e+00   0.000000e+00
     2632000   2.631999e-05   7.163637e+00   1.442534e+01   6.000739e-01   7.996848e+05   4.221215e+05  -1.605481e+06   7.579940e+13  -1.205846e+14   5.924116e+12   1.842621e+06   2.458588e-16   0.000000e+00   0.000000e+00
     2640000   2.639999e-05   7.238055e+00   1.445802e+01   5.784925e-01   1.611352e+06  -7.361416e+05  -5.230102e+05   3.166311e+13  -2.990614e+13   1.392377e+14   1.847133e+06   2.587701e-16   0.000000e+00   0.000000e+00
     2648000   2.647999e-05   7.316744e+00   1.448497e+01   5.794304e-01   1.351742e+06  -8.127870e+04   1.263140e+06  -6.326444e+13   1.124583e+14   7.511484e+13   1.851846e+06   2.724027e-16   0.000000e+00   0.000000e+00
     2656000   2.655999e-05   7.383268e+00   1.453113e+01   5.940485e-01   2.440852e+05   1.610674e+06   8.909157e+05  -5.803725e+13   7.515407e+13  -1.197074e+14   1.856766e+06   2.868113e-16   0.000000e+00   0.000000e+00
     2664000   2.663999e-05   7.437576e+00   1.459117e+01   5.857461e-01   1.987707e+05   1.337294e+06  -1.280154e+06   5.598620e+13  -1.049453e+14  -1.011269e+14   1.861897e+06   3.011016e-16   0.000000e+00   0.000000e+00
     2672000   2.671999e-05   7.502629e+00   1.462863e+01   5.566680e-01   1.420162e+06  -6.188184e+05  -1.042495e+06   5.908912e+13  -7.754745e+13   1.262830e+14   1.867242e+06   3.162245e-16   0.000000e+00   0.000000e+00
     2680000   2.679999e-05   7.579740e+00   1.464835e+01   5.560805e-01   1.295939e+06  -1.159943e+05   1.347034e+06  -7.050528e+13   1.241943e+14   7.872280e+13   1.872809e+06   3.323606e-16   0.000000e+00   0.000000e+00
     2688000   2.687999e-05   7.639014e+00   1.469681e+01   5.739033e-01  -2.627041e+04   1.844758e+06   3.540221e+05  -3.284832e+13   3.048486e+13  -1.605053e+14   1.878604e+06   3.492331e-16   0.000000e+00   0.000000e+00
     2696000   2.695999e-05   7.689336e+00   1.475169e+01   5.519775e-01   7.334922e+05   3.091721e+05  -1.708286e+06   9.002924e+13  -1.438087e+14   1.245967e+13   1.884632e+06   3.663008e-16   0.000000e+00   0.000000e+00
     2704000   2.703999e-05   7.761895e+00   1.476874e+01   5.340835e-01   1.571873e+06  -7.506859e+05   7.356400e+05  -3.484567e+13   7.584828e+13   1.522657e+14   1.890894e+06   3.841625e-16   0.000000e+00   0.000000e+00
     2712000   2.711999e-05   7.823621e+00   1.480600e+01   5.568609e-01   3.762429e+04   1.706724e+06   8.281293e+05  -5.832730e+13   7.430891e+13  -1.501163e+14   1.897399e+06   4.035749e-16   0.000000e+00   0.000000e+00
     2720000   2.719999e-05   7.868480e+00   1.486248e+01   5.378414e-01   6.703373e+05   3.193948e+05  -1.753399e+06   9.535698e+13  -1.533858e+14   8.328865e+12   1.904147e+06   4.223520e-16   0.000000e+00   0.000000e+00
     2728000   2.727999e-05   7.939337e+00   1.487476e+01   5.222865e-01   1.442225e+06  -6.026222e+05   1.099684e+06  -5.772335e+13   1.100794e+14   1.363362e+14   1.911144e+06   4.429998e-16   0.000000e+00   0.000000e+00
     2736000   2.735999e-05   7.991880e+00   1.491883e+01   5.456933e-01  -2.097937e+05   1.906491e+06   3.908197e+04  -1.601881e+13   2.265742e+12  -1.874583e+14   1.918397e+06   4.642748e-16   0.000000e+00   0.000000e+00
     2744000   2.743999e-05   8.039140e+00   1.496195e+01   5.140133e-01   1.280074e+06  -6.997097e+05  -1.257350e+06   7.691975e+13  -1.082997e+14   1.382857e+14   1.925905e+06   4.859715e-16   0.000000e+00   0.000000e+00
     2752000   2.751999e-05   8.107756e+00   1.497279e+01   5.244970e-01   5.864703e+05   7.443286e+05   1.685567e+06  -1.028892e+14   1.623477e+14  -3.566540e+13   1.933677e+06   5.091755e-16   0.000000e+00   0.000000e+00
     2760000   2.759999e-05   8.144344e+00   1.503139e+01   5.232706e-01   2.338876e+05   8.765266e+05  -1.716753e+06   9.396788e+13  -1.610893e+14  -6.967659e+13   1.941711e+06   5.324882e-16   0.000000e+00   0.000000e+00
     2768000   2.767999e-05   8.208337e+00   1.504031e+01   5.023090e-01   1.386361e+06  -6.923897e+05   1.183703e+06  -6.503279e+13   1.223516e+14   1.480821e+14   1.950013e+06   5.572807e-16   0.000000e+00   0.000000e+00
     2776000   2.775999e-05   8.250940e+00   1.508615e+01   5.253336e-01  -3.055504e+05   1.803454e+06  -7.001858e+05   2.888416e+13  -6.952635e+13  -1.922912e+14   1.958588e+06   5.829254e-16   0.000000e+00   0.000000e+00
     2784000   2.783999e-05   8.301629e+00   1.510929e+01   4.910187e-01   1.565767e+06  -1.188887e+06   7.562321e+04   3.409526e+12   1.744215e+13   2.094610e+14   1.967434e+06   6.095225e-16   0.000000e+00   0.000000e+00
     2792000   2.791999e-05   8.351407e+00   1.513799e+01   5.195398e-01  -3.585197e+05   1.925967e+06   2.625002e+05  -2.922511e+13   2.351134e+13  -2.106738e+14   1.976560e+06   6.374739e-16   0.000000e+00   0.000000e+00
     2800000   2.799999e-05   8.391879e+00   1.517184e+01   4.853312e-01   1.467812e+06  -1.183253e+06  -6.240874e+05   4.574900e+13  -5.241433e+13   2.062158e+14   1.985962e+06   6.656859e-16   0.000000e+00   0.000000e+00
     2808000   2.807999e-05   8.443963e+00   1.519047e+01   5.123713e-01  -3.230108e+05   1.840286e+06   7.011360e+05  -5.557289e+13   6.794157e+13  -2.032309e+14   1.995640e+06   6.954935e-16   0.000000e+00   0.000000e+00
     2816000   2.815999e-05   8.479131e+00   1.522706e+01   4.799526e-01   1.407327e+06  -1.182298e+06  -8.025098e+05   5.716706e+13  -7.180806e+13   2.054119e+14   2.005597e+06   7.255480e-16   0.000000e+00   0.000000e+00
     2824000   2.823999e-05   8.528819e+00   1.524319e+01   5.070637e-01  -3.937855e+05   1.869625e+06   6.426709e+05  -5.260099e+13   6.262829e+13  -2.136112e+14   2.015835e+06   7.575975e-16   0.000000e+00   0.000000e+00
     2832000   2.831999e-05   8.562844e+00   1.527521e+01   4.736022e-01   1.459858e+06  -1.316313e+06  -4.921630e+05   3.920682e+13  -4.113311e+13   2.252119e+14   2.026349e+06   7.893796e-16   0.000000e+00   0.000000e+00
     2840000   2.839999e-05   8.605784e+00   1.529592e+01   5.030288e-01  -5.380593e+05   1.963223e+06   7.876017e+04  -1.818843e+13   4.738607e+12  -2.352992e+14   2.037144e+06   8.239815e-16   0.000000e+00   0.000000e+00
     2848000   2.847999e-05   8.642945e+00   1.531609e+01   4.684759e-01   1.489008e+06  -1.363491e+06   3.448822e+05  -1.309705e+13   4.472019e+13   2.350114e+14   2.048218e+06   8.581208e-16   0.000000e+00   0.000000e+00
     2856000   2.855999e-05   8.674625e+00   1.534821e+01   4.965437e-01  -5.176169e+05   1.738390e+06  -9.756547e+05   5.038996e+13  -1.045935e+14  -2.137010e+14   2.059570e+06   8.940425e-16   0.000000e+00   0.000000e+00
     2864000   2.863999e-05   8.718507e+00   1.535136e+01   4.693547e-01   1.174746e+06  -8.229642e+05   1.494168e+06  -9.034737e+13   1.633492e+14   1.614107e+14   2.071192e+06   9.309423e-16   0.000000e+00   0.000000e+00
     2872000   2.871999e-05   8.737449e+00   1.539591e+01   4.827867e-01   9.299458e+03   6.952715e+05  -1.963612e+06   1.214637e+14  -2.063412e+14  -7.280457e+13   2.083089e+06   9.684457e-16   0.000000e+00   0.000000e+00
     2880000   2.879999e-05   8.785411e+00   1.538771e+01   4.790026e-01   2.839272e+05   5.916222e+05   1.989837e+06  -1.324766e+14   2.120624e+14  -4.382405e+13   2.095252e+06   1.008110e-15   0.000000e+00   0.000000e+00
     2888000   2.887999e-05   8.799472e+00   1.543024e+01   4.637275e-01   9.819838e+05  -9.484407e+05  -1.605765e+06   1.099941e+14  -1.646377e+14   1.640963e+14   2.107680e+06   1.046872e-15   0.000000e+00   0.000000e+00
     2896000   2.895999e-05   8.837999e+00   1.543291e+01   4.884680e-01  -6.651063e+05   1.917641e+06   6.133908e+05  -5.253720e+13   6.141873e+13  -2.478716e+14   2.120368e+06   1.089009e-15   0.000000e+00   0.000000e+00
     2904000   2.903999e-05   8.863057e+00   1.544831e+01   4.551418e-01   1.391680e+06  -1.500020e+06   6.034731e+05  -3.019832e+13   7.286245e+13   2.519056e+14   2.133310e+06   1.129988e-15   0.000000e+00   0.000000e+00
     2912000   2.911999e-05   8.879224e+00   1.548001e+01   4.792876e-01  -4.113811e+05   1.182567e+06  -1.743494e+06   1.067346e+14  -1.901297e+14  -1.545540e+14   2.146502e+06   1.172762e-15   0.000000e+00   0.000000e+00
     2920000   2.919999e-05   8.917876e+00   1.546785e+01   4.695344e-01   2.838032e+05   3.620042e+05   2.110385e+06  -1.415666e+14   2.297051e+14  -2.001772e+13   2.159934e+06   1.217039e-15   0.000000e+00   0.000000e+00
     2928000   2.927999e-05   8.923881e+00   1.550493e+01   4.548186e-01   1.002634e+06  -1.204935e+06  -1.505789e+06   1.068891e+14  -1.573996e+14   1.966266e+14   2.173602e+06   1.260368e-15   0.000000e+00   0.000000e+00
     2936000   2.935999e-05   8.950944e+00   1.550759e+01   4.828663e-01  -8.940527e+05   1.996444e+06  -4.864323e+03  -1.258078e+13  -5.923743e+12  -2.764766e+14   2.187497e+06   1.306731e-15   0.000000e+00   0.000000e+00
     2944000   2.943999e-05   8.973992e+00   1.550747e+01   4.528133e-01   1.079218e+06  -1.146839e+06   1.538552e+06  -9.538562e+13   1.740833e+14   1.971789e+14   2.201611e+06   1.352152e-15   0.000000e+00   0.000000e+00
     2952000   2.951999e-05   8.975370e+00   1.554263e+01   4.632038e-01   1.469144e+05  -1.492549e+04  -2.211013e+06   1.472671e+14  -2.410179e+14   1.105103e+13   2.215939e+06   1.398097e-15   0.000000e+00   0.000000e+00
     2960000   2.959999e-05   9.004930e+00   1.552774e+01   4.764704e-01  -6.708001e+05   1.608444e+06   1.392092e+06  -1.033884e+14   1.486445e+14  -2.209791e+14   2.230468e+06   1.446927e-15   0.000000e+00   0.000000e+00
     2968000   2.967999e-05   9.012230e+00   1.554118e+01   4.452951e-01   1.306834e+06  -1.780375e+06   4.041237e+05  -1.627669e+13   5.185389e+13   2.831348e+14   2.245188e+06   1.493088e-15   0.000000e+00   0.000000e+00
     2976000   2.975999e-05   9.014265e+00   1.556417e+01   4.700561e-01  -5.183144e+05   9.425636e+05  -1.987696e+06   1.271242e+14  -2.219151e+14  -1.388070e+14   2.260091e+06   1.541289e-15   0.000000e+00   0.000000e+00
     2984000   2.983999e-05   9.039387e+00   1.554254e+01   4.682041e-01  -2.858955e+05   8.794573e+05   2.078744e+06  -1.453206e+14   2.273986e+14  -1.157773e+14   2.275161e+06   1.590657e-15   0.000000e+00   0.000000e+00
     2992000   2.991999e-05   9.034622e+00   1.556357e+01   4.436943e-01   1.205633e+06  -1.864310e+06  -5.627467e+05   4.905163e+13  -5.525198e+13   2.865752e+14   2.290390e+06   1.637293e-15   0.000000e+00   0.000000e+00
     3000000   2.999999e-05   9.037190e+00   1.557318e+01   4.743749e-01  -9.424211e+05   1.524736e+06  -1.450372e+06   8.773800e+13  -1.658551e+14  -2.319831e+14   2.305766e+06   1.686594e-15   0.000000e+00   0.000000e+00
     3008000   3.007999e-05   9.054729e+00   1.554975e+01   4.611202e-01   6.752615e+04   1.534796e+05   2.315207e+06  -1.570054e+14   2.561004e+14  -1.200773e+13   2.321271e+06   1.735473e-15   0.000000e+00   0.000000e+00
     3016000   3.015999e-05   9.040455e+00   1.557381e+01   4.453484e-01   9.541971e+05  -1.687169e+06  -1.305393e+06   9.796035e+13  -1.388404e+14   2.503500e+14   2.336896e+06   1.781605e-15   0.000000e+00   0.000000e+00
     3024000   3.023999e-05   9.042701e+00   1.557050e+01   4.774281e-01  -1.211618e+06   1.856455e+06  -7.876572e+05   4.108279e+13  -9.434987e+13  -2.867505e+14   2.352626e+06   1.830676e-15   0.000000e+00   0.000000e+00
     3032000   3.031999e-05   9.050906e+00   1.554783e+01   4.551666e-01   3.985380e+05  -5.677532e+05   2.264585e+06  -1.490600e+14   2.522486e+14   8.988855e+13   2.368443e+06   1.877617e-15   0.000000e+00   0.000000e+00
     3040000   3.039999e-05   9.028573e+00   1.557213e+01   4.499306e-01   5.726460e+05  -1.292288e+06  -1.920191e+06   1.367174e+14  -2.086375e+14   1.806912e+14   2.384338e+06   1.921999e-15   0.000000e+00   0.000000e+00
     3048000   3.047999e-05   9.030392e+00   1.555521e+01   4.796857e-01  -1.349807e+06   1.983563e+06   6.994509e+04  -1.745015e+13  -4.878476e+11  -3.092072e+14   2.400290e+06   1.969229e-15   0.000000e+00   0.000000e+00
     3056000   3.055999e-05   9.026851e+00   1.553679e+01   4.496908e-01   7.474303e+05  -1.356795e+06   1.854423e+06  -1.161992e+14   2.081997e+14   1.996860e+14   2.416284e+06   2.012412e-15   0.000000e+00   0.000000e+00
     3064000   3.063999e-05   8.998410e+00   1.555790e+01   4.587737e-01  -2.132435e+04  -5.426058e+05  -2.370915e+06   1.617123e+14  -2.606023e+14   5.777594e+13   2.432306e+06   2.053503e-15   0.000000e+00   0.000000e+00
     3072000   3.071999e-05   8.999905e+00   1.552608e+01   4.795032e-01  -1.238392e+06   1.722873e+06   1.221655e+06  -9.274148e+13   1.262902e+14  -2.713129e+14   2.448336e+06   2.096863e-15   0.000000e+00   0.000000e+00
     3080000   3.079999e-05   8.980637e+00   1.551834e+01   4.457700e-01   1.028984e+06  -2.100615e+06   7.756649e+05  -3.897608e+13   9.053601e+13   2.981613e+14   2.464356e+06   2.134245e-15   0.000000e+00   0.000000e+00
     3088000   3.087999e-05   8.951233e+00   1.552781e+01   4.731911e-01  -8.854191e+05   6.981042e+05  -2.209260e+06   1.420438e+14  -2.461620e+14  -1.351608e+14   2.480352e+06   2.171358e-15   0.000000e+00   0.000000e+00
     3096000   3.095999e-05   8.949242e+00   1.548463e+01   4.724621e-01  -5.960679e+05   5.857797e+05   2.352249e+06  -1.597435e+14   2.516626e+14  -1.027284e+14   2.496300e+06   2.207466e-15   0.000000e+00   0.000000e+00
     3104000   3.103999e-05   8.911007e+00   1.549371e+01   4.501372e-01   7.906731e+05  -2.080878e+06  -1.164416e+06   8.945255e+13  -1.214871e+14   2.769910e+14   2.512187e+06   2.237453e-15   0.000000e+00   0.000000e+00
     3112000   3.111999e-05   8.890129e+00   1.547481e+01   4.881264e-01  -1.624278e+06   1.873007e+06  -4.942973e+05   2.019586e+13  -6.339099e+13  -3.085835e+14   2.527996e+06   2.269470e-15   0.000000e+00   0.000000e+00
     3120000   3.119999e-05   8.871354e+00   1.544073e+01   4.574770e-01   5.695160e+05  -1.556695e+06   1.929452e+06  -1.168123e+14   2.100448e+14   2.044610e+14   2.543704e+06   2.295875e-15   0.000000e+00   0.000000e+00
     3128000   3.127999e-05   8.823762e+00   1.545294e+01   4.739201e-01  -6.158450e+05  -1.059995e+05  -2.481836e+06   1.620152e+14  -2.687228e+14  -2.912556e+13   2.559299e+06   2.318074e-15   0.000000e+00   0.000000e+00
     3136000   3.135999e-05   8.811708e+00   1.540086e+01   4.831710e-01  -9.174532e+05   7.803713e+05   2.275668e+06  -1.528648e+14   2.356755e+14  -1.420110e+14   2.574755e+06   2.340692e-15   0.000000e+00   0.000000e+00
     3144000   3.143999e-05   8.760461e+00   1.540413e+01   4.590586e-01   5.850434e+05  -2.105318e+06  -1.390595e+06   1.026580e+14  -1.433849e+14   2.595619e+14   2.590057e+06   2.354077e-15   0.000000e+00   0.000000e+00
     3152000   3.151999e-05   8.732455e+00   1.537009e+01   4.986714e-01  -1.776951e+06   1.863546e+06   3.957821e+05  -3.787159e+13   3.009741e+13  -3.092711e+14   2.605187e+06   2.370020e-15   0.000000e+00   0.000000e+00
     3160000   3.159999e-05   8.692072e+00   1.534297e+01   4.604025e-01   8.088891e+05  -2.408771e+06   6.391950e+05  -2.564184e+13   7.122210e+13   3.023658e+14   2.620124e+06   2.376884e-15   0.000000e+00   0.000000e+00
     3168000   3.167999e-05   8.643194e+00   1.533205e+01   5.010090e-01  -1.734234e+06   1.475824e+06  -1.325461e+06   7.381737e+13  -1.483254e+14  -2.624612e+14   2.634857e+06   2.383413e-15   0.000000e+00   0.000000e+00
     3176000   3.175999e-05   8.611015e+00   1.528105e+01   4.713696e-01   4.326090e+05  -1.804597e+06   1.890871e+06  -1.074516e+14   1.964471e+14   2.125717e+14   2.649361e+06   2.384432e-15   0.000000e+00   0.000000e+00
     3184000   3.183999e-05   8.547620e+00   1.528130e+01   5.007551e-01  -1.445349e+06   7.733595e+05  -2.099470e+06   1.254442e+14  -2.231836e+14  -1.690203e+14   2.663624e+06   2.379614e-15   0.000000e+00   0.000000e+00
     3192000   3.191999e-05   8.516230e+00   1.521849e+01   4.820151e-01   9.709734e+04  -1.351407e+06   2.309532e+06  -1.343327e+14   2.334173e+14   1.426323e+14   2.677623e+06   2.372957e-15   0.000000e+00   0.000000e+00
     3200000   3.199999e-05   8.444594e+00   1.521994e+01   5.054147e-01  -1.390042e+06   5.135979e+05  -2.246640e+06   1.340241e+14  -2.339253e+14  -1.368073e+14   2.691354e+06   2.359338e-15   0.000000e+00   0.000000e+00
     3208000   3.207999e-05   8.408810e+00   1.515272e+01   4.878286e-01   9.660251e+04  -1.494054e+06   2.252635e+06  -1.273475e+14   2.234679e+14   1.540747e+14   2.704791e+06   2.343705e-15   0.000000e+00   0.000000e+00
     3216000   3.215999e-05   8.333618e+00   1.514893e+01   5.173450e-01  -1.700027e+06   8.970482e+05  -1.921550e+06   1.092837e+14  -1.999266e+14  -1.904769e+14   2.717930e+06   2.321803e-15   0.000000e+00   0.000000e+00
     3224000   3.223999e-05   8.287757e+00   1.508509e+01   4.888116e-01   4.047923e+05  -2.211191e+06   1.550406e+06  -7.800117e+13   1.527671e+14   2.387993e+14   2.730748e+06   2.297303e-15   0.000000e+00   0.000000e+00
     3232000   3.231999e-05   8.216894e+00   1.506419e+01   5.334451e-01  -2.137689e+06   1.596861e+06  -6.369273e+05   2.615908e+13  -7.590575e+13  -2.794294e+14   2.743239e+06   2.266876e-15   0.000000e+00   0.000000e+00
     3240000   3.239999e-05   8.150320e+00   1.502059e+01   4.934669e-01   4.720801e+05  -2.686225e+06  -3.917626e+05   4.075840e+13  -3.427908e+13   2.820551e+14   2.755384e+06   2.229218e-15   0.000000e+00   0.000000e+00
     3248000   3.247999e-05   8.094645e+00   1.496325e+01   5.384629e-01  -1.782233e+06   1.154004e+06   1.774604e+06  -1.110030e+14   1.537234e+14  -2.109913e+14   2.767183e+06   2.195920e-15   0.000000e+00   0.000000e+00
     3256000   3.255999e-05   8.002432e+00   1.495177e+01   5.220265e-01  -7.924221e+05  -1.038973e+06  -2.452214e+06   1.468651e+14  -2.323406e+14   5.066247e+13   2.778624e+06   2.149416e-15   0.000000e+00   0.000000e+00
     3264000   3.263999e-05   7.951204e+00   1.486946e+01   5.187011e-01  -6.781604e+04  -1.714100e+06   2.199919e+06  -1.123424e+14   2.000421e+14   1.527480e+14   2.789692e+06   2.106983e-15   0.000000e+00   0.000000e+00
     3272000   3.271999e-05   7.865595e+00   1.484264e+01   5.617114e-01  -2.320791e+06   1.557210e+06  -1.766900e+05  -1.783266e+12  -3.274812e+13  -2.693611e+14   2.800392e+06   2.057824e-15   0.000000e+00   0.000000e+00
     3280000   3.279999e-05   7.775935e+00   1.480668e+01   5.288661e-01  -2.811701e+05  -2.037644e+06  -1.915478e+06   1.193559e+14  -1.720146e+14   1.650942e+14   2.810713e+06   2.001510e-15   0.000000e+00   0.000000e+00
     3288000   3.287999e-05   7.716689e+00   1.472123e+01   5.398804e-01  -3.114354e+05  -1.500676e+06   2.367917e+06  -1.177507e+14   2.044651e+14   1.143840e+14   2.820647e+06   1.949450e-15   0.000000e+00   0.000000e+00
     3296000   3.295999e-05   7.624784e+00   1.468671e+01   5.823361e-01  -2.374614e+06   1.486778e+06   4.009138e+05  -3.281626e+13   1.672908e+13  -2.547575e+14   2.830200e+06   1.891408e-15   0.000000e+00   0.000000e+00
     3304000   3.303999e-05   7.521645e+00   1.465575e+01   5.629715e-01  -1.149575e+06  -9.542092e+05  -2.414529e+06   1.337192e+14  -2.128668e+14   2.019571e+13   2.839364e+06   1.827339e-15   0.000000e+00   0.000000e+00
     3312000   3.311999e-05   7.446322e+00   1.457448e+01   5.476399e-01   2.058370e+05  -2.799628e+06   4.812185e+05  -4.709985e+12   4.128737e+13   2.434838e+14   2.848132e+06   1.763770e-15   0.000000e+00   0.000000e+00
     3320000   3.319999e-05   7.367834e+00   1.449972e+01   5.835882e-01  -1.124402e+06  -4.244427e+05   2.591378e+06  -1.291089e+14   2.033126e+14  -2.249406e+13   2.856514e+06   1.701471e-15   0.000000e+00   0.000000e+00
     3328000   3.327999e-05   7.262687e+00   1.446141e+01   6.159118e-01  -2.493583e+06   1.363845e+06   3.568982e+05  -2.876983e+13   9.183744e+12  -2.345374e+14   2.864508e+06   1.635234e-15   0.000000e+00   0.000000e+00
     3336000   3.335999e-05   7.150416e+00   1.442264e+01   6.101165e-01  -1.932526e+06   1.248843e+03  -2.124705e+06   1.043027e+14  -1.823947e+14  -9.522622e+13   2.872113e+06   1.564415e-15   0.000000e+00   0.000000e+00
     3344000   3.343999e-05   7.050406e+00   1.435620e+01   5.922274e-01  -5.862249e+05  -2.176962e+06  -1.791010e+06   1.029624e+14  -1.428147e+14   1.396073e+14   2.879330e+06   1.491701e-15   0.000000e+00   0.000000e+00
     3352000   3.351999e-05   6.959421e+00   1.427218e+01   5.922399e-01   1.326592e+04  -2.872313e+06   2.821723e+05   8.476144e+12   2.126366e+13   2.177493e+14   2.886170e+06   1.423132e-15   0.000000e+00   0.000000e+00
     3360000   3.359999e-05   6.865693e+00   1.419011e+01   6.127973e-01  -3.570162e+05  -2.060387e+06   1.998675e+06  -7.705926e+13   1.450279e+14   1.359685e+14   2.892638e+06   1.355565e-15   0.000000e+00   0.000000e+00
     3368000   3.367999e-05   6.763303e+00   1.411761e+01   6.413543e-01  -1.131732e+06  -7.901607e+05   2.549024e+06  -1.101895e+14   1.755180e+14   5.654042e+12   2.898740e+06   1.287077e-15   0.000000e+00   0.000000e+00
     3376000   3.375999e-05   6.653045e+00   1.405152e+01   6.678207e-01  -1.819363e+06   1.880100e+05   2.256232e+06  -1.026286e+14   1.447094e+14  -9.463615e+13   2.904481e+06   1.215493e-15   0.000000e+00   0.000000e+00
     3384000   3.383999e-05   6.538068e+00   1.398612e+01   6.892634e-01  -2.249073e+06   7.008482e+05   1.708153e+06  -8.083495e+13   9.905198e+13  -1.468516e+14   2.909863e+06   1.144005e-15   0.000000e+00   0.000000e+00
     3392000   3.391999e-05   6.420936e+00   1.391753e+01   7.070478e-01  -2.457261e+06   8.828089e+05   1.295811e+06  -6.313969e+13   6.617435e+13  -1.645422e+14   2.914894e+06   1.073137e-15   0.000000e+00   0.000000e+00
     3400000   3.399999e-05   6.303011e+00   1.384411e+01   7.230436e-01  -2.518893e+06   8.890603e+05   1.178451e+06  -5.713672e+13   5.535460e+13  -1.636079e+14   2.919589e+06   1.005405e-15   0.000000e+00   0.000000e+00
     3408000   3.407999e-05   6.184708e+00   1.376534e+01   7.378250e-01  -2.458032e+06   7.709442e+05   1.383202e+06  -6.330046e+13   6.664611e+13  -1.494123e+14   2.923957e+06   9.376186e-16   0.000000e+00   0.000000e+00
     3416000   3.415999e-05   6.065623e+00   1.368163e+01   7.501522e-01  -2.231292e+06   4.544845e+05   1.840663e+06  -7.731994e+13   9.456754e+13  -1.169236e+14   2.928012e+06   8.736104e-16   0.000000e+00   0.000000e+00
     3424000   3.423999e-05   5.944031e+00   1.359517e+01   7.575669e-01  -1.771011e+06  -2.100843e+05   2.326943e+06  -8.833351e+13   1.248560e+14  -5.584331e+13   2.931771e+06   8.120730e-16   0.000000e+00   0.000000e+00
     3432000   3.431999e-05   5.816335e+00   1.351111e+01   7.590694e-01  -1.101307e+06  -1.288099e+06   2.396577e+06  -7.888773e+13   1.309175e+14   3.421565e+13   2.935244e+06   7.532966e-16   0.000000e+00   0.000000e+00
     3440000   3.439999e-05   5.678582e+00   1.343680e+01   7.602710e-01  -5.146705e+05  -2.461913e+06   1.519393e+06  -3.358535e+13   8.190069e+13   1.214781e+14   2.938444e+06   6.952179e-16   0.000000e+00   0.000000e+00
     3448000   3.447999e-05   5.531879e+00   1.337452e+01   7.766476e-01  -5.879190e+05  -2.866436e+06  -2.994502e+05   3.669879e+13  -2.194692e+13   1.373405e+14   2.941390e+06   6.379753e-16   0.000000e+00   0.000000e+00
     3456000   3.455999e-05   5.388556e+00   1.330956e+01   8.226549e-01  -1.644781e+06  -1.702656e+06  -1.750240e+06   7.646413e+13  -1.092019e+14   3.426791e+13   2.944093e+06   5.852552e-16   0.000000e+00   0.000000e+00
     3464000   3.463999e-05   5.264816e+00   1.321404e+01   8.828062e-01  -2.803315e+06   2.320838e+05  -8.773691e+05   2.699959e+13  -7.354358e+13  -1.059192e+14   2.946560e+06   5.370496e-16   0.000000e+00   0.000000e+00
     3472000   3.471999e-05   5.151014e+00   1.308832e+01   9.067397e-01  -2.354891e+06   2.684634e+05   1.754385e+06  -5.990817e+13   6.382599e+13  -9.009106e+13   2.948805e+06   4.889878e-16   0.000000e+00   0.000000e+00
     3480000   3.479999e-05   5.006823e+00   1.299031e+01   8.877977e-01  -7.906845e+05  -2.128663e+06   1.884431e+06  -3.812218e+13   8.289155e+13   7.771533e+13   2.950841e+06   4.457470e-16   0.000000e+00   0.000000e+00
     3488000   3.487999e-05   4.836434e+00   1.294170e+01   9.174603e-01  -1.261138e+06  -2.442455e+06  -1.078090e+06   5.742723e+13  -6.279362e+13   7.496436e+13   2.952682e+06   3.995914e-16   0.000000e+00   0.000000e+00
     3496000   3.495999e-05   4.708573e+00   1.284484e+01   1.005904e+00  -2.916649e+06   2.078572e+05  -4.220341e+05   1.002671e+13  -5.084653e+13  -9.461220e+13   2.954345e+06   3.619927e-16   0.000000e+00   0.000000e+00
     3504000   3.503999e-05   4.588711e+00   1.270145e+01   1.009795e+00  -1.488760e+06  -9.582269e+05   2.366935e+06  -5.661617e+13   8.530659e+13  -1.030871e+12   2.955839e+06   3.264367e-16   0.000000e+00   0.000000e+00
     3512000   3.511999e-05   4.405258e+00   1.264837e+01   1.016395e+00  -1.128570e+06  -2.682462e+06  -5.250049e+05   4.343216e+13  -3.385562e+13   7.944069e+13   2.957178e+06   2.911931e-16   0.000000e+00   0.000000e+00
     3520000   3.519999e-05   4.277459e+00   1.254994e+01   1.124935e+00  -2.949221e+06   2.172450e+05   8.313434e+04  -4.772223e+12  -3.160749e+13  -8.569404e+13   2.958380e+06   2.609219e-16   0.000000e+00   0.000000e+00
     3528000   3.527999e-05   4.140571e+00   1.240774e+01   1.110239e+00  -9.319999e+05  -1.968576e+06   2.003604e+06  -2.760977e+13   6.472147e+13   5.078454e+13   2.959450e+06   2.350468e-16   0.000000e+00   0.000000e+00
     3536000   3.535999e-05   3.957124e+00   1.237007e+01   1.185706e+00  -2.379103e+06  -1.375796e+06  -1.100470e+06   4.315430e+13  -6.861695e+13  -7.571195e+12   2.960402e+06   2.070149e-16   0.000000e+00   0.000000e+00
     3544000   3.543999e-05   3.854305e+00   1.220370e+01   1.244540e+00  -1.730595e+06  -6.047855e+05   2.325571e+06  -4.625278e+13   5.820648e+13  -1.925695e+13   2.961250e+06   1.843284e-16   0.000000e+00   0.000000e+00
     3552000   3.551999e-05   3.653177e+00   1.215757e+01   1.271204e+00  -1.772133e+06  -2.271231e+06  -6.888236e+05   4.412389e+13  -4.508596e+13   3.506725e+13   2.961996e+06   1.628839e-16   0.000000e+00   0.000000e+00
     3560000   3.559999e-05   3.555864e+00   1.200431e+01   1.376856e+00  -2.064684e+06  -2.070265e+05   2.114614e+06  -4.196214e+13   3.785239e+13  -3.724383e+13   2.962663e+06   1.432934e-16   0.000000e+00   0.000000e+00
     3568000   3.567999e-05   3.351216e+00   1.194705e+01   1.397414e+00  -1.726038e+06  -2.376590e+06  -3.917096e+05   4.022577e+13  -3.503841e+13   3.522984e+13   2.963245e+06   1.278959e-16   0.000000e+00   0.000000e+00
     3576000   3.575999e-05   3.259697e+00   1.179036e+01   1.512733e+00  -1.806219e+06  -3.814929e+05   2.318612e+06  -3.891942e+13   3.866175e+13  -2.394191e+13   2.963769e+06   1.121563e-16   0.000000e+00   0.000000e+00
     3584000   3.583999e-05   3.052758e+00   1.174723e+01   1.566975e+00  -2.196245e+06  -1.955817e+06  -3.713493e+05   3.576129e+13  -4.241046e+13   1.177974e+13   2.964222e+06   1.007158e-16   0.000000e+00   0.000000e+00
     3592000   3.591999e-05   2.959944e+00   1.156944e+01   1.654914e+00  -1.069922e+06  -1.134399e+06   2.521405e+06  -2.588591e+13   4.615188e+13   9.791241e+12   2.964637e+06   9.071136e-17   0.000000e+00   0.000000e+00
     3600000   3.599999e-05   2.781132e+00   1.154304e+01   1.783658e+00  -2.823834e+06  -8.851016e+05   1.837293e+05   1.156249e+13  -4.207584e+13  -2.484979e+13   2.964996e+06   7.900232e-17   0.000000e+00   0.000000e+00
     3608000   3.607999e-05   2.641984e+00   1.137437e+01   1.823690e+00  -6.779446e+05  -2.282287e+06   1.767691e+06   1.081407e+13   2.727583e+13   3.937720e+13   2.965329e+06   7.557020e-17   0.000000e+00   0.000000e+00
     3616000   3.615999e-05   2.544936e+00   1.130443e+01   2.012695e+00  -2.331016e+06   7.064666e+04   1.832035e+06  -2.807652e+13  -3.618781e+12  -3.557273e+13   2.965633e+06   6.478263e-17   0.000000e+00   0.000000e+00
     3624000   3.623999e-05   2.344263e+00   1.122435e+01   2.075397e+00  -1.757233e+06  -2.316772e+06   5.842194e+05   3.451615e+13  -2.096270e+13   2.072457e+13   2.965908e+06   6.458994e-17   0.000000e+00   0.000000e+00
     3632000   3.631999e-05   2.280902e+00   1.106234e+01   2.217544e+00  -6.186384e+05  -8.550290e+05   2.772083e+06  -1.941218e+13   3.870515e+13   7.613131e+12   2.966182e+06   6.060758e-17   0.000000e+00   0.000000e+00
     3640000   3.639999e-05   2.141036e+00   1.105171e+01   2.395451e+00  -2.662591e+06  -4.905896e+05   1.212272e+06  -4.657193e+12  -3.390107e+13  -2.393381e+13   2.966424e+06   5.468610e-17   0.000000e+00   0.000000e+00
     3648000   3.647999e-05   1.984872e+00   1.091155e+01   2.479412e+00  -7.307622e+05  -2.351110e+06   1.655111e+06   3.049119e+13   1.074684e+13   2.873977e+13   2.966669e+06   5.869099e-17   0.000000e+00   0.000000e+00
     3656000   3.655999e-05   1.954974e+00   1.081630e+01   2.681990e+00  -9.584901e+05   1.369258e+05   2.804487e+06  -3.382914e+13   2.157073e+13  -1.260865e+13   2.966918e+06   5.548632e-17   0.000000e+00   0.000000e+00
     3664000   3.663999e-05   1.791467e+00   1.080530e+01   2.839118e+00  -2.366443e+06  -1.295988e+06   1.234643e+06   1.790277e+13  -3.801871e+13  -5.578907e+12   2.967151e+06   5.638322e-17   0.000000e+00   0.000000e+00
     3672000   3.671999e-05   1.702588e+00   1.064647e+01   2.972363e+00   1.008922e+05  -1.601869e+06   2.495863e+06   1.479170e+13   3.514329e+13   2.196513e+13   2.967406e+06   6.076394e-17   0.000000e+00   0.000000e+00
     3680000   3.679999e-05   1.672094e+00   1.063002e+01   3.195320e+00  -1.622730e+06   5.250936e+05   2.428591e+06  -3.602450e+13  -1.051794e+13  -2.178889e+13   2.967664e+06   5.910615e-17   0.000000e+00   0.000000e+00
     3688000   3.687999e-05   1.506690e+00   1.057268e+01   3.337566e+00  -1.369946e+06  -2.060144e+06   1.639411e+06   4.079445e+13  -1.731921e+13   1.233814e+13   2.967931e+06   6.643724e-17   0.000000e+00   0.000000e+00
     3696000   3.695999e-05   1.500790e+00   1.045247e+01   3.526576e+00   2.881421e+05  -6.567188e+04   2.953476e+06  -2.276925e+13   4.153556e+13   3.152568e+12   2.968225e+06   7.075914e-17   0.000000e+00   0.000000e+00
     3704000   3.703999e-05   1.408359e+00   1.048472e+01   3.728067e+00  -2.283248e+06  -4.641710e+05   1.839432e+06  -9.301302e+11  -4.677604e+13  -1.294543e+13   2.968533e+06   7.400327e-17   0.000000e+00   0.000000e+00
     3712000   3.711999e-05   1.317535e+00   1.035264e+01   3.882157e+00   4.579862e+05  -1.558475e+06   2.485076e+06   2.831170e+13   3.824629e+13   1.877837e+13   2.968871e+06   8.220424e-17   0.000000e+00   0.000000e+00
     3720000   3.719999e-05   1.324995e+00   1.035905e+01   4.103469e+00  -1.400793e+06   8.581399e+05   2.473406e+06  -4.510553e+13  -1.942664e+13  -1.879396e+13   2.969236e+06   8.687980e-17   0.000000e+00   0.000000e+00
     3728000   3.727999e-05   1.185724e+00   1.029856e+01   4.263574e+00  -5.641083e+05  -2.075399e+06   2.047729e+06   5.353529e+13  -5.433055e+10   1.470789e+13   2.969628e+06   9.687265e-17   0.000000e+00   0.000000e+00
     3736000   3.735999e-05   1.222938e+00   1.024259e+01   4.472120e+00  -1.403248e+05   1.013644e+06   2.788203e+06  -5.272957e+13   2.052943e+13  -1.010535e+13   2.970058e+06   1.038683e-16   0.000000e+00   0.000000e+00
     3744000   3.743999e-05   1.096955e+00   1.024679e+01   4.650526e+00  -1.409148e+06  -1.763438e+06   1.930948e+06   4.960526e+13  -3.313708e+13   5.956607e+12   2.970517e+06   1.130271e-16   0.000000e+00   0.000000e+00
     3752000   3.751999e-05   1.122345e+00   1.015583e+01   4.845460e+00   6.000061e+05   7.263102e+05   2.817696e+06  -4.312415e+13   4.480825e+13  -2.353416e+12   2.971017e+06   1.218349e-16   0.000000e+00   0.000000e+00
     3760000   3.759999e-05   1.023128e+00   1.018980e+01   5.033942e+00  -1.738011e+06  -1.410949e+06   1.954147e+06   4.157859e+13  -4.984111e+13   1.014707e+12   2.971557e+06   1.326078e-16   0.000000e+00   0.000000e+00
     3768000   3.767999e-05   1.040198e+00   1.009226e+01   5.223319e+00   8.645540e+05   6.515886e+05   2.767962e+06  -4.032383e+13   5.393753e+13  -8.583872e+10   2.972143e+06   1.427760e-16   0.000000e+00   0.000000e+00
     3776000   3.775999e-05   9.506864e-01   1.013157e+01   5.411783e+00  -1.693801e+06  -1.443929e+06   1.970670e+06   4.665500e+13  -5.292433e+13   1.347298e+12   2.972782e+06   1.568281e-16   0.000000e+00   0.000000e+00
     3784000   3.783999e-05   9.778759e-01   1.004544e+01   5.601753e+00   7.260093e+05   9.834630e+05   2.710580e+06  -5.413238e+13   4.867122e+13  -3.140524e+12   2.973472e+06   1.672859e-16   0.000000e+00   0.000000e+00
     3792000   3.791999e-05   8.794521e-01   1.006911e+01   5.784870e+00  -1.163703e+06  -1.834298e+06   2.031521e+06   6.674233e+13  -3.558412e+13   6.130375e+12   2.974211e+06   1.815333e-16   0.000000e+00   0.000000e+00
     3800000   3.799999e-05   9.282594e-01   1.001912e+01   5.979860e+00  -3.454842e+04   1.485587e+06   2.577308e+06  -7.650206e+13   1.576674e+13  -1.008954e+13   2.975009e+06   1.956542e-16   0.000000e+00   0.000000e+00
     3808000   3.807999e-05   8.219036e-01   9.998051e+00   6.154221e+00   7.302512e+04  -2.021997e+06   2.182204e+06   7.862428e+13   1.636529e+13   1.256303e+13   2.975872e+06   2.085345e-16   0.000000e+00   0.000000e+00
     3816000   3.815999e-05   8.664755e-01   1.001127e+01   6.352312e+00  -1.489275e+06   1.180439e+06   2.291272e+06  -6.427722e+13  -5.279303e+13  -1.454920e+13   2.976794e+06   2.251765e-16   0.000000e+00   0.000000e+00
     3824000   3.823999e-05   8.001181e-01   9.929796e+00   6.524236e+00   1.472458e+06  -8.144709e+05   2.456766e+06   2.669957e+13   8.183395e+13   1.115805e+13   2.977784e+06   2.380868e-16   0.000000e+00   0.000000e+00
     3832000   3.831999e-05   7.769883e-01   9.986649e+00   6.714478e+00  -2.035601e+06  -8.179730e+05   2.015129e+06   3.020181e+13  -8.509762e+13  -3.993300e+12   2.978842e+06   2.583538e-16   0.000000e+00   0.000000e+00
     3840000   3.839999e-05   8.030201e-01   9.913727e+00   6.896659e+00   6.618227e+05   1.447907e+06   2.519081e+06  -8.082391e+13   4.657237e+13  -5.499641e+12   2.979968e+06   2.763357e-16   0.000000e+00   0.000000e+00
     3848000   3.847999e-05   7.125024e-01   9.906014e+00   7.070305e+00   3.427077e+05  -2.023338e+06   2.162426e+06   9.109245e+13   2.815990e+13   1.195474e+13   2.981179e+06   2.924631e-16   0.000000e+00   0.000000e+00
     3856000   3.855999e-05   7.440588e-01   9.937730e+00   7.259100e+00  -2.044290e+06   5.405633e+05   2.103269e+06  -3.588020e+13  -9.218190e+13  -1.113518e+13   2.982460e+06   3.141151e-16   0.000000e+00   0.000000e+00
     3864000   3.863999e-05   7.339140e-01   9.857012e+00   7.432923e+00   1.395446e+06   9.303484e+05   2.467873e+06  -5.754472e+13   8.479982e+13   6.127537e+11   2.983825e+06   3.332450e-16   0.000000e+00   0.000000e+00
     3872000   3.871999e-05   6.581157e-01   9.871577e+00   7.606464e+00  -1.119692e+04  -2.142307e+06   2.079022e+06   1.048007e+14   9.365570e+12   1.026884e+13   2.985286e+06   3.549687e-16   0.000000e+00   0.000000e+00
     3880000   3.879999e-05   6.915978e-01   9.897065e+00   7.789470e+00  -2.102266e+06   5.195631e+05   2.057108e+06  -3.587198e+13  -1.027213e+14  -1.065706e+13   2.986831e+06   3.799956e-16   0.000000e+00   0.000000e+00
     3888000   3.887999e-05   6.924164e-01   9.826076e+00   7.961129e+00   1.097325e+06   1.410235e+06   2.395421e+06  -8.596339e+13   7.191814e+13  -2.908056e+12   2.988466e+06   4.000910e-16   0.000000e+00   0.000000e+00
     3896000   3.895999e-05   6.195170e-01   9.817111e+00   8.129809e+00   1.010292e+06  -1.815539e+06   2.150445e+06   9.334274e+13   6.568805e+13   1.166616e+13   2.990199e+06   4.194711e-16   0.000000e+00   0.000000e+00
     3904000   3.903999e-05   6.202615e-01   9.860188e+00   8.306504e+00  -2.057835e+06  -9.879828e+05   1.934274e+06   4.946185e+13  -1.080693e+14  -2.504815e+12   2.992025e+06   4.508607e-16   0.000000e+00   0.000000e+00
     3912000   3.911999e-05   6.561042e-01   9.827345e+00   8.479818e+00  -8.203006e+05   1.864013e+06   2.194606e+06  -1.157228e+14  -3.676742e+13  -1.195827e+13   2.993950e+06   4.755554e-16   0.000000e+00   0.000000e+00
     3920000   3.919999e-05   6.190644e-01   9.771718e+00   8.644543e+00   1.866178e+06   4.607545e+05   2.298041e+06  -3.472659e+13   1.196372e+14   4.281042e+12   2.995982e+06   4.970137e-16   0.000000e+00   0.000000e+00
     3928000   3.927999e-05   5.629691e-01   9.784813e+00   8.810687e+00   5.548907e+05  -2.133848e+06   2.031642e+06   1.205363e+14   4.162836e+13   1.088181e+13   2.998130e+06   5.247383e-16   0.000000e+00   0.000000e+00
     3936000   3.935999e-05   5.689910e-01   9.818677e+00   8.981234e+00  -2.070207e+06  -1.068537e+06   1.890700e+06   5.898773e+13  -1.179487e+14  -1.979004e+12   3.000379e+06   5.580879e-16   0.000000e+00   0.000000e+00
     3944000   3.943999e-05   6.012186e-01   9.799682e+00   9.149157e+00  -1.483596e+06   1.610672e+06   2.054539e+06  -1.064964e+14  -8.260609e+13  -1.205298e+13   3.002741e+06   5.883740e-16   0.000000e+00   0.000000e+00
     3952000   3.951999e-05   5.911323e-01   9.749071e+00   9.310996e+00   1.148995e+06   1.669608e+06   2.218918e+06  -1.116555e+14   8.169556e+13  -3.567698e+12   3.005225e+06   6.164877e-16   0.000000e+00   0.000000e+00
     3960000   3.959999e-05   5.432763e-01   9.727872e+00   9.470342e+00   2.009735e+06  -6.903947e+05   2.128715e+06   3.730501e+13   1.358522e+14   8.933897e+12   3.007840e+06   6.425019e-16   0.000000e+00   0.000000e+00
     3968000   3.967999e-05   5.081923e-01   9.747733e+00   9.630942e+00   2.528263e+05  -2.305849e+06   1.919057e+06   1.428264e+14   2.377816e+13   9.863806e+12   3.010588e+06   6.803373e-16   0.000000e+00   0.000000e+00
     3976000   3.975999e-05   5.108654e-01   9.772436e+00   9.792627e+00  -1.880683e+06  -1.510782e+06   1.805971e+06   9.371729e+13  -1.162632e+14   4.580340e+11   3.013464e+06   7.217068e-16   0.000000e+00   0.000000e+00
     3984000   3.983999e-05   5.334066e-01   9.770624e+00   9.952668e+00  -2.294780e+06   6.056920e+05   1.861783e+06  -4.623650e+13  -1.453835e+14  -9.566799e+12   3.016473e+06   7.576967e-16   0.000000e+00   0.000000e+00
     3992000   3.991999e-05   5.459296e-01   9.742476e+00   1.010937e+01  -9.126467e+05   2.075575e+06   1.994286e+06  -1.466388e+14  -5.313956e+13  -1.167820e+13   3.019621e+06   7.949403e-16   0.000000e+00   0.000000e+00
     4000000   3.999999e-05   5.353535e-01   9.708091e+00   1.026278e+01   9.610879e+05   1.972662e+06   2.079168e+06  -1.411857e+14   7.440026e+13  -5.203863e+12   3.022917e+06   8.303074e-16   0.000000e+00   0.000000e+00
     4008000   4.007999e-05   5.079224e-01   9.685194e+00   1.041427e+01   2.104913e+06   6.804647e+05   2.065230e+06  -5.312965e+13   1.538132e+14   3.599503e+12   3.026362e+06   8.647862e-16   0.000000e+00   0.000000e+00
     4016000   4.015999e-05   4.772116e-01   9.678899e+00   1.056467e+01   2.120773e+06  -8.840683e+05   1.975208e+06   5.622845e+13   1.560947e+14   9.632787e+12   3.029967e+06   9.036862e-16   0.000000e+00   0.000000e+00
     4024000   4.023999e-05   4.533354e-01   9.684584e+00   1.071441e+01   1.293644e+06  -2.016422e+06   1.861199e+06   1.380732e+14   9.882932e+13   1.125816e+13   3.033732e+06   9.498321e-16   0.000000e+00   0.000000e+00
     4032000   4.031999e-05   4.394397e-01   9.694662e+00   1.086317e+01   1.363492e+05  -2.471158e+06   1.761300e+06   1.731870e+14   1.638694e+13   9.756637e+12   3.037662e+06   9.983130e-16   0.000000e+00   0.000000e+00
     4040000   4.039999e-05   4.337822e-01   9.703276e+00   1.101080e+01  -9.382752e+05  -2.347740e+06   1.691160e+06   1.669819e+14  -6.238819e+13   6.221678e+12   3.041754e+06   1.049029e-15   0.000000e+00   0.000000e+00
     4048000   4.047999e-05   4.329130e-01   9.707868e+00   1.115681e+01  -1.729739e+06  -1.888504e+06   1.649176e+06   1.354386e+14  -1.222115e+14   2.309867e+12   3.046018e+06   1.100601e-15   0.000000e+00   0.000000e+00
     4056000   4.055999e-05   4.333352e-01   9.708222e+00   1.130101e+01  -2.211258e+06  -1.332604e+06   1.624759e+06   9.552339e+13  -1.601852e+14  -1.162385e+12   3.050465e+06   1.153585e-15   0.000000e+00   0.000000e+00
     4064000   4.063999e-05   4.331371e-01   9.705525e+00   1.144327e+01  -2.458697e+06  -8.301918e+05   1.612205e+06   5.856993e+13  -1.812267e+14  -3.773910e+12   3.055097e+06   1.207067e-15   0.000000e+00   0.000000e+00
     4072000   4.071999e-05   4.310844e-01   9.701168e+00   1.158358e+01  -2.566979e+06  -4.715680e+05   1.597299e+06   3.171286e+13  -1.919628e+14  -5.470746e+12   3.059922e+06   1.264191e-15   0.000000e+00   0.000000e+00
     4080000   4.079999e-05   4.267087e-01   9.696040e+00   1.172195e+01  -2.610750e+06  -2.938570e+05   1.578458e+06   1.825391e+13  -1.978499e+14  -6.391051e+12   3.064946e+06   1.323028e-15   0.000000e+00   0.000000e+00
     4088000   4.087999e-05   4.200369e-01   9.690716e+00   1.185832e+01  -2.628522e+06  -3.055050e+05   1.556766e+06   1.953295e+13  -2.018108e+14  -6.359290e+12   3.070176e+06   1.382335e-15   0.000000e+00   0.000000e+00
     4096000   4.095999e-05   4.110853e-01   9.685204e+00   1.199279e+01  -2.620262e+06  -5.110733e+05   1.527226e+06   3.636190e+13  -2.037502e+14  -5.516460e+12   3.075612e+06   1.445126e-15   0.000000e+00   0.000000e+00
     4104000   4.103999e-05   3.998978e-01   9.678910e+00   1.212518e+01  -2.537986e+06  -9.107460e+05   1.491102e+06   6.928971e+13  -1.997293e+14  -3.755092e+12   3.081269e+06   1.512714e-15   0.000000e+00   0.000000e+00
     4112000   4.111999e-05   3.869897e-01   9.670676e+00   1.225532e+01  -2.287841e+06  -1.471358e+06   1.459941e+06   1.161838e+14  -1.817318e+14  -7.652740e+11   3.087157e+06   1.580279e-15   0.000000e+00   0.000000e+00
     4120000   4.119999e-05   3.735555e-01   9.659246e+00   1.238319e+01  -1.757067e+06  -2.101010e+06   1.437663e+06   1.699151e+14  -1.401150e+14   3.237475e+12   3.093283e+06   1.654358e-15   0.000000e+00   0.000000e+00
     4128000   4.127999e-05   3.617832e-01   9.643568e+00   1.250877e+01  -8.484685e+05  -2.612385e+06   1.436473e+06   2.146451e+14  -6.555590e+13   7.912920e+12   3.099663e+06   1.726899e-15   0.000000e+00   0.000000e+00
     4136000   4.135999e-05   3.551307e-01   9.624149e+00   1.263236e+01   4.054672e+05  -2.707127e+06   1.468372e+06   2.249490e+14   3.995372e+13   1.190007e+13   3.106293e+06   1.799884e-15   0.000000e+00   0.000000e+00
     4144000   4.143999e-05   3.570570e-01   9.604219e+00   1.275415e+01   1.741430e+06  -2.080202e+06   1.527119e+06   1.736245e+14   1.549764e+14   1.347032e+13   3.113183e+06   1.877116e-15   0.000000e+00   0.000000e+00
     4152000   4.151999e-05   3.685121e-01   9.590065e+00   1.287441e+01   2.609531e+06  -6.192397e+05   1.594815e+06   4.885146e+13   2.324526e+14   1.067825e+13   3.120344e+06   1.961749e-15   0.000000e+00   0.000000e+00
     4160000   4.159999e-05   3.847341e-01   9.589121e+00   1.299303e+01   2.344196e+06   1.288871e+06   1.620679e+06  -1.178683e+14   2.127180e+14   1.685587e+12   3.127786e+06   2.062113e-15   0.000000e+00   0.000000e+00
     4168000   4.167999e-05   3.942684e-01   9.604161e+00   1.310919e+01   6.609931e+05   2.643432e+06   1.551429e+06  -2.398742e+14   6.626406e+13  -1.030596e+13   3.135535e+06   2.173680e-15   0.000000e+00   0.000000e+00
     4176000   4.175999e-05   3.842288e-01   9.626387e+00   1.322198e+01  -1.697767e+06   2.255299e+06   1.383257e+06  -2.077814e+14  -1.460776e+14  -1.638736e+13   3.143594e+06   2.281501e-15   0.000000e+00   0.000000e+00
     4184000   4.183999e-05   3.531723e-01   9.635571e+00   1.333075e+01  -2.910460e+06  -7.274087e+04   1.207814e+06   2.478725e+12  -2.596880e+14  -9.107717e+12   3.151965e+06   2.390926e-15   0.000000e+00   0.000000e+00
     4192000   4.191999e-05   3.212799e-01   9.615823e+00   1.343574e+01  -1.471732e+06  -2.545347e+06   1.159740e+06   2.304210e+14  -1.304914e+14   6.616815e+12   3.160661e+06   2.498096e-15   0.000000e+00   0.000000e+00
     4200000   4.199999e-05   3.180692e-01   9.578800e+00   1.353866e+01   1.606179e+06  -2.413927e+06   1.280646e+06   2.199930e+14   1.544427e+14   1.576563e+13   3.169686e+06   2.595900e-15   0.000000e+00   0.000000e+00
     4208000   4.207999e-05   3.463847e-01   9.562900e+00   1.364113e+01   2.764024e+06   6.754699e+05   1.417818e+06  -6.788887e+13   2.659527e+14   6.176535e+12   3.179040e+06   2.714949e-15   0.000000e+00   0.000000e+00
     4216000   4.215999e-05   3.648603e-01   9.588446e+00   1.374175e+01   1.666105e+04   2.901590e+06   1.322360e+06  -2.806336e+14   8.793195e+12  -1.516075e+13   3.188752e+06   2.865088e-15   0.000000e+00   0.000000e+00
     4224000   4.223999e-05   3.360152e-01   9.615932e+00   1.383689e+01  -2.962649e+06   6.081646e+05   1.041826e+06  -6.248313e+13  -2.799343e+14  -1.348111e+13   3.198836e+06   3.006758e-15   0.000000e+00   0.000000e+00
     4232000   4.231999e-05   2.957097e-01   9.592436e+00   1.392645e+01  -1.022943e+06  -2.878782e+06   9.827254e+05   2.762825e+14  -9.500139e+13   1.016316e+13   3.209291e+06   3.137012e-15   0.000000e+00   0.000000e+00
     4240000   4.239999e-05   3.097491e-01   9.550355e+00   1.401482e+01   2.775731e+06  -1.111464e+06   1.195440e+06   1.048449e+14   2.773336e+14   1.514611e+13   3.220111e+06   3.257049e-15   0.000000e+00   0.000000e+00
     4248000   4.247999e-05   3.457032e-01   9.566529e+00   1.410305e+01   8.794207e+05   2.866777e+06   1.204000e+06  -2.883915e+14   9.411090e+13  -1.267081e+13   3.231316e+06   3.430503e-15   0.000000e+00   0.000000e+00
     4256000   4.255999e-05   3.178479e-01   9.603141e+00   1.418510e+01  -3.084613e+06   5.160340e+05   8.575896e+05  -5.525149e+13  -3.047392e+14  -1.424042e+13   3.242929e+06   3.602690e-15   0.000000e+00   0.000000e+00
     4264000   4.263999e-05   2.779062e-01   9.569079e+00   1.426031e+01   5.336891e+04  -3.142192e+06   8.475817e+05   3.144039e+14   9.290416e+12   1.581528e+13   3.254937e+06   3.745174e-15   0.000000e+00   0.000000e+00
     4272000   4.271999e-05   3.144802e-01   9.538020e+00   1.433569e+01   2.932550e+06   9.321539e+05   1.098487e+06  -9.871456e+13   3.045234e+14   6.051856e+12   3.267329e+06   3.900386e-15   0.000000e+00   0.000000e+00
     4280000   4.279999e-05   3.254355e-01   9.583739e+00   1.440828e+01  -2.025304e+06   2.443616e+06   8.283958e+05  -2.553985e+14  -2.035769e+14  -2.260294e+13   3.280146e+06   4.110027e-15   0.000000e+00   0.000000e+00
     4288000   4.287999e-05   2.707849e-01   9.575742e+00   1.447097e+01  -1.453597e+06  -2.890477e+06   6.152763e+05   2.978832e+14  -1.480664e+14   9.958312e+12   3.293383e+06   4.281483e-15   0.000000e+00   0.000000e+00
