     timestep     time              x             y              z              vx             vy             vz             ax             ay             az         v_magnitude      ELoss        Electronic      Nuclear
           0   0.000000e+00   1.000000e-01   1.110448e+01   2.098370e+01  -8.272064e+03   1.540340e+03   1.471901e+05   0.000000e+00   0.000000e+00   0.000000e+00   1.474304e+05   0.000000e+00   0.000000e+00   0.000000e+00
        8000   7.999000e-08   1.020479e-01   1.110548e+01   2.099492e+01   1.775561e+04   5.113191e+04   1.379409e+05  -1.669371e+13  -2.538862e+12   3.111275e+12   1.481804e+05   2.306439e-20   0.000000e+00   0.000000e+00
       16000   1.599900e-07   1.038530e-01   1.110645e+01   2.100618e+01   6.125825e+04  -4.338710e+03   1.357854e+05   7.501430e+12   1.646779e+13  -2.833299e+12   1.490271e+05   2.654800e-20   0.000000e+00   0.000000e+00
       24000   2.399900e-07   1.057904e-01   1.110769e+01   2.101741e+01  -1.864779e+04   3.435949e+03   1.487815e+05   4.457245e+12  -1.898636e+13   1.022761e+12   1.499850e+05   3.057005e-20   0.000000e+00   0.000000e+00
       32000   3.199900e-07   1.077974e-01   1.110855e+01   2.102866e+01   6.326199e+04   3.906119e+04   1.315019e+05  -1.131361e+13   1.744029e+13   2.950927e+11   1.510649e+05   3.514686e-20   0.000000e+00   0.000000e+00
       40000   3.999900e-07   1.095895e-01   1.110980e+01   2.103992e+01  -1.691648e+04  -1.621571e+04   1.504642e+05   1.274092e+13  -1.805491e+13  -4.808864e+11   1.522780e+05   4.036476e-20   0.000000e+00   0.000000e+00
       48000   4.799900e-07   1.116249e-01   1.111064e+01   2.105118e+01   7.481634e+04   3.153615e+04   1.304295e+05  -7.994419e+12   2.204788e+13  -7.029624e+11   1.536355e+05   4.629962e-20   0.000000e+00   0.000000e+00
       56000   5.599900e-07   1.135318e-01   1.111195e+01   2.106243e+01  -3.251405e+04   2.722429e+04   1.492407e+05  -5.600539e+12  -2.402206e+13   3.203378e+12   1.551487e+05   5.306313e-20   0.000000e+00   0.000000e+00
       64000   6.399900e-07   1.152889e-01   1.111281e+01   2.107375e+01   5.092203e+04  -4.360375e+04   1.417778e+05   2.342334e+13   1.092281e+13  -5.004721e+12   1.568289e+05   6.073167e-20   0.000000e+00   0.000000e+00
       72000   7.199900e-07   1.174586e-01   1.111381e+01   2.108500e+01   6.945888e+04   6.096047e+04   1.289998e+05  -1.984356e+13   1.943532e+13   1.560192e+12   1.586873e+05   6.944057e-20   0.000000e+00   0.000000e+00
       80000   7.999900e-07   1.193745e-01   1.111511e+01   2.109628e+01  -2.954054e+04   6.022555e+04   1.460683e+05  -1.889290e+13  -2.185933e+13   5.251020e+12   1.607349e+05   7.938284e-20   0.000000e+00   0.000000e+00
       88000   8.799900e-07   1.210528e-01   1.111617e+01   2.110763e+01  -3.693256e+04  -3.153006e+04   1.556042e+05   1.826053e+13  -2.529946e+13  -7.297046e+11   1.630056e+05   9.221652e-20   0.000000e+00   0.000000e+00
       96000   9.599900e-07   1.228599e-01   1.111703e+01   2.111898e+01   3.663056e+04  -6.717377e+04   1.467639e+05   3.208241e+13   4.686473e+12  -5.788489e+12   1.655106e+05   1.058782e-19   0.000000e+00   0.000000e+00
      104000   1.039990e-06   1.248349e-01   1.111792e+01   2.113031e+01   9.518509e+04  -3.505037e+04   1.342398e+05   1.879530e+13   2.861476e+13  -5.765956e+12   1.682530e+05   1.215769e-19   0.000000e+00   0.000000e+00
      112000   1.119990e-06   1.268467e-01   1.111892e+01   2.114165e+01   1.142814e+05   1.087587e+04   1.270678e+05   4.519797e+11   3.638600e+13  -3.415690e+12   1.712447e+05   1.395744e-19   0.000000e+00   0.000000e+00
      120000   1.199990e-06   1.288208e-01   1.111995e+01   2.115301e+01   1.156072e+05   3.997801e+04   1.244423e+05  -1.093122e+13   3.681111e+13  -1.552027e+12   1.744969e+05   1.602395e-19   0.000000e+00   0.000000e+00
      128000   1.279990e-06   1.307407e-01   1.112099e+01   2.116440e+01   1.197891e+05   4.562723e+04   1.235304e+05  -1.303953e+13   3.817777e+13  -1.324849e+12   1.780197e+05   1.839799e-19   0.000000e+00   0.000000e+00
      136000   1.359990e-06   1.325955e-01   1.112200e+01   2.117583e+01   1.307827e+05   2.386882e+04   1.240386e+05  -4.599250e+12   4.198447e+13  -3.085200e+12   1.818224e+05   2.112469e-19   0.000000e+00   0.000000e+00
      144000   1.439990e-06   1.343700e-01   1.112306e+01   2.118730e+01   1.297921e+05  -3.042619e+04   1.295835e+05   1.615750e+13   4.082654e+13  -6.445465e+12   1.859130e+05   2.425395e-19   0.000000e+00   0.000000e+00
      152000   1.519990e-06   1.361128e-01   1.112425e+01   2.119879e+01   7.540021e+04  -9.713259e+04   1.452358e+05   4.147981e+13   1.901502e+13  -8.668906e+12   1.902981e+05   2.783580e-19   0.000000e+00   0.000000e+00
      160000   1.599990e-06   1.379950e-01   1.112560e+01   2.121029e+01  -4.013724e+04  -9.653102e+04   1.645964e+05   4.139968e+13  -2.513465e+13  -4.501590e+12   1.949903e+05   3.205210e-19   0.000000e+00   0.000000e+00
      168000   1.679990e-06   1.402243e-01   1.112682e+01   2.122179e+01  -1.084185e+05   3.437080e+04   1.645220e+05  -7.445803e+12  -5.004419e+13   5.705741e+12   2.000086e+05   3.695110e-19   0.000000e+00   0.000000e+00
      176000   1.759990e-06   1.424485e-01   1.112750e+01   2.123338e+01   2.279407e+04   1.550038e+05   1.327663e+05  -5.253424e+13   5.792788e+11   8.556484e+12   2.053598e+05   4.257577e-19   0.000000e+00   0.000000e+00
      184000   1.839990e-06   1.439512e-01   1.112815e+01   2.124513e+01   1.715796e+05   2.360960e+02   1.228909e+05   4.137566e+12   5.516428e+13  -5.631226e+12   2.110492e+05   4.907075e-19   0.000000e+00   0.000000e+00
      192000   1.919990e-06   1.455030e-01   1.112976e+01   2.125684e+01  -3.414224e+04  -1.317773e+05   1.690951e+05   5.304616e+13  -2.254368e+13  -6.658764e+12   2.170808e+05   5.652502e-19   0.000000e+00   0.000000e+00
      200000   1.999990e-06   1.481822e-01   1.113092e+01   2.126846e+01  -7.407563e+04   1.467368e+05   1.513744e+05  -4.785817e+13  -3.530810e+13   1.104855e+13   2.234572e+05   6.510166e-19   0.000000e+00   0.000000e+00
      208000   2.079990e-06   1.497014e-01   1.113125e+01   2.128040e+01   1.945656e+05  -1.229479e+04   1.223751e+05   8.514063e+12   6.202255e+13  -6.981072e+12   2.301795e+05   7.490889e-19   0.000000e+00   0.000000e+00
      216000   2.159990e-06   1.515096e-01   1.113325e+01   2.129222e+01  -1.397629e+05  -5.892312e+04   1.824302e+05   2.637266e+13  -5.998365e+13   1.065854e+12   2.372476e+05   8.613140e-19   0.000000e+00   0.000000e+00
      224000   2.239990e-06   1.540313e-01   1.113347e+01   2.130418e+01   1.599745e+05   1.425895e+05   1.180208e+05  -4.625364e+13   4.970337e+13   3.036851e+12   2.446477e+05   9.850548e-19   0.000000e+00   0.000000e+00
      232000   2.319990e-06   1.551530e-01   1.113526e+01   2.131636e+01  -9.371557e+04  -1.444473e+05   1.845310e+05   5.581459e+13  -4.311229e+13  -5.130606e+12   2.523873e+05   1.134889e-18   0.000000e+00   0.000000e+00
      240000   2.399990e-06   1.580045e-01   1.113561e+01   2.132848e+01   1.545527e+05   1.732804e+05   1.180958e+05  -5.619453e+13   4.711684e+13   4.865617e+12   2.604981e+05   1.306017e-18   0.000000e+00   0.000000e+00
      248000   2.479990e-06   1.591417e-01   1.113757e+01   2.134081e+01  -1.484212e+05  -1.144247e+05   1.929455e+05   4.488753e+13  -6.171815e+13  -1.770192e+12   2.689792e+05   1.502173e-18   0.000000e+00   0.000000e+00
      256000   2.559990e-06   1.616160e-01   1.113750e+01   2.135320e+01   2.468377e+05   5.234841e+04   1.162729e+05  -1.408974e+13   7.780303e+13  -4.577670e+12   2.778283e+05   1.725203e-18   0.000000e+00   0.000000e+00
      264000   2.639990e-06   1.638146e-01   1.113986e+01   2.136553e+01  -1.837306e+05   1.271417e+05   1.801975e+05  -3.787509e+13  -7.179608e+13   1.241358e+13   2.870420e+05   1.979653e-18   0.000000e+00   0.000000e+00
      272000   2.719990e-06   1.648146e-01   1.114021e+01   2.137835e+01   7.636524e+04  -2.297583e+05   1.713486e+05   8.220846e+13   1.612292e+13  -1.459704e+13   2.966157e+05   2.266875e-18   0.000000e+00   0.000000e+00
      280000   2.799990e-06   1.680478e-01   1.114088e+01   2.139091e+01   2.245032e+05   1.752094e+05   1.134404e+05  -5.474724e+13   6.881020e+13   2.751514e+12   3.065432e+05   2.591389e-18   0.000000e+00   0.000000e+00
      288000   2.879990e-06   1.700707e-01   1.114325e+01   2.140362e+01  -1.945583e+05   1.728382e+05   1.807391e+05  -5.238074e+13  -7.356938e+13   1.443041e+13   3.168479e+05   2.992018e-18   0.000000e+00   0.000000e+00
      296000   2.959990e-06   1.708823e-01   1.114412e+01   2.141670e+01  -1.113704e+05  -2.309088e+05   2.039482e+05   8.148488e+13  -4.730923e+13  -8.627661e+12   3.275929e+05   3.423216e-18   0.000000e+00   0.000000e+00
      304000   3.039990e-06   1.731527e-01   1.114408e+01   2.142979e+01   2.668036e+05  -1.542810e+05   1.404896e+05   5.453358e+13   7.976018e+13  -1.529347e+13   3.387095e+05   3.911741e-18   0.000000e+00   0.000000e+00
      312000   3.119990e-06   1.762944e-01   1.114521e+01   2.144279e+01   2.592946e+05   2.066122e+05   1.127456e+05  -6.354082e+13   7.847871e+13   3.221428e+12   3.501912e+05   4.459884e-18   0.000000e+00   0.000000e+00
      320000   3.199990e-06   1.787368e-01   1.114727e+01   2.145600e+01  -4.094938e+04   3.261318e+05   1.517464e+05  -1.007165e+14  -2.050121e+13   1.759882e+13   3.620301e+05   5.078061e-18   0.000000e+00   0.000000e+00
      328000   3.279990e-06   1.803664e-01   1.114915e+01   2.146955e+01  -2.665436e+05   1.661572e+05   2.034326e+05  -4.773016e+13  -9.508105e+13   1.569012e+13   3.742172e+05   5.770467e-18   0.000000e+00   0.000000e+00
      336000   3.359990e-06   1.818348e-01   1.115046e+01   2.148338e+01  -3.043443e+05  -5.818281e+04   2.314275e+05   2.437457e+13  -1.079238e+14   5.451650e+12   3.867420e+05   6.539799e-18   0.000000e+00   0.000000e+00
      344000   3.439990e-06   1.835488e-01   1.115148e+01   2.149742e+01  -2.394334e+05  -2.141500e+05   2.376666e+05   7.338541e+13  -8.714324e+13  -4.042826e+12   3.995922e+05   7.393703e-18   0.000000e+00   0.000000e+00
      352000   3.519990e-06   1.854602e-01   1.115242e+01   2.151175e+01  -1.585809e+05  -3.004541e+05   2.344424e+05   9.982652e+13  -6.098264e+13  -1.004105e+13   4.127758e+05   8.368818e-18   0.000000e+00   0.000000e+00
      360000   3.599990e-06   1.875422e-01   1.115349e+01   2.152630e+01  -1.127324e+05  -3.382144e+05   2.337500e+05   1.108426e+14  -4.632223e+13  -1.294249e+13   4.263058e+05   9.453736e-18   0.000000e+00   0.000000e+00
      368000   3.679990e-06   1.897596e-01   1.115478e+01   2.154107e+01  -1.300856e+05  -3.450569e+05   2.403398e+05   1.122717e+14  -5.165057e+13  -1.274486e+13   4.401702e+05   1.065566e-17   0.000000e+00   0.000000e+00
      376000   3.759990e-06   1.921544e-01   1.115632e+01   2.155606e+01  -2.148244e+05  -3.095034e+05   2.539634e+05   1.008137e+14  -7.777058e+13  -8.859952e+12   4.543559e+05   1.198248e-17   0.000000e+00   0.000000e+00
      384000   3.839990e-06   1.948860e-01   1.115801e+01   2.157128e+01  -3.387201e+05  -1.846037e+05   2.664749e+05   6.236866e+13  -1.152077e+14   1.102548e+11   4.688483e+05   1.344245e-17   0.000000e+00   0.000000e+00
      392000   3.919990e-06   1.981118e-01   1.115954e+01   2.158675e+01  -4.018676e+05   7.328302e+04   2.589036e+05  -1.588358e+13  -1.327088e+14   1.360620e+13   4.836311e+05   1.504221e-17   0.000000e+00   0.000000e+00
      400000   3.999990e-06   2.015128e-01   1.116031e+01   2.160235e+01  -2.457813e+05   3.822324e+05   2.056795e+05  -1.095755e+14  -8.224768e+13   2.284648e+13   4.988127e+05   1.710459e-17   0.000000e+00   0.000000e+00
      408000   4.079990e-06   2.041182e-01   1.116017e+01   2.161813e+01   1.747766e+05   4.628161e+05   1.410971e+05  -1.338612e+14   4.610199e+13   1.603199e+13   5.144453e+05   1.914386e-17   0.000000e+00   0.000000e+00
      416000   4.159990e-06   2.051703e-01   1.116033e+01   2.163446e+01   5.105286e+05   6.424550e+04   1.286232e+05  -1.547544e+13   1.449211e+14  -9.303123e+12   5.303874e+05   2.137815e-17   0.000000e+00   0.000000e+00
      424000   4.239990e-06   2.058051e-01   1.116269e+01   2.165103e+01   2.030306e+05  -4.574036e+05   2.198898e+05   1.390225e+14   4.965915e+13  -2.404770e+13   5.466178e+05   2.381738e-17   0.000000e+00   0.000000e+00
      432000   4.319990e-06   2.091256e-01   1.116622e+01   2.166751e+01  -4.416326e+05  -1.844625e+05   2.967094e+05   5.991538e+13  -1.407908e+14   2.440577e+12   5.631183e+05   2.645921e-17   0.000000e+00   0.000000e+00
      440000   4.399990e-06   2.140668e-01   1.116643e+01   2.168445e+01  -1.122973e+05   5.333835e+05   1.978365e+05  -1.490791e+14  -4.013209e+13   2.481401e+13   5.798689e+05   2.929436e-17   0.000000e+00   0.000000e+00
      448000   4.479990e-06   2.147533e-01   1.116544e+01   2.170255e+01   5.776703e+05  -1.933633e+04   1.488354e+05   9.286009e+12   1.588244e+14  -1.369420e+13   5.968491e+05   3.236551e-17   0.000000e+00   0.000000e+00
      456000   4.559990e-06   2.157873e-01   1.116983e+01   2.172066e+01  -2.695954e+05  -4.570768e+05   3.089922e+05   1.360597e+14  -8.919983e+13  -1.237535e+13   6.140660e+05   3.576860e-17   0.000000e+00   0.000000e+00
      464000   4.639990e-06   2.220199e-01   1.117080e+01   2.173876e+01  -1.436512e+05   5.753530e+05   2.171376e+05  -1.570867e+14  -4.862185e+13   2.618749e+13   6.315184e+05   3.939953e-17   0.000000e+00   0.000000e+00
      472000   4.719990e-06   2.216490e-01   1.116989e+01   2.175843e+01   5.357250e+05  -3.099070e+05   1.959547e+05   9.098609e+13   1.414126e+14  -2.363010e+13   6.491856e+05   4.329924e-17   0.000000e+00   0.000000e+00
      480000   4.799990e-06   2.256937e-01   1.117537e+01   2.177751e+01  -5.755860e+05   6.895471e+04   3.299844e+05  -1.255410e+13  -1.719146e+14   1.493315e+13   6.670410e+05   4.745915e-17   0.000000e+00   0.000000e+00
      488000   4.879990e-06   2.288894e-01   1.117249e+01   2.179791e+01   6.473672e+05   1.580616e+05   1.588729e+05  -3.950293e+13   1.713310e+14  -7.542104e+12   6.850609e+05   5.179122e-17   0.000000e+00   0.000000e+00
      496000   4.959990e-06   2.304391e-01   1.117851e+01   2.181848e+01  -5.706516e+05  -1.941081e+05   3.622387e+05   5.970892e+13  -1.688972e+14   4.444015e+12   7.032340e+05   5.658337e-17   0.000000e+00   0.000000e+00
      504000   5.039990e-06   2.348294e-01   1.117553e+01   2.183991e+01   6.740447e+05   1.941576e+05   1.691980e+05  -4.843133e+13   1.755042e+14  -6.493516e+12   7.215687e+05   6.157292e-17   0.000000e+00   0.000000e+00
      512000   5.119990e-06   2.371411e-01   1.118204e+01   2.186151e+01  -6.405833e+05   2.082328e+04   3.699674e+05   1.298095e+12  -1.846908e+14   1.356977e+13   7.400382e+05   6.692554e-17   0.000000e+00   0.000000e+00
      520000   5.199990e-06   2.391089e-01   1.117885e+01   2.188451e+01   6.640028e+05  -2.909586e+05   2.234739e+05   8.183641e+13   1.675309e+14  -2.345644e+13   7.586153e+05   7.241437e-17   0.000000e+00   0.000000e+00
      528000   5.279990e-06   2.457817e-01   1.118407e+01   2.190691e+01  -2.736692e+05   6.680029e+05   2.881615e+05  -1.699856e+14  -8.155720e+13   2.888805e+13   7.772771e+05   7.831809e-17   0.000000e+00   0.000000e+00
      536000   5.359990e-06   2.439927e-01   1.118572e+01   2.193137e+01  -2.371017e+05  -6.539033e+05   3.871519e+05   1.772696e+14  -7.551041e+13  -1.800604e+13   7.960486e+05   8.456142e-17   0.000000e+00   0.000000e+00
      544000   5.439990e-06   2.502280e-01   1.118356e+01   2.195570e+01   7.791014e+05   1.231389e+05   2.046876e+05  -2.741800e+13   1.938703e+14  -1.039208e+13   8.148983e+05   9.096778e-17   0.000000e+00   0.000000e+00
      552000   5.519990e-06   2.557651e-01   1.118959e+01   2.198025e+01  -3.105297e+05   7.062026e+05   3.163311e+05  -1.746822e+14  -8.959089e+13   2.977757e+13   8.337963e+05   9.766730e-17   0.000000e+00   0.000000e+00
      560000   5.599990e-06   2.547750e-01   1.119259e+01   2.200666e+01  -5.897655e+05  -4.281933e+05   4.426701e+05   1.159215e+14  -1.641385e+14  -3.416976e+12   8.527190e+05   1.046483e-16   0.000000e+00   0.000000e+00
      568000   5.679990e-06   2.573891e-01   1.119026e+01   2.203376e+01   4.813855e+05  -6.478771e+05   3.291514e+05   1.685988e+14   1.098073e+14  -2.918426e+13   8.716751e+05   1.119084e-16   0.000000e+00   0.000000e+00
      576000   5.759990e-06   2.646407e-01   1.119083e+01   2.206081e+01   8.079694e+05   2.951833e+05   2.308520e+05  -6.881973e+13   1.934767e+14  -4.699707e+12   8.906405e+05   1.192524e-16   0.000000e+00   0.000000e+00
      584000   5.839990e-06   2.704711e-01   1.119554e+01   2.208854e+01   1.205984e+05   8.535544e+05   2.902478e+05  -2.048103e+14   2.096601e+13   2.492439e+13   9.095839e+05   1.267861e-16   0.000000e+00   0.000000e+00
      592000   5.919990e-06   2.730724e-01   1.120045e+01   2.211757e+01  -5.889040e+05   5.888132e+05   4.105913e+05  -1.371518e+14  -1.558406e+14   2.783901e+13   9.284903e+05   1.347654e-16   0.000000e+00   0.000000e+00
      600000   5.999990e-06   2.743997e-01   1.120345e+01   2.214777e+01  -8.117031e+05  -3.382584e+03   4.884985e+05   8.274611e+12  -2.107256e+14   1.320416e+13   9.473669e+05   1.427835e-16   0.000000e+00   0.000000e+00
      608000   6.079990e-06   2.763001e-01   1.120500e+01   2.217888e+01  -6.713936e+05  -4.684023e+05   5.131454e+05   1.198028e+14  -1.758971e+14  -2.928484e+12   9.661720e+05   1.506804e-16   0.000000e+00   0.000000e+00
      616000   6.159990e-06   2.791843e-01   1.120626e+01   2.221089e+01  -4.557774e+05  -7.062279e+05   5.132805e+05   1.749147e+14  -1.228863e+14  -1.286822e+13   9.848593e+05   1.585034e-16   0.000000e+00   0.000000e+00
      624000   6.239990e-06   2.827099e-01   1.120789e+01   2.224378e+01  -3.261809e+05  -7.980537e+05   5.134477e+05   1.947646e+14  -9.124782e+13  -1.719084e+13   1.003450e+06   1.670311e-16   0.000000e+00   0.000000e+00
      632000   6.319990e-06   2.866619e-01   1.121018e+01   2.227741e+01  -3.457197e+05  -8.048718e+05   5.263637e+05   1.945059e+14  -9.513873e+13  -1.682921e+13   1.021959e+06   1.755281e-16   0.000000e+00   0.000000e+00
      640000   6.399990e-06   2.910790e-01   1.121315e+01   2.231188e+01  -5.158299e+05  -7.159026e+05   5.511298e+05   1.723584e+14  -1.336864e+14  -1.147050e+13   1.040356e+06   1.840026e-16   0.000000e+00   0.000000e+00
      648000   6.479990e-06   2.962790e-01   1.121651e+01   2.234717e+01  -7.674613e+05  -4.535216e+05   5.710248e+05   1.109557e+14  -1.899613e+14  -8.989721e+11   1.058654e+06   1.932727e-16   0.000000e+00   0.000000e+00
      656000   6.559990e-06   3.026511e-01   1.121942e+01   2.238272e+01  -9.197386e+05   7.213088e+04   5.556123e+05  -9.140723e+12  -2.215166e+14   1.451506e+13   1.076953e+06   2.040063e-16   0.000000e+00   0.000000e+00
      664000   6.639990e-06   3.096586e-01   1.122039e+01   2.241854e+01  -6.418482e+05   7.403266e+05   4.894824e+05  -1.591448e+14  -1.552206e+14   2.710762e+13   1.095283e+06   2.143931e-16   0.000000e+00   0.000000e+00
      672000   6.719990e-06   3.150409e-01   1.121885e+01   2.245548e+01   1.960949e+05   1.024067e+06   3.909329e+05  -2.213949e+14   3.435689e+13   2.235068e+13   1.113550e+06   2.239916e-16   0.000000e+00   0.000000e+00
      680000   6.799990e-06   3.162011e-01   1.121736e+01   2.249372e+01   1.013099e+06   3.590061e+05   3.543148e+05  -7.371020e+13   2.139007e+14  -4.526541e+12   1.131722e+06   2.336974e-16   0.000000e+00   0.000000e+00
      688000   6.879990e-06   3.149965e-01   1.122116e+01   2.253278e+01   6.684241e+05  -8.083805e+05   4.708363e+05   1.816619e+14   1.341114e+14  -2.654273e+13   1.149764e+06   2.434889e-16   0.000000e+00   0.000000e+00
      696000   6.959990e-06   3.195529e-01   1.122973e+01   2.257182e+01  -7.027672e+05  -6.988027e+05   6.174618e+05   1.573872e+14  -1.652034e+14  -6.991461e+12   1.167675e+06   2.531770e-16   0.000000e+00   0.000000e+00
      704000   7.039990e-06   3.307756e-01   1.123177e+01   2.261147e+01  -6.528894e+05   8.303714e+05   5.380620e+05  -1.710307e+14  -1.505782e+14   2.582900e+13   1.185450e+06   2.633495e-16   0.000000e+00   0.000000e+00
      712000   7.119990e-06   3.338451e-01   1.122637e+01   2.265326e+01   9.762700e+05   5.791518e+05   3.987845e+05  -1.173729e+14   1.980732e+14   1.011362e+12   1.203141e+06   2.734256e-16   0.000000e+00   0.000000e+00
      720000   7.199990e-06   3.303408e-01   1.123199e+01   2.269594e+01   2.714508e+05  -1.046116e+06   5.675682e+05   2.255972e+14   4.490551e+13  -2.418605e+13   1.220728e+06   2.840538e-16   0.000000e+00   0.000000e+00
      728000   7.279990e-06   3.411988e-01   1.124034e+01   2.273790e+01  -1.000769e+06   3.754914e+05   6.249008e+05  -7.156394e+13  -2.197852e+14   1.831664e+13   1.238157e+06   2.936809e-16   0.000000e+00   0.000000e+00
      736000   7.359990e-06   3.466908e-01   1.123297e+01   2.278206e+01   9.928903e+05   6.345394e+05   4.331819e+05  -1.252123e+14   1.955264e+14   1.828293e+12   1.255435e+06   3.027757e-16   0.000000e+00   0.000000e+00
      744000   7.439990e-06   3.425260e-01   1.124118e+01   2.282713e+01  -2.274866e+05  -1.074750e+06   6.424348e+05   2.256064e+14  -5.873149e+13  -1.751577e+13   1.272620e+06   3.154056e-16   0.000000e+00   0.000000e+00
      752000   7.519990e-06   3.572697e-01   1.124413e+01   2.287156e+01  -3.755180e+05   1.099837e+06   5.592821e+05  -2.171517e+14  -8.582148e+13   2.395259e+13   1.289749e+06   3.265573e-16   0.000000e+00   0.000000e+00
      760000   7.599990e-06   3.523756e-01   1.123990e+01   2.291895e+01   9.314711e+05  -7.379288e+05   5.435070e+05   1.531402e+14   1.767099e+14  -2.151754e+13   1.306743e+06   3.355099e-16   0.000000e+00   0.000000e+00
      768000   7.679990e-06   3.625900e-01   1.125193e+01   2.296507e+01  -1.027655e+06   5.036741e+05   6.648321e+05  -9.416373e+13  -2.148941e+14   1.808348e+13   1.323542e+06   3.456396e-16   0.000000e+00   0.000000e+00
      776000   7.759990e-06   3.628430e-01   1.124288e+01   2.301386e+01   1.204087e+06  -2.704662e+05   5.227111e+05   5.836656e+13   2.288230e+14  -1.497885e+13   1.340225e+06   3.583623e-16   0.000000e+00   0.000000e+00
      784000   7.839990e-06   3.693338e-01   1.125693e+01   2.306188e+01  -1.137893e+06   2.324229e+05   7.016979e+05  -3.999855e+13  -2.339852e+14   1.344558e+13   1.356909e+06   3.708745e-16   0.000000e+00   0.000000e+00
      792000   7.919990e-06   3.709288e-01   1.124688e+01   2.311216e+01   1.237985e+06  -2.414728e+05   5.436316e+05   5.163901e+13   2.313300e+14  -1.380479e+13   1.373482e+06   3.789218e-16   0.000000e+00   0.000000e+00
      800000   7.999990e-06   3.789657e-01   1.126091e+01   2.316176e+01  -1.061031e+06   5.637199e+05   6.986191e+05  -1.030218e+14  -2.138139e+14   1.687314e+13   1.389833e+06   3.896754e-16   0.000000e+00   0.000000e+00
      808000   8.079990e-06   3.754842e-01   1.125272e+01   2.321393e+01   9.170148e+05  -8.695915e+05   6.164278e+05   1.712375e+14   1.664461e+14  -1.900202e+13   1.406090e+06   4.042920e-16   0.000000e+00   0.000000e+00
      816000   8.159990e-06   3.900783e-01   1.126166e+01   2.326481e+01  -4.051217e+05   1.203522e+06   6.407998e+05  -2.241450e+14  -8.543381e+13   1.965463e+13   1.422397e+06   4.176051e-16   0.000000e+00   0.000000e+00
      824000   8.239990e-06   3.810031e-01   1.126243e+01   2.331842e+01  -1.593160e+05  -1.233318e+06   7.232785e+05   2.367889e+14  -3.961901e+13  -1.460028e+13   1.438606e+06   4.266308e-16   0.000000e+00   0.000000e+00
      832000   8.319990e-06   3.958167e-01   1.125811e+01   2.337124e+01   1.017518e+06   8.657765e+05   5.753481e+05  -1.569553e+14   1.825610e+14   3.871805e+12   1.454626e+06   4.371411e-16   0.000000e+00   0.000000e+00
      840000   8.399990e-06   3.953532e-01   1.127230e+01   2.342517e+01  -1.253093e+06   1.154934e+05   7.610033e+05  -1.708654e+13  -2.424768e+14   9.441744e+12   1.470615e+06   4.560328e-16   0.000000e+00   0.000000e+00
      848000   8.479990e-06   3.927966e-01   1.126295e+01   2.348078e+01   8.554532e+05  -1.011655e+06   6.744259e+05   1.917508e+14   1.504138e+14  -1.671077e+13   1.486639e+06   4.699311e-16   0.000000e+00   0.000000e+00
      856000   8.559990e-06   4.086641e-01   1.126705e+01   2.353548e+01   4.318286e+05   1.291871e+06   6.342091e+05  -2.329937e+14   7.263766e+13   1.162372e+13   1.502540e+06   4.802415e-16   0.000000e+00   0.000000e+00
      864000   8.639990e-06   4.034407e-01   1.127803e+01   2.359173e+01  -1.272028e+06  -2.647798e+05   7.857901e+05   5.225151e+13  -2.405048e+14   4.314756e+12   1.518430e+06   4.977986e-16   0.000000e+00   0.000000e+00
      872000   8.719990e-06   4.021055e-01   1.126815e+01   2.364877e+01   8.349107e+05  -1.081159e+06   6.986101e+05   1.994825e+14   1.439314e+14  -1.478659e+13   1.534287e+06   5.093986e-16   0.000000e+00   0.000000e+00
      880000   8.799990e-06   4.173165e-01   1.126966e+01   2.370521e+01   8.519413e+05   1.123285e+06   6.443346e+05  -1.987111e+14   1.476614e+14   6.266351e+12   1.550078e+06   5.250837e-16   0.000000e+00   0.000000e+00
      888000   8.879990e-06   4.168947e-01   1.128297e+01   2.376273e+01  -1.257016e+06   5.214335e+05   7.747224e+05  -9.033975e+13  -2.322836e+14   1.056412e+13   1.565943e+06   5.437446e-16   0.000000e+00   0.000000e+00
      896000   8.959990e-06   4.092002e-01   1.127873e+01   2.382164e+01  -2.177467e+05  -1.359908e+06   7.780187e+05   2.455210e+14  -4.556966e+13  -1.013416e+13   1.581795e+06   5.568739e-16   0.000000e+00   0.000000e+00
      904000   9.039990e-06   4.187640e-01   1.127084e+01   2.388039e+01   1.438940e+06  -1.341746e+05   6.809018e+05   2.701883e+13   2.490977e+14  -7.090013e+12   1.597554e+06   5.713925e-16   0.000000e+00   0.000000e+00
      912000   9.119990e-06   4.301760e-01   1.127955e+01   2.393928e+01   1.458585e+05   1.441572e+06   7.095980e+05  -2.518639e+14   2.098165e+13   1.004755e+13   1.613361e+06   5.933887e-16   0.000000e+00   0.000000e+00
      920000   9.199990e-06   4.251977e-01   1.128967e+01   2.399933e+01  -1.410020e+06   1.349163e+05   8.051022e+05  -2.131701e+13  -2.541140e+14   6.058072e+12   1.629278e+06   6.154517e-16   0.000000e+00   0.000000e+00
      928000   9.279990e-06   4.186126e-01   1.128442e+01   2.406020e+01  -2.632196e+05  -1.414876e+06   7.969930e+05   2.498065e+14  -5.135096e+13  -7.842298e+12   1.645101e+06   6.278189e-16   0.000000e+00   0.000000e+00
      936000   9.359990e-06   4.258571e-01   1.127609e+01   2.412104e+01   1.396815e+06  -5.282181e+05   7.271227e+05   9.487142e+13   2.394656e+14  -7.376668e+12   1.660967e+06   6.527404e-16   0.000000e+00   0.000000e+00
      944000   9.439990e-06   4.382300e-01   1.128058e+01   2.418186e+01   8.000963e+05   1.284531e+06   7.226691e+05  -2.214361e+14   1.358285e+14   4.662495e+12   1.677028e+06   6.765106e-16   0.000000e+00   0.000000e+00
      952000   9.519990e-06   4.390349e-01   1.129214e+01   2.424332e+01  -1.026938e+06   1.093413e+06   7.851128e+05  -1.871678e+14  -1.809946e+14   8.114400e+12   1.693090e+06   6.931232e-16   0.000000e+00   0.000000e+00
      960000   9.599990e-06   4.307255e-01   1.129500e+01   2.430553e+01  -1.356272e+06  -6.393238e+05   8.203704e+05   1.121300e+14  -2.384902e+14   3.667927e+11   1.709157e+06   7.229363e-16   0.000000e+00   0.000000e+00
      968000   9.679990e-06   4.272045e-01   1.128665e+01   2.436808e+01   2.312903e+05  -1.513864e+06   7.949633e+05   2.634068e+14   3.646626e+13  -6.303372e+12   1.725470e+06   7.506157e-16   0.000000e+00   0.000000e+00
      976000   9.759990e-06   4.355095e-01   1.127982e+01   2.443067e+01   1.535703e+06  -3.172840e+05   7.582992e+05   5.627723e+13   2.608678e+14  -3.881841e+12   1.741858e+06   7.701504e-16   0.000000e+00   0.000000e+00
      984000   9.839990e-06   4.459778e-01   1.128388e+01   2.449341e+01   9.509967e+05   1.268443e+06   7.603410e+05  -2.152997e+14   1.605532e+14   2.391016e+12   1.758255e+06   7.946631e-16   0.000000e+00   0.000000e+00
      992000   9.919990e-06   4.476551e-01   1.129463e+01   2.455660e+01  -7.878954e+05   1.378388e+06   7.934450e+05  -2.358414e+14  -1.369226e+14   4.610154e+12   1.774905e+06   8.350751e-16   0.000000e+00   0.000000e+00
     1000000   9.999990e-06   4.395782e-01   1.129983e+01   2.462021e+01  -1.586738e+06  -1.652434e+05   8.156000e+05   2.864361e+13  -2.727369e+14   1.390423e+12   1.791716e+06   8.603244e-16   0.000000e+00   0.000000e+00
     1008000   1.007999e-05   4.324921e-01   1.129449e+01   2.468404e+01  -6.034153e+05  -1.499584e+06   8.111935e+05   2.560373e+14  -1.045972e+14  -1.960774e+12   1.808563e+06   8.916370e-16   0.000000e+00   0.000000e+00
     1016000   1.015999e-05   4.346472e-01   1.128495e+01   2.474791e+01   1.078533e+06  -1.238951e+06   7.967807e+05   2.127266e+14   1.832465e+14  -2.021464e+12   1.825676e+06   9.363439e-16   0.000000e+00   0.000000e+00
     1024000   1.023999e-05   4.446661e-01   1.128200e+01   2.481187e+01   1.611328e+06   4.112135e+05   7.945393e+05  -6.929478e+13   2.740377e+14  -2.924384e+11   1.843032e+06   9.670944e-16   0.000000e+00   0.000000e+00
     1032000   1.031999e-05   4.519908e-01   1.128902e+01   2.487598e+01   4.399742e+05   1.621016e+06   8.000872e+05  -2.753109e+14   7.507604e+13   3.056510e+11   1.860486e+06   1.004419e-15   0.000000e+00   0.000000e+00
     1040000   1.039999e-05   4.493406e-01   1.129883e+01   2.494016e+01  -1.234415e+06   1.167545e+06   8.005076e+05  -1.999443e+14  -2.103418e+14  -4.854677e+11   1.878232e+06   1.058730e-15   0.000000e+00   0.000000e+00
     1048000   1.047999e-05   4.388735e-01   1.130100e+01   2.500429e+01  -1.619414e+06  -5.861511e+05   7.936480e+05   9.922704e+13  -2.758844e+14  -2.024400e+11   1.896300e+06   1.101452e-15   0.000000e+00   0.000000e+00
     1056000   1.055999e-05   4.319222e-01   1.129297e+01   2.506836e+01  -2.733084e+05  -1.720743e+06   7.935583e+05   2.927367e+14  -4.614430e+13   1.869035e+12   1.914521e+06   1.147142e-15   0.000000e+00   0.000000e+00
     1064000   1.063999e-05   4.354202e-01   1.128287e+01   2.513241e+01   1.412084e+06  -1.043200e+06   8.090084e+05   1.782757e+14   2.427632e+14   2.988261e+12   1.933066e+06   1.208059e-15   0.000000e+00   0.000000e+00
     1072000   1.071999e-05   4.458648e-01   1.128180e+01   2.519646e+01   1.542340e+06   8.684386e+05   8.230430e+05  -1.494482e+14   2.665396e+14  -4.820806e+10   1.952024e+06   1.267892e-15   0.000000e+00   0.000000e+00
     1080000   1.079999e-05   4.504074e-01   1.129104e+01   2.526032e+01  -1.107123e+05   1.794629e+06   8.078452e+05  -3.076115e+14  -1.622063e+13  -4.948041e+12   1.971183e+06   1.314149e-15   0.000000e+00   0.000000e+00
     1088000   1.087999e-05   4.427243e-01   1.129989e+01   2.532380e+01  -1.714961e+06   6.584100e+05   7.670487e+05  -1.150288e+14  -2.924487e+14  -4.863981e+12   1.990718e+06   1.394961e-15   0.000000e+00   0.000000e+00
     1096000   1.095999e-05   4.296509e-01   1.129652e+01   2.538672e+01  -1.244769e+06  -1.390963e+06   7.476492e+05   2.385059e+14  -2.128164e+14   2.523499e+12   2.010773e+06   1.472212e-15   0.000000e+00   0.000000e+00
     1104000   1.103999e-05   4.266304e-01   1.128374e+01   2.544928e+01   8.513471e+05  -1.670083e+06   7.819901e+05   2.861645e+14   1.491982e+14   8.427584e+12   2.031127e+06   1.532151e-15   0.000000e+00   0.000000e+00
     1112000   1.111999e-05   4.361854e-01   1.127722e+01   2.551179e+01   1.861134e+06   2.432477e+05   8.289149e+05  -4.351224e+13   3.257677e+14   3.402244e+12   2.051850e+06   1.620706e-15   0.000000e+00   0.000000e+00
     1120000   1.119999e-05   4.440562e-01   1.128599e+01   2.557404e+01   1.984996e+05   1.900325e+06   8.047309e+05  -3.323533e+14   3.914665e+13  -9.069642e+12   2.073217e+06   1.716573e-15   0.000000e+00   0.000000e+00
     1128000   1.127999e-05   4.349774e-01   1.129694e+01   2.563527e+01  -1.861031e+06   6.450068e+05   7.138676e+05  -1.146322e+14  -3.189423e+14  -9.055916e+12   2.095013e+06   1.797797e-15   0.000000e+00   0.000000e+00
     1136000   1.135999e-05   4.196611e-01   1.129149e+01   2.569532e+01  -1.089080e+06  -1.680788e+06   6.865635e+05   2.901057e+14  -1.861026e+14   6.317848e+12   2.117195e+06   1.898192e-15   0.000000e+00   0.000000e+00
     1144000   1.143999e-05   4.199250e-01   1.127546e+01   2.575494e+01   1.524792e+06  -1.285959e+06   7.754880e+05   2.236754e+14   2.722556e+14   1.327496e+13   2.140108e+06   2.029189e-15   0.000000e+00   0.000000e+00
     1152000   1.151999e-05   4.335452e-01   1.127534e+01   2.581468e+01   1.339121e+06   1.488087e+06   8.207721e+05  -2.638895e+14   2.412370e+14  -5.266938e+12   2.163635e+06   2.132947e-15   0.000000e+00   0.000000e+00
     1160000   1.159999e-05   4.309017e-01   1.129020e+01   2.587336e+01  -1.488324e+06   1.445080e+06   6.943976e+05  -2.577267e+14  -2.564458e+14  -1.680801e+13   2.187590e+06   2.259041e-15   0.000000e+00   0.000000e+00
     1168000   1.167999e-05   4.116415e-01   1.128877e+01   2.593000e+01  -1.461015e+06  -1.544223e+06   6.122968e+05   2.717046e+14  -2.556343e+14   5.879559e+12   2.212260e+06   2.427781e-15   0.000000e+00   0.000000e+00
     1176000   1.175999e-05   4.109376e-01   1.126971e+01   2.598600e+01   1.707106e+06  -1.238356e+06   7.482231e+05   2.185708e+14   3.108162e+14   1.767450e+13   2.237761e+06   2.581974e-15   0.000000e+00   0.000000e+00
     1184000   1.183999e-05   4.260282e-01   1.127301e+01   2.604225e+01   8.681910e+05   1.939950e+06   7.796988e+05  -3.501396e+14   1.628002e+14  -1.326596e+13   2.263866e+06   2.726311e-15   0.000000e+00   0.000000e+00
     1192000   1.191999e-05   4.148544e-01   1.128862e+01   2.609627e+01  -2.176996e+06   4.322475e+05   5.664789e+05  -8.114488e+13  -3.855385e+14  -1.491595e+13   2.290644e+06   2.906534e-15   0.000000e+00   0.000000e+00
     1200000   1.199999e-05   3.975006e-01   1.127363e+01   2.614766e+01   2.625143e+05  -2.223860e+06   6.003033e+05   3.992164e+14   5.246017e+13   2.247262e+13   2.318368e+06   3.114943e-15   0.000000e+00   0.000000e+00
     1208000   1.207999e-05   4.134468e-01   1.126312e+01   2.619938e+01   1.881503e+06   1.173198e+06   7.692700e+05  -2.174205e+14   3.511688e+14  -1.569649e+12   2.346961e+06   3.348548e-15   0.000000e+00   0.000000e+00
     1216000   1.215999e-05   4.102665e-01   1.128336e+01   2.624906e+01  -2.033025e+06   1.116661e+06   5.170589e+05  -2.076483e+14  -3.654201e+14  -2.384929e+13   2.376441e+06   3.566522e-15   0.000000e+00   0.000000e+00
     1224000   1.223999e-05   3.888107e-01   1.127049e+01   2.629430e+01   1.473451e+05  -2.348997e+06   5.038045e+05   4.317308e+14   3.188685e+13   2.614034e+13   2.406931e+06   3.883141e-15   0.000000e+00   0.000000e+00
     1232000   1.231999e-05   4.072683e-01   1.126045e+01   2.633943e+01   1.737312e+06   1.560429e+06   7.015636e+05  -2.921997e+14   3.298608e+14  -7.326355e+12   2.438316e+06   4.115383e-15   0.000000e+00   0.000000e+00
     1240000   1.239999e-05   3.977141e-01   1.128136e+01   2.638154e+01  -2.427817e+06   2.798536e+05   3.625607e+05  -5.500997e+13  -4.456733e+14  -1.878536e+13   2.470640e+06   4.394049e-15   0.000000e+00   0.000000e+00
     1248000   1.247999e-05   3.835434e-01   1.125885e+01   2.641930e+01   1.527161e+06  -1.918149e+06   5.084778e+05   3.562775e+14   2.913087e+14   3.305828e+13   2.504010e+06   4.756774e-15   0.000000e+00   0.000000e+00
     1256000   1.255999e-05   4.045290e-01   1.126638e+01   2.645756e+01  -8.808773e+04   2.482754e+06   5.216888e+05  -4.685005e+14  -8.787122e+12  -3.305850e+13   2.538501e+06   5.067273e-15   0.000000e+00   0.000000e+00
     1264000   1.263999e-05   3.777925e-01   1.127226e+01   2.648928e+01  -1.367991e+06  -2.168998e+06   2.236586e+05   4.087602e+14  -2.570175e+14   1.808374e+13   2.574097e+06   5.512834e-15   0.000000e+00   0.000000e+00
     1272000   1.271999e-05   3.931089e-01   1.125187e+01   2.651950e+01   2.291046e+06   1.119473e+06   5.591698e+05  -2.145070e+14   4.402586e+14   1.763703e+12   2.610514e+06   5.824735e-15   0.000000e+00   0.000000e+00
     1280000   1.279999e-05   3.861455e-01   1.127694e+01   2.654679e+01  -2.639310e+06   1.643926e+05   1.336707e+05  -3.310456e+13  -4.986172e+14  -2.171253e+13   2.647801e+06   6.250713e-15   0.000000e+00   0.000000e+00
     1288000   1.287999e-05   3.765360e-01   1.125029e+01   2.656883e+01   2.273369e+06  -1.377534e+06   3.858984e+05   2.598169e+14   4.368071e+14   3.537829e+13   2.686024e+06   6.673486e-15   0.000000e+00   0.000000e+00
     1296000   1.295999e-05   3.938668e-01   1.126964e+01   2.659145e+01  -1.558193e+06   2.225715e+06   2.111356e+05  -4.261807e+14  -2.930186e+14  -4.358315e+13   2.725134e+06   7.129443e-15   0.000000e+00   0.000000e+00
     1304000   1.303999e-05   3.671396e-01   1.125753e+01   2.660632e+01   6.469193e+05  -2.685184e+06   1.344795e+05   5.145011e+14   1.250159e+14   4.217184e+13   2.765285e+06   7.688060e-15   0.000000e+00   0.000000e+00
     1312000   1.311999e-05   3.945759e-01   1.125975e+01   2.662217e+01   1.106497e+05   2.791254e+06   2.707562e+05  -5.386577e+14   2.633245e+13  -4.052865e+13   2.806538e+06   8.210193e-15   0.000000e+00   0.000000e+00
     1320000   1.319999e-05   3.654302e-01   1.126432e+01   2.663020e+01  -8.296340e+05  -2.724304e+06  -6.969569e+04   5.254356e+14  -1.619464e+14   3.212231e+13   2.848681e+06   8.772595e-15   0.000000e+00   0.000000e+00
     1328000   1.327999e-05   3.920372e-01   1.125228e+01   2.663796e+01   1.443252e+06   2.491458e+06   2.665855e+05  -4.816245e+14   2.829828e+14  -2.553505e+13   2.891610e+06   9.317656e-15   0.000000e+00   0.000000e+00
     1336000   1.335999e-05   3.679703e-01   1.127001e+01   2.663920e+01  -1.981401e+06  -2.153193e+06  -2.319121e+05   4.169119e+14  -3.868166e+14   1.545507e+13   2.935298e+06   9.938845e-15   0.000000e+00   0.000000e+00
     1344000   1.343999e-05   3.881494e-01   1.124719e+01   2.663811e+01   2.441869e+06   1.694679e+06   2.087355e+05  -3.272110e+14   4.741149e+14  -5.495693e+12   2.979636e+06   1.050086e-14   0.000000e+00   0.000000e+00
     1352000   1.351999e-05   3.741515e-01   1.127460e+01   2.663234e+01  -2.791822e+06  -1.108099e+06  -3.547918e+05   2.154792e+14  -5.441356e+14  -5.773800e+12   3.024571e+06   1.116780e-14   0.000000e+00   0.000000e+00
     1360000   1.359999e-05   3.829136e-01   1.124478e+01   2.662168e+01   3.043346e+06   3.932926e+05   9.086677e+04  -7.513539e+13   5.860835e+14   1.821795e+13   3.069998e+06   1.173839e-14   0.000000e+00   0.000000e+00
     1368000   1.367999e-05   3.845383e-01   1.127707e+01   2.660861e+01  -3.047525e+06   4.955724e+05  -4.187770e+05  -9.307994e+13  -5.912405e+14  -3.087774e+13   3.115826e+06   1.242753e-14   0.000000e+00   0.000000e+00
     1376000   1.375999e-05   3.755259e-01   1.124761e+01   2.658760e+01   2.751532e+06  -1.551902e+06  -1.318147e+05   2.975993e+14   5.217613e+14   4.177290e+13   3.161756e+06   1.291657e-14   0.000000e+00   0.000000e+00
     1384000   1.383999e-05   3.990210e-01   1.127256e+01   2.656639e+01  -1.828849e+06   2.610405e+06  -3.619849e+05  -4.935216e+14  -3.513728e+14  -5.067744e+13   3.207793e+06   1.355395e-14   0.000000e+00   0.000000e+00
     1392000   1.391999e-05   3.708243e-01   1.126161e+01   2.653496e+01   4.795842e+05  -3.182011e+06  -4.832273e+05   6.064057e+14   8.340521e+13   4.482244e+13   3.254028e+06   1.421557e-14   0.000000e+00   0.000000e+00
     1400000   1.399999e-05   4.059788e-01   1.125844e+01   2.650321e+01   1.316769e+06   3.016026e+06  -2.486667e+05  -5.659270e+14   2.457557e+14  -3.139074e+13   3.300323e+06   1.481556e-14   0.000000e+00   0.000000e+00
     1408000   1.407999e-05   3.832858e-01   1.128174e+01   2.646313e+01  -2.703959e+06  -1.812780e+06  -7.770879e+05   3.463424e+14  -5.206696e+14   4.444132e+12   3.346854e+06   1.561233e-14   0.000000e+00   0.000000e+00
     1416000   1.415999e-05   3.948767e-01   1.125146e+01   2.641773e+01   3.363330e+06  -2.317910e+05  -3.848009e+05   4.705830e+13   6.239953e+14   2.524397e+13   3.393197e+06   1.609507e-14   0.000000e+00   0.000000e+00
     1424000   1.423999e-05   4.133311e-01   1.128281e+01   2.636968e+01  -2.155024e+06   2.584500e+06  -7.098213e+05  -4.760766e+14  -4.079648e+14  -4.561781e+13   3.439130e+06   1.665782e-14   0.000000e+00   0.000000e+00
     1432000   1.431999e-05   3.850320e-01   1.127599e+01   2.631258e+01  -5.544626e+05  -3.331183e+06  -8.599584e+05   6.186509e+14  -1.127309e+14   3.319140e+13   3.484787e+06   1.716275e-14   0.000000e+00   0.000000e+00
     1440000   1.439999e-05   4.145522e-01   1.125809e+01   2.625400e+01   3.182291e+06   1.427409e+06  -5.459727e+05  -2.563348e+14   5.754359e+14   3.080784e+12   3.530235e+06   1.762706e-14   0.000000e+00   0.000000e+00
     1448000   1.447999e-05   4.222393e-01   1.129279e+01   2.619088e+01  -2.706515e+06   2.146990e+06  -9.209518e+05  -3.870051e+14  -5.020590e+14  -3.747519e+13   3.575324e+06   1.837159e-14   0.000000e+00   0.000000e+00
     1456000   1.455999e-05   3.958464e-01   1.128467e+01   2.612055e+01  -8.694311e+05  -3.362096e+06  -1.022487e+06   6.117788e+14  -1.675723e+14   2.685976e+13   3.620094e+06   1.882713e-14   0.000000e+00   0.000000e+00
     1464000   1.463999e-05   4.185492e-01   1.126224e+01   2.604846e+01   3.585124e+06   4.796027e+04  -7.567169e+05  -3.821129e+12   6.344292e+14   1.678331e+13   3.664428e+06   1.927799e-14   0.000000e+00   0.000000e+00
     1472000   1.471999e-05   4.418334e-01   1.128789e+01   2.597350e+01  -5.928573e+05   3.543221e+06  -9.200440e+05  -6.277245e+14  -1.123870e+14  -3.275758e+13   3.708419e+06   1.998593e-14   0.000000e+00   0.000000e+00
     1480000   1.479999e-05   4.202874e-01   1.130602e+01   2.589286e+01  -3.431128e+06  -9.462088e+05  -1.188014e+06   1.713889e+14  -6.174543e+14  -6.669160e+12   3.752243e+06   2.060817e-14   0.000000e+00   0.000000e+00
     1488000   1.487999e-05   4.093210e-01   1.128354e+01   2.580911e+01   9.008516e+05  -3.521544e+06  -1.092701e+06   6.235325e+14   1.500674e+14   2.665066e+13   3.795629e+06   2.115730e-14   0.000000e+00   0.000000e+00
     1496000   1.495999e-05   4.359348e-01   1.126950e+01   2.572427e+01   3.672241e+06   5.973020e+05  -9.467751e+05  -1.001684e+14   6.363727e+14   8.569753e+12   3.839076e+06   2.180509e-14   0.000000e+00   0.000000e+00
     1504000   1.503999e-05   4.572802e-01   1.129125e+01   2.563718e+01   1.737250e+05   3.734977e+06  -1.044479e+06  -6.438119e+14   2.525792e+13  -2.074151e+13   3.882160e+06   2.232329e-14   0.000000e+00   0.000000e+00
     1512000   1.511999e-05   4.445299e-01   1.131446e+01   2.554686e+01  -3.579670e+06   1.045277e+06  -1.225463e+06  -1.790865e+14  -6.260586e+14  -1.434263e+13   3.925354e+06   2.329881e-14   0.000000e+00   0.000000e+00
     1520000   1.519999e-05   4.229443e-01   1.130725e+01   2.545379e+01  -2.071607e+06  -3.143533e+06  -1.255194e+06   5.450907e+14  -3.638090e+14   8.075622e+12   3.968484e+06   2.411246e-14   0.000000e+00   0.000000e+00
     1528000   1.527999e-05   4.252873e-01   1.128335e+01   2.535949e+01   2.260499e+06  -3.098748e+06  -1.175431e+06   5.368222e+14   3.848614e+14   1.406468e+13   4.011699e+06   2.503942e-14   0.000000e+00   0.000000e+00
     1536000   1.535999e-05   4.501798e-01   1.127539e+01   2.526434e+01   3.795109e+06   8.675682e+05  -1.135031e+06  -1.453447e+14   6.449767e+14   3.163841e+12   4.055098e+06   2.562155e-14   0.000000e+00   0.000000e+00
     1544000   1.543999e-05   4.688656e-01   1.129337e+01   2.516811e+01   8.949309e+05   3.821838e+06  -1.179636e+06  -6.527749e+14   1.519899e+14  -6.612490e+12   4.098645e+06   2.690106e-14   0.000000e+00   0.000000e+00
     1552000   1.551999e-05   4.625518e-01   1.131703e+01   2.507063e+01  -3.027746e+06   2.544255e+06  -1.232981e+06  -4.342223e+14  -5.174280e+14  -5.123553e+12   4.142551e+06   2.791175e-14   0.000000e+00   0.000000e+00
     1560000   1.559999e-05   4.394939e-01   1.132141e+01   2.497258e+01  -3.708576e+06  -1.498953e+06  -1.236636e+06   2.553527e+14  -6.347303e+14  -1.980071e+11   4.186844e+06   2.924820e-14   0.000000e+00   0.000000e+00
     1568000   1.567999e-05   4.248295e-01   1.130235e+01   2.487474e+01  -3.996184e+05  -4.032797e+06  -1.218430e+06   6.887864e+14  -6.921022e+13  -7.658548e+11   4.231752e+06   3.058978e-14   0.000000e+00   0.000000e+00
     1576000   1.575999e-05   4.348140e-01   1.128039e+01   2.477737e+01   3.376910e+06  -2.320084e+06  -1.227825e+06   3.972776e+14   5.781071e+14  -3.751985e+12   4.277133e+06   3.208675e-14   0.000000e+00   0.000000e+00
     1584000   1.583999e-05   4.595103e-01   1.127867e+01   2.468036e+01   3.629749e+06   1.986375e+06  -1.253250e+06  -3.377181e+14   6.197563e+14   2.031123e+11   4.323355e+06   3.319063e-14   0.000000e+00   0.000000e+00
     1592000   1.591999e-05   4.713880e-01   1.130053e+01   2.458413e+01  -1.603345e+05   4.194444e+06  -1.216620e+06  -7.185933e+14  -2.310116e+13   1.080741e+13   4.370267e+06   3.519997e-14   0.000000e+00   0.000000e+00
     1600000   1.599999e-05   4.545398e-01   1.132229e+01   2.449011e+01  -3.980164e+06   1.569351e+06  -1.103054e+06  -2.724206e+14  -6.794400e+14   1.145813e+13   4.418291e+06   3.729715e-14   0.000000e+00   0.000000e+00
     1608000   1.607999e-05   4.260121e-01   1.131621e+01   2.439890e+01  -3.060727e+06  -3.085330e+06  -1.033694e+06   5.288721e+14  -5.246504e+14  -5.381930e+12   4.467195e+06   3.948016e-14   0.000000e+00   0.000000e+00
     1616000   1.615999e-05   4.192072e-01   1.128617e+01   2.431015e+01   1.978526e+06  -3.910419e+06  -1.096370e+06   6.748779e+14   3.458648e+14  -2.094873e+13   4.517518e+06   4.186891e-14   0.000000e+00   0.000000e+00
     1624000   1.623999e-05   4.442471e-01   1.127165e+01   2.422346e+01   4.343542e+06   7.552904e+05  -1.198859e+06  -1.325928e+14   7.573393e+14  -8.193972e+12   4.568817e+06   4.399297e-14   0.000000e+00   0.000000e+00
     1632000   1.631999e-05   4.629651e-01   1.129485e+01   2.413956e+01   1.472316e+05   4.487862e+06  -1.094127e+06  -7.854871e+14   3.360333e+13   2.647807e+13   4.621655e+06   4.711870e-14   0.000000e+00   0.000000e+00
     1640000   1.639999e-05   4.399940e-01   1.132029e+01   2.406103e+01  -4.514178e+06   9.084775e+05  -8.126526e+05  -1.632796e+14  -7.850480e+14   2.146140e+13   4.675846e+06   5.014801e-14   0.000000e+00   0.000000e+00
     1648000   1.647999e-05   4.070762e-01   1.130143e+01   2.398780e+01  -1.429751e+06  -4.446480e+06  -7.559217e+05   7.798655e+14  -2.481191e+14  -2.442090e+13   4.731468e+06   5.349820e-14   0.000000e+00   0.000000e+00
     1656000   1.655999e-05   4.214719e-01   1.126691e+01   2.391857e+01   4.465820e+06  -1.418868e+06  -9.887815e+05   2.483240e+14   7.964999e+14  -2.844618e+13   4.788990e+06   5.697753e-14   0.000000e+00   0.000000e+00
     1664000   1.663999e-05   4.530233e-01   1.128429e+01   2.385294e+01   1.179221e+06   4.609447e+06  -9.297856e+05  -8.188836e+14   2.179052e+14   3.397106e+13   4.847893e+06   6.025818e-14   0.000000e+00   0.000000e+00
     1672000   1.671999e-05   4.281385e-01   1.131722e+01   2.379566e+01  -4.846161e+06   6.328879e+05  -4.561186e+05  -1.166459e+14  -8.609309e+14   2.818612e+13   4.908551e+06   6.490212e-14   0.000000e+00   0.000000e+00
     1680000   1.679999e-05   3.947118e-01   1.128696e+01   2.374693e+01   3.448633e+05  -4.935204e+06  -4.857502e+05   8.827257e+14   6.450248e+13  -4.481103e+13   4.971028e+06   6.918929e-14   0.000000e+00   0.000000e+00
     1688000   1.687999e-05   4.294285e-01   1.126187e+01   2.370128e+01   4.676804e+06   1.681769e+06  -8.073049e+05  -3.049840e+14   8.491475e+14  -7.954704e+12   5.035135e+06   7.358541e-14   0.000000e+00   0.000000e+00
     1696000   1.695999e-05   4.404927e-01   1.130520e+01   2.366267e+01  -3.149199e+06   3.997466e+06  -3.472479e+05  -7.249187e+14  -5.639038e+14   5.834001e+13   5.100762e+06   7.855598e-14   0.000000e+00   0.000000e+00
     1704000   1.703999e-05   3.927091e-01   1.130231e+01   2.363712e+01  -2.627227e+06  -4.450348e+06  -2.458812e+04   8.069208e+14  -4.781753e+14  -2.944263e+13   5.168029e+06   8.385644e-14   0.000000e+00   0.000000e+00
     1712000   1.711999e-05   4.130147e-01   1.125966e+01   2.361791e+01   5.180951e+06  -6.111882e+05  -4.558220e+05   1.100607e+14   9.439476e+14  -3.456220e+13   5.236753e+06   8.842128e-14   0.000000e+00   0.000000e+00
     1720000   1.719999e-05   4.435918e-01   1.129766e+01   2.360500e+01  -1.633979e+06   5.047232e+06  -1.247557e+05  -9.160002e+14  -2.931124e+14   6.434398e+13   5.306600e+06   9.328242e-14   0.000000e+00   0.000000e+00
     1728000   1.727999e-05   3.958842e-01   1.131096e+01   2.360704e+01  -3.912374e+06  -3.668858e+06   3.883989e+05   6.690883e+14  -7.177850e+14  -1.569756e+13   5.377550e+06   9.930424e-14   0.000000e+00   0.000000e+00
     1736000   1.735999e-05   4.057606e-01   1.126280e+01   2.361763e+01   5.066038e+06  -2.007475e+06  -3.678047e+04   3.658110e+14   9.191400e+14  -4.749128e+13   5.449409e+06   1.038583e-13   0.000000e+00   0.000000e+00
     1744000   1.743999e-05   4.484525e-01   1.129283e+01   2.363413e+01  -1.282423e+05   5.518170e+06   1.518373e+05  -9.951525e+14  -2.296715e+13   5.966993e+13   5.521748e+06   1.081048e-13   0.000000e+00   0.000000e+00
     1752000   1.751999e-05   4.082190e-01   1.132218e+01   2.366553e+01  -5.113803e+06  -2.130810e+06   7.793185e+05   3.882506e+14  -9.344642e+14   5.788975e+12   5.594522e+06   1.142758e-13   0.000000e+00   0.000000e+00
     1760000   1.759999e-05   3.992045e-01   1.127532e+01   2.370748e+01   3.724841e+06  -4.242814e+06   4.945220e+05   7.671787e+14   6.644658e+14  -5.678285e+13   5.667492e+06   1.183460e-13   0.000000e+00   0.000000e+00
     1768000   1.767999e-05   4.518573e-01   1.127971e+01   2.375469e+01   3.224772e+06   4.733407e+06   3.860556e+05  -8.444003e+14   5.751629e+14   2.840312e+13   5.740500e+06   1.227469e-13   0.000000e+00   0.000000e+00
     1776000   1.775999e-05   4.416743e-01   1.132896e+01   2.381303e+01  -5.220005e+06   2.361044e+06   9.854986e+05  -4.177133e+14  -9.378006e+14   4.493422e+13   5.813277e+06   1.272474e-13   0.000000e+00   0.000000e+00
     1784000   1.783999e-05   4.012376e-01   1.131223e+01   2.388323e+01  -1.801532e+06  -5.491175e+06   1.115266e+06   9.802094e+14  -3.304190e+14  -3.389158e+13   5.885774e+06   1.323176e-13   0.000000e+00   0.000000e+00
     1792000   1.791999e-05   4.260869e-01   1.127246e+01   2.395984e+01   5.638732e+06  -1.736863e+06   8.280911e+05   3.114060e+14   9.885398e+14  -3.408280e+13   5.957997e+06   1.361215e-13   0.000000e+00   0.000000e+00
     1800000   1.799999e-05   4.709747e-01   1.129415e+01   2.404341e+01   2.228274e+06   5.527116e+06   9.182676e+05  -9.584272e+14   3.833978e+14   2.964226e+13   6.029712e+06   1.382672e-13   0.000000e+00   0.000000e+00
     1808000   1.807999e-05   4.608147e-01   1.133846e+01   2.413595e+01  -5.098732e+06   3.077860e+06   1.323986e+06  -5.337742e+14  -8.957924e+14   3.507462e+13   6.101085e+06   1.444994e-13   0.000000e+00   0.000000e+00
     1816000   1.815999e-05   4.215603e-01   1.133523e+01   2.423749e+01  -4.140400e+06  -4.331765e+06   1.479460e+06   7.546362e+14  -7.273178e+14  -1.019889e+13   6.172188e+06   1.492466e-13   0.000000e+00   0.000000e+00
     1824000   1.823999e-05   4.191517e-01   1.129614e+01   2.434438e+01   2.964437e+06  -5.322340e+06   1.363900e+06   9.249457e+14   5.060822e+14  -2.733194e+13   6.243029e+06   1.546178e-13   0.000000e+00   0.000000e+00
     1832000   1.831999e-05   4.576236e-01   1.127956e+01   2.445540e+01   6.119476e+06   8.538752e+05   1.298697e+06  -1.419581e+14   1.042522e+15  -8.011337e+12   6.313771e+06   1.573885e-13   0.000000e+00   0.000000e+00
     1840000   1.839999e-05   4.898114e-01   1.130679e+01   2.457100e+01   1.716931e+06   5.986431e+06   1.406321e+06  -1.020226e+15   2.912670e+14   1.369987e+13   6.384587e+06   1.636756e-13   0.000000e+00   0.000000e+00
     1848000   1.847999e-05   4.819573e-01   1.134493e+01   2.469124e+01  -4.563353e+06   4.298097e+06   1.540749e+06  -7.332993e+14  -7.799953e+14   1.145881e+13   6.455365e+06   1.703537e-13   0.000000e+00   0.000000e+00
     1856000   1.855999e-05   4.450460e-01   1.135412e+01   2.481430e+01  -5.962442e+06  -2.141043e+06   1.570164e+06   3.640787e+14  -1.018887e+15   6.522671e+11   6.526882e+06   1.778648e-13   0.000000e+00   0.000000e+00
     1864000   1.863999e-05   4.211923e-01   1.132554e+01   2.493813e+01  -9.916608e+05  -6.338527e+06   1.544488e+06   1.083852e+15  -1.711023e+14   1.500426e+12   6.598921e+06   1.869950e-13   0.000000e+00   0.000000e+00
     1872000   1.871999e-05   4.352498e-01   1.128973e+01   2.506178e+01   5.179687e+06  -3.902727e+06   1.566731e+06   6.654654e+14   8.831017e+14   7.550315e+12   6.671962e+06   1.941409e-13   0.000000e+00   0.000000e+00
     1880000   1.879999e-05   4.743051e-01   1.128587e+01   2.518492e+01   5.863497e+06   2.919038e+06   1.615659e+06  -4.997689e+14   1.007881e+15   6.227873e+11   6.746239e+06   2.054416e-13   0.000000e+00   0.000000e+00
     1888000   1.887999e-05   4.946718e-01   1.132044e+01   2.530644e+01  -1.062807e+05   6.642600e+06   1.549384e+06  -1.141200e+15  -1.123056e+13  -2.172357e+13   6.821732e+06   2.162671e-13   0.000000e+00   0.000000e+00
     1896000   1.895999e-05   4.675345e-01   1.135609e+01   2.542326e+01  -6.340488e+06   2.385713e+06   1.306262e+06  -4.151603e+14  -1.085116e+15  -2.299631e+13   6.899256e+06   2.292666e-13   0.000000e+00   0.000000e+00
     1904000   1.903999e-05   4.208640e-01   1.134360e+01   2.553329e+01  -4.381438e+06  -5.307274e+06   1.156614e+06   9.172513e+14  -7.569673e+14   1.348148e+13   6.978675e+06   2.457300e-13   0.000000e+00   0.000000e+00
     1912000   1.911999e-05   4.164219e-01   1.129374e+01   2.563658e+01   4.122246e+06  -5.585152e+06   1.289763e+06   9.683393e+14   7.216967e+14   4.160083e+13   7.060476e+06   2.596646e-13   0.000000e+00   0.000000e+00
     1920000   1.919999e-05   4.639017e-01   1.128059e+01   2.573420e+01   6.259510e+06   3.129269e+06   1.438698e+06  -5.501037e+14   1.104587e+15   1.430571e+12   7.144483e+06   2.772600e-13   0.000000e+00   0.000000e+00
     1928000   1.927999e-05   4.805914e-01   1.133040e+01   2.582215e+01  -2.669947e+06   6.638745e+06   1.043149e+06  -1.170294e+15  -4.586533e+14  -6.126019e+13   7.231162e+06   2.954077e-13   0.000000e+00   0.000000e+00
     1936000   1.935999e-05   4.260463e-01   1.135287e+01   2.589591e+01  -6.836913e+06  -2.563531e+06   5.211777e+05   4.505873e+14  -1.209871e+15  -8.148449e+12   7.320293e+06   3.186443e-13   0.000000e+00   0.000000e+00
     1944000   1.943999e-05   4.006201e-01   1.129588e+01   2.595691e+01   3.154880e+06  -6.672975e+06   6.792983e+05   1.189557e+15   5.664453e+14   6.531198e+13   7.412376e+06   3.410931e-13   0.000000e+00   0.000000e+00
     1952000   1.951999e-05   4.592673e-01   1.127865e+01   2.600744e+01   6.166433e+06   4.181307e+06   9.194201e+05  -7.456196e+14   1.105593e+15  -7.861641e+12   7.506901e+06   3.575323e-13   0.000000e+00   0.000000e+00
     1960000   1.959999e-05   4.650316e-01   1.134310e+01   2.604130e+01  -5.310846e+06   5.438702e+06   1.634330e+05  -9.751416e+14  -9.464301e+14  -7.921433e+13   7.603373e+06   3.821643e-13   0.000000e+00   0.000000e+00
     1968000   1.967999e-05   3.989234e-01   1.133763e+01   2.605265e+01  -4.224836e+06  -6.432366e+06  -3.067427e+05   1.156901e+15  -7.645648e+14   3.586368e+13   7.701861e+06   4.072493e-13   0.000000e+00   0.000000e+00
     1976000   1.975999e-05   4.205415e-01   1.127448e+01   2.604928e+01   7.311357e+06  -2.718612e+06   1.457084e+05   4.878116e+14   1.307922e+15   5.963578e+13   7.801796e+06   4.239675e-13   0.000000e+00   0.000000e+00
     1984000   1.983999e-05   4.810359e-01   1.130984e+01   2.603266e+01   1.262621e+06   7.800483e+06  -8.938141e+04  -1.389899e+15   2.267296e+14  -6.931014e+13   7.902515e+06   4.429819e-13   0.000000e+00   0.000000e+00
     1992000   1.991999e-05   4.398828e-01   1.136350e+01   2.599334e+01  -7.943272e+06   6.981596e+03  -9.820699e+05   7.905079e+11  -1.426052e+15  -3.725342e+13   8.003754e+06   4.651581e-13   0.000000e+00   0.000000e+00
     2000000   1.999999e-05   3.979933e-01   1.131526e+01   2.593338e+01   1.111360e+06  -7.970088e+06  -9.699575e+05   1.424670e+15   1.882363e+14   6.430149e+13   8.105446e+06   4.851064e-13   0.000000e+00   0.000000e+00
     2008000   2.007999e-05   4.547956e-01   1.127847e+01   2.586100e+01   8.065552e+06   1.373274e+06  -6.383766e+05  -2.359046e+14   1.411222e+15   2.321139e+13   8.206493e+06   4.921271e-13   0.000000e+00   0.000000e+00
     2016000   2.015999e-05   4.976879e-01   1.133181e+01   2.577590e+01  -8.161779e+05   8.199789e+06  -1.049799e+06  -1.430442e+15  -1.479057e+14  -6.288855e+13   8.306911e+06   5.102260e-13   0.000000e+00   0.000000e+00
     2024000   2.023999e-05   4.572501e-01   1.137727e+01   2.567256e+01  -8.238494e+06   3.332490e+05  -1.640322e+06  -5.550572e+13  -1.447155e+15  -2.801923e+13   8.406813e+06   5.291811e-13   0.000000e+00   0.000000e+00
     2032000   2.031999e-05   4.131066e-01   1.134536e+01   2.555588e+01  -2.176762e+06  -8.046462e+06  -1.693913e+06   1.401805e+15  -3.885971e+14   3.203488e+13   8.506067e+06   5.466744e-13   0.000000e+00   0.000000e+00
     2040000   2.039999e-05   4.367486e-01   1.129419e+01   2.542987e+01   7.100666e+06  -4.611365e+06  -1.535763e+06   7.982151e+14   1.213693e+15   3.253482e+13   8.604807e+06   5.579247e-13   0.000000e+00   0.000000e+00
     2048000   2.047999e-05   4.950773e-01   1.129682e+01   2.529573e+01   7.060833e+06   4.839567e+06  -1.570849e+06  -8.183603e+14   1.197278e+15  -3.202487e+12   8.703122e+06   5.685877e-13   0.000000e+00   0.000000e+00
     2056000   2.055999e-05   5.191698e-01   1.134749e+01   2.515391e+01  -1.288847e+06   8.523846e+06  -1.774046e+06  -1.450140e+15  -2.207175e+14  -1.909400e+13   8.801382e+06   5.950009e-13   0.000000e+00   0.000000e+00
     2064000   2.063999e-05   4.874599e-01   1.138960e+01   2.500672e+01  -8.231469e+06   2.815502e+06  -1.878224e+06  -4.806170e+14  -1.401358e+15  -6.011713e+12   8.900105e+06   6.205594e-13   0.000000e+00   0.000000e+00
     2072000   2.071999e-05   4.363302e-01   1.138006e+01   2.485799e+01  -6.430887e+06  -6.021262e+06  -1.839739e+06   1.026130e+15  -1.099440e+15  -8.305470e+11   8.999808e+06   6.539036e-13   0.000000e+00   0.000000e+00
     2080000   2.079999e-05   4.211185e-01   1.132938e+01   2.471069e+01   2.336205e+06  -8.607137e+06  -1.812312e+06   1.473909e+15   4.000717e+14  -1.293655e+13   9.100832e+06   6.896717e-13   0.000000e+00   0.000000e+00
     2088000   2.087999e-05   4.601580e-01   1.129138e+01   2.456675e+01   8.830542e+06  -1.781455e+06  -1.885439e+06   3.055463e+14   1.518446e+15  -1.638661e+13   9.203638e+06   7.255347e-13   0.000000e+00   0.000000e+00
     2096000   2.095999e-05   5.123616e-01   1.131231e+01   2.442840e+01   5.218820e+06   7.481715e+06  -1.855354e+06  -1.283982e+15   9.034998e+14   1.843424e+13   9.308839e+06   7.626399e-13   0.000000e+00   0.000000e+00
     2104000   2.103999e-05   5.096893e-01   1.137346e+01   2.430006e+01  -5.400991e+06   7.572122e+06  -1.473424e+06  -1.312304e+15  -9.225067e+14   5.202070e+13   9.416937e+06   8.155001e-13   0.000000e+00   0.000000e+00
     2112000   2.111999e-05   4.455108e-01   1.139284e+01   2.418659e+01  -8.947704e+06  -3.117234e+06  -1.002140e+06   5.369220e+14  -1.552888e+15   9.477888e+12   9.528003e+06   8.750728e-13   0.000000e+00   0.000000e+00
     2120000   2.119999e-05   4.063974e-01   1.133253e+01   2.409047e+01   1.448043e+06  -9.481645e+06  -9.924887e+05   1.659226e+15   2.566607e+14  -5.960660e+13   9.642792e+06   9.370545e-13   0.000000e+00   0.000000e+00
     2128000   2.127999e-05   4.603203e-01   1.128498e+01   2.400874e+01   9.671753e+06   2.793953e+05  -1.283585e+06  -5.084885e+13   1.699724e+15  -3.570611e+13   9.760556e+06   9.841071e-13   0.000000e+00   0.000000e+00
     2136000   2.135999e-05   5.123076e-01   1.133918e+01   2.394584e+01   1.749915e+05   9.845077e+06  -8.308894e+05  -1.732830e+15   4.073388e+13   8.146441e+13   9.881627e+06   1.049876e-12   0.000000e+00   0.000000e+00
     2144000   2.143999e-05   4.560365e-01   1.139729e+01   2.391274e+01  -1.000334e+07   1.122434e+05   1.896087e+05  -2.221297e+13  -1.773513e+15   4.398018e+13   1.000576e+07   1.125374e-12   0.000000e+00   0.000000e+00
     2152000   2.151999e-05   3.988670e-01   1.134031e+01   2.390895e+01   3.219860e+05  -1.012271e+07   2.998472e+05   1.800754e+15   5.186611e+13  -7.431284e+13   1.013227e+07   1.191922e-12   0.000000e+00   0.000000e+00
     2160000   2.159999e-05   4.610900e-01   1.128611e+01   2.392713e+01   1.024039e+07   6.336662e+05  -4.851619e+04  -1.087816e+14   1.806752e+15  -3.845970e+13   1.026009e+07   1.232312e-12   0.000000e+00   0.000000e+00
     2168000   2.167999e-05   5.187309e-01   1.134915e+01   2.396997e+01  -4.259193e+05   1.036622e+07   5.264559e+05  -1.814064e+15  -7.574398e+13   8.656801e+13   1.038831e+07   1.273529e-12   0.000000e+00   0.000000e+00
     2176000   2.175999e-05   4.659624e-01   1.140891e+01   2.404362e+01  -1.040656e+07   4.184824e+05   1.457075e+06  -7.146054e+13  -1.839673e+15   4.126380e+13   1.051640e+07   1.339635e-12   0.000000e+00   0.000000e+00
     2184000   2.183999e-05   4.091677e-01   1.136340e+01   2.414201e+01  -1.875291e+06  -1.035729e+07   1.583934e+06   1.814579e+15  -3.395765e+14  -5.058456e+13   1.064420e+07   1.380325e-12   0.000000e+00   0.000000e+00
     2192000   2.191999e-05   4.481116e-01   1.129961e+01   2.425837e+01   9.755044e+06  -4.356497e+06   1.369441e+06   7.575139e+14   1.673670e+15  -4.707906e+13   1.077104e+07   1.399700e-12   0.000000e+00   0.000000e+00
     2200000   2.199999e-05   5.239907e-01   1.131665e+01   2.439033e+01   7.330464e+06   7.922364e+06   1.499678e+06  -1.350129e+15   1.250179e+15   1.770751e+13   1.089718e+07   1.436523e-12   0.000000e+00   0.000000e+00
     2208000   2.207999e-05   5.399685e-01   1.138839e+01   2.453867e+01  -4.450007e+06   9.899226e+06   1.924333e+06  -1.687000e+15  -7.622539e+14   3.785649e+13   1.102272e+07   1.488244e-12   0.000000e+00   0.000000e+00
     2216000   2.215999e-05   4.869782e-01   1.142845e+01   2.469880e+01  -1.093814e+07   2.900068e+05   2.134835e+06  -5.123265e+13  -1.884845e+15   1.020294e+13   1.114830e+07   1.578820e-12   0.000000e+00   0.000000e+00
     2224000   2.223999e-05   4.308158e-01   1.139808e+01   2.486475e+01  -5.406651e+06  -9.665938e+06   2.109775e+06   1.650112e+15  -9.271011e+14  -1.848448e+12   1.127446e+07   1.627126e-12   0.000000e+00   0.000000e+00
     2232000   2.231999e-05   4.326338e-01   1.133292e+01   2.503079e+01   5.981377e+06  -9.481500e+06   2.080095e+06   1.619670e+15   1.020458e+15   1.166478e+13   1.140186e+07   1.702526e-12   0.000000e+00   0.000000e+00
     2240000   2.239999e-05   4.940663e-01   1.130264e+01   2.519387e+01   1.127930e+07   1.067113e+06   2.148222e+06  -1.812859e+14   1.928568e+15   1.131269e+13   1.153153e+07   1.783198e-12   0.000000e+00   0.000000e+00
     2248000   2.247999e-05   5.499744e-01   1.134738e+01   2.534877e+01   3.641850e+06   1.089258e+07   2.035095e+06  -1.862694e+15   6.328357e+14  -3.481246e+13   1.166417e+07   1.882406e-12   0.000000e+00   0.000000e+00
     2256000   2.255999e-05   5.268573e-01   1.142092e+01   2.548845e+01  -9.108489e+06   7.357040e+06   1.468883e+06  -1.275768e+15  -1.561850e+15  -6.060289e+13   1.180035e+07   2.025914e-12   0.000000e+00   0.000000e+00
     2264000   2.263999e-05   4.428385e-01   1.142434e+01   2.560562e+01  -9.730601e+06  -6.858400e+06   9.261702e+05   1.191129e+15  -1.694976e+15   9.176843e+12   1.194069e+07   2.187314e-12   0.000000e+00   0.000000e+00
     2272000   2.271999e-05   4.181728e-01   1.133939e+01   2.569881e+01   5.006204e+06  -1.095464e+07   9.958781e+05   1.915660e+15   8.785888e+14   7.924388e+13   1.208544e+07   2.322373e-12   0.000000e+00   0.000000e+00
     2280000   2.279999e-05   4.997379e-01   1.130217e+01   2.576825e+01   1.163267e+07   3.594373e+06   1.194575e+06  -6.287554e+14   2.040951e+15   1.990762e+13   1.223379e+07   2.440525e-12   0.000000e+00   0.000000e+00
     2288000   2.287999e-05   5.478518e-01   1.138393e+01   2.580741e+01  -2.475816e+06   1.212867e+07   3.976796e+05  -2.129141e+15  -4.270516e+14  -1.119268e+14   1.238517e+07   2.592989e-12   0.000000e+00   0.000000e+00
     2296000   2.295999e-05   4.710573e-01   1.144171e+01   2.580620e+01  -1.239791e+07  -1.709948e+06  -7.784121e+05   3.012939e+14  -2.196919e+15  -3.594449e+13   1.253945e+07   2.765300e-12   0.000000e+00   0.000000e+00
     2304000   2.303999e-05   4.118483e-01   1.136994e+01   2.576788e+01   6.799059e+05  -1.264534e+07  -8.914575e+05   2.226764e+15   1.100205e+14   8.185526e+13   1.269494e+07   2.868446e-12   0.000000e+00   0.000000e+00
     2312000   2.311999e-05   4.818983e-01   1.130420e+01   2.570067e+01   1.279305e+07  -1.048597e+06  -6.164815e+05   1.887615e+14   2.224870e+15   5.184255e+13   1.285075e+07   2.946115e-12   0.000000e+00   0.000000e+00
     2320000   2.319999e-05   5.650085e-01   1.136022e+01   2.560413e+01   3.626299e+06   1.244313e+07  -1.087016e+06  -2.146791e+15   6.237518e+14  -6.761815e+13   1.300627e+07   3.026508e-12   0.000000e+00   0.000000e+00
     2328000   2.327999e-05   5.392342e-01   1.144825e+01   2.547553e+01  -1.090572e+07   7.099957e+06  -1.964252e+06  -1.222327e+15  -1.887985e+15  -6.358185e+13   1.316064e+07   3.136370e-12   0.000000e+00   0.000000e+00
     2336000   2.335999e-05   4.588182e-01   1.145074e+01   2.532110e+01  -1.063530e+07  -7.667285e+06  -2.317148e+06   1.321055e+15  -1.841052e+15   6.346597e+12   1.331413e+07   3.255987e-12   0.000000e+00   0.000000e+00
     2344000   2.343999e-05   4.314831e-01   1.137762e+01   2.515024e+01   2.498042e+06  -1.303820e+07  -2.265409e+06   2.237936e+15   4.204693e+14   2.491305e+13   1.346725e+07   3.364810e-12   0.000000e+00   0.000000e+00
     2352000   2.351999e-05   4.879037e-01   1.131992e+01   2.497002e+01   1.284458e+07  -3.919030e+06  -2.275940e+06   6.716526e+14   2.185116e+15   4.966480e+12   1.362065e+07   3.468853e-12   0.000000e+00   0.000000e+00
     2360000   2.359999e-05   5.679937e-01   1.134008e+01   2.478601e+01   9.784505e+06   9.403900e+06  -2.363336e+06  -1.588772e+15   1.659828e+15   4.536179e+12   1.377517e+07   3.584553e-12   0.000000e+00   0.000000e+00
     2368000   2.367999e-05   5.899868e-01   1.142174e+01   2.460762e+01  -3.875903e+06   1.320461e+07  -2.174775e+06  -2.252688e+15  -6.503329e+14   4.083811e+13   1.393248e+07   3.819960e-12   0.000000e+00   0.000000e+00
     2376000   2.375999e-05   5.232240e-01   1.148009e+01   2.444430e+01  -1.384083e+07   2.096787e+06  -1.630748e+06  -3.680032e+14  -2.373763e+15   3.585927e+13   1.409341e+07   4.102614e-12   0.000000e+00   0.000000e+00
     2384000   2.383999e-05   4.381979e-01   1.144084e+01   2.430649e+01  -6.976256e+06  -1.237725e+07  -1.206349e+06   2.143182e+15  -1.209168e+15  -3.795117e+13   1.425902e+07   4.407738e-12   0.000000e+00   0.000000e+00
     2392000   2.391999e-05   4.504212e-01   1.134224e+01   2.419828e+01   1.023415e+07  -1.008772e+07  -1.313287e+06   1.749306e+15   1.779535e+15  -8.462810e+13   1.442999e+07   4.646746e-12   0.000000e+00   0.000000e+00
     2400000   2.399999e-05   5.529956e-01   1.133202e+01   2.412101e+01   1.225961e+07   7.827641e+06  -1.315501e+06  -1.356400e+15   2.134040e+15   8.830094e+12   1.460481e+07   4.882764e-12   0.000000e+00   0.000000e+00
     2408000   2.407999e-05   5.864155e-01   1.143787e+01   2.408452e+01  -5.783669e+06   1.360443e+07  -1.804652e+05  -2.367567e+15  -9.999308e+14   1.302979e+14   1.478391e+07   5.182259e-12   0.000000e+00   0.000000e+00
     2416000   2.415999e-05   4.892665e-01   1.149060e+01   2.409919e+01  -1.443026e+07  -3.819070e+06   1.078088e+06   6.733962e+14  -2.555564e+15   2.527773e+13   1.496596e+07   5.602395e-12   0.000000e+00   0.000000e+00
     2424000   2.423999e-05   4.292217e-01   1.140598e+01   2.415971e+01   1.083995e+06  -1.506002e+07   1.225053e+06   2.630380e+15   1.777201e+14  -8.593189e+13   1.514860e+07   5.718446e-12   0.000000e+00   0.000000e+00
     2432000   2.431999e-05   5.053271e-01   1.132985e+01   2.425637e+01   1.503235e+07  -2.819732e+06   1.055711e+06   4.944658e+14   2.589687e+15  -5.798831e+13   1.533092e+07   5.854693e-12   0.000000e+00   0.000000e+00
     2440000   2.439999e-05   6.057394e-01   1.137715e+01   2.438853e+01   7.769477e+06   1.334086e+07   1.511783e+06  -2.274324e+15   1.324629e+15   4.492022e+13   1.551222e+07   5.973013e-12   0.000000e+00   0.000000e+00
     2448000   2.447999e-05   6.074478e-01   1.148092e+01   2.455400e+01  -9.083944e+06   1.259429e+07   2.263013e+06  -2.153094e+15  -1.557469e+15   5.624031e+13   1.569252e+07   6.232756e-12   0.000000e+00   0.000000e+00
     2456000   2.455999e-05   5.244235e-01   1.152269e+01   2.474116e+01  -1.548002e+07  -2.431778e+06   2.529758e+06   4.142574e+14  -2.658816e+15   7.697730e+12   1.587276e+07   6.536835e-12   0.000000e+00   0.000000e+00
     2464000   2.463999e-05   4.547338e-01   1.146753e+01   2.493583e+01  -5.392265e+06  -1.492499e+07   2.428318e+06   2.551568e+15  -9.263189e+14   2.930278e+12   1.605393e+07   6.805686e-12   0.000000e+00   0.000000e+00
     2472000   2.471999e-05   4.732311e-01   1.137652e+01   2.512682e+01   1.065939e+07  -1.201475e+07   2.383415e+06   2.054885e+15   1.822685e+15   2.967551e+13   1.623753e+07   7.130574e-12   0.000000e+00   0.000000e+00
     2480000   2.479999e-05   5.691186e-01   1.134965e+01   2.530506e+01   1.565002e+07   4.349256e+06   2.437926e+06  -7.408475e+14   2.675524e+15   1.428164e+13   1.642507e+07   7.453782e-12   0.000000e+00   0.000000e+00
     2488000   2.487999e-05   6.384490e-01   1.143131e+01   2.545840e+01   1.983070e+06   1.638128e+07   1.965584e+06  -2.803298e+15   3.543145e+14  -8.398479e+13   1.661754e+07   7.911117e-12   0.000000e+00   0.000000e+00
     2496000   2.495999e-05   5.834494e-01   1.153296e+01   2.557063e+01  -1.525067e+07   7.049886e+06   6.991679e+05  -1.232382e+15  -2.644602e+15  -9.338833e+13   1.681584e+07   8.639849e-12   0.000000e+00   0.000000e+00
     2504000   2.503999e-05   4.683266e-01   1.150965e+01   2.563071e+01  -1.076056e+07  -1.318497e+07  -1.515727e+05   2.303458e+15  -1.887130e+15   4.328694e+13   1.701928e+07   9.212843e-12   0.000000e+00   0.000000e+00
     2512000   2.511999e-05   4.693867e-01   1.139073e+01   2.563946e+01   1.077907e+07  -1.343747e+07  -9.496097e+04   2.338519e+15   1.868415e+15   1.113276e+14   1.722681e+07   9.550184e-12   0.000000e+00   0.000000e+00
     2520000   2.519999e-05   5.938666e-01   1.136689e+01   2.559885e+01   1.581706e+07   7.334300e+06  -1.818821e+05  -1.253152e+15   2.714880e+15   6.333524e+12   1.743572e+07   9.750991e-12   0.000000e+00   0.000000e+00
     2528000   2.527999e-05   6.599872e-01   1.147765e+01   2.550595e+01  -2.340296e+06   1.744098e+07  -1.292055e+06  -2.992972e+15  -4.049291e+14  -1.155327e+14   1.764467e+07   1.020417e-11   0.000000e+00   0.000000e+00
     2536000   2.535999e-05   5.895498e-01   1.157104e+01   2.536144e+01  -1.722710e+07   4.022654e+06  -2.403017e+06  -6.946779e+14  -2.984411e+15  -5.488595e+13   1.785299e+07   1.074244e-11   0.000000e+00   0.000000e+00
     2544000   2.543999e-05   4.910676e-01   1.154071e+01   2.518088e+01  -1.086349e+07  -1.418121e+07  -2.658278e+06   2.448967e+15  -1.886158e+15   1.810285e+13   1.806069e+07   1.118694e-11   0.000000e+00   0.000000e+00
     2552000   2.551999e-05   4.834878e-01   1.143883e+01   2.498007e+01   7.538636e+06  -1.643108e+07  -2.629688e+06   2.801768e+15   1.277943e+15   1.091230e+13   1.826818e+07   1.136090e-11   0.000000e+00   0.000000e+00
     2560000   2.559999e-05   5.751073e-01   1.138057e+01   2.477174e+01   1.821430e+07  -1.507915e+06  -2.714268e+06   2.583987e+14   3.083116e+15  -1.409285e+13   1.847706e+07   1.173386e-11   0.000000e+00   0.000000e+00
     2568000   2.567999e-05   6.775677e-01   1.143370e+01   2.457146e+01   9.917306e+06   1.561522e+07  -2.667525e+06  -2.650739e+15   1.695774e+15   3.473814e+13   1.868967e+07   1.242194e-11   0.000000e+00   0.000000e+00
     2576000   2.575999e-05   6.786007e-01   1.155520e+01   2.439870e+01  -1.023795e+07   1.579139e+07  -1.819703e+06  -2.706145e+15  -1.735117e+15   1.110143e+14   1.890754e+07   1.328399e-11   0.000000e+00   0.000000e+00
     2584000   2.583999e-05   5.632945e-01   1.160633e+01   2.427310e+01  -1.864096e+07  -4.272364e+06  -5.424592e+05   7.373679e+14  -3.247165e+15   3.122053e+13   1.913198e+07   1.458050e-11   0.000000e+00   0.000000e+00
     2592000   2.591999e-05   4.790759e-01   1.150845e+01   2.420775e+01  -8.277727e+05  -1.934501e+07  -8.648951e+04   3.373716e+15  -1.497923e+14  -1.051198e+14   1.936290e+07   1.537820e-11   0.000000e+00   0.000000e+00
     2600000   2.599999e-05   5.619180e-01   1.140160e+01   2.420249e+01   1.876681e+07  -5.642122e+06  -2.057731e+05   9.798835e+14   3.242525e+15  -9.850408e+13   1.959768e+07   1.585106e-11   0.000000e+00   0.000000e+00
     2608000   2.607999e-05   6.985894e-01   1.145442e+01   2.425923e+01   1.084275e+07   1.660134e+07   4.542158e+05  -2.822425e+15   1.848192e+15   7.541819e+13   1.983371e+07   1.610222e-11   0.000000e+00   0.000000e+00
     2616000   2.615999e-05   7.042179e-01   1.159496e+01   2.438011e+01  -1.202651e+07   1.594452e+07   1.980472e+06  -2.735865e+15  -2.071513e+15   1.233515e+14   2.006955e+07   1.707467e-11   0.000000e+00   0.000000e+00
     2624000   2.623999e-05   5.943595e-01   1.164585e+01   2.455508e+01  -1.954453e+07  -4.726064e+06   2.819675e+06   8.134734e+14  -3.378799e+15   1.820062e+13   2.030455e+07   1.790654e-11   0.000000e+00   0.000000e+00
     2632000   2.631999e-05   5.156849e-01   1.156644e+01   2.476129e+01  -4.719966e+06  -1.979041e+07   2.813794e+06   3.403065e+15  -8.206349e+14  -1.983067e+13   2.053912e+07   1.859495e-11   0.000000e+00   0.000000e+00
     2640000   2.639999e-05   5.570641e-01   1.145539e+01   2.497727e+01   1.518669e+07  -1.390716e+07   2.747921e+06   2.369807e+15   2.581583e+15   1.300910e+13   2.077488e+07   1.906889e-11   0.000000e+00   0.000000e+00
     2648000   2.647999e-05   6.830995e-01   1.143333e+01   2.518567e+01   1.970405e+07   6.727452e+06   2.842319e+06  -1.137964e+15   3.346657e+15   1.160226e+13   2.101397e+07   1.985516e-11   0.000000e+00   0.000000e+00
     2656000   2.655999e-05   7.694196e-01   1.153811e+01   2.536776e+01   2.579842e+06   2.097196e+07   2.333830e+06  -3.567255e+15   4.564577e+14  -1.030140e+14   2.125854e+07   2.105432e-11   0.000000e+00   0.000000e+00
     2664000   2.663999e-05   7.097500e-01   1.166622e+01   2.549905e+01  -1.885377e+07   1.032728e+07   7.529264e+05  -1.793891e+15  -3.252103e+15  -1.303120e+14   2.151010e+07   2.300415e-11   0.000000e+00   0.000000e+00
     2672000   2.671999e-05   5.680375e-01   1.165293e+01   2.556029e+01  -1.570799e+07  -1.506241e+07  -5.006040e+05   2.626295e+15  -2.749818e+15   4.085755e+13   2.176850e+07   2.467539e-11   0.000000e+00   0.000000e+00
     2680000   2.679999e-05   5.494722e-01   1.151130e+01   2.554936e+01   1.015310e+07  -1.954297e+07  -5.952848e+05   3.393898e+15   1.751399e+15   1.427750e+14   2.203106e+07   2.553648e-11   0.000000e+00   0.000000e+00
     2688000   2.687999e-05   6.918395e-01   1.145018e+01   2.547116e+01   2.205074e+07   3.216632e+06  -6.765459e+05  -5.379303e+14   3.742962e+15   5.165755e+13   2.229439e+07   2.561222e-11   0.000000e+00   0.000000e+00
     2696000   2.695999e-05   8.122541e-01   1.155342e+01   2.532731e+01   6.086827e+06   2.165037e+07  -1.733372e+06  -3.660956e+15   1.028516e+15  -9.260964e+13   2.255643e+07   2.652969e-11   0.000000e+00   0.000000e+00
     2704000   2.703999e-05   7.882745e-01   1.169558e+01   2.512735e+01  -1.639683e+07   1.561302e+07  -2.830951e+06  -2.664827e+15  -2.800149e+15  -6.129603e+13   2.281746e+07   2.804871e-11   0.000000e+00   0.000000e+00
     2712000   2.711999e-05   6.676761e-01   1.173709e+01   2.489805e+01  -2.193726e+07  -6.557216e+06  -2.900661e+06   1.119828e+15  -3.770233e+15   5.465841e+11   2.307931e+07   2.970858e-11   0.000000e+00   0.000000e+00
     2720000   2.719999e-05   5.804622e-01   1.164729e+01   2.467000e+01  -5.182484e+06  -2.261906e+07  -2.546158e+06   3.898996e+15  -8.956698e+14  -4.215574e+13   2.334444e+07   3.146168e-11   0.000000e+00   0.000000e+00
     2728000   2.727999e-05   6.277321e-01   1.151972e+01   2.446966e+01   1.793205e+07  -1.516042e+07  -2.506069e+06   2.596215e+15   3.077085e+15  -1.024129e+14   2.361518e+07   3.263396e-11   0.000000e+00   0.000000e+00
     2736000   2.735999e-05   7.807892e-01   1.150733e+01   2.431808e+01   2.133688e+07   1.047904e+07  -2.409304e+06  -1.783019e+15   3.644961e+15  -5.402716e+12   2.389304e+07   3.392150e-11   0.000000e+00   0.000000e+00
     2744000   2.743999e-05   8.635039e-01   1.165551e+01   2.424052e+01  -2.455161e+06   2.404054e+07  -7.731649e+05  -4.110202e+15  -4.058548e+14   2.110940e+14   2.417795e+07   3.609068e-11   0.000000e+00   0.000000e+00
     2752000   2.751999e-05   7.635432e-01   1.179039e+01   2.426032e+01  -2.376431e+07   5.573298e+06   1.692737e+06  -9.653650e+14  -4.124297e+15   1.325075e+14   2.446772e+07   3.882318e-11   0.000000e+00   0.000000e+00
     2760000   2.759999e-05   6.241694e-01   1.174474e+01   2.437380e+01  -1.343520e+07  -2.062619e+07   2.660170e+06   3.604432e+15  -2.365836e+15  -6.991213e+13   2.475925e+07   4.117545e-11   0.000000e+00   0.000000e+00
     2768000   2.767999e-05   6.334340e-01   1.160445e+01   2.455694e+01   1.321112e+07  -2.111591e+07   2.652966e+06   3.631919e+15   2.251979e+15  -9.289244e+13   2.504902e+07   4.142588e-11   0.000000e+00   0.000000e+00
     2776000   2.775999e-05   7.739082e-01   1.154762e+01   2.478621e+01   2.515294e+07   9.677366e+05   2.892407e+06  -1.537844e+14   4.234583e+15  -1.738138e+13   2.533719e+07   4.166695e-11   0.000000e+00   0.000000e+00
     2784000   2.783999e-05   9.065754e-01   1.163605e+01   2.503368e+01   1.238892e+07   2.219887e+07   3.235536e+06  -3.717013e+15   2.086497e+15  -2.669925e+13   2.562701e+07   4.314818e-11   0.000000e+00   0.000000e+00
     2792000   2.791999e-05   9.084097e-01   1.179949e+01   2.526392e+01  -1.332973e+07   2.209505e+07   2.466124e+06  -3.753939e+15  -2.241049e+15  -1.344607e+14   2.592209e+07   4.649854e-11   0.000000e+00   0.000000e+00
     2800000   2.799999e-05   7.653288e-01   1.188417e+01   2.543359e+01  -2.608329e+07  -2.649637e+06   6.578703e+05   4.489244e+14  -4.513179e+15  -6.553798e+13   2.622577e+07   5.120038e-11   0.000000e+00   0.000000e+00
     2808000   2.807999e-05   6.367216e-01   1.178385e+01   2.551199e+01  -6.557012e+06  -2.571345e+07  -3.528661e+05   4.513772e+15  -1.161342e+15   1.355783e+14   2.653866e+07   5.542781e-11   0.000000e+00   0.000000e+00
     2816000   2.815999e-05   7.072144e-01   1.163156e+01   2.549300e+01   2.236653e+07  -1.486157e+07  -3.678393e+05   2.569855e+15   3.848992e+15   1.690727e+14   2.685635e+07   5.601792e-11   0.000000e+00   0.000000e+00
     2824000   2.823999e-05   8.947612e-01   1.164668e+01   2.537940e+01   2.255704e+07   1.511614e+07  -1.060456e+06  -2.533891e+15   3.793501e+15  -2.085944e+13   2.717430e+07   5.567218e-11   0.000000e+00   0.000000e+00
     2832000   2.831999e-05   9.804095e-01   1.181525e+01   2.518197e+01  -3.070687e+06   2.719252e+07  -2.619598e+06  -4.587967e+15  -5.205059e+14  -1.064953e+14   2.749044e+07   5.841595e-11   0.000000e+00   0.000000e+00
     2840000   2.839999e-05   8.951402e-01   1.196178e+01   2.493565e+01  -2.543761e+07   1.077203e+07  -3.183530e+06  -1.846441e+15  -4.342434e+15  -9.559582e+12   2.780726e+07   6.241375e-11   0.000000e+00   0.000000e+00
     2848000   2.847999e-05   7.404556e-01   1.195454e+01   2.468613e+01  -2.219194e+07  -1.709307e+07  -2.551547e+06   2.934453e+15  -3.821125e+15  -1.510417e+13   2.812767e+07   6.660054e-11   0.000000e+00   0.000000e+00
     2856000   2.855999e-05   6.834904e-01   1.180625e+01   2.447465e+01   5.464122e+06  -2.784962e+07  -2.062535e+06   4.832024e+15   9.494720e+14  -1.368936e+14   2.845544e+07   7.130014e-11   0.000000e+00   0.000000e+00
     2864000   2.863999e-05   8.161165e-01   1.168682e+01   2.433376e+01   2.808172e+07  -5.988421e+06  -2.123302e+06   1.022182e+15   4.802668e+15  -1.399128e+14   2.879154e+07   7.260962e-11   0.000000e+00   0.000000e+00
     2872000   2.871999e-05   1.002380e+00   1.177068e+01   2.429077e+01   1.618359e+07   2.420428e+07  -1.016424e+06  -4.085929e+15   2.747692e+15   1.360419e+14   2.913398e+07   7.478583e-11   0.000000e+00   0.000000e+00
     2880000   2.879999e-05   1.020005e+00   1.197650e+01   2.436931e+01  -1.601844e+07   2.467683e+07   1.865046e+06  -4.206877e+15  -2.739118e+15   2.454403e+14   2.947906e+07   7.974745e-11   0.000000e+00   0.000000e+00
     2888000   2.887999e-05   8.727617e-01   1.207263e+01   2.455801e+01  -2.938081e+07  -3.668894e+06   3.574864e+06   6.336681e+14  -5.100228e+15   4.745474e+13   2.982402e+07   8.540104e-11   0.000000e+00   0.000000e+00
     2896000   2.895999e-05   7.490335e-01   1.198535e+01   2.480796e+01  -1.132463e+07  -2.774004e+07   3.517210e+06   4.774953e+15  -1.961936e+15  -2.362348e+13   3.016832e+07   8.820049e-11   0.000000e+00   0.000000e+00
     2904000   2.903999e-05   7.793829e-01   1.183021e+01   2.507126e+01   1.802153e+07  -2.439871e+07   3.325873e+06   4.170561e+15   3.077953e+15   6.220704e+13   3.051449e+07   9.103271e-11   0.000000e+00   0.000000e+00
     2912000   2.911999e-05   9.498702e-01   1.177209e+01   2.530245e+01   3.048604e+07   3.407281e+06   3.428015e+06  -5.741751e+14   5.150396e+15   6.536843e+13   3.086680e+07   9.315482e-11   0.000000e+00   0.000000e+00
     2920000   2.919999e-05   1.108046e+00   1.190369e+01   2.545557e+01   1.099734e+07   2.914004e+07   2.256282e+06  -4.906798e+15   1.876398e+15  -1.951032e+14   3.122778e+07   9.814438e-11   0.000000e+00   0.000000e+00
     2928000   2.927999e-05   1.079528e+00   1.211731e+01   2.548488e+01  -2.197038e+07   2.268459e+07  -1.015779e+06  -3.861138e+15  -3.739769e+15  -2.896504e+14   3.159620e+07   1.054004e-10   0.000000e+00   0.000000e+00
     2936000   2.935999e-05   9.042255e-01   1.218780e+01   2.537640e+01  -3.012438e+07  -1.017467e+07  -3.309661e+06   1.766489e+15  -5.250355e+15  -3.040090e+13   3.196805e+07   1.143240e-10   0.000000e+00   0.000000e+00
     2944000   2.943999e-05   7.969876e-01   1.206981e+01   2.516458e+01  -5.333040e+06  -3.169596e+07  -3.574773e+06   5.471565e+15  -9.401542e+14   8.692083e+13   3.233967e+07   1.176090e-10   0.000000e+00   0.000000e+00
     2952000   2.951999e-05   8.691440e-01   1.192068e+01   2.489835e+01   2.432078e+07  -2.158446e+07  -3.548621e+06   3.693048e+15   4.147498e+15  -3.408481e+12   3.271058e+07   1.204351e-10   0.000000e+00   0.000000e+00
     2960000   2.959999e-05   1.057274e+00   1.190081e+01   2.463125e+01   3.159418e+07   9.031403e+06  -3.858348e+06  -1.515131e+15   5.322990e+15  -2.632645e+13   3.308542e+07   1.224400e-10   0.000000e+00   0.000000e+00
     2968000   2.967999e-05   1.200145e+00   1.206388e+01   2.442285e+01   8.098251e+06   3.235063e+07  -2.828590e+06  -5.406380e+15   1.381509e+15   2.116406e+14   3.346858e+07   1.269272e-10   0.000000e+00   0.000000e+00
     2976000   2.975999e-05   1.144869e+00   1.228826e+01   2.433395e+01  -2.585860e+07   2.185600e+07   5.424463e+05  -3.736445e+15  -4.412875e+15   3.019954e+14   3.386216e+07   1.405262e-10   0.000000e+00   0.000000e+00
     2984000   2.983999e-05   9.454234e-01   1.234359e+01   2.439425e+01  -3.071820e+07  -1.485994e+07   3.083118e+06   2.580081e+15  -5.356898e+15   1.876136e+12   3.426268e+07   1.518094e-10   0.000000e+00   0.000000e+00
     2992000   2.991999e-05   8.502452e-01   1.219689e+01   2.457771e+01  -1.283190e+05  -3.450010e+07   3.366099e+06   6.016320e+15  -4.624070e+13  -1.369926e+14   3.466416e+07   1.593001e-10   0.000000e+00   0.000000e+00
     3000000   2.999999e-05   9.647967e-01   1.204986e+01   2.483389e+01   3.003212e+07  -1.776573e+07   3.457211e+06   3.036657e+15   5.107754e+15  -2.925099e+13   3.506425e+07   1.590263e-10   0.000000e+00   0.000000e+00
     3008000   3.007999e-05   1.177111e+00   1.206720e+01   2.511031e+01   3.153597e+07   1.573705e+07   3.957373e+06  -2.616796e+15   5.265878e+15  -9.888361e+10   3.546594e+07   1.594069e-10   0.000000e+00   0.000000e+00
     3016000   3.015999e-05   1.305570e+00   1.226425e+01   2.533748e+01   2.790368e+06   3.565131e+07   2.873094e+06  -5.947577e+15   4.953840e+14  -2.465506e+14   3.587557e+07   1.684085e-10   0.000000e+00   0.000000e+00
     3024000   3.023999e-05   1.220030e+00   1.248849e+01   2.544564e+01  -3.074302e+07   1.928319e+07  -6.378057e+05  -3.299266e+15  -5.249891e+15  -2.988677e+14   3.629575e+07   1.862913e-10   0.000000e+00   0.000000e+00
     3032000   3.031999e-05   1.013494e+00   1.251893e+01   2.539866e+01  -3.086235e+07  -1.965661e+07  -3.123146e+06   3.432842e+15  -5.415750e+15   3.155808e+13   3.672358e+07   2.036322e-10   0.000000e+00   0.000000e+00
     3040000   3.039999e-05   9.376722e-01   1.235752e+01   2.522142e+01   2.914246e+06  -3.688855e+07  -3.320029e+06   6.387219e+15   4.790106e+14   1.606632e+14   3.715213e+07   2.082531e-10   0.000000e+00   0.000000e+00
     3048000   3.047999e-05   1.072304e+00   1.221414e+01   2.496574e+01   3.297110e+07  -1.769074e+07  -3.480567e+06   3.004075e+15   5.570235e+15   3.033182e+13   3.757885e+07   2.080373e-10   0.000000e+00   0.000000e+00
     3056000   3.055999e-05   1.294866e+00   1.224171e+01   2.468683e+01   3.379211e+07   1.690795e+07  -4.094632e+06  -2.793328e+15   5.606244e+15   1.292287e+12   3.800726e+07   2.086020e-10   0.000000e+00   0.000000e+00
     3064000   3.063999e-05   1.432268e+00   1.245014e+01   2.446042e+01   4.406257e+06   3.807632e+07  -2.955278e+06  -6.325295e+15   7.639909e+14   2.748999e+14   3.844418e+07   2.213750e-10   0.000000e+00   0.000000e+00
     3072000   3.071999e-05   1.355480e+00   1.269657e+01   2.436550e+01  -3.128190e+07   2.309197e+07   8.966582e+05  -3.920737e+15  -5.305936e+15   3.489284e+14   3.889216e+07   2.433399e-10   0.000000e+00   0.000000e+00
     3080000   3.079999e-05   1.141879e+00   1.275946e+01   2.443959e+01  -3.528408e+07  -1.703088e+07   3.636589e+06   2.964622e+15  -6.169689e+15  -7.440370e+11   3.934770e+07   2.676075e-10   0.000000e+00   0.000000e+00
     3088000   3.087999e-05   1.035718e+00   1.261637e+01   2.464928e+01  -2.852098e+06  -3.951867e+07   3.811072e+06   6.889785e+15  -5.223049e+14  -1.345698e+14   3.980432e+07   2.793917e-10   0.000000e+00   0.000000e+00
     3096000   3.095999e-05   1.143312e+00   1.245681e+01   2.492844e+01   3.191236e+07  -2.424865e+07   3.814984e+06   4.141877e+15   5.434210e+15   1.626792e+13   4.026102e+07   2.796643e-10   0.000000e+00   0.000000e+00
     3104000   3.103999e-05   1.377261e+00   1.245825e+01   2.520239e+01   3.838775e+07   1.289884e+07   4.274586e+06  -2.143131e+15   6.403616e+15   2.965823e+13   4.072188e+07   2.796860e-10   0.000000e+00   0.000000e+00
     3112000   3.111999e-05   1.551531e+00   1.266975e+01   2.538786e+01   9.762620e+06   3.993144e+07   2.639091e+06  -6.591738e+15   1.643749e+15  -3.115296e+14   4.119216e+07   2.904765e-10   0.000000e+00   0.000000e+00
     3120000   3.119999e-05   1.503731e+00   1.294917e+01   2.540638e+01  -2.984993e+07   2.902395e+07  -1.770887e+06  -4.887505e+15  -5.033546e+15  -3.927687e+14   4.167186e+07   3.176584e-10   0.000000e+00   0.000000e+00
     3128000   3.127999e-05   1.296068e+00   1.305769e+01   2.524604e+01  -4.042062e+07  -1.117270e+07  -4.297997e+06   1.927956e+15  -7.005866e+15  -4.251899e+13   4.215600e+07   3.479335e-10   0.000000e+00   0.000000e+00
     3136000   3.135999e-05   1.152261e+00   1.294340e+01   2.497998e+01  -1.235424e+07  -4.061764e+07  -3.982746e+06   7.067913e+15  -2.167193e+15   4.043297e+13   4.264132e+07   3.688689e-10   0.000000e+00   0.000000e+00
     3144000   3.143999e-05   1.214220e+00   1.276110e+01   2.469564e+01   2.699428e+07  -3.343529e+07  -3.681919e+06   5.727061e+15   4.623859e+15  -1.478011e+14   4.312964e+07   3.746214e-10   0.000000e+00   0.000000e+00
     3152000   3.151999e-05   1.450911e+00   1.271169e+01   2.447167e+01   4.324521e+07   4.144153e+06  -3.986077e+06  -6.946823e+14   7.258538e+15  -1.236892e+14   4.362581e+07   3.764735e-10   0.000000e+00   0.000000e+00
     3160000   3.159999e-05   1.678947e+00   1.290163e+01   2.438108e+01   2.013652e+07   3.922017e+07  -1.947921e+06  -6.437380e+15   3.333063e+15   2.928847e+14   4.413044e+07   3.816160e-10   0.000000e+00   0.000000e+00
     3168000   3.167999e-05   1.702480e+00   1.321315e+01   2.447672e+01  -2.187123e+07   3.883889e+07   2.435018e+06  -6.439936e+15  -3.636934e+15   3.916734e+14   4.464010e+07   4.073022e-10   0.000000e+00   0.000000e+00
     3176000   3.175999e-05   1.527733e+00   1.340736e+01   2.472606e+01  -4.475279e+07   4.149024e+06   4.319067e+06  -7.153453e+14  -7.651228e+15   7.455790e+13   4.515175e+07   4.491081e-10   0.000000e+00   0.000000e+00
     3184000   3.183999e-05   1.324522e+00   1.337337e+01   2.502363e+01  -2.920268e+07  -3.497114e+07   3.134760e+06   6.098429e+15  -5.106670e+15   4.374545e+13   4.566841e+07   4.927771e-10   0.000000e+00   0.000000e+00
     3192000   3.191999e-05   1.290835e+00   1.318250e+01   2.526853e+01   1.350184e+07  -4.411950e+07   2.250903e+06   7.689961e+15   2.354042e+15   3.012976e+14   4.619412e+07   5.167380e-10   0.000000e+00   0.000000e+00
     3200000   3.199999e-05   1.498291e+00   1.305576e+01   2.538764e+01   4.516052e+07  -1.176559e+07   2.401045e+06   1.987899e+15   7.635772e+15   2.866339e+14   4.672972e+07   5.095642e-10   0.000000e+00   0.000000e+00
     3208000   3.207999e-05   1.787205e+00   1.318030e+01   2.533883e+01   3.506210e+07   3.169898e+07   4.867831e+05  -5.176508e+15   5.746607e+15  -1.314185e+14   4.726958e+07   5.010183e-10   0.000000e+00   0.000000e+00
     3216000   3.215999e-05   1.918409e+00   1.348757e+01   2.511875e+01  -4.006822e+06   4.754609e+07  -2.995551e+06  -7.727804e+15  -6.518390e+14  -2.104263e+14   4.780857e+07   5.160668e-10   0.000000e+00   0.000000e+00
     3224000   3.223999e-05   1.820187e+00   1.377374e+01   2.480895e+01  -4.002033e+07   2.691786e+07  -3.394058e+06  -4.509475e+15  -6.670526e+15   7.837343e+13   4.834995e+07   5.692305e-10   0.000000e+00   0.000000e+00
     3232000   3.231999e-05   1.584973e+00   1.387385e+01   2.454168e+01  -4.607344e+07  -1.637867e+07  -5.865265e+05   2.819214e+15  -7.974976e+15   2.247599e+13   4.890160e+07   6.433465e-10   0.000000e+00   0.000000e+00
     3240000   3.239999e-05   1.423424e+00   1.374033e+01   2.442104e+01  -1.068186e+07  -4.828667e+07   1.176465e+06   8.522440e+15  -1.910023e+15  -3.646456e+14   4.946806e+07   7.040812e-10   0.000000e+00   0.000000e+00
     3248000   3.247999e-05   1.531533e+00   1.354883e+01   2.447927e+01   3.603795e+07  -3.470414e+07   1.063581e+06   5.986193e+15   6.183074e+15  -3.852686e+14   5.004241e+07   7.008076e-10   0.000000e+00   0.000000e+00
     3256000   3.255999e-05   1.826881e+00   1.354587e+01   2.468968e+01   4.977091e+07   8.931154e+06   2.235863e+06  -1.453085e+15   8.188641e+15  -5.409976e+13   5.061529e+07   6.690902e-10   0.000000e+00   0.000000e+00
     3264000   3.263999e-05   2.079004e+00   1.377354e+01   2.498784e+01   2.516167e+07   4.438557e+07   4.122092e+06  -7.125332e+15   4.059705e+15  -5.690195e+13   5.118769e+07   6.661930e-10   0.000000e+00   0.000000e+00
     3272000   3.271999e-05   2.128280e+00   1.411467e+01   2.526590e+01  -1.818748e+07   4.839438e+07   2.648994e+06  -7.886078e+15  -2.926589e+15  -4.107706e+14   5.176696e+07   7.194266e-10   0.000000e+00   0.000000e+00
     3280000   3.279999e-05   1.953231e+00   1.438534e+01   2.540475e+01  -5.008399e+07   1.514133e+07  -1.939938e+06  -2.574986e+15  -8.510741e+15  -3.558242e+14   5.235866e+07   8.228578e-10   0.000000e+00   0.000000e+00
     3288000   3.287999e-05   1.709123e+00   1.442126e+01   2.535273e+01  -4.124240e+07  -3.292827e+07  -4.444183e+06   5.778924e+15  -7.283173e+15   1.397304e+14   5.296185e+07   9.206513e-10   0.000000e+00   0.000000e+00
     3296000   3.295999e-05   1.633791e+00   1.425906e+01   2.515313e+01   3.197579e+06  -5.333389e+07  -3.873743e+06   9.363070e+15   5.262179e+14   2.565488e+14   5.356990e+07   9.603047e-10   0.000000e+00   0.000000e+00
     3304000   3.303999e-05   1.804165e+00   1.410944e+01   2.487892e+01   4.463383e+07  -3.046339e+07  -3.904982e+06   5.203544e+15   7.598712e+15  -1.961034e+13   5.417975e+07   9.481855e-10   0.000000e+00   0.000000e+00
     3312000   3.311999e-05   2.103882e+00   1.415135e+01   2.460222e+01   5.255822e+07   1.463177e+07  -5.078687e+06  -2.392997e+15   8.635460e+15  -4.381712e+13   5.479278e+07   9.195505e-10   0.000000e+00   0.000000e+00
     3320000   3.319999e-05   2.348887e+00   1.442605e+01   2.440679e+01   2.308635e+07   5.023391e+07  -3.778327e+06  -8.048709e+15   3.745456e+15   4.086068e+14   5.541391e+07   9.263274e-10   0.000000e+00   0.000000e+00
     3328000   3.327999e-05   2.384661e+00   1.481440e+01   2.437595e+01  -2.369520e+07   5.077638e+07   1.081304e+06  -8.229937e+15  -3.837671e+15   6.303379e+14   5.604349e+07   9.955192e-10   0.000000e+00   0.000000e+00
     3336000   3.335999e-05   2.205662e+00   1.510652e+01   2.452652e+01  -5.471727e+07   1.401430e+07   4.726898e+06  -2.372991e+15  -9.285331e+15   2.544844e+14   5.668089e+07   1.131417e-09   0.000000e+00   0.000000e+00
     3344000   3.343999e-05   1.968760e+00   1.516122e+01   2.478687e+01  -4.592449e+07  -3.403159e+07   4.345940e+06   5.932571e+15  -8.039912e+15  -3.735904e+13   5.732447e+07   1.259189e-09   0.000000e+00   0.000000e+00
     3352000   3.351999e-05   1.868011e+00   1.501626e+01   2.506461e+01  -2.049371e+06  -5.785890e+07   3.063026e+06   1.020354e+16  -3.697754e+14   1.824521e+14   5.797615e+07   1.347912e-09   0.000000e+00   0.000000e+00
     3360000   3.359999e-05   2.015745e+00   1.485154e+01   2.529295e+01   4.468683e+07  -3.777469e+07   3.798353e+06   6.488363e+15   7.691424e+15   4.241613e+14   5.863674e+07   1.343779e-09   0.000000e+00   0.000000e+00
     3368000   3.367999e-05   2.338408e+00   1.487961e+01   2.542895e+01   5.817491e+07   1.056889e+07   4.569856e+06  -1.727778e+15   9.546368e+15   1.225737e+14   5.930350e+07   1.277824e-09   0.000000e+00   0.000000e+00
     3376000   3.375999e-05   2.630715e+00   1.515893e+01   2.543384e+01   3.153971e+07   5.096933e+07   2.061598e+06  -8.115226e+15   5.056393e+15  -4.138407e+14   5.997396e+07   1.273867e-09   0.000000e+00   0.000000e+00
     3384000   3.383999e-05   2.727172e+00   1.557310e+01   2.529649e+01  -1.548048e+07   5.860196e+07  -2.121459e+06  -9.409337e+15  -2.486837e+15  -4.817224e+14   6.064928e+07   1.352789e-09   0.000000e+00   0.000000e+00
     3392000   3.391999e-05   2.596406e+00   1.592854e+01   2.506233e+01  -5.374160e+07   2.930459e+07  -3.819035e+06  -4.883874e+15  -8.940088e+15  -1.456763e+14   6.133110e+07   1.515116e-09   0.000000e+00   0.000000e+00
     3400000   3.399999e-05   2.344385e+00   1.607992e+01   2.480276e+01  -5.864910e+07  -2.002364e+07  -2.456510e+06   3.432210e+15  -1.010954e+16  -2.459248e+12   6.202175e+07   1.704770e-09   0.000000e+00   0.000000e+00
     3408000   3.407999e-05   2.159403e+00   1.600542e+01   2.457374e+01  -2.372616e+07  -5.805079e+07  -1.185554e+06   1.027342e+16  -4.213608e+15  -3.201731e+14   6.272345e+07   1.891806e-09   0.000000e+00   0.000000e+00
     3416000   3.415999e-05   2.203313e+00   1.583002e+01   2.439384e+01   2.947762e+07  -5.610935e+07  -2.627089e+06   9.800885e+15   5.158136e+15  -6.638437e+14   6.343572e+07   1.934740e-09   0.000000e+00   0.000000e+00
     3424000   3.423999e-05   2.478940e+00   1.577146e+01   2.426354e+01   6.224259e+07  -1.462776e+07  -5.266337e+06   2.430675e+15   1.042643e+16  -4.504168e+14   6.415486e+07   1.849805e-09   0.000000e+00   0.000000e+00
     3432000   3.431999e-05   2.828892e+00   1.595953e+01   2.418687e+01   5.372412e+07   3.596180e+07  -5.446714e+06  -5.736188e+15   8.636761e+15   2.471528e+14   6.487834e+07   1.775752e-09   0.000000e+00   0.000000e+00
     3440000   3.439999e-05   3.054774e+00   1.635590e+01   2.416877e+01   1.284141e+07   6.429939e+07  -2.211054e+06  -1.012291e+16   2.064798e+15   7.686787e+14   6.560641e+07   1.815777e-09   0.000000e+00   0.000000e+00
     3448000   3.447999e-05   3.052049e+00   1.680326e+01   2.420026e+01  -3.583647e+07   5.579405e+07   1.979136e+06  -8.981150e+15  -5.775982e+15   7.878093e+14   6.634113e+07   1.987395e-09   0.000000e+00   0.000000e+00
     3456000   3.455999e-05   2.850697e+00   1.712548e+01   2.425090e+01  -6.545737e+07   1.395809e+07   4.588067e+06  -2.346426e+15  -1.103403e+16   3.698685e+14   6.708611e+07   2.263428e-09   0.000000e+00   0.000000e+00
     3464000   3.463999e-05   2.595341e+00   1.721106e+01   2.428098e+01  -5.543137e+07  -3.888203e+07   4.268454e+06   6.798314e+15  -9.758231e+15  -2.728898e+14   6.784297e+07   2.577847e-09   0.000000e+00   0.000000e+00
     3472000   3.471999e-05   2.477321e+00   1.709367e+01   2.425015e+01  -9.178087e+06  -6.798606e+07   9.305065e+05   1.202526e+16  -1.656364e+15  -8.173386e+14   6.860909e+07   2.764784e-09   0.000000e+00   0.000000e+00
     3480000   3.479999e-05   2.593999e+00   1.694250e+01   2.410862e+01   4.269988e+07  -5.445216e+07  -5.037815e+06   9.353813e+15   7.402446e+15  -1.013466e+15   6.938082e+07   2.744708e-09   0.000000e+00   0.000000e+00
     3488000   3.487999e-05   2.874103e+00   1.694157e+01   2.379116e+01   6.810315e+07  -1.078729e+07  -1.292597e+07   1.701368e+15   1.135948e+16  -6.183417e+14   7.015330e+07   2.597539e-09   0.000000e+00   0.000000e+00
     3496000   3.495999e-05   3.111451e+00   1.715460e+01   2.323269e+01   5.950588e+07   3.247825e+07  -2.082142e+07  -5.119196e+15   9.733572e+15   4.944539e+14   7.091768e+07   2.437492e-09   0.000000e+00   0.000000e+00
     3504000   3.503999e-05   3.147575e+00   1.752493e+01   2.247376e+01   3.283960e+07   5.906153e+07  -2.388199e+07  -8.532007e+15   5.736676e+15   2.408263e+15   7.167324e+07   2.296283e-09   0.000000e+00   0.000000e+00
     3512000   3.511999e-05   3.118637e+00   1.808122e+01   2.204435e+01  -3.446034e+03   7.213947e+07  -6.702901e+06  -9.522694e+15   4.157496e+14   4.316034e+15   7.245021e+07   2.309490e-09   0.000000e+00   0.000000e+00
     3520000   3.519999e-05   3.246959e+00   1.871514e+01   2.243768e+01  -3.247700e+07   6.450446e+07   1.213762e+07  -9.091820e+15  -5.149805e+15   3.139060e+15   7.323184e+07   2.571907e-09   0.000000e+00   0.000000e+00
     3528000   3.527999e-05   3.197545e+00   1.921831e+01   2.287069e+01  -6.400648e+07   3.443377e+07   1.405781e+07  -5.348032e+15  -1.053990e+16   1.567900e+15   7.402794e+07   3.146841e-09   0.000000e+00   0.000000e+00
     3536000   3.535999e-05   2.919757e+00   1.953417e+01   2.275187e+01  -7.282041e+07  -1.237290e+07   1.206331e+07   2.111564e+15  -1.250920e+16   4.968509e+13   7.484266e+07   3.652170e-09   0.000000e+00   0.000000e+00
     3544000   3.543999e-05   2.567331e+00   1.980509e+01   2.213992e+01  -6.011560e+07  -4.170633e+07   1.915464e+07   7.087138e+15  -1.124981e+16  -2.157524e+15   7.563203e+07   4.216246e-09   0.000000e+00   0.000000e+00
     3552000   3.551999e-05   2.400463e+00   2.011607e+01   2.205126e+01  -2.425813e+07  -6.764421e+07   2.610088e+07   1.196293e+16  -6.262453e+15  -5.032163e+15   7.645555e+07   4.946871e-09   0.000000e+00   0.000000e+00
     3560000   3.559999e-05   2.576659e+00   2.038697e+01   2.254939e+01   7.679521e+06  -7.663509e+07   6.322039e+06   1.363889e+16   9.914463e+14  -4.225227e+15   7.727794e+07   5.001846e-09   0.000000e+00   0.000000e+00
     3568000   3.567999e-05   2.638111e+00   2.051898e+01   2.234363e+01   4.441491e+07  -6.026051e+07  -2.235159e+07   1.006455e+16   8.889153e+15  -4.054142e+15   7.812558e+07   4.926541e-09   0.000000e+00   0.000000e+00
     3576000   3.575999e-05   2.515946e+00   2.093288e+01   2.172750e+01   5.978693e+07  -3.833113e+07  -3.449245e+07   5.535708e+15   1.242242e+16  -4.268593e+15   7.895240e+07   5.213106e-09   0.000000e+00   0.000000e+00
     3584000   3.583999e-05   2.867787e+00   2.150138e+01   2.211587e+01   7.627028e+07  -1.490055e+07  -1.804115e+07   2.236713e+15   1.308585e+16  -1.450852e+15   7.977885e+07   4.686798e-09   0.000000e+00   0.000000e+00
     3592000   3.591999e-05   3.094365e+00   2.197192e+01   2.201467e+01   6.975531e+07   2.152522e+07  -3.425044e+07  -3.302107e+15   1.205907e+16   8.077240e+14   8.063641e+07   4.228510e-09   0.000000e+00   0.000000e+00
     3600000   3.599999e-05   2.906110e+00   2.264591e+01   2.132508e+01   5.688900e+07   4.175801e+07  -4.072572e+07  -5.244765e+15   1.030683e+16   3.206407e+15   8.147806e+07   3.974480e-09   0.000000e+00   0.000000e+00
     3608000   3.607999e-05   3.301912e+00   2.338636e+01   2.193443e+01   6.118980e+07   5.292199e+07  -1.518013e+07  -7.360291e+15   9.212091e+15   2.351875e+15   8.231261e+07   4.084022e-09   0.000000e+00   0.000000e+00
     3616000   3.615999e-05   3.293575e+00   2.407197e+01   2.155162e+01   3.503511e+07   7.039954e+07  -2.711240e+07  -8.516090e+15   5.763302e+15   3.915585e+15   8.317834e+07   3.504761e-09   0.000000e+00   0.000000e+00
     3624000   3.623999e-05   3.228304e+00   2.491328e+01   2.131735e+01   3.253394e+07   7.691909e+07  -9.336463e+06  -8.375838e+15   4.173974e+15   5.079602e+15   8.403674e+07   3.361458e-09   0.000000e+00   0.000000e+00
     3632000   3.631999e-05   3.518355e+00   2.565493e+01   2.192004e+01   1.936213e+07   8.237784e+07  -6.850452e+06  -1.089793e+16   2.833121e+15   3.068022e+15   8.489952e+07   4.135279e-09   0.000000e+00   0.000000e+00
     3640000   3.639999e-05   3.185458e+00   2.645558e+01   2.115072e+01   4.794819e+06   8.545963e+07  -5.474783e+06  -8.430959e+15   8.898878e+14   6.303178e+15   8.576895e+07   3.470406e-09   0.000000e+00   0.000000e+00
     3648000   3.647999e-05   3.488577e+00   2.726851e+01   2.177435e+01   4.250500e+06   8.600038e+07   9.646055e+06  -1.069962e+16   1.284110e+14   3.702803e+15   8.664398e+07   4.082961e-09   0.000000e+00   0.000000e+00
     3656000   3.655999e-05   3.478677e+00   2.800318e+01   2.184210e+01  -1.935854e+07   8.535873e+07   1.798045e+06  -1.069581e+16  -2.486088e+15   3.609608e+15   8.754484e+07   4.360131e-09   0.000000e+00   0.000000e+00
     3664000   3.663999e-05   3.197570e+00   2.885568e+01   2.132477e+01  -1.707731e+07   8.366671e+07   2.300829e+07  -8.957550e+15  -3.408793e+15   5.801684e+15   8.843718e+07   4.195357e-09   0.000000e+00   0.000000e+00
     3672000   3.671999e-05   3.521458e+00   2.954853e+01   2.221532e+01  -3.169175e+07   8.157971e+07   1.791932e+07  -1.100004e+16  -4.881998e+15   2.856776e+15   8.933487e+07   5.238935e-09   0.000000e+00   0.000000e+00
     3680000   3.679999e-05   3.369603e+00   3.022904e+01   2.210458e+01  -5.129922e+07   7.297466e+07   1.379013e+07  -9.606448e+15  -7.291306e+15   2.960041e+15   9.026117e+07   5.412048e-09   0.000000e+00   0.000000e+00
     3688000   3.687999e-05   3.122624e+00   3.102230e+01   2.174796e+01  -4.975810e+07   6.636934e+07   3.786186e+07  -8.511571e+15  -8.467538e+15   3.698805e+15   9.118267e+07   5.674853e-09   0.000000e+00   0.000000e+00
     3696000   3.695999e-05   3.336662e+00   3.163261e+01   2.260150e+01  -6.368801e+07   5.968839e+07   2.941087e+07  -8.543760e+15  -9.944884e+15   1.741136e+15   9.210790e+07   6.445494e-09   0.000000e+00   0.000000e+00
     3704000   3.703999e-05   3.240248e+00   3.214196e+01   2.301133e+01  -8.077577e+07   4.265996e+07   1.777052e+07  -6.402511e+15  -1.238242e+16   7.323636e+14   9.306121e+07   7.361315e-09   0.000000e+00   0.000000e+00
     3712000   3.711999e-05   2.978442e+00   3.268228e+01   2.273216e+01  -8.786780e+07   2.651766e+07   2.038229e+07  -4.109703e+15  -1.361197e+16   9.168621e+13   9.401795e+07   7.829815e-09   0.000000e+00   0.000000e+00
     3720000   3.719999e-05   2.755615e+00   3.328041e+01   2.261873e+01  -8.794531e+07   1.043465e+07   3.433190e+07  -2.091705e+15  -1.462222e+16  -8.501968e+14   9.498389e+07   8.691131e-09   0.000000e+00   0.000000e+00
     3728000   3.727999e-05   2.771162e+00   3.375158e+01   2.331404e+01  -9.118078e+07  -1.270390e+06   2.983799e+07  -1.385462e+14  -1.472251e+16  -9.772379e+14   9.594714e+07   8.861619e-09   0.000000e+00   0.000000e+00
     3736000   3.735999e-05   2.739405e+00   3.410093e+01   2.421517e+01  -9.476833e+07  -8.285644e+06   1.845128e+07   1.179555e+15  -1.488635e+16  -5.054445e+14   9.690272e+07   9.311030e-09   0.000000e+00   0.000000e+00
     3744000   3.743999e-05   2.604990e+00   3.442550e+01   2.507360e+01  -9.622477e+07  -1.502058e+07   9.643779e+06   2.333748e+15  -1.500371e+16   1.561400e+14   9.786637e+07   9.855250e-09   0.000000e+00   0.000000e+00
     3752000   3.751999e-05   2.415878e+00   3.481055e+01   2.586682e+01  -9.710891e+07  -1.836862e+07  -9.079462e+05   2.825477e+15  -1.511865e+16   1.049674e+15   9.883506e+07   1.040865e-08   0.000000e+00   0.000000e+00
     3760000   3.759999e-05   2.190184e+00   3.524100e+01   2.619137e+01  -9.446483e+07  -2.847232e+07  -1.523877e+07   4.312290e+15  -1.535171e+16   1.782587e+15   9.983235e+07   1.156125e-08   0.000000e+00   0.000000e+00
     3768000   3.767999e-05   2.104699e+00   3.562687e+01   2.558716e+01  -9.263409e+07  -3.421077e+07  -2.038561e+07   5.219659e+15  -1.478594e+16   9.738260e+14   1.008317e+08   1.136386e-08   0.000000e+00   0.000000e+00
     3776000   3.775999e-05   2.076016e+00   3.604046e+01   2.446624e+01  -9.916584e+07  -2.035284e+07  -1.066950e+07   3.141078e+15  -1.514733e+16  -5.241376e+14   1.017936e+08   1.129779e-08   0.000000e+00   0.000000e+00
     3784000   3.783999e-05   1.900785e+00   3.648658e+01   2.379733e+01  -1.006981e+08  -1.672921e+07   1.207857e+07   2.449403e+15  -1.587901e+16  -1.357197e+15   1.027904e+08   1.256532e-08   0.000000e+00   0.000000e+00
     3792000   3.791999e-05   1.855967e+00   3.688569e+01   2.447894e+01  -1.007264e+08  -1.264254e+07   2.165407e+07   1.813025e+15  -1.543157e+16  -4.644992e+14   1.038005e+08   1.197303e-08   0.000000e+00   0.000000e+00
     3800000   3.799999e-05   1.856236e+00   3.730584e+01   2.570787e+01  -1.038800e+08   1.355920e+07   1.344018e+06  -2.030482e+15  -1.543325e+16   5.673016e+14   1.047698e+08   1.231045e-08   0.000000e+00   0.000000e+00
     3808000   3.807999e-05   1.733961e+00   3.770567e+01   2.568654e+01  -1.020675e+08   1.616274e+07  -2.270386e+07  -2.587924e+15  -1.547368e+16   5.101321e+14   1.058039e+08   1.282015e-08   0.000000e+00   0.000000e+00
     3816000   3.815999e-05   1.814195e+00   3.803173e+01   2.435064e+01  -9.519519e+07   4.758056e+07  -8.736816e+06  -6.778887e+15  -1.351670e+16  -1.159793e+13   1.067819e+08   1.218343e-08   0.000000e+00   0.000000e+00
     3824000   3.823999e-05   1.695802e+00   3.837583e+01   2.401599e+01  -8.903315e+07   5.688410e+07   2.150720e+07  -8.354933e+15  -1.309260e+16   1.537748e+14   1.078205e+08   1.318062e-08   0.000000e+00   0.000000e+00
     3832000   3.831999e-05   1.757380e+00   3.856399e+01   2.540567e+01  -6.816890e+07   8.413350e+07   1.071464e+07  -1.172022e+16  -9.414346e+15  -4.322141e+14   1.088129e+08   1.265675e-08   0.000000e+00   0.000000e+00
     3840000   3.839999e-05   1.639275e+00   3.879776e+01   2.574545e+01  -5.301818e+07   9.419037e+07  -1.966226e+07  -1.349433e+16  -7.775413e+15  -9.846024e+14   1.098606e+08   1.397243e-08   0.000000e+00   0.000000e+00
     3848000   3.847999e-05   1.586438e+00   3.880493e+01   2.424863e+01  -1.488680e+07   1.093383e+08  -1.063882e+07  -1.541832e+16  -1.965940e+15   1.141840e+15   1.108588e+08   1.427365e-08   0.000000e+00   0.000000e+00
     3856000   3.855999e-05   1.408107e+00   3.889637e+01   2.423863e+01   1.032010e+07   1.101032e+08   1.720514e+07  -1.593360e+16   1.323398e+15   1.237864e+15   1.119162e+08   1.549721e-08   0.000000e+00   0.000000e+00
