     timestep     time              x             y              z              vx             vy             vz             ax             ay             az         v_magnitude      ELoss        Electronic      Nuclear
           0   0.000000e+00   1.000000e-01   1.899629e+01   5.000830e+00   3.878813e+03   1.178897e+05  -8.844598e+04   0.000000e+00   0.000000e+00   0.000000e+00   1.474304e+05   0.000000e+00   0.000000e+00   0.000000e+00
        8000   7.999000e-08   1.001285e-01   1.899571e+01   4.993629e+00   5.289444e+04   1.070975e+05  -8.675572e+04  -7.747156e+12   3.628687e+12  -2.523268e+11   1.476287e+05   5.688251e-21   0.000000e+00   0.000000e+00
       16000   1.599900e-07   9.997938e-02   1.899523e+01   4.986413e+00   9.352323e+04   7.599379e+04  -8.562223e+04  -5.462006e+12   6.583354e+12  -1.315353e+11   1.478270e+05   5.699016e-21   0.000000e+00   0.000000e+00
       24000   2.399900e-07   9.962000e-02   1.899499e+01   4.979188e+00   1.172983e+05   2.960150e+04  -8.530126e+04  -2.075585e+12   8.303982e+12   1.893381e+10   1.480252e+05   5.720021e-21   0.000000e+00   0.000000e+00
       32000   3.199900e-07   9.916753e-02   1.899505e+01   4.971959e+00   1.184687e+05  -2.349390e+04  -8.592636e+04   1.788612e+12   8.373456e+12   1.680044e+11   1.482233e+05   5.741416e-21   0.000000e+00   0.000000e+00
       40000   3.999900e-07   9.877030e-02   1.899545e+01   4.964731e+00   9.555539e+04  -7.248125e+04  -8.743288e+04   5.343624e+12   6.691617e+12   2.843463e+11   1.484213e+05   5.762320e-21   0.000000e+00   0.000000e+00
       48000   4.799900e-07   9.857849e-02   1.899613e+01   4.957509e+00   5.224896e+04  -1.064769e+05  -8.955650e+04   7.801478e+12   3.534177e+12   3.414164e+11   1.486192e+05   5.782191e-21   0.000000e+00   0.000000e+00
       56000   5.599900e-07   9.870946e-02   1.899697e+01   4.950297e+00  -2.793044e+03  -1.170396e+05  -9.187167e+04   8.555287e+12  -4.645237e+11   3.236823e+11   1.488169e+05   5.801018e-21   0.000000e+00   0.000000e+00
       64000   6.399900e-07   9.921549e-02   1.899781e+01   4.943093e+00  -5.740039e+04  -1.004921e+05  -9.387152e+04   7.346061e+12  -4.419267e+12   2.311556e+11   1.490145e+05   5.819161e-21   0.000000e+00   0.000000e+00
       72000   7.199900e-07   1.000627e-01   1.899847e+01   4.935894e+00  -9.846340e+04  -5.940667e+04  -9.507891e+04   4.368422e+12  -7.384185e+12   8.207988e+10   1.492119e+05   5.839990e-21   0.000000e+00   0.000000e+00
       80000   7.999900e-07   1.011293e-01   1.899879e+01   4.928692e+00  -1.151406e+05  -2.678032e+03  -9.517640e+04   2.688523e+11  -8.576543e+12  -9.166065e+10   1.494091e+05   5.857164e-21   0.000000e+00   0.000000e+00
       88000   8.799900e-07   1.022265e-01   1.899869e+01   4.921479e+00  -1.019574e+05   5.598620e+04  -9.408610e+04  -3.958000e+12  -7.610382e+12  -2.472770e+11   1.496060e+05   5.873178e-21   0.000000e+00   0.000000e+00
       96000   9.599900e-07   1.031420e-01   1.899821e+01   4.914245e+00  -6.093557e+04   1.012668e+05  -9.204759e+04  -7.209122e+12  -4.641657e+12  -3.421070e+11   1.498028e+05   5.887723e-21   0.000000e+00   0.000000e+00
      104000   1.039990e-06   1.036962e-01   1.899748e+01   4.906986e+00  -1.844085e+03   1.202936e+05  -8.958689e+04  -8.564182e+12  -3.830103e+11  -3.462195e+11   1.499992e+05   5.901437e-21   0.000000e+00   0.000000e+00
      112000   1.119990e-06   1.037964e-01   1.899671e+01   4.899700e+00   5.974965e+04   1.065356e+05  -8.740019e+04  -7.559804e+12   4.040096e+12  -2.519081e+11   1.501954e+05   5.910833e-21   0.000000e+00   0.000000e+00
      120000   1.199990e-06   1.034685e-01   1.899614e+01   4.892391e+00   1.064448e+05   6.212341e+04  -8.618408e+04  -4.367595e+12   7.378663e+12  -8.418274e+10   1.503912e+05   5.925541e-21   0.000000e+00   0.000000e+00
      128000   1.279990e-06   1.028769e-01   1.899599e+01   4.885067e+00   1.233417e+05  -1.130420e+03  -8.638220e+04   1.622079e+11   8.572640e+12   1.109143e+11   1.505866e+05   5.941047e-21   0.000000e+00   0.000000e+00
      136000   1.359990e-06   1.022795e-01   1.899635e+01   4.877741e+00   1.039160e+05  -6.470290e+04  -8.803501e+04   4.701473e+12   7.165837e+12   2.745776e+11   1.507818e+05   5.956433e-21   0.000000e+00   0.000000e+00
      144000   1.439990e-06   1.019566e-01   1.899716e+01   4.870421e+00   5.266511e+04  -1.085777e+05  -9.072620e+04   7.823100e+12   3.491503e+12   3.545818e+11   1.509767e+05   5.970928e-21   0.000000e+00   0.000000e+00
      152000   1.519990e-06   1.021211e-01   1.899820e+01   4.863115e+00  -1.521188e+04  -1.176701e+05  -9.367562e+04   8.458993e+12  -1.356165e+12   3.220465e+11   1.511713e+05   5.984722e-21   0.000000e+00   0.000000e+00
      160000   1.599990e-06   1.028390e-01   1.899917e+01   4.855821e+00  -7.783815e+04  -8.743431e+04  -9.595846e+04   6.296471e+12  -5.813846e+12   1.822574e+11   1.513657e+05   5.998658e-21   0.000000e+00   0.000000e+00
      168000   1.679990e-06   1.039914e-01   1.899977e+01   4.848532e+00  -1.135650e+05  -2.651867e+04  -9.679917e+04   1.961885e+12  -8.343731e+12  -2.346614e+10   1.515597e+05   6.013049e-21   0.000000e+00   0.000000e+00
      176000   1.759990e-06   1.052975e-01   1.899979e+01   4.841233e+00  -1.087030e+05   4.498463e+04  -9.586001e+04  -3.110195e+12  -7.982884e+12  -2.269375e+11   1.517534e+05   6.027104e-21   0.000000e+00   0.000000e+00
      184000   1.839990e-06   1.064006e-01   1.899925e+01   4.833909e+00  -6.330911e+04   1.017451e+05  -9.342231e+04  -7.122805e+12  -4.749723e+12  -3.538404e+11   1.519468e+05   6.039856e-21   0.000000e+00   0.000000e+00
      192000   1.919990e-06   1.069950e-01   1.899834e+01   4.826552e+00   7.487843e+03   1.221697e+05  -9.036058e+04  -8.554455e+12   2.700411e+11  -3.518938e+11   1.521399e+05   6.051591e-21   0.000000e+00   0.000000e+00
      200000   1.999990e-06   1.069480e-01   1.899743e+01   4.819158e+00   7.787152e+04   9.706119e+04  -8.786583e+04  -6.768117e+12   5.242462e+12  -2.155266e+11   1.523327e+05   6.063783e-21   0.000000e+00   0.000000e+00
      208000   2.079990e-06   1.063689e-01   1.899692e+01   4.811738e+00   1.204785e+05   3.437151e+04  -8.699125e+04  -2.338999e+12   8.236832e+12   6.670027e+09   1.525252e+05   6.077387e-21   0.000000e+00   0.000000e+00
      216000   2.159990e-06   1.055885e-01   1.899706e+01   4.804308e+00   1.172404e+05  -4.239835e+04  -8.820236e+04   3.067508e+12   7.990069e+12   2.283062e+11   1.527174e+05   6.091594e-21   0.000000e+00   0.000000e+00
      224000   2.239990e-06   1.050439e-01   1.899785e+01   4.796887e+00   6.772529e+04  -1.024500e+05  -9.109615e+04   7.283881e+12   4.486863e+12   3.610528e+11   1.529092e+05   6.108099e-21   0.000000e+00   0.000000e+00
      232000   2.319990e-06   1.051035e-01   1.899904e+01   4.789487e+00  -9.156349e+03  -1.199695e+05  -9.467483e+04   8.502356e+12  -9.270457e+11   3.446958e+11   1.531008e+05   6.119326e-21   0.000000e+00   0.000000e+00
      240000   2.399990e-06   1.058995e-01   1.900017e+01   4.782108e+00  -8.146261e+04  -8.584531e+04  -9.743133e+04   6.097310e+12  -5.998504e+12   1.797029e+11   1.532920e+05   6.128196e-21   0.000000e+00   0.000000e+00
      248000   2.479990e-06   1.072500e-01   1.900078e+01   4.774737e+00  -1.172515e+05  -1.310694e+04  -9.816969e+04   9.987869e+11  -8.494409e+12  -6.626376e+10   1.534829e+05   6.140562e-21   0.000000e+00   0.000000e+00
      256000   2.559990e-06   1.087110e-01   1.900061e+01   4.767350e+00  -9.904798e+04   6.699369e+04  -9.652380e+04  -4.597868e+12  -7.203487e+12  -2.891498e+11   1.536734e+05   6.152218e-21   0.000000e+00   0.000000e+00
      264000   2.639990e-06   1.097588e-01   1.899977e+01   4.759928e+00  -3.322321e+04   1.178386e+05  -9.318939e+04  -8.136847e+12  -2.592124e+12  -3.847086e+11   1.538635e+05   6.164173e-21   0.000000e+00   0.000000e+00
      272000   2.719990e-06   1.100322e-01   1.899866e+01   4.752459e+00   5.094875e+04   1.143901e+05  -8.973039e+04  -7.882513e+12   3.283024e+12  -2.985482e+11   1.540533e+05   6.173131e-21   0.000000e+00   0.000000e+00
      280000   2.799990e-06   1.095231e-01   1.899785e+01   4.744949e+00   1.135307e+05   5.634852e+04  -8.790001e+04  -3.833265e+12   7.632078e+12  -6.674189e+10   1.542427e+05   6.183710e-21   0.000000e+00   0.000000e+00
      288000   2.879990e-06   1.086113e-01   1.899781e+01   4.737422e+00   1.228849e+05  -2.958476e+04  -8.873103e+04   2.139370e+12   8.263953e+12   1.992544e+11   1.544317e+05   6.195693e-21   0.000000e+00   0.000000e+00
      296000   2.959990e-06   1.079053e-01   1.899864e+01   4.729905e+00   7.242578e+04  -1.010234e+05  -9.195773e+04   7.088725e+12   4.741190e+12   3.665452e+11   1.546203e+05   6.206896e-21   0.000000e+00   0.000000e+00
      304000   3.039990e-06   1.079452e-01   1.899998e+01   4.722417e+00  -1.388358e+04  -1.205945e+05  -9.607240e+04   8.432629e+12  -1.253817e+12   3.476594e+11   1.548086e+05   6.216804e-21   0.000000e+00   0.000000e+00
      312000   3.119990e-06   1.089100e-01   1.900120e+01   4.714958e+00  -9.173327e+04  -7.618762e+04  -9.901703e+04   5.349941e+12  -6.640488e+12   1.457117e+11   1.549965e+05   6.226516e-21   0.000000e+00   0.000000e+00
      320000   3.199990e-06   1.104896e-01   1.900170e+01   4.707506e+00  -1.188565e+05   1.043693e+04  -9.922843e+04  -6.361234e+11  -8.501116e+12  -1.395276e+11   1.551840e+05   6.237636e-21   0.000000e+00   0.000000e+00
      328000   3.279990e-06   1.120164e-01   1.900122e+01   4.700029e+00  -7.860299e+04   9.297773e+04  -9.652416e+04  -6.321278e+12  -5.704913e+12  -3.551942e+11   1.553712e+05   6.247325e-21   0.000000e+00   0.000000e+00
      336000   3.359990e-06   1.128151e-01   1.900005e+01   4.692502e+00   8.693860e+03   1.248729e+05  -9.235489e+04  -8.504182e+12   3.216992e+11  -3.734322e+11   1.555579e+05   6.256599e-21   0.000000e+00   0.000000e+00
      344000   3.439990e-06   1.125883e-01   1.899890e+01   4.684921e+00   9.433214e+04   8.604142e+04  -8.918862e+04  -5.820923e+12   6.208607e+12  -1.752175e+11   1.557443e+05   6.262666e-21   0.000000e+00   0.000000e+00
      352000   3.519990e-06   1.116295e-01   1.899851e+01   4.677309e+00   1.280030e+05  -2.974437e+03  -8.899802e+04   2.910263e+11   8.504460e+12   1.262052e+11   1.559304e+05   6.274678e-21   0.000000e+00   0.000000e+00
      360000   3.599990e-06   1.106895e-01   1.899919e+01   4.669702e+00   8.787295e+04  -9.042901e+04  -9.204974e+04   6.277014e+12   5.732679e+12   3.525850e+11   1.561160e+05   6.286362e-21   0.000000e+00   0.000000e+00
      368000   3.679990e-06   1.105508e-01   1.900063e+01   4.662132e+00  -3.851969e+03  -1.227761e+05  -9.665040e+04   8.479396e+12  -5.603201e+11   3.663520e+11   1.563013e+05   6.297768e-21   0.000000e+00   0.000000e+00
      376000   3.759990e-06   1.115386e-01   1.900202e+01   4.654602e+00  -9.152585e+04  -7.807520e+04  -1.000762e+05   5.414999e+12  -6.553128e+12   1.528987e+11   1.564863e+05   6.307511e-21   0.000000e+00   0.000000e+00
      384000   3.839990e-06   1.132769e-01   1.900253e+01   4.647084e+00  -1.191650e+05   1.759301e+04  -1.001795e+05  -1.113007e+12  -8.424573e+12  -1.627534e+11   1.566708e+05   6.317992e-21   0.000000e+00   0.000000e+00
      392000   3.919990e-06   1.148808e-01   1.900187e+01   4.639536e+00  -6.698394e+04   1.036413e+05  -9.682523e+04  -6.964718e+12  -4.849033e+12  -3.796279e+11   1.568550e+05   6.326350e-21   0.000000e+00   0.000000e+00
      400000   3.999990e-06   1.155078e-01   1.900050e+01   4.631924e+00   3.286102e+04   1.228073e+05  -9.219380e+04  -8.253919e+12   1.953954e+12  -3.470186e+11   1.570388e+05   6.332485e-21   0.000000e+00   0.000000e+00
      408000   4.079990e-06   1.149329e-01   1.899940e+01   4.624252e+00   1.144011e+05   6.018976e+04  -8.948962e+04  -3.993239e+12   7.484965e+12  -7.858494e+10   1.572222e+05   6.339474e-21   0.000000e+00   0.000000e+00
      416000   4.159990e-06   1.137493e-01   1.899940e+01   4.616557e+00   1.210380e+05  -4.353194e+04  -9.072582e+04   3.035134e+12   7.915328e+12   2.433452e+11   1.574052e+05   6.349547e-21   0.000000e+00   0.000000e+00
      424000   4.239990e-06   1.130098e-01   1.900062e+01   4.608888e+00   4.594987e+04  -1.168537e+05  -9.522464e+04   7.986833e+12   2.811803e+12   3.959682e+11   1.575878e+05   6.357988e-21   0.000000e+00   0.000000e+00
      432000   4.319990e-06   1.135049e-01   1.900228e+01   4.601270e+00  -5.957817e+04  -1.065178e+05  -9.997873e+04   7.276775e+12  -4.329163e+12   2.688413e+11   1.577699e+05   6.364968e-21   0.000000e+00   0.000000e+00
      440000   4.399990e-06   1.151657e-01   1.900328e+01   4.593687e+00  -1.196262e+05  -1.764009e+04  -1.016225e+05   1.276054e+12  -8.371453e+12  -5.602592e+10   1.579517e+05   6.374957e-21   0.000000e+00   0.000000e+00
      448000   4.479990e-06   1.170536e-01   1.900292e+01   4.586087e+00  -8.834708e+04   8.610523e+04  -9.892793e+04  -5.705012e+12  -6.243351e+12  -3.465201e+11   1.581330e+05   6.383721e-21   0.000000e+00   0.000000e+00
      456000   4.559990e-06   1.180119e-01   1.900152e+01   4.578421e+00   1.315453e+04   1.268137e+05  -9.385395e+04  -8.428664e+12   5.994447e+11  -3.790223e+11   1.583140e+05   6.389293e-21   0.000000e+00   0.000000e+00
      464000   4.639990e-06   1.175445e-01   1.900020e+01   4.570681e+00   1.088153e+05   7.152497e+04  -9.035460e+04  -4.706956e+12   7.020419e+12  -1.191748e+11   1.584946e+05   6.395875e-21   0.000000e+00   0.000000e+00
      472000   4.719990e-06   1.162495e-01   1.900008e+01   4.562910e+00   1.237272e+05  -3.909312e+04  -9.132900e+04   2.705961e+12   8.000900e+12   2.332999e+11   1.586748e+05   6.404608e-21   0.000000e+00   0.000000e+00
      480000   4.799990e-06   1.154146e-01   1.900138e+01   4.555169e+00   4.391352e+04  -1.185438e+05  -9.619636e+04   8.012368e+12   2.636962e+12   4.006672e+11   1.588545e+05   6.412031e-21   0.000000e+00   0.000000e+00
      488000   4.879990e-06   1.160167e-01   1.900317e+01   4.547489e+00  -6.852688e+04  -1.017077e+05  -1.012492e+05   6.876420e+12  -4.885917e+12   2.469501e+11   1.590339e+05   6.418062e-21   0.000000e+00   0.000000e+00
      496000   4.959990e-06   1.178940e-01   1.900408e+01   4.539846e+00  -1.218633e+05   6.681159e+01  -1.024599e+05   8.447066e+10  -8.433405e+12  -1.129100e+11   1.592128e+05   6.425635e-21   0.000000e+00   0.000000e+00
      504000   5.039990e-06   1.198077e-01   1.900341e+01   4.532173e+00  -6.990702e+04   1.037406e+05  -9.877484e+04  -6.810963e+12  -4.950446e+12  -3.861166e+11   1.593913e+05   6.431267e-21   0.000000e+00   0.000000e+00
      512000   5.119990e-06   1.204315e-01   1.900177e+01   4.524417e+00   4.576937e+04   1.210962e+05  -9.329111e+04  -7.951027e+12   2.754809e+12  -3.325683e+11   1.595693e+05   6.434137e-21   0.000000e+00   0.000000e+00
      520000   5.199990e-06   1.194993e-01   1.900066e+01   4.516584e+00   1.266439e+05   3.497466e+04  -9.086903e+04  -2.228450e+12   8.115261e+12   9.912931e+09   1.597469e+05   6.439846e-21   0.000000e+00   0.000000e+00
      528000   5.279990e-06   1.181065e-01   1.900116e+01   4.508742e+00   1.007192e+05  -8.139884e+04  -9.383801e+04   5.477271e+12   6.374170e+12   3.421760e+11   1.599241e+05   6.447219e-21   0.000000e+00   0.000000e+00
      536000   5.359990e-06   1.178120e-01   1.900296e+01   4.500958e+00  -1.142692e+04  -1.246802e+05  -9.978243e+04   8.328983e+12  -1.065387e+12   3.703214e+11   1.601008e+05   6.452023e-21   0.000000e+00   0.000000e+00
      544000   5.439990e-06   1.192455e-01   1.900457e+01   4.493241e+00  -1.099137e+05  -5.372125e+04  -1.035459e+05   3.634868e+12  -7.571881e+12   6.319667e+10   1.602771e+05   6.457589e-21   0.000000e+00   0.000000e+00
      552000   5.519990e-06   1.214645e-01   1.900458e+01   4.485528e+00  -1.034091e+05   6.863464e+04  -1.016906e+05  -4.429481e+12  -7.123441e+12  -3.104614e+11   1.604529e+05   6.463549e-21   0.000000e+00   0.000000e+00
      560000   5.599990e-06   1.227489e-01   1.900305e+01   4.477739e+00   4.426846e+03   1.287927e+05  -9.588686e+04  -8.376741e+12  -3.336186e+09  -3.985479e+11   1.606283e+05   6.465600e-21   0.000000e+00   0.000000e+00
      568000   5.679990e-06   1.222001e-01   1.900151e+01   4.469852e+00   1.131970e+05   6.804143e+04  -9.173048e+04  -4.374720e+12   7.145809e+12  -1.057016e+11   1.608032e+05   6.468942e-21   0.000000e+00   0.000000e+00
      576000   5.759990e-06   1.206606e-01   1.900155e+01   4.461928e+00   1.177529e+05  -5.758275e+04  -9.344673e+04   3.865004e+12   7.423685e+12   2.882715e+11   1.609777e+05   6.475649e-21   0.000000e+00   0.000000e+00
      584000   5.839990e-06   1.199848e-01   1.900328e+01   4.454059e+00   1.130110e+04  -1.261782e+05  -9.960537e+04   8.347706e+12   4.262672e+11   4.001028e+11   1.611517e+05   6.479804e-21   0.000000e+00   0.000000e+00
      592000   5.919990e-06   1.212426e-01   1.900514e+01   4.446272e+00  -1.024863e+05  -6.807395e+04  -1.043473e+05   4.539300e+12  -7.021403e+12   1.155723e+11   1.613253e+05   6.483825e-21   0.000000e+00   0.000000e+00
      600000   5.999990e-06   1.235884e-01   1.900535e+01   4.438503e+00  -1.085840e+05   6.072590e+04  -1.029738e+05  -3.867543e+12  -7.401233e+12  -2.931946e+11   1.614984e+05   6.488767e-21   0.000000e+00   0.000000e+00
      608000   6.079990e-06   1.250239e-01   1.900377e+01   4.430654e+00   1.620250e+03   1.294631e+05  -9.682054e+04  -8.335249e+12  -1.949548e+11  -4.073665e+11   1.616711e+05   6.489443e-21   0.000000e+00   0.000000e+00
      616000   6.159990e-06   1.244235e-01   1.900213e+01   4.422694e+00   1.157811e+05   6.523902e+04  -9.236796e+04  -4.147093e+12   7.235009e+12  -9.576691e+10   1.618433e+05   6.491386e-21   0.000000e+00   0.000000e+00
      624000   6.239990e-06   1.227762e-01   1.900228e+01   4.414698e+00   1.133210e+05  -6.684387e+04  -9.454685e+04   4.429603e+12   7.052931e+12   3.154758e+11   1.620150e+05   6.496923e-21   0.000000e+00   0.000000e+00
      632000   6.319990e-06   1.222374e-01   1.900423e+01   4.406770e+00  -5.550346e+03  -1.265392e+05  -1.012986e+05   8.290358e+12  -6.808941e+11   3.894622e+11   1.621862e+05   6.499473e-21   0.000000e+00   0.000000e+00
      640000   6.399990e-06   1.238401e-01   1.900602e+01   4.398933e+00  -1.138834e+05  -4.737454e+04  -1.055748e+05   3.158034e+12  -7.699333e+12   4.179239e+10   1.623570e+05   6.504652e-21   0.000000e+00   0.000000e+00
      648000   6.479990e-06   1.262908e-01   1.900580e+01   4.391097e+00  -9.188496e+04   8.612016e+04  -1.027406e+05  -5.465719e+12  -6.255422e+12  -3.619981e+11   1.625274e+05   6.507087e-21   0.000000e+00   0.000000e+00
      656000   6.559990e-06   1.272990e-01   1.900389e+01   4.383156e+00   3.847798e+04   1.256956e+05  -9.586687e+04  -8.005935e+12   2.177394e+12  -3.656442e+11   1.626972e+05   6.505066e-21   0.000000e+00   0.000000e+00
      664000   6.639990e-06   1.261287e-01   1.900257e+01   4.375103e+00   1.315068e+05   2.454795e+04  -9.289181e+04  -1.484957e+12   8.163065e+12   4.753974e+10   1.628666e+05   6.506641e-21   0.000000e+00   0.000000e+00
      672000   6.719990e-06   1.245314e-01   1.900349e+01   4.367050e+00   7.942471e+04  -1.037429e+05  -9.751766e+04   6.757201e+12   4.786428e+12   4.044752e+11   1.630355e+05   6.509746e-21   0.000000e+00   0.000000e+00
      680000   6.799990e-06   1.248278e-01   1.900578e+01   4.359099e+00  -5.986377e+04  -1.099678e+05  -1.046848e+05   7.146629e+12  -4.175017e+12   2.923755e+11   1.632038e+05   6.509655e-21   0.000000e+00   0.000000e+00
      688000   6.879990e-06   1.271833e-01   1.900689e+01   4.351222e+00  -1.231723e+05   1.569761e+04  -1.061720e+05  -9.074562e+11  -8.223126e+12  -1.694862e+11   1.633717e+05   6.511778e-21   0.000000e+00   0.000000e+00
      696000   6.959990e-06   1.292954e-01   1.900561e+01   4.343287e+00  -3.298559e+04   1.250110e+05  -1.001459e+05  -7.888792e+12  -2.427288e+12  -4.384053e+11   1.635390e+05   6.510347e-21   0.000000e+00   0.000000e+00
      704000   7.039990e-06   1.290758e-01   1.900358e+01   4.335210e+00   1.039471e+05   8.467019e+04  -9.394458e+04  -5.302314e+12   6.325050e+12  -1.734874e+11   1.637059e+05   6.507782e-21   0.000000e+00   0.000000e+00
      712000   7.119990e-06   1.272444e-01   1.900345e+01   4.327068e+00   1.197039e+05  -5.839931e+04  -9.547044e+04   3.813833e+12   7.307601e+12   3.047156e+11   1.638722e+05   6.510328e-21   0.000000e+00   0.000000e+00
      720000   7.199990e-06   1.265693e-01   1.900558e+01   4.319007e+00  -7.658345e+03  -1.273188e+05  -1.031491e+05   8.188629e+12  -8.240828e+11   4.026299e+11   1.640380e+05   6.509668e-21   0.000000e+00   0.000000e+00
      728000   7.279990e-06   1.284546e-01   1.900747e+01   4.311061e+00  -1.194499e+05  -3.336596e+04  -1.076159e+05   2.216444e+12  -7.927567e+12  -8.554410e+09   1.642033e+05   6.509743e-21   0.000000e+00   0.000000e+00
      736000   7.359990e-06   1.310638e-01   1.900684e+01   4.303103e+00  -7.181637e+04   1.058739e+05  -1.031988e+05  -6.603326e+12  -4.882025e+12  -4.198516e+11   1.643681e+05   6.508886e-21   0.000000e+00   0.000000e+00
      744000   7.439990e-06   1.315547e-01   1.900463e+01   4.294999e+00   7.622708e+04   1.101078e+05  -9.558552e+04  -6.858785e+12   4.504742e+12  -2.876183e+11   1.645323e+05   6.502996e-21   0.000000e+00   0.000000e+00
      752000   7.519990e-06   1.297849e-01   1.900388e+01   4.286787e+00   1.314203e+05  -2.867999e+04  -9.503135e+04   1.907448e+12   7.975013e+12   2.239375e+11   1.646960e+05   6.503476e-21   0.000000e+00   0.000000e+00
      760000   7.599990e-06   1.286364e-01   1.900580e+01   4.278638e+00   1.841716e+04  -1.277107e+05  -1.026126e+05   8.141329e+12   8.192713e+11   4.350246e+11   1.648592e+05   6.502066e-21   0.000000e+00   0.000000e+00
      768000   7.679990e-06   1.302536e-01   1.900801e+01   4.270625e+00  -1.128498e+05  -5.225296e+04  -1.084747e+05   3.386419e+12  -7.450964e+12   5.999934e+10   1.650218e+05   6.500019e-21   0.000000e+00   0.000000e+00
      776000   7.759990e-06   1.330595e-01   1.900766e+01   4.262623e+00  -8.270991e+04   9.735581e+04  -1.047217e+05  -6.004871e+12  -5.533015e+12  -4.075300e+11   1.651839e+05   6.498258e-21   0.000000e+00   0.000000e+00
      784000   7.839990e-06   1.337721e-01   1.900536e+01   4.254468e+00   6.981812e+04   1.146914e+05  -9.649054e+04  -7.079701e+12   4.052016e+12  -3.132574e+11   1.653454e+05   6.491523e-21   0.000000e+00   0.000000e+00
      792000   7.919990e-06   1.319513e-01   1.900449e+01   4.246189e+00   1.324313e+05  -2.684162e+04  -9.557125e+04   1.777553e+12   7.955639e+12   2.217862e+11   1.655065e+05   6.490700e-21   0.000000e+00   0.000000e+00
      800000   7.999990e-06   1.307599e-01   1.900650e+01   4.237976e+00   1.453023e+04  -1.284382e+05  -1.036245e+05   8.114220e+12   5.584149e+11   4.392424e+11   1.656669e+05   6.488058e-21   0.000000e+00   0.000000e+00
      808000   8.079990e-06   1.325616e-01   1.900875e+01   4.229914e+00  -1.169184e+05  -4.295006e+04  -1.094710e+05   2.779041e+12  -7.646056e+12   2.572086e+10   1.658268e+05   6.484969e-21   0.000000e+00   0.000000e+00
      816000   8.159990e-06   1.354240e-01   1.900813e+01   4.221853e+00  -7.021839e+04   1.079625e+05  -1.047133e+05  -6.604780e+12  -4.712761e+12  -4.362857e+11   1.659861e+05   6.481500e-21   0.000000e+00   0.000000e+00
      824000   8.239990e-06   1.357847e-01   1.900571e+01   4.213615e+00   8.855496e+04   1.023897e+05  -9.632503e+04  -6.247761e+12   5.168851e+12  -2.563322e+11   1.661450e+05   6.473615e-21   0.000000e+00   0.000000e+00
      832000   8.319990e-06   1.337190e-01   1.900527e+01   4.205264e+00   1.238184e+05  -5.380135e+04  -9.711426e+04   3.432603e+12   7.335002e+12   3.061300e+11   1.663032e+05   6.472306e-21   0.000000e+00   0.000000e+00
      840000   8.399990e-06   1.329895e-01   1.900772e+01   4.197020e+00  -1.966752e+04  -1.266120e+05  -1.062630e+05   7.929013e+12  -1.577578e+12   4.059844e+11   1.664609e+05   6.469191e-21   0.000000e+00   0.000000e+00
      848000   8.479990e-06   1.354330e-01   1.900957e+01   4.188930e+00  -1.249198e+05  -3.155882e+03  -1.102119e+05   3.023351e+11  -8.078298e+12  -1.172935e+11   1.666181e+05   6.465710e-21   0.000000e+00   0.000000e+00
      856000   8.559990e-06   1.380190e-01   1.900814e+01   4.180782e+00  -2.808226e+04   1.282403e+05  -1.028572e+05  -7.787029e+12  -2.076785e+12  -4.696013e+11   1.667746e+05   6.458769e-21   0.000000e+00   0.000000e+00
      864000   8.639990e-06   1.374028e-01   1.900583e+01   4.172429e+00   1.220435e+05   6.162837e+04  -9.577674e+04  -3.681936e+12   7.169760e+12  -8.504548e+10   1.669307e+05   6.450803e-21   0.000000e+00   0.000000e+00
      872000   8.719990e-06   1.352323e-01   1.900652e+01   4.164025e+00   8.812174e+04  -1.002251e+05  -1.005349e+05   6.249701e+12   5.057340e+12   4.298424e+11   1.670861e+05   6.447989e-21   0.000000e+00   0.000000e+00
      880000   8.799990e-06   1.357095e-01   1.900937e+01   4.155792e+00  -7.808098e+04  -9.893829e+04  -1.099278e+05   6.163348e+12  -5.155270e+12   2.562322e+11   1.672410e+05   6.440922e-21   0.000000e+00   0.000000e+00
      888000   8.879990e-06   1.388601e-01   1.901001e+01   4.147659e+00  -1.085763e+05   6.581660e+04  -1.090896e+05  -3.911061e+12  -7.004106e+12  -3.390091e+11   1.673953e+05   6.436786e-21   0.000000e+00   0.000000e+00
      896000   8.959990e-06   1.403138e-01   1.900758e+01   4.139367e+00   4.870789e+04   1.258000e+05  -9.937085e+04  -7.561785e+12   2.629078e+12  -3.846500e+11   1.675490e+05   6.425783e-21   0.000000e+00   0.000000e+00
      904000   9.039990e-06   1.383991e-01   1.900629e+01   4.130891e+00   1.352375e+05  -2.004873e+04  -9.712292e+04   1.324289e+12   7.891429e+12   2.083924e+11   1.677021e+05   6.420625e-21   0.000000e+00   0.000000e+00
      912000   9.119990e-06   1.370684e-01   1.900858e+01   4.122494e+00   4.777701e+03  -1.296481e+05  -1.065070e+05   7.980193e+12  -7.811061e+10   4.470597e+11   1.678547e+05   6.413998e-21   0.000000e+00   0.000000e+00
      920000   9.199990e-06   1.394000e-01   1.901085e+01   4.114291e+00  -1.240742e+05  -1.635056e+04  -1.120914e+05   1.101763e+12  -7.905283e+12  -7.209897e+10   1.680066e+05   6.407830e-21   0.000000e+00   0.000000e+00
      928000   9.279990e-06   1.422632e-01   1.900944e+01   4.106044e+00  -2.997482e+04   1.283374e+05  -1.044420e+05  -7.652652e+12  -2.171833e+12  -4.785010e+11   1.681580e+05   6.398854e-21   0.000000e+00   0.000000e+00
      936000   9.359990e-06   1.415169e-01   1.900699e+01   4.097559e+00   1.266895e+05   5.370480e+04  -9.691951e+04  -3.136404e+12   7.311937e+12  -5.464791e+10   1.683087e+05   6.389702e-21   0.000000e+00   0.000000e+00
      944000   9.439990e-06   1.392543e-01   1.900804e+01   4.089034e+00   7.203767e+04  -1.121182e+05  -1.030461e+05   6.861374e+12   3.981684e+12   4.583053e+11   1.684590e+05   6.384715e-21   0.000000e+00   0.000000e+00
      952000   9.519990e-06   1.403229e-01   1.901104e+01   4.080719e+00  -9.974349e+04  -7.637466e+04  -1.124589e+05   4.703647e+12  -6.387041e+12   1.602406e+11   1.686086e+05   6.376002e-21   0.000000e+00   0.000000e+00
      960000   9.599990e-06   1.437284e-01   1.901089e+01   4.072474e+00  -8.228916e+04   9.951725e+04  -1.086459e+05  -5.860764e+12  -5.313087e+12  -4.334647e+11   1.687576e+05   6.369118e-21   0.000000e+00   0.000000e+00
      968000   9.679990e-06   1.442122e-01   1.900808e+01   4.064000e+00   9.521719e+04   9.879935e+04  -9.849680e+04  -5.808726e+12   5.359351e+12  -2.458495e+11   1.689060e+05   6.355835e-21   0.000000e+00   0.000000e+00
      976000   9.759990e-06   1.417353e-01   1.900797e+01   4.055388e+00   1.100076e+05  -7.934893e+04  -1.009023e+05   4.849057e+12   6.220659e+12   3.885645e+11   1.690539e+05   6.350324e-21   0.000000e+00   0.000000e+00
      984000   9.839990e-06   1.417488e-01   1.901109e+01   4.046962e+00  -6.718506e+04  -1.077026e+05  -1.118719e+05   6.536113e+12  -4.397846e+12   3.031043e+11   1.692011e+05   6.340249e-21   0.000000e+00   0.000000e+00
      992000   9.919990e-06   1.451921e-01   1.901192e+01   4.038685e+00  -1.075692e+05   6.855803e+04  -1.113881e+05  -3.967542e+12  -6.790563e+12  -3.535572e+11   1.693477e+05   6.333303e-21   0.000000e+00   0.000000e+00
     1000000   9.999990e-06   1.465463e-01   1.900914e+01   4.030209e+00   6.675750e+04   1.191477e+05  -1.003762e+05  -6.967355e+12   3.614253e+12  -3.497889e+11   1.694938e+05   6.318749e-21   0.000000e+00   0.000000e+00
     1008000   1.007999e-05   1.441453e-01   1.900829e+01   4.021532e+00   1.259464e+05  -5.379984e+04  -1.001027e+05   3.296910e+12   7.112112e+12   3.195503e+11   1.696392e+05   6.311621e-21   0.000000e+00   0.000000e+00
     1016000   1.015999e-05   1.435332e-01   1.901133e+01   4.013015e+00  -4.522752e+04  -1.197423e+05  -1.115476e+05   7.196901e+12  -3.067960e+12   3.698257e+11   1.697840e+05   6.300900e-21   0.000000e+00   0.000000e+00
     1024000   1.023999e-05   1.469146e-01   1.901268e+01   4.004693e+00  -1.163022e+05   5.084667e+04  -1.129780e+05  -2.886510e+12  -7.262269e+12  -3.024167e+11   1.699283e+05   6.293029e-21   0.000000e+00   0.000000e+00
     1032000   1.031999e-05   1.486906e-01   1.900996e+01   3.996189e+00   5.349480e+04   1.254262e+05  -1.016416e+05  -7.276874e+12   2.796071e+12  -3.855062e+11   1.700719e+05   6.278479e-21   0.000000e+00   0.000000e+00
     1040000   1.039999e-05   1.463150e-01   1.900881e+01   3.987455e+00   1.299361e+05  -4.505389e+04  -1.002989e+05   2.757281e+12   7.283888e+12   2.940755e+11   1.702149e+05   6.270939e-21   0.000000e+00   0.000000e+00
     1048000   1.047999e-05   1.455217e-01   1.901188e+01   3.978877e+00  -4.118390e+04  -1.215540e+05  -1.120274e+05   7.245532e+12  -2.810416e+12   3.803765e+11   1.703574e+05   6.260419e-21   0.000000e+00   0.000000e+00
     1056000   1.055999e-05   1.489803e-01   1.901331e+01   3.970512e+00  -1.161042e+05   5.173159e+04  -1.136383e+05  -2.912118e+12  -7.196280e+12  -3.059673e+11   1.704992e+05   6.252167e-21   0.000000e+00   0.000000e+00
     1064000   1.063999e-05   1.507263e-01   1.901047e+01   3.961955e+00   5.926688e+04   1.233737e+05  -1.019045e+05  -7.095244e+12   3.102909e+12  -3.758083e+11   1.706405e+05   6.236724e-21   0.000000e+00   0.000000e+00
     1072000   1.071999e-05   1.481990e-01   1.900948e+01   3.953159e+00   1.259079e+05  -5.529785e+04  -1.012697e+05   3.333877e+12   6.979408e+12   3.279949e+11   1.707812e+05   6.228587e-21   0.000000e+00   0.000000e+00
     1080000   1.079999e-05   1.476956e-01   1.901276e+01   3.944549e+00  -5.581208e+04  -1.149254e+05  -1.135395e+05   6.802878e+12  -3.650325e+12   3.455643e+11   1.709212e+05   6.216842e-21   0.000000e+00   0.000000e+00
     1088000   1.087999e-05   1.514067e-01   1.901379e+01   3.936142e+00  -1.065622e+05   7.089896e+04  -1.134883e+05  -3.998521e+12  -6.589025e+12  -3.670798e+11   1.710607e+05   6.207674e-21   0.000000e+00   0.000000e+00
     1096000   1.095999e-05   1.526279e-01   1.901069e+01   3.927496e+00   8.252339e+04   1.106426e+05  -1.012788e+05  -6.297087e+12   4.419575e+12  -3.086203e+11   1.711996e+05   6.190920e-21   0.000000e+00   0.000000e+00
     1104000   1.103999e-05   1.498462e-01   1.901038e+01   3.918640e+00   1.093562e+05  -8.197487e+04  -1.033344e+05   4.850869e+12   5.950600e+12   4.072376e+11   1.713378e+05   6.182645e-21   0.000000e+00   0.000000e+00
     1112000   1.111999e-05   1.501777e-01   1.901391e+01   3.910032e+00  -8.532389e+04  -9.342075e+04  -1.157422e+05   5.508641e+12  -5.337030e+12   2.417598e+11   1.714755e+05   6.169643e-21   0.000000e+00   0.000000e+00
     1120000   1.119999e-05   1.541115e-01   1.901397e+01   3.901572e+00  -7.954903e+04   1.028664e+05  -1.119880e+05  -5.803400e+12  -4.980168e+12  -4.574069e+11   1.716126e+05   6.158865e-21   0.000000e+00   0.000000e+00
     1128000   1.127999e-05   1.542288e-01   1.901074e+01   3.892804e+00   1.158540e+05   7.762758e+04  -1.002475e+05  -4.345406e+12   6.290432e+12  -1.566780e+11   1.717491e+05   6.146168e-21   0.000000e+00   0.000000e+00
     1136000   1.135999e-05   1.514313e-01   1.901171e+01   3.883916e+00   6.970639e+04  -1.150787e+05  -1.069691e+05   6.711957e+12   3.605706e+12   4.893340e+11   1.718851e+05   6.136351e-21   0.000000e+00   0.000000e+00
     1144000   1.143999e-05   1.531795e-01   1.901513e+01   3.875347e+00  -1.167558e+05  -4.595032e+04  -1.176761e+05   2.751193e+12  -7.106186e+12   4.022211e+10   1.720204e+05   6.122573e-21   0.000000e+00   0.000000e+00
     1152000   1.151999e-05   1.568306e-01   1.901368e+01   3.866795e+00  -2.428233e+04   1.313306e+05  -1.086279e+05  -7.376108e+12  -1.780979e+12  -5.096875e+11   1.721551e+05   6.107879e-21   0.000000e+00   0.000000e+00
     1160000   1.159999e-05   1.553585e-01   1.901098e+01   3.857877e+00   1.391466e+05   1.463383e+04  -1.005367e+05  -7.193217e+11   7.554969e+12   9.838082e+10   1.722892e+05   6.092655e-21   0.000000e+00   0.000000e+00
     1168000   1.167999e-05   1.533708e-01   1.901360e+01   3.849012e+00  -4.500910e+02  -1.307108e+05  -1.124457e+05   7.548287e+12  -4.378006e+11   4.735972e+11   1.724226e+05   6.079632e-21   0.000000e+00   0.000000e+00
     1176000   1.175999e-05   1.567710e-01   1.901592e+01   3.840475e+00  -1.225293e+05   3.110036e+04  -1.174509e+05  -1.638952e+12  -7.378234e+12  -2.487681e+11   1.725554e+05   6.067126e-21   0.000000e+00   0.000000e+00
     1184000   1.183999e-05   1.590017e-01   1.901291e+01   3.831747e+00   5.770154e+04   1.251185e+05  -1.041005e+05  -6.960658e+12   2.881890e+12  -3.999219e+11   1.726876e+05   6.047691e-21   0.000000e+00   0.000000e+00
     1192000   1.191999e-05   1.561381e-01   1.901199e+01   3.822712e+00   1.188572e+05  -7.004302e+04  -1.040837e+05   4.070516e+12   6.324596e+12   3.867008e+11   1.728192e+05   6.035968e-21   0.000000e+00   0.000000e+00
     1200000   1.199999e-05   1.562843e-01   1.901577e+01   3.813950e+00  -8.465590e+04  -9.391476e+04  -1.180049e+05   5.415958e+12  -5.204352e+12   2.517509e+11   1.729502e+05   6.019762e-21   0.000000e+00   0.000000e+00
     1208000   1.207999e-05   1.605039e-01   1.901566e+01   3.805367e+00  -6.835557e+04   1.117065e+05  -1.131637e+05  -6.154468e+12  -4.259834e+12  -4.923971e+11   1.730805e+05   6.005870e-21   0.000000e+00   0.000000e+00
     1216000   1.215999e-05   1.600583e-01   1.901230e+01   3.796399e+00   1.299959e+05   5.322756e+04  -1.013394e+05  -2.868766e+12   6.913700e+12  -5.416055e+10   1.732102e+05   5.989852e-21   0.000000e+00   0.000000e+00
     1224000   1.223999e-05   1.574043e-01   1.901425e+01   3.787372e+00   3.047500e+04  -1.289843e+05  -1.117176e+05   7.341562e+12   1.288640e+12   5.098706e+11   1.733393e+05   5.975991e-21   0.000000e+00   0.000000e+00
     1232000   1.231999e-05   1.604604e-01   1.901721e+01   3.778730e+00  -1.252794e+05   9.739590e+03  -1.195880e+05  -4.148646e+11  -7.442544e+12  -1.761822e+11   1.734678e+05   5.960787e-21   0.000000e+00   0.000000e+00
     1240000   1.239999e-05   1.632034e-01   1.901431e+01   3.769940e+00   4.623374e+04   1.295872e+05  -1.058538e+05  -7.097679e+12   2.179279e+12  -4.373830e+11   1.735956e+05   5.939828e-21   0.000000e+00   0.000000e+00
     1248000   1.247999e-05   1.602878e-01   1.901315e+01   3.760786e+00   1.211070e+05  -6.708353e+04  -1.049405e+05   3.848633e+12   6.335939e+12   3.860105e+11   1.737228e+05   5.925687e-21   0.000000e+00   0.000000e+00
     1256000   1.255999e-05   1.604745e-01   1.901710e+01   3.751930e+00  -8.841767e+04  -8.981937e+04  -1.197430e+05   5.111967e+12  -5.354086e+12   2.368728e+11   1.738494e+05   5.907341e-21   0.000000e+00   0.000000e+00
     1264000   1.263999e-05   1.648488e-01   1.901669e+01   3.743257e+00  -5.532451e+04   1.197006e+05  -1.134828e+05  -6.494912e+12  -3.488865e+12  -5.184726e+11   1.739752e+05   5.891125e-21   0.000000e+00   0.000000e+00
     1272000   1.271999e-05   1.638573e-01   1.901338e+01   3.734144e+00   1.376267e+05   3.022006e+04  -1.022577e+05  -1.547530e+12   7.208311e+12   4.215494e+10   1.741005e+05   5.870616e-21   0.000000e+00   0.000000e+00
     1280000   1.279999e-05   1.615641e-01   1.901611e+01   3.725050e+00  -2.728151e+03  -1.305245e+05  -1.153703e+05   7.317349e+12  -5.878094e+11   4.872956e+11   1.742251e+05   5.854164e-21   0.000000e+00   0.000000e+00
     1288000   1.287999e-05   1.654793e-01   1.901835e+01   3.716358e+00  -1.157061e+05   5.190656e+04  -1.196469e+05  -2.718429e+12  -6.812102e+12  -3.309140e+11   1.743490e+05   5.838401e-21   0.000000e+00   0.000000e+00
     1296000   1.295999e-05   1.670731e-01   1.901474e+01   3.707372e+00   9.262109e+04   1.048737e+05  -1.042278e+05  -5.624163e+12   4.678721e+12  -2.952897e+11   1.744723e+05   5.814635e-21   0.000000e+00   0.000000e+00
     1304000   1.303999e-05   1.637786e-01   1.901519e+01   3.698113e+00   7.818575e+04  -1.107609e+05  -1.100109e+05   6.183619e+12   3.858011e+12   5.055881e+11   1.745950e+05   5.797632e-21   0.000000e+00   0.000000e+00
     1312000   1.311999e-05   1.659162e-01   1.901904e+01   3.689286e+00  -1.217171e+05  -2.731682e+04  -1.223304e+05   1.627052e+12  -7.105301e+12  -3.659887e+10   1.747169e+05   5.779298e-21   0.000000e+00   0.000000e+00
     1320000   1.319999e-05   1.695129e-01   1.901657e+01   3.680416e+00   2.336957e+04   1.347153e+05  -1.089681e+05  -7.203524e+12   8.568803e+11  -4.903917e+11   1.748382e+05   5.758079e-21   0.000000e+00   0.000000e+00
     1328000   1.327999e-05   1.666249e-01   1.901486e+01   3.671093e+00   1.265486e+05  -5.797451e+04  -1.059953e+05   3.273057e+12   6.464743e+12   3.668465e+11   1.749589e+05   5.741484e-21   0.000000e+00   0.000000e+00
     1336000   1.335999e-05   1.667172e-01   1.901906e+01   3.662088e+00  -9.026351e+04  -8.721097e+04  -1.220629e+05   4.862142e+12  -5.356709e+12   2.274721e+11   1.750789e+05   5.721633e-21   0.000000e+00   0.000000e+00
     1344000   1.343999e-05   1.713020e-01   1.901831e+01   3.653284e+00  -3.945751e+04   1.269548e+05  -1.141052e+05  -6.726873e+12  -2.570252e+12  -5.381132e+11   1.751982e+05   5.703194e-21   0.000000e+00   0.000000e+00
     1352000   1.351999e-05   1.696160e-01   1.901516e+01   3.643968e+00   1.410411e+05  -9.678874e+01  -1.041318e+05   1.309188e+11   7.200123e+12   1.656476e+11   1.753170e+05   5.682431e-21   0.000000e+00   0.000000e+00
     1360000   1.359999e-05   1.680508e-01   1.901882e+01   3.634790e+00  -4.501486e+04  -1.195907e+05  -1.202047e+05   6.569275e+12  -2.884627e+12   4.055013e+11   1.754350e+05   5.663166e-21   0.000000e+00   0.000000e+00
     1368000   1.367999e-05   1.727672e-01   1.901972e+01   3.625991e+00  -8.284236e+04   9.968086e+04  -1.184041e+05  -5.209574e+12  -4.902681e+12  -4.868424e+11   1.755524e+05   5.645721e-21   0.000000e+00   0.000000e+00
     1376000   1.375999e-05   1.724570e-01   1.901588e+01   3.616711e+00   1.335952e+05   4.680193e+04  -1.040268e+05  -2.377103e+12   6.743504e+12  -2.376207e+10   1.756692e+05   5.621688e-21   0.000000e+00   0.000000e+00
     1384000   1.383999e-05   1.698206e-01   1.901864e+01   3.607391e+00  -2.894498e+03  -1.302323e+05  -1.180325e+05   7.089962e+12  -6.138950e+11   4.991691e+11   1.757854e+05   5.603530e-21   0.000000e+00   0.000000e+00
     1392000   1.391999e-05   1.742016e-01   1.902079e+01   3.598555e+00  -1.068849e+05   6.890873e+04  -1.215250e+05  -3.525824e+12  -6.169036e+12  -4.011495e+11   1.759008e+05   5.583967e-21   0.000000e+00   0.000000e+00
     1400000   1.399999e-05   1.750655e-01   1.901677e+01   3.589311e+00   1.179043e+05   7.811377e+04  -1.047775e+05  -4.017961e+12   5.846166e+12  -1.677122e+11   1.760157e+05   5.558191e-21   0.000000e+00   0.000000e+00
     1408000   1.407999e-05   1.718578e-01   1.901867e+01   3.579881e+00   2.806927e+04  -1.292242e+05  -1.163397e+05   6.984089e+12   1.026762e+12   5.402674e+11   1.761298e+05   5.540401e-21   0.000000e+00   0.000000e+00
     1416000   1.415999e-05   1.758101e-01   1.902163e+01   3.570995e+00  -1.174577e+05   4.475801e+04  -1.235399e+05  -2.219484e+12  -6.697498e+12  -3.203021e+11   1.762433e+05   5.521156e-21   0.000000e+00   0.000000e+00
     1424000   1.423999e-05   1.774703e-01   1.901765e+01   3.561765e+00   1.038489e+05   9.544480e+04  -1.058640e+05  -4.898605e+12   5.051780e+12  -2.554620e+11   1.763561e+05   5.494637e-21   0.000000e+00   0.000000e+00
     1432000   1.431999e-05   1.739974e-01   1.901896e+01   3.552251e+00   4.601184e+04  -1.252390e+05  -1.154954e+05   6.724421e+12   1.959056e+12   5.503189e+11   1.764683e+05   5.476831e-21   0.000000e+00   0.000000e+00
     1440000   1.439999e-05   1.776539e-01   1.902235e+01   3.543311e+00  -1.209433e+05   3.119905e+04  -1.248190e+05  -1.488028e+12  -6.842914e+12  -2.725264e+11   1.765799e+05   5.456581e-21   0.000000e+00   0.000000e+00
     1448000   1.447999e-05   1.797232e-01   1.901841e+01   3.534067e+00   9.678472e+04   1.023325e+05  -1.066790e+05  -5.219343e+12   4.634866e+12  -2.938090e+11   1.766908e+05   5.429606e-21   0.000000e+00   0.000000e+00
     1456000   1.455999e-05   1.761383e-01   1.901949e+01   3.524489e+00   5.168016e+04  -1.233851e+05  -1.156022e+05   6.579738e+12   2.232844e+12   5.541094e+11   1.768010e+05   5.411403e-21   0.000000e+00   0.000000e+00
     1464000   1.463999e-05   1.797656e-01   1.902302e+01   3.515507e+00  -1.210263e+05   2.965241e+04  -1.255815e+05  -1.392865e+12  -6.806299e+12  -2.686163e+11   1.769106e+05   5.390498e-21   0.000000e+00   0.000000e+00
     1472000   1.471999e-05   1.818565e-01   1.901902e+01   3.506217e+00   9.879217e+04   1.006299e+05  -1.070029e+05  -5.088862e+12   4.696123e+12  -2.864365e+11   1.770195e+05   5.362993e-21   0.000000e+00   0.000000e+00
     1480000   1.479999e-05   1.782513e-01   1.902027e+01   3.496591e+00   4.551703e+04  -1.252962e+05  -1.166333e+05   6.633007e+12   1.883412e+12   5.611759e+11   1.771278e+05   5.350194e-21   0.000000e+00   0.000000e+00
     1488000   1.487999e-05   1.821565e-01   1.902365e+01   3.487590e+00  -1.181574e+05   4.012415e+04  -1.258623e+05  -1.921077e+12  -6.619599e+12  -3.105967e+11   1.772355e+05   5.328407e-21   0.000000e+00   0.000000e+00
     1496000   1.495999e-05   1.838710e-01   1.901947e+01   3.478224e+00   1.093047e+05   9.000340e+04  -1.067814e+05  -4.501420e+12   5.193529e+12  -2.347228e+11   1.773426e+05   5.299493e-21   0.000000e+00   0.000000e+00
     1504000   1.503999e-05   1.803843e-01   1.902129e+01   3.468569e+00   2.721241e+04  -1.289962e+05  -1.187754e+05   6.775757e+12   9.112028e+11   5.588056e+11   1.774490e+05   5.279240e-21   0.000000e+00   0.000000e+00
     1512000   1.511999e-05   1.848225e-01   1.902418e+01   3.459557e+00  -1.094714e+05   6.177747e+04  -1.254003e+05  -3.013335e+12  -6.129319e+12  -3.927261e+11   1.775547e+05   5.257400e-21   0.000000e+00   0.000000e+00
     1520000   1.519999e-05   1.857051e-01   1.901982e+01   3.450071e+00   1.251733e+05   6.751748e+04  -1.064707e+05  -3.314378e+12   5.957186e+12  -1.232492e+11   1.776598e+05   5.228242e-21   0.000000e+00   0.000000e+00
     1528000   1.527999e-05   1.826319e-01   1.902259e+01   3.440420e+00  -4.193233e+03  -1.292661e+05  -1.219540e+05   6.741507e+12  -7.186765e+11   5.261773e+11   1.777641e+05   5.206564e-21   0.000000e+00   0.000000e+00
     1536000   1.535999e-05   1.877051e-01   1.902449e+01   3.431395e+00  -8.910012e+04   9.157294e+04  -1.237438e+05  -4.502840e+12  -5.046794e+12  -4.962357e+11   1.778679e+05   5.184535e-21   0.000000e+00   0.000000e+00
     1544000   1.543999e-05   1.872861e-01   1.902022e+01   3.421754e+00   1.393072e+05   2.985063e+04  -1.066587e+05  -1.375475e+12   6.617625e+12   5.128308e+10   1.779709e+05   5.156191e-21   0.000000e+00   0.000000e+00
     1552000   1.551999e-05   1.851750e-01   1.902413e+01   3.412157e+00  -4.661675e+04  -1.170619e+05  -1.258312e+05   6.076785e+12  -2.883593e+12   4.277519e+11   1.780733e+05   5.132506e-21   0.000000e+00   0.000000e+00
     1560000   1.559999e-05   1.906473e-01   1.902444e+01   3.403085e+00  -5.037676e+04   1.212220e+05  -1.204730e+05  -5.961741e+12  -3.048276e+12  -5.780270e+11   1.781750e+05   5.109305e-21   0.000000e+00   0.000000e+00
     1568000   1.567999e-05   1.886027e-01   1.902091e+01   3.393269e+00   1.394759e+05  -2.298048e+04  -1.086310e+05   1.296265e+12   6.561701e+12   2.720998e+11   1.782759e+05   5.074536e-21   0.000000e+00   0.000000e+00
     1576000   1.575999e-05   1.882164e-01   1.902575e+01   3.383781e+00  -9.142622e+04  -8.183971e+04  -1.294664e+05   4.266213e+12  -5.127149e+12   2.248869e+11   1.783762e+05   5.049465e-21   0.000000e+00   0.000000e+00
     1584000   1.583999e-05   1.933274e-01   1.902398e+01   3.374572e+00   9.209201e+03   1.354861e+05  -1.158114e+05  -6.629071e+12  -2.620062e+10  -5.616103e+11   1.784757e+05   5.023532e-21   0.000000e+00   0.000000e+00
     1592000   1.591999e-05   1.898136e-01   1.902218e+01   3.364622e+00   1.114507e+05  -8.196593e+04  -1.129124e+05   4.233625e+12   5.084584e+12   4.838945e+11   1.785746e+05   5.000704e-21   0.000000e+00   0.000000e+00
     1600000   1.599999e-05   1.918774e-01   1.902706e+01   3.355294e+00  -1.200391e+05  -1.830935e+04  -1.310700e+05   1.074178e+12  -6.525366e+12  -7.557475e+10   1.786728e+05   4.975408e-21   0.000000e+00   0.000000e+00
     1608000   1.607999e-05   1.953704e-01   1.902328e+01   3.345855e+00   8.021398e+04   1.150944e+05  -1.108054e+05  -5.564981e+12   3.508853e+12  -3.878340e+11   1.787704e+05   4.945712e-21   0.000000e+00   0.000000e+00
     1616000   1.615999e-05   1.913933e-01   1.902421e+01   3.335880e+00   4.642892e+04  -1.242171e+05  -1.200332e+05   6.297411e+12   1.788149e+12   5.817672e+11   1.788673e+05   4.923926e-21   0.000000e+00   0.000000e+00
     1624000   1.623999e-05   1.959712e-01   1.902757e+01   3.326685e+00  -1.072657e+05   6.291143e+04  -1.287019e+05  -2.941582e+12  -5.841046e+12  -4.068883e+11   1.789635e+05   4.899894e-21   0.000000e+00   0.000000e+00
     1632000   1.631999e-05   1.965164e-01   1.902291e+01   3.316923e+00   1.343134e+05   4.785755e+04  -1.083132e+05  -2.211684e+12   6.142554e+12  -3.247449e+10   1.790591e+05   4.869408e-21   0.000000e+00   0.000000e+00
     1640000   1.639999e-05   1.940051e-01   1.902678e+01   3.307096e+00  -4.310644e+04  -1.174420e+05  -1.282395e+05   5.922659e+12  -2.662780e+12   4.444331e+11   1.791541e+05   4.845091e-21   0.000000e+00   0.000000e+00
     1648000   1.647999e-05   1.997889e-01   1.902691e+01   3.297884e+00  -3.730506e+04   1.262429e+05  -1.216595e+05  -6.017416e+12  -2.349351e+12  -5.961686e+11   1.792483e+05   4.817944e-21   0.000000e+00   0.000000e+00
     1656000   1.655999e-05   1.970606e-01   1.902372e+01   3.287819e+00   1.309617e+05  -5.052375e+04  -1.116239e+05   2.609003e+12   5.904053e+12   3.849201e+11   1.793419e+05   4.791893e-21   0.000000e+00   0.000000e+00
     1664000   1.663999e-05   1.980734e-01   1.902897e+01   3.278287e+00  -1.125586e+05  -4.223604e+04  -1.332048e+05   2.221779e+12  -6.048853e+12   3.741545e+10   1.794348e+05   4.763984e-21   0.000000e+00   0.000000e+00
     1672000   1.671999e-05   2.022919e-01   1.902549e+01   3.268797e+00   6.899564e+04   1.213377e+05  -1.129013e+05  -5.734964e+12   2.854429e+12  -4.406493e+11   1.795270e+05   4.735051e-21   0.000000e+00   0.000000e+00
     1680000   1.679999e-05   1.981524e-01   1.902618e+01   3.258650e+00   4.846025e+04  -1.231320e+05  -1.214618e+05   6.108887e+12   1.816837e+12   5.921025e+11   1.796186e+05   4.709791e-21   0.000000e+00   0.000000e+00
     1688000   1.687999e-05   2.030214e-01   1.902953e+01   3.249366e+00  -1.012876e+05   7.161670e+04  -1.300284e+05  -3.286714e+12  -5.451292e+12  -4.453440e+11   1.797095e+05   4.685495e-21   0.000000e+00   0.000000e+00
     1696000   1.695999e-05   2.029987e-01   1.902479e+01   3.239408e+00   1.400290e+05   2.687475e+04  -1.095335e+05  -1.146450e+12   6.251498e+12   6.452142e+10   1.797998e+05   4.653612e-21   0.000000e+00   0.000000e+00
     1704000   1.703999e-05   2.012650e-01   1.902944e+01   3.229527e+00  -7.054139e+04  -9.941600e+04  -1.322896e+05   4.933906e+12  -3.958707e+12   3.410168e+11   1.798893e+05   4.627271e-21   0.000000e+00   0.000000e+00
     1712000   1.711999e-05   2.070180e-01   1.902807e+01   3.220154e+00   7.210839e+03   1.347537e+05  -1.190865e+05  -6.283376e+12  -1.795579e+11  -5.869940e+11   1.799782e+05   4.600281e-21   0.000000e+00   0.000000e+00
     1720000   1.719999e-05   2.031449e-01   1.902644e+01   3.209872e+00   9.800038e+04  -9.532422e+04  -1.171886e+05   4.695042e+12   4.154889e+12   5.432122e+11   1.800665e+05   4.575220e-21   0.000000e+00   0.000000e+00
     1728000   1.727999e-05   2.065512e-01   1.903124e+01   3.200420e+00  -1.176531e+05   2.523801e+04  -1.340757e+05  -1.026898e+12  -6.181502e+12  -2.654057e+11   1.801541e+05   4.548951e-21   0.000000e+00   0.000000e+00
     1736000   1.735999e-05   2.083457e-01   1.902638e+01   3.190539e+00   1.258972e+05   6.658387e+04  -1.104687e+05  -3.005182e+12   5.473364e+12  -1.294145e+11   1.802411e+05   4.515104e-21   0.000000e+00   0.000000e+00
     1744000   1.743999e-05   2.054060e-01   1.903016e+01   3.180435e+00  -4.019912e+04  -1.169620e+05  -1.312322e+05   5.692458e+12  -2.476686e+12   4.607020e+11   1.803274e+05   4.489847e-21   0.000000e+00   0.000000e+00
     1752000   1.751999e-05   2.115437e-01   1.902999e+01   3.171059e+00  -1.947403e+04   1.308473e+05  -1.226727e+05  -5.997983e+12  -1.462530e+12  -6.109603e+11   1.804130e+05   4.463699e-21   0.000000e+00   0.000000e+00
     1760000   1.759999e-05   2.080283e-01   1.902748e+01   3.160691e+00   1.120528e+05  -8.055131e+04  -1.163408e+05   3.935103e+12   4.742663e+12   5.030860e+11   1.804980e+05   4.438066e-21   0.000000e+00   0.000000e+00
     1768000   1.767999e-05   2.109231e-01   1.903267e+01   3.151127e+00  -1.183348e+05   1.267861e+04  -1.358165e+05  -4.166209e+11  -6.143668e+12  -2.133175e+11   1.805824e+05   4.411164e-21   0.000000e+00   0.000000e+00
     1776000   1.775999e-05   2.131285e-01   1.902778e+01   3.141202e+00   1.232439e+05   7.122978e+04  -1.112543e+05  -3.171911e+12   5.251111e+12  -1.551365e+11   1.806662e+05   4.379844e-21   0.000000e+00   0.000000e+00
     1784000   1.783999e-05   2.100925e-01   1.903160e+01   3.131002e+00  -4.130480e+04  -1.157312e+05  -1.325538e+05   5.556919e+12  -2.512824e+12   4.595167e+11   1.807493e+05   4.354251e-21   0.000000e+00   0.000000e+00
     1792000   1.791999e-05   2.163492e-01   1.903120e+01   3.121563e+00  -1.004733e+04   1.324502e+05  -1.227034e+05  -5.977076e+12  -1.018865e+12  -6.134026e+11   1.808317e+05   4.327347e-21   0.000000e+00   0.000000e+00
     1800000   1.799999e-05   2.125194e-01   1.902910e+01   3.111080e+00   1.009357e+05  -9.209442e+04  -1.185763e+05   4.416456e+12   4.133156e+12   5.462174e+11   1.809136e+05   4.301720e-21   0.000000e+00   0.000000e+00
     1808000   1.807999e-05   2.162304e-01   1.903404e+01   3.101517e+00  -1.137408e+05   3.619007e+04  -1.360604e+05  -1.487847e+12  -5.857326e+12  -3.168769e+11   1.809948e+05   4.274762e-21   0.000000e+00   0.000000e+00
     1816000   1.815999e-05   2.173769e-01   1.902890e+01   3.091400e+00   1.361111e+05   4.294660e+04  -1.114345e+05  -1.820074e+12   5.746755e+12  -1.159510e+10   1.810754e+05   4.245348e-21   0.000000e+00   0.000000e+00
     1824000   1.823999e-05   2.153814e-01   1.903374e+01   3.081243e+00  -7.265253e+04  -9.464185e+04  -1.363151e+05   4.516078e+12  -3.946312e+12   3.302717e+11   1.811554e+05   4.218629e-21   0.000000e+00   0.000000e+00
     1832000   1.831999e-05   2.212922e-01   1.903167e+01   3.071656e+00   3.558557e+04   1.318874e+05  -1.191025e+05  -5.858719e+12   1.079107e+12  -5.585381e+11   1.812347e+05   4.189976e-21   0.000000e+00   0.000000e+00
     1840000   1.839999e-05   2.168539e-01   1.903151e+01   3.061071e+00   5.665650e+04  -1.188848e+05  -1.246236e+05   5.580137e+12   2.010367e+12   6.162030e+11   1.813135e+05   4.165293e-21   0.000000e+00   0.000000e+00
     1848000   1.847999e-05   2.223825e-01   1.903493e+01   3.051579e+00  -8.545801e+04   8.889844e+04  -1.330297e+05  -3.853842e+12  -4.491131e+12  -5.281970e+11   1.813916e+05   4.138651e-21   0.000000e+00   0.000000e+00
     1856000   1.855999e-05   2.209692e-01   1.903028e+01   3.041128e+00   1.394645e+05  -2.339529e+04  -1.137249e+05   1.216315e+12   5.783796e+12   2.986944e+11   1.814691e+05   4.109289e-21   0.000000e+00   0.000000e+00
     1864000   1.863999e-05   2.217861e-01   1.903613e+01   3.031201e+00  -1.112346e+05  -3.221228e+04  -1.398148e+05   1.641887e+12  -5.661986e+12  -4.267167e+09   1.815460e+05   4.081410e-21   0.000000e+00   0.000000e+00
     1872000   1.871999e-05   2.256027e-01   1.903160e+01   3.021254e+00   1.063906e+05   9.338481e+04  -1.137847e+05  -4.036739e+12   4.252216e+12  -2.875886e+11   1.816222e+05   4.050213e-21   0.000000e+00   0.000000e+00
     1880000   1.879999e-05   2.219684e-01   1.903496e+01   3.010759e+00  -2.971169e+04  -1.184092e+05  -1.345756e+05   5.489582e+12  -1.954758e+12   5.054005e+11   1.816979e+05   4.024497e-21   0.000000e+00   0.000000e+00
     1888000   1.887999e-05   2.285794e-01   1.903464e+01   3.001201e+00  -2.071551e+03   1.327157e+05  -1.241919e+05  -5.752989e+12  -6.748079e+11  -6.278951e+11   1.817729e+05   3.996559e-21   0.000000e+00   0.000000e+00
     1896000   1.895999e-05   2.243649e-01   1.903308e+01   2.990451e+00   8.242636e+04  -1.056041e+05  -1.229720e+05   4.873309e+12   3.093015e+12   6.075967e+11   1.818473e+05   3.969027e-21   0.000000e+00   0.000000e+00
     1904000   1.903999e-05   2.294299e-01   1.903738e+01   2.980847e+00  -9.480746e+04   7.432051e+04  -1.363204e+05  -3.105542e+12  -4.851366e+12  -4.875396e+11   1.819210e+05   3.940737e-21   0.000000e+00   0.000000e+00
     1912000   1.911999e-05   2.285338e-01   1.903239e+01   2.970300e+00   1.408792e+05  -1.540697e+04  -1.141820e+05   8.460772e+11   5.687486e+12   2.735669e+11   1.819942e+05   3.910904e-21   0.000000e+00   0.000000e+00
     1920000   1.919999e-05   2.292992e-01   1.903841e+01   2.960262e+00  -1.103107e+05  -2.920275e+04  -1.418697e+05   1.487229e+12  -5.536984e+12  -1.896706e+10   1.820667e+05   3.882392e-21   0.000000e+00   0.000000e+00
     1928000   1.927999e-05   2.329551e-01   1.903362e+01   2.950176e+00   1.150540e+05   8.336474e+04  -1.139621e+05  -3.494510e+12   4.506589e+12  -2.342215e+11   1.821386e+05   3.850636e-21   0.000000e+00   0.000000e+00
     1936000   1.935999e-05   2.297522e-01   1.903771e+01   2.939610e+00  -4.947808e+04  -1.076967e+05  -1.383972e+05   4.912350e+12  -2.828508e+12   4.425231e+11   1.822099e+05   3.824271e-21   0.000000e+00   0.000000e+00
     1944000   1.943999e-05   2.363013e-01   1.903617e+01   2.929917e+00   3.216969e+04   1.317781e+05  -1.217613e+05  -5.570856e+12   8.130659e+11  -5.945144e+11   1.822805e+05   3.794264e-21   0.000000e+00   0.000000e+00
     1952000   1.951999e-05   2.317014e-01   1.903628e+01   2.919024e+00   4.291978e+04  -1.213360e+05  -1.291790e+05   5.463546e+12   1.242657e+12   6.455934e+11   1.823506e+05   3.769027e-21   0.000000e+00   0.000000e+00
     1960000   1.959999e-05   2.381544e-01   1.903888e+01   2.909430e+00  -5.560779e+04   1.121766e+05  -1.326698e+05  -4.667308e+12  -3.059468e+12  -6.329799e+11   1.824200e+05   3.740293e-21   0.000000e+00   0.000000e+00
     1968000   1.967999e-05   2.350934e-01   1.903527e+01   2.898542e+00   1.164632e+05  -7.354779e+04  -1.197048e+05   3.354003e+12   4.446512e+12   5.285820e+11   1.824889e+05   3.714099e-21   0.000000e+00   0.000000e+00
     1976000   1.975999e-05   2.389490e-01   1.904078e+01   2.888727e+00  -1.066274e+05   4.468911e+04  -1.412820e+05  -1.716676e+12  -5.285956e+12  -3.786065e+11   1.825572e+05   3.684987e-21   0.000000e+00   0.000000e+00
     1984000   1.983999e-05   2.392337e-01   1.903535e+01   2.878117e+00   1.423598e+05   4.535600e+03  -1.143020e+05  -2.206080e+10   5.541730e+12   1.897345e+11   1.826248e+05   3.653925e-21   0.000000e+00   0.000000e+00
     1992000   1.991999e-05   2.395010e-01   1.904151e+01   2.867883e+00  -1.062012e+05  -3.455568e+04  -1.445805e+05   1.690596e+12  -5.256021e+12   1.229219e+10   1.826919e+05   3.625301e-21   0.000000e+00   0.000000e+00
     2000000   1.999999e-05   2.433185e-01   1.903658e+01   2.857664e+00   1.194786e+05   7.743112e+04  -1.145857e+05  -3.122827e+12   4.516467e+12  -2.068130e+11   1.827583e+05   3.593339e-21   0.000000e+00   0.000000e+00
     2008000   2.007999e-05   2.405175e-01   1.904128e+01   2.846984e+00  -6.425692e+04  -9.492039e+04  -1.424283e+05   4.241251e+12  -3.437231e+12   3.751652e+11   1.828241e+05   3.566180e-21   0.000000e+00   0.000000e+00
     2016000   2.015999e-05   2.468080e-01   1.903858e+01   2.837104e+00   6.526658e+04   1.219674e+05  -1.196359e+05  -4.974260e+12   2.156241e+12  -5.178925e+11   1.828893e+05   3.535035e-21   0.000000e+00   0.000000e+00
     2024000   2.023999e-05   2.423514e-01   1.904057e+01   2.826091e+00  -2.311162e+03  -1.216564e+05  -1.366256e+05   5.332927e+12  -7.837020e+11   6.054715e+11   1.829540e+05   3.508915e-21   0.000000e+00   0.000000e+00
     2032000   2.031999e-05   2.495380e-01   1.904082e+01   2.816396e+00   2.124838e+03   1.315550e+05  -1.272178e+05  -5.327897e+12  -5.594118e+11  -6.697634e+11   1.830180e+05   3.478801e-21   0.000000e+00   0.000000e+00
     2040000   2.039999e-05   2.450059e-01   1.903987e+01   2.805223e+00   5.877437e+04  -1.152697e+05  -1.295271e+05   5.020733e+12   1.801798e+12   6.725133e+11   1.830814e+05   3.452371e-21   0.000000e+00   0.000000e+00
     2048000   2.047999e-05   2.516332e-01   1.904290e+01   2.795538e+00  -5.242532e+04   1.121092e+05  -1.349998e+05  -4.467561e+12  -2.878661e+12  -6.577632e+11   1.831443e+05   3.427485e-21   0.000000e+00   0.000000e+00
     2056000   2.055999e-05   2.482628e-01   1.903951e+01   2.784378e+00   1.055540e+05  -8.534209e+04  -1.230437e+05   3.735232e+12   3.756635e+12   5.964169e+11   1.832066e+05   3.398908e-21   0.000000e+00   0.000000e+00
     2064000   2.063999e-05   2.533438e-01   1.904458e+01   2.774553e+00  -8.918738e+04   7.500398e+04  -1.414471e+05  -2.887495e+12  -4.421593e+12  -5.259251e+11   1.832683e+05   3.370648e-21   0.000000e+00   0.000000e+00
     2072000   2.071999e-05   2.518449e-01   1.903961e+01   2.763524e+00   1.329455e+05  -4.381113e+04  -1.183883e+05   1.991640e+12   4.872829e+12   4.309254e+11   1.833295e+05   3.340814e-21   0.000000e+00   0.000000e+00
     2080000   2.079999e-05   2.549446e-01   1.904581e+01   2.753467e+00  -1.065352e+05   3.191012e+04  -1.458215e+05  -1.086426e+12  -5.133566e+12  -3.315461e+11   1.833900e+05   3.312697e-21   0.000000e+00   0.000000e+00
     2088000   2.087999e-05   2.555134e-01   1.904015e+01   2.742631e+00   1.422596e+05  -1.015799e+03  -1.158235e+05   2.244481e+11   5.221907e+12   2.275168e+11   1.834500e+05   3.282094e-21   0.000000e+00   0.000000e+00
     2096000   2.095999e-05   2.566379e-01   1.904667e+01   2.732305e+00  -1.079246e+05  -8.681319e+03  -1.481641e+05   5.836163e+11  -5.173500e+12  -1.238152e+11   1.835094e+05   3.254292e-21   0.000000e+00   0.000000e+00
     2104000   2.103999e-05   2.591125e-01   1.904103e+01   2.721675e+00   1.382695e+05   3.651768e+04  -1.150881e+05  -1.300380e+12   5.015476e+12   2.678076e+10   1.835682e+05   3.223439e-21   0.000000e+00   0.000000e+00
     2112000   2.111999e-05   2.585375e-01   1.904729e+01   2.711088e+00  -9.880817e+04  -4.214811e+04  -1.489267e+05   1.938212e+12  -4.779208e+12   6.484648e+10   1.836264e+05   3.196049e-21   0.000000e+00   0.000000e+00
     2120000   2.119999e-05   2.625713e-01   1.904212e+01   2.700644e+00   1.265788e+05   6.589881e+04  -1.156503e+05  -2.471762e+12   4.494207e+12  -1.467621e+11   1.836841e+05   3.165277e-21   0.000000e+00   0.000000e+00
     2128000   2.127999e-05   2.606896e-01   1.904779e+01   2.689823e+00  -8.457177e+04  -6.683718e+04  -1.487992e+05   2.919000e+12  -4.179993e+12   2.167587e+11   1.837411e+05   3.132457e-21   0.000000e+00   0.000000e+00
     2136000   2.135999e-05   2.658803e-01   1.904329e+01   2.679519e+00   1.122682e+05   8.661277e+04  -1.169427e+05  -3.274563e+12   3.869149e+12  -2.802182e+11   1.837975e+05   3.102088e-21   0.000000e+00   0.000000e+00
     2144000   2.143999e-05   2.630795e-01   1.904829e+01   2.668511e+00  -6.977045e+04  -8.358390e+04  -1.481481e+05   3.566192e+12  -3.564432e+12   3.297983e+11   1.838534e+05   3.075076e-21   0.000000e+00   0.000000e+00
     2152000   2.151999e-05   2.690648e-01   1.904447e+01   2.658308e+00   9.883493e+04   1.001367e+05  -1.184343e+05  -3.781677e+12   3.289905e+12  -3.763624e+11   1.839086e+05   3.044934e-21   0.000000e+00   0.000000e+00
     2160000   2.159999e-05   2.656679e-01   1.904885e+01   2.647154e+00  -5.710190e+04  -9.394128e+04  -1.475023e+05   3.950459e+12  -3.042543e+12   4.067148e+11   1.839634e+05   3.018094e-21   0.000000e+00   0.000000e+00
     2168000   2.167999e-05   2.721623e-01   1.904558e+01   2.637013e+00   8.853920e+04   1.080778e+05  -1.197600e+05  -4.060753e+12   2.843179e+12  -4.383688e+11   1.840175e+05   2.988132e-21   0.000000e+00   0.000000e+00
     2176000   2.175999e-05   2.684200e-01   1.904952e+01   2.625752e+00  -4.830104e+04  -9.946280e+04  -1.471609e+05   4.139057e+12  -2.682025e+12   4.525362e+11   1.840711e+05   2.961416e-21   0.000000e+00   0.000000e+00
     2184000   2.183999e-05   2.752064e-01   1.904660e+01   2.615636e+00   8.265709e+04   1.118332e+05  -1.206766e+05  -4.171848e+12   2.577305e+12  -4.710708e+11   1.841242e+05   2.931581e-21   0.000000e+00   0.000000e+00
     2192000   2.191999e-05   2.713103e-01   1.905032e+01   2.604301e+00  -4.425767e+04  -1.013065e+05  -1.473068e+05   4.181801e+12  -2.514946e+12   4.715555e+11   1.841767e+05   2.904977e-21   0.000000e+00   0.000000e+00
     2200000   2.199999e-05   2.782146e-01   1.904751e+01   2.594176e+00   8.160474e+04   1.122256e+05  -1.211869e+05  -4.155167e+12   2.505912e+12  -4.793549e+11   1.842286e+05   2.875175e-21   0.000000e+00   0.000000e+00
     2208000   2.207999e-05   2.743242e-01   1.905125e+01   2.582793e+00  -4.497000e+04  -1.001976e+05  -1.479772e+05   4.109029e+12  -2.538382e+12   4.684599e+11   1.842800e+05   2.849211e-21   0.000000e+00   0.000000e+00
     2216000   2.215999e-05   2.812041e-01   1.904830e+01   2.572634e+00   8.552206e+04   1.096868e+05  -1.209655e+05  -4.021363e+12   2.627525e+12  -4.624735e+11   1.843309e+05   2.819569e-21   0.000000e+00   0.000000e+00
     2224000   2.223999e-05   2.774786e-01   1.905232e+01   2.561241e+00  -5.058655e+04  -9.572459e+04  -1.492455e+05   3.910529e+12  -2.752939e+12   4.386942e+11   1.843812e+05   2.793761e-21   0.000000e+00   0.000000e+00
     2232000   2.231999e-05   2.841567e-01   1.904898e+01   2.551011e+00   9.410206e+04   1.034857e+05  -1.202094e+05  -3.750046e+12   2.927554e+12  -4.172320e+11   1.844310e+05   2.764259e-21   0.000000e+00   0.000000e+00
     2240000   2.239999e-05   2.807987e-01   1.905353e+01   2.539648e+00  -6.044837e+04  -8.708629e+04  -1.509799e+05   3.557238e+12  -3.128358e+12   3.787394e+11   1.844802e+05   2.738635e-21   0.000000e+00   0.000000e+00
     2248000   2.247999e-05   2.870426e-01   1.904958e+01   2.529303e+00   1.063716e+05   9.248998e+04  -1.190866e+05  -3.301576e+12   3.363932e+12  -3.383031e+11   1.845289e+05   2.709372e-21   0.000000e+00   0.000000e+00
     2256000   2.255999e-05   2.843240e-01   1.905483e+01   2.518021e+00  -7.320121e+04  -7.292458e+04  -1.529454e+05   3.001520e+12  -3.608443e+12   2.825073e+11   1.845771e+05   2.683947e-21   0.000000e+00   0.000000e+00
     2264000   2.263999e-05   2.898213e-01   1.905015e+01   2.507506e+00   1.205209e+05   7.520958e+04  -1.179176e+05  -2.624087e+12   3.863498e+12  -2.196781e+11   1.846248e+05   2.655082e-21   0.000000e+00   0.000000e+00
     2272000   2.271999e-05   2.880984e-01   1.905617e+01   2.496365e+00  -8.657200e+04  -5.165927e+04  -1.547266e+05   2.187343e+12  -4.099454e+12   1.434533e+11   1.846719e+05   2.626041e-21   0.000000e+00   0.000000e+00
     2280000   2.279999e-05   2.924428e-01   1.905075e+01   2.485610e+00   1.336006e+05   5.008152e+04  -1.173185e+05  -1.664977e+12   4.312260e+12  -5.703430e+10   1.847185e+05   2.598238e-21   0.000000e+00   0.000000e+00
     2288000   2.287999e-05   2.921538e-01   1.905745e+01   2.474673e+00  -9.684444e+04  -2.228966e+04  -1.557635e+05   1.086697e+12  -4.469396e+12  -3.743372e+10   1.847645e+05   2.573604e-21   0.000000e+00   0.000000e+00
     2296000   2.295999e-05   2.949089e-01   1.905151e+01   2.463619e+00   1.414546e+05   1.700924e+04  -1.177118e+05  -4.265934e+11   4.552358e+12   1.433953e+11   1.848101e+05   2.546725e-21   0.000000e+00   0.000000e+00
     2304000   2.303999e-05   2.964917e-01   1.905854e+01   2.452951e+00  -9.925307e+04   1.457926e+04  -1.552665e+05  -2.737490e+11  -4.535646e+12  -2.522310e+11   1.848551e+05   2.521681e-21   0.000000e+00   0.000000e+00
     2312000   2.311999e-05   2.972624e-01   1.905257e+01   2.441550e+00   1.388425e+05  -2.239102e+04  -1.200388e+05   1.025753e+12   4.393471e+12   3.652055e+11   1.848997e+05   2.495793e-21   0.000000e+00   0.000000e+00
     2320000   2.319999e-05   3.010446e-01   1.905929e+01   2.431180e+00  -8.830671e+04   5.586380e+04  -1.525953e+05  -1.773110e+12  -4.105243e+12  -4.781222e+11   1.849437e+05   2.464975e-21   0.000000e+00   0.000000e+00
     2328000   2.327999e-05   2.996413e-01   1.905409e+01   2.419410e+00   1.205963e+05  -6.325835e+04  -1.252004e+05   2.511318e+12   3.652349e+12   5.719961e+11   1.849871e+05   2.435408e-21   0.000000e+00   0.000000e+00
     2336000   2.335999e-05   3.056401e-01   1.905957e+01   2.409304e+00  -6.004071e+04   9.493246e+04  -1.470341e+05  -3.173509e+12  -3.034095e+12  -6.644145e+11   1.850299e+05   2.405402e-21   0.000000e+00   0.000000e+00
     2344000   2.343999e-05   3.022720e-01   1.905615e+01   2.397237e+00   8.424794e+04  -9.725956e+04  -1.330211e+05   3.729056e+12   2.252912e+12   7.130683e+11   1.850723e+05   2.378629e-21   0.000000e+00   0.000000e+00
     2352000   2.351999e-05   3.100068e-01   1.905938e+01   2.387284e+00  -1.394300e+04   1.216967e+05  -1.387902e+05  -4.114024e+12  -1.323970e+12  -7.489961e+11   1.851141e+05   2.349074e-21   0.000000e+00   0.000000e+00
     2360000   2.359999e-05   3.054481e-01   1.905869e+01   2.375094e+00   3.173295e+04  -1.134172e+05  -1.428709e+05   4.292706e+12   2.874559e+11   7.239222e+11   1.851555e+05   2.325074e-21   0.000000e+00   0.000000e+00
     2368000   2.367999e-05   3.138277e-01   1.905883e+01   2.365087e+00   4.478499e+04   1.249537e+05  -1.291454e+05  -4.203294e+12   8.129807e+11  -6.724768e+11   1.851963e+05   2.295161e-21   0.000000e+00   0.000000e+00
     2376000   2.375999e-05   3.094883e-01   1.906147e+01   2.353038e+00  -2.754184e+04  -1.009505e+05  -1.528498e+05   3.836040e+12  -1.886702e+12   5.536557e+11   1.852367e+05   2.271776e-21   0.000000e+00   0.000000e+00
     2384000   2.383999e-05   3.168507e-01   1.905831e+01   2.342680e+00   1.023924e+05   9.603954e+04  -1.209116e+05  -3.157351e+12   2.865630e+12  -3.991210e+11   1.852766e+05   2.243231e-21   0.000000e+00   0.000000e+00
     2392000   2.391999e-05   3.145468e-01   1.906399e+01   2.331081e+00  -7.606241e+04  -5.520806e+04  -1.597141e+05   2.218272e+12  -3.631110e+12   1.975903e+11   1.853160e+05   2.220291e-21   0.000000e+00   0.000000e+00
     2400000   2.399999e-05   3.190805e-01   1.905841e+01   2.320085e+00   1.385635e+05   3.600383e+04  -1.177299e+05  -1.038250e+12   4.104491e+12   3.172109e+10   1.853549e+05   2.194427e-21   0.000000e+00   0.000000e+00
     2408000   2.407999e-05   3.204264e-01   1.906564e+01   2.309165e+00  -9.252283e+04   1.566689e+04  -1.598899e+05  -2.526960e+11  -4.194012e+12  -2.658343e+11   1.853934e+05   2.170652e-21   0.000000e+00   0.000000e+00
     2416000   2.415999e-05   3.209489e-01   1.905972e+01   2.297402e+00   1.335633e+05  -3.886378e+04  -1.226183e+05   1.566150e+12   3.851233e+12   4.838718e+11   1.854314e+05   2.146389e-21   0.000000e+00   0.000000e+00
     2424000   2.423999e-05   3.264644e-01   1.906595e+01   2.287155e+00  -6.197551e+04   8.747792e+04  -1.513452e+05  -2.725502e+12  -3.071771e+12  -6.605479e+11   1.854689e+05   2.120476e-21   0.000000e+00   0.000000e+00
     2432000   2.431999e-05   3.232963e-01   1.906245e+01   2.274805e+00   8.031318e+04  -9.785503e+04  -1.355974e+05   3.593364e+12   1.903149e+12   7.536338e+11   1.855060e+05   2.097014e-21   0.000000e+00   0.000000e+00
     2440000   2.439999e-05   3.316644e-01   1.906502e+01   2.264868e+00   1.162756e+04   1.252916e+05  -1.363556e+05  -4.007172e+12  -4.639700e+11  -7.692666e+11   1.855426e+05   2.068679e-21   0.000000e+00   0.000000e+00
     2448000   2.447999e-05   3.271310e-01   1.906613e+01   2.252455e+00  -3.257904e+03  -1.065362e+05  -1.519174e+05   3.887043e+12  -1.061086e+12   6.596599e+11   1.855787e+05   2.045641e-21   0.000000e+00   0.000000e+00
     2456000   2.455999e-05   3.352077e-01   1.906375e+01   2.242184e+00   9.629955e+04   1.013655e+05  -1.220825e+05  -3.183548e+12   2.467967e+12  -4.633904e+11   1.856144e+05   2.018245e-21   0.000000e+00   0.000000e+00
     2464000   2.463999e-05   3.329262e-01   1.906947e+01   2.230390e+00  -7.370543e+04  -5.020520e+04  -1.628274e+05   1.987467e+12  -3.503489e+12   1.795996e+11   1.856497e+05   1.996434e-21   0.000000e+00   0.000000e+00
     2472000   2.471999e-05   3.371468e-01   1.906365e+01   2.219177e+00   1.420113e+05   1.950587e+04  -1.180299e+05  -4.257205e+11   3.981921e+12   1.444815e+11   1.856845e+05   1.972748e-21   0.000000e+00   0.000000e+00
     2480000   2.479999e-05   3.400077e-01   1.907101e+01   2.208420e+00  -8.240779e+04   4.570761e+04  -1.600352e+05  -1.214416e+12  -3.766544e+12  -4.514068e+11   1.857189e+05   1.949833e-21   0.000000e+00   0.000000e+00
     2488000   2.487999e-05   3.387973e-01   1.906585e+01   2.196155e+00   1.113724e+05  -7.340291e+04  -1.292761e+05   2.669495e+12   2.843410e+12   6.840916e+11   1.857528e+05   1.927647e-21   0.000000e+00   0.000000e+00
     2496000   2.495999e-05   3.465749e-01   1.907021e+01   2.186172e+00  -1.270684e+04   1.179688e+05  -1.429631e+05  -3.603888e+12  -1.353681e+12  -7.977771e+11   1.857863e+05   1.901006e-21   0.000000e+00   0.000000e+00
     2504000   2.503999e-05   3.422066e-01   1.907004e+01   2.173505e+00   1.666017e+04  -1.078654e+05  -1.503873e+05   3.813356e+12  -4.314714e+11   7.309085e+11   1.858194e+05   1.877713e-21   0.000000e+00   0.000000e+00
     2512000   2.511999e-05   3.507824e-01   1.906836e+01   2.163322e+00   9.106409e+04   1.052368e+05  -1.231809e+05  -3.184981e+12   2.151365e+12  -5.178161e+11   1.858520e+05   1.851116e-21   0.000000e+00   0.000000e+00
     2520000   2.519999e-05   3.485212e-01   1.907407e+01   2.151363e+00  -7.104959e+04  -4.687713e+04  -1.652496e+05   1.835418e+12  -3.385755e+12   1.704099e+11   1.858842e+05   1.829662e-21   0.000000e+00   0.000000e+00
     2528000   2.527999e-05   3.525328e-01   1.906812e+01   2.139979e+00   1.430649e+05   7.638631e+03  -1.184857e+05  -1.424503e+10   3.824149e+12   2.280996e+11   1.859160e+05   1.807531e-21   0.000000e+00   0.000000e+00
     2536000   2.535999e-05   3.565445e-01   1.907539e+01   2.129363e+00  -6.984255e+04   6.607827e+04  -1.591606e+05  -1.807656e+12  -3.299505e+12  -5.775242e+11   1.859474e+05   1.784920e-21   0.000000e+00   0.000000e+00
     2544000   2.543999e-05   3.542440e-01   1.907122e+01   2.116734e+00   8.776353e+04  -9.141718e+04  -1.361190e+05   3.180033e+12   1.895006e+12   7.766121e+11   1.859783e+05   1.763194e-21   0.000000e+00   0.000000e+00
     2552000   2.551999e-05   3.631064e-01   1.907366e+01   2.106823e+00   3.016331e+04   1.241664e+05  -1.351746e+05  -3.671061e+12   4.625916e+10  -7.777230e+11   1.860088e+05   1.736267e-21   0.000000e+00   0.000000e+00
     2560000   2.559999e-05   3.590657e-01   1.907630e+01   2.094178e+00  -2.850618e+04  -8.864060e+04  -1.610612e+05   3.116562e+12  -1.978008e+12   5.361400e+11   1.860389e+05   1.715772e-21   0.000000e+00   0.000000e+00
     2568000   2.567999e-05   3.660473e-01   1.907189e+01   2.083433e+00   1.317366e+05   5.862636e+04  -1.176008e+05  -1.601551e+12   3.337041e+12  -1.316448e+11   1.860687e+05   1.692294e-21   0.000000e+00   0.000000e+00
     2576000   2.575999e-05   3.673704e-01   1.907940e+01   2.072200e+00  -8.047025e+04   2.370524e+04  -1.661176e+05  -4.053755e+11  -3.644126e+12  -3.244672e+11   1.860980e+05   1.671986e-21   0.000000e+00   0.000000e+00
     2584000   2.583999e-05   3.672056e-01   1.907385e+01   2.059794e+00   1.170031e+05  -6.587286e+04  -1.288963e+05   2.307001e+12   2.755694e+12   6.847906e+11   1.861269e+05   1.652234e-21   0.000000e+00   0.000000e+00
     2592000   2.591999e-05   3.754037e-01   1.907823e+01   2.049852e+00   2.041129e+03   1.198793e+05  -1.424030e+05  -3.411878e+12  -9.210451e+11  -8.251931e+11   1.861554e+05   1.626209e-21   0.000000e+00   0.000000e+00
     2600000   2.599999e-05   3.712382e-01   1.907931e+01   2.036923e+00  -5.088559e+03  -9.752853e+04  -1.585137e+05   3.319533e+12  -1.243949e+12   6.579803e+11   1.861835e+05   1.605637e-21   0.000000e+00   0.000000e+00
     2608000   2.607999e-05   3.791788e-01   1.907581e+01   2.026399e+00   1.239833e+05   7.302416e+04  -1.181958e+05  -1.985454e+12   2.966200e+12  -2.511676e+11   1.862113e+05   1.581879e-21   0.000000e+00   0.000000e+00
     2616000   2.615999e-05   3.798816e-01   1.908321e+01   2.014936e+00  -7.791924e+04   1.453937e+04  -1.685290e+05  -9.311078e+10  -3.545011e+12  -2.635366e+11   1.862386e+05   1.562787e-21   0.000000e+00   0.000000e+00
     2624000   2.623999e-05   3.802044e-01   1.907754e+01   2.002491e+00   1.194907e+05  -6.254397e+04  -1.284721e+05   2.157963e+12   2.713974e+12   6.848878e+11   1.862656e+05   1.544239e-21   0.000000e+00   0.000000e+00
     2632000   2.631999e-05   3.885727e-01   1.908194e+01   1.992585e+00   7.807862e+03   1.205138e+05  -1.418459e+05  -3.326628e+12  -7.630012e+11  -8.322370e+11   1.862922e+05   1.526096e-21   0.000000e+00   0.000000e+00
     2640000   2.639999e-05   3.845388e-01   1.908354e+01   1.979582e+00  -1.298849e+04  -9.174887e+04  -1.616418e+05   3.082796e+12  -1.519359e+12   6.139296e+11   1.863186e+05   1.507695e-21   0.000000e+00   0.000000e+00
     2648000   2.647999e-05   3.920676e-01   1.907939e+01   1.968886e+00   1.334650e+05   5.740780e+04  -1.166865e+05  -1.457572e+12   3.141637e+12  -1.225552e+11   1.863446e+05   1.485900e-21   0.000000e+00   0.000000e+00
     2656000   2.655999e-05   3.941456e-01   1.908712e+01   1.957709e+00  -7.175609e+04   3.950519e+04  -1.674045e+05  -8.111981e+11  -3.317978e+12  -4.359950e+11   1.863702e+05   1.467458e-21   0.000000e+00   0.000000e+00
     2664000   2.663999e-05   3.931151e-01   1.908228e+01   1.944872e+00   9.828246e+04  -8.247365e+04  -1.352107e+05   2.715576e+12   1.925685e+12   7.984430e+11   1.863955e+05   1.450897e-21   0.000000e+00   0.000000e+00
     2672000   2.671999e-05   4.024844e-01   1.908475e+01   1.935081e+00   4.710486e+04   1.216704e+05  -1.331540e+05  -3.267989e+12   4.042437e+11  -7.875714e+11   1.864204e+05   1.419498e-21   0.000000e+00   0.000000e+00
     2680000   2.679999e-05   3.993536e-01   1.908883e+01   1.922278e+00  -4.418949e+04  -6.293418e+04  -1.698477e+05   2.199166e+12  -2.513104e+12   3.583638e+11   1.864448e+05   1.397206e-21   0.000000e+00   0.000000e+00
     2688000   2.687999e-05   4.046672e-01   1.908317e+01   1.910850e+00   1.447836e+05   7.812890e+03  -1.172489e+05   3.237133e+10   3.322055e+12   2.603916e+11   1.864688e+05   1.375820e-21   0.000000e+00   0.000000e+00
     2696000   2.695999e-05   4.101630e-01   1.909040e+01   1.900410e+00  -4.046398e+04   8.906352e+04  -1.587759e+05  -2.209342e+12  -2.343013e+12  -7.519252e+11   1.864924e+05   1.355271e-21   0.000000e+00   0.000000e+00
     2704000   2.703999e-05   4.070352e-01   1.908855e+01   1.887043e+00   4.185856e+04  -9.950412e+04  -1.521016e+05   3.178958e+12   7.271487e+10   8.265739e+11   1.865157e+05   1.338006e-21   0.000000e+00   0.000000e+00
     2712000   2.711999e-05   4.163760e-01   1.908695e+01   1.876924e+00   1.104072e+05   9.123625e+04  -1.195110e+05  -2.322630e+12   2.239214e+12  -4.371455e+11   1.865387e+05   1.314223e-21   0.000000e+00   0.000000e+00
     2720000   2.719999e-05   4.166209e-01   1.909418e+01   1.865073e+00  -6.787701e+04   8.969450e+03  -1.735436e+05   1.369953e+11  -3.225573e+12  -2.208965e+11   1.865613e+05   1.298678e-21   0.000000e+00   0.000000e+00
     2728000   2.727999e-05   4.173731e-01   1.908866e+01   1.852342e+00   1.161315e+05  -6.591551e+04  -1.303152e+05   2.145619e+12   2.274637e+12   7.607436e+11   1.865836e+05   1.284662e-21   0.000000e+00   0.000000e+00
     2736000   2.735999e-05   4.267032e-01   1.909217e+01   1.842633e+00   4.035858e+04   1.212616e+05  -1.359722e+05  -3.072665e+12   8.151882e+10  -8.400602e+11   1.866056e+05   1.259806e-21   0.000000e+00   0.000000e+00
     2744000   2.743999e-05   4.237826e-01   1.909604e+01   1.829576e+00  -3.771369e+04  -6.030851e+04  -1.725407e+05   2.068619e+12  -2.369144e+12   3.753546e+11   1.866272e+05   1.245119e-21   0.000000e+00   0.000000e+00
     2752000   2.751999e-05   4.291468e-01   1.909037e+01   1.818026e+00   1.457180e+05  -9.740213e+02  -1.166320e+05   2.986822e+11   3.113659e+12   3.463163e+11   1.866486e+05   1.229405e-21   0.000000e+00   0.000000e+00
     2760000   2.759999e-05   4.357690e-01   1.909727e+01   1.807856e+00  -2.008002e+04   1.017986e+05  -1.551753e+05  -2.427484e+12  -1.768521e+12  -8.466966e+11   1.866696e+05   1.208973e-21   0.000000e+00   0.000000e+00
     2768000   2.767999e-05   4.325439e-01   1.909705e+01   1.794260e+00   1.739890e+04  -9.258266e+04  -1.611800e+05   2.894370e+12  -7.789485e+11   7.592776e+11   1.866903e+05   1.187309e-21   0.000000e+00   0.000000e+00
     2776000   2.775999e-05   4.411283e-01   1.909360e+01   1.783766e+00   1.357006e+05   5.821937e+04  -1.142660e+05  -1.304944e+12   2.770643e+12  -1.388912e+11   1.867106e+05   1.167446e-21   0.000000e+00   0.000000e+00
     2784000   2.783999e-05   4.444160e-01   1.910152e+01   1.772686e+00  -5.166527e+04   5.904742e+04  -1.694474e+05  -1.183713e+12  -2.745819e+12  -5.964660e+11   1.867306e+05   1.155003e-21   0.000000e+00   0.000000e+00
     2792000   2.791999e-05   4.428100e-01   1.909819e+01   1.759163e+00   6.965660e+04  -9.189770e+04  -1.468961e+05   2.802340e+12   6.958841e+11   8.928757e+11   1.867504e+05   1.135130e-21   0.000000e+00   0.000000e+00
     2800000   2.799999e-05   4.528281e-01   1.909768e+01   1.749346e+00   1.067330e+05   9.640598e+04  -1.191508e+05  -2.273027e+12   1.874044e+12  -5.205789e+11   1.867698e+05   1.112386e-21   0.000000e+00   0.000000e+00
     2808000   2.807999e-05   4.534545e-01   1.910498e+01   1.737351e+00  -5.753630e+04   1.563079e+04  -1.770178e+05   1.768570e+10  -2.958986e+12  -2.675275e+11   1.867888e+05   1.097419e-21   0.000000e+00   0.000000e+00
     2816000   2.815999e-05   4.541190e-01   1.909995e+01   1.724234e+00   1.066548e+05  -7.364717e+04  -1.345285e+05   2.254775e+12   1.704799e+12   8.536615e+11   1.868076e+05   1.084161e-21   0.000000e+00   0.000000e+00
     2824000   2.823999e-05   4.642845e-01   1.910202e+01   1.714712e+00   7.602839e+04   1.140585e+05  -1.269421e+05  -2.657062e+12   9.294175e+11  -7.569525e+11   1.868260e+05   1.056727e-21   0.000000e+00   0.000000e+00
     2832000   2.831999e-05   4.632964e-01   1.910805e+01   1.702004e+00  -4.919088e+04  -1.692557e+04  -1.794561e+05   8.817996e+11  -2.759636e+12   1.809895e+10   1.868441e+05   1.044083e-21   0.000000e+00   0.000000e+00
     2840000   2.839999e-05   4.659883e-01   1.910239e+01   1.689354e+00   1.274890e+05  -5.199963e+04  -1.263327e+05   1.646849e+12   2.231216e+12   7.428829e+11   1.868619e+05   1.025473e-21   0.000000e+00   0.000000e+00
     2848000   2.847999e-05   4.757313e-01   1.910622e+01   1.679860e+00   5.312423e+04   1.185413e+05  -1.343490e+05  -2.695435e+12   2.290699e+11  -8.643106e+11   1.868793e+05   1.003584e-21   0.000000e+00   0.000000e+00
     2856000   2.855999e-05   4.739908e-01   1.911106e+01   1.666684e+00  -3.767180e+04  -3.639188e+04  -1.794067e+05   1.367968e+12  -2.460205e+12   2.113520e+11   1.868965e+05   9.917876e-22   0.000000e+00   0.000000e+00
     2864000   2.863999e-05   4.780919e-01   1.910533e+01   1.654413e+00   1.377841e+05  -3.592361e+04  -1.210854e+05   1.208337e+12   2.449351e+12   6.476526e+11   1.869135e+05   9.807952e-22   0.000000e+00   0.000000e+00
     2872000   2.871999e-05   4.874488e-01   1.911014e+01   1.644925e+00   4.082939e+04   1.184873e+05  -1.386961e+05  -2.617560e+12  -1.649464e+11  -9.120269e+11   1.869301e+05   9.600222e-22   0.000000e+00   0.000000e+00
     2880000   2.879999e-05   4.855029e-01   1.911429e+01   1.631503e+00  -2.890791e+04  -4.493486e+04  -1.791485e+05   1.569237e+12  -2.249666e+12   3.106298e+11   1.869465e+05   9.489054e-22   0.000000e+00   0.000000e+00
     2888000   2.887999e-05   4.903539e-01   1.910863e+01   1.619430e+00   1.418775e+05  -2.828159e+04  -1.184313e+05   1.000409e+12   2.483045e+12   6.048716e+11   1.869628e+05   9.381366e-22   0.000000e+00   0.000000e+00
     2896000   2.895999e-05   4.996204e-01   1.911380e+01   1.609989e+00   3.880048e+04   1.179729e+05  -1.397782e+05  -2.536038e+12  -2.683444e+11  -9.309794e+11   1.869787e+05   9.181173e-22   0.000000e+00   0.000000e+00
     2904000   2.903999e-05   4.977967e-01   1.911785e+01   1.596481e+00  -2.545394e+04  -4.456613e+04  -1.798134e+05   1.549315e+12  -2.190124e+12   3.230915e+11   1.869944e+05   9.096980e-22   0.000000e+00   0.000000e+00
     2912000   2.911999e-05   5.027669e-01   1.911223e+01   1.584398e+00   1.421167e+05  -2.983007e+04  -1.178377e+05   1.027883e+12   2.400857e+12   6.312871e+11   1.870099e+05   8.996041e-22   0.000000e+00   0.000000e+00
     2920000   2.919999e-05   5.123272e-01   1.911721e+01   1.575098e+00   4.638875e+04   1.183218e+05  -1.372095e+05  -2.483931e+12  -1.093050e+11  -9.345573e+11   1.870251e+05   8.793188e-22   0.000000e+00   0.000000e+00
     2928000   2.927999e-05   5.108967e-01   1.912175e+01   1.561667e+00  -2.725372e+04  -3.578581e+04  -1.815506e+05   1.330182e+12  -2.268534e+12   2.470889e+11   1.870402e+05   8.696657e-22   0.000000e+00   0.000000e+00
     2936000   2.935999e-05   5.153653e-01   1.911617e+01   1.549335e+00   1.378932e+05  -3.986817e+04  -1.199398e+05   1.261673e+12   2.188186e+12   7.225971e+11   1.870550e+05   8.605092e-22   0.000000e+00   0.000000e+00
     2944000   2.943999e-05   5.255232e-01   1.912036e+01   1.540230e+00   6.329826e+04   1.175644e+05  -1.310228e+05  -2.415606e+12   2.954135e+11  -9.024453e+11   1.870696e+05   8.400314e-22   0.000000e+00   0.000000e+00
     2952000   2.951999e-05   5.248737e-01   1.912592e+01   1.527087e+00  -3.189785e+04  -1.753231e+04  -1.835089e+05   9.010559e+11  -2.418105e+12   7.403765e+10   1.870839e+05   8.311539e-22   0.000000e+00   0.000000e+00
     2960000   2.959999e-05   5.282547e-01   1.912057e+01   1.514276e+00   1.268544e+05  -5.596832e+04  -1.256233e+05   1.635699e+12   1.787785e+12   8.546994e+11   1.870981e+05   8.234953e-22   0.000000e+00   0.000000e+00
     2968000   2.967999e-05   5.390785e-01   1.912330e+01   1.505332e+00   8.835541e+04   1.114322e+05  -1.216022e+05  -2.233390e+12   9.024522e+11  -7.963198e+11   1.871120e+05   8.029569e-22   0.000000e+00   0.000000e+00
     2976000   2.975999e-05   5.398034e-01   1.913015e+01   1.492783e+00  -3.473837e+04   1.127290e+04  -1.835271e+05   2.427707e+11  -2.501132e+12  -1.999270e+11   1.871257e+05   7.928416e-22   0.000000e+00   0.000000e+00
     2984000   2.983999e-05   5.416053e-01   1.912561e+01   1.479320e+00   1.052669e+05  -7.314915e+04  -1.363421e+05   2.031480e+12   1.112930e+12   9.709006e+11   1.871392e+05   7.871669e-22   0.000000e+00   0.000000e+00
     2992000   2.991999e-05   5.527375e-01   1.912614e+01   1.470309e+00   1.183339e+05   9.354578e+04  -1.107806e+05  -1.798414e+12   1.614464e+12  -5.582985e+11   1.871526e+05   7.678498e-22   0.000000e+00   0.000000e+00
     3000000   2.999999e-05   5.556626e-01   1.913409e+01   1.458733e+00  -2.800845e+04   4.904614e+04  -1.784404e+05  -5.989456e+11  -2.328695e+12  -5.463941e+11   1.871656e+05   7.589208e-22   0.000000e+00   0.000000e+00
     3008000   3.007999e-05   5.558073e-01   1.913135e+01   1.444646e+00   7.214119e+04  -8.220155e+04  -1.519025e+05   2.246248e+12   1.477156e+11   9.864499e+11   1.871786e+05   7.540861e-22   0.000000e+00   0.000000e+00
     3016000   3.015999e-05   5.663586e-01   1.912926e+01   1.435133e+00   1.451633e+05   5.926990e+04  -1.022511e+05  -1.013941e+12   2.203855e+12  -1.625793e+11   1.871914e+05   7.380790e-22   0.000000e+00   0.000000e+00
     3024000   3.023999e-05   5.722560e-01   1.913740e+01   1.424855e+00  -4.090208e+03   8.850943e+04  -1.649080e+05  -1.464354e+12  -1.703699e+12  -8.784420e+11   1.872039e+05   7.265747e-22   0.000000e+00   0.000000e+00
     3032000   3.031999e-05   5.713402e-01   1.913766e+01   1.410506e+00   3.109714e+04  -7.187682e+04  -1.700489e+05   2.042813e+12  -9.905416e+11   7.919182e+11   1.872162e+05   7.220254e-22   0.000000e+00   0.000000e+00
     3040000   3.039999e-05   5.799623e-01   1.913326e+01   1.399867e+00   1.566940e+05   9.407325e+03  -1.020441e+05   9.724362e+10   2.348075e+12   3.652345e+11   1.872285e+05   7.064993e-22   0.000000e+00   0.000000e+00
     3048000   3.047999e-05   5.890937e-01   1.913988e+01   1.390912e+00   4.130476e+04   1.150313e+05  -1.418475e+05  -2.034802e+12  -5.517915e+11  -1.040382e+12   1.872405e+05   6.904699e-22   0.000000e+00   0.000000e+00
     3056000   3.055999e-05   5.886993e-01   1.914396e+01   1.377093e+00  -4.519187e+03  -3.305827e+04  -1.842556e+05   1.245551e+12  -1.958505e+12   3.205384e+11   1.872522e+05   6.858832e-22   0.000000e+00   0.000000e+00
     3064000   3.063999e-05   5.941508e-01   1.913879e+01   1.364790e+00   1.408088e+05  -4.310791e+04  -1.156821e+05   1.250457e+12   1.774097e+12   8.604892e+11   1.872639e+05   6.811748e-22   0.000000e+00   0.000000e+00
     3072000   3.071999e-05   6.055440e-01   1.914201e+01   1.356548e+00   9.835735e+04   1.107377e+05  -1.146084e+05  -1.966093e+12   8.705582e+11  -8.466178e+11   1.872754e+05   6.673437e-22   0.000000e+00   0.000000e+00
     3080000   3.079999e-05   6.076717e-01   1.914936e+01   1.344310e+00  -1.769638e+04   2.844932e+04  -1.842656e+05  -3.377366e+10  -2.274728e+12  -3.482461e+11   1.872868e+05   6.620054e-22   0.000000e+00   0.000000e+00
     3088000   3.087999e-05   6.096160e-01   1.914593e+01   1.330424e+00   9.479841e+04  -7.559026e+04  -1.427584e+05   1.981395e+12   4.583337e+11   1.072684e+12   1.872981e+05   6.608155e-22   0.000000e+00   0.000000e+00
     3096000   3.095999e-05   6.210273e-01   1.914465e+01   1.321666e+00   1.476163e+05   6.568119e+04  -9.476376e+04  -1.044891e+12   2.004176e+12  -2.390992e+11   1.873093e+05   6.457751e-22   0.000000e+00   0.000000e+00
     3104000   3.103999e-05   6.274950e-01   1.915296e+01   1.311755e+00   9.824649e+03   9.169418e+04  -1.630476e+05  -1.348014e+12  -1.540233e+12  -9.477300e+11   1.873202e+05   6.360919e-22   0.000000e+00   0.000000e+00
     3112000   3.111999e-05   6.275148e-01   1.915393e+01   1.297328e+00   3.492868e+04  -6.189744e+04  -1.733252e+05   1.780683e+12  -1.153371e+12   7.704400e+11   1.873311e+05   6.370430e-22   0.000000e+00   0.000000e+00
     3120000   3.119999e-05   6.360752e-01   1.914934e+01   1.286618e+00   1.600587e+05  -6.511884e+03  -9.713798e+04   4.378731e+11   2.124638e+12   5.785545e+11   1.873419e+05   6.303501e-22   0.000000e+00   0.000000e+00
     3128000   3.127999e-05   6.467828e-01   1.915498e+01   1.278682e+00   7.399945e+04   1.188362e+05  -1.245111e+05  -1.942065e+12   9.394725e+10  -1.064938e+12   1.873525e+05   6.146603e-22   0.000000e+00   0.000000e+00
     3136000   3.135999e-05   6.481630e-01   1.916110e+01   1.265631e+00  -4.188056e+03   2.604465e+03  -1.872981e+05   5.532136e+11  -2.141155e+12  -4.240501e+10   1.873630e+05   6.119575e-22   0.000000e+00   0.000000e+00
     3144000   3.143999e-05   6.521952e-01   1.915687e+01   1.252382e+00   1.207505e+05  -6.509622e+04  -1.276346e+05   1.673572e+12   9.237697e+11   1.111782e+12   1.873734e+05   6.117595e-22   0.000000e+00   0.000000e+00
     3152000   3.151999e-05   6.643704e-01   1.915711e+01   1.244536e+00   1.419493e+05   8.217170e+04  -9.061398e+04  -1.279699e+12   1.710379e+12  -4.541819e+11   1.873838e+05   5.966967e-22   0.000000e+00   0.000000e+00
     3160000   3.159999e-05   6.703772e-01   1.916566e+01   1.234479e+00   1.162769e+04   8.374144e+04  -1.672382e+05  -1.041257e+12  -1.672486e+12  -9.101443e+11   1.873939e+05   5.893118e-22   0.000000e+00   0.000000e+00
     3168000   3.167999e-05   6.713175e-01   1.916610e+01   1.220015e+00   5.110624e+04  -6.241931e+04  -1.691514e+05   1.741651e+12  -9.553523e+11   8.784703e+11   1.874039e+05   5.903718e-22   0.000000e+00   0.000000e+00
     3176000   3.175999e-05   6.807559e-01   1.916186e+01   1.209854e+00   1.648124e+05  -1.059164e+03  -8.921731e+04   3.215569e+11   2.059739e+12   5.690407e+11   1.874140e+05   5.844268e-22   0.000000e+00   0.000000e+00
     3184000   3.183999e-05   6.918019e-01   1.916770e+01   1.202463e+00   8.121942e+04   1.195754e+05  -1.193013e+05  -1.816125e+12   1.217402e+11  -1.114766e+12   1.874238e+05   5.702311e-22   0.000000e+00   0.000000e+00
     3192000   3.191999e-05   6.939996e-01   1.917413e+01   1.189635e+00   5.738560e+03   1.008004e+04  -1.870743e+05   4.523985e+11  -2.089102e+12  -9.893341e+10   1.874335e+05   5.731642e-22   0.000000e+00   0.000000e+00
     3200000   3.199999e-05   6.983942e-01   1.917033e+01   1.176332e+00   1.207624e+05  -6.583715e+04  -1.273457e+05   1.637830e+12   6.996148e+11   1.191102e+12   1.874433e+05   5.747111e-22   0.000000e+00   0.000000e+00
     3208000   3.207999e-05   7.108570e-01   1.916997e+01   1.168891e+00   1.531894e+05   7.253369e+04  -8.006571e+04  -1.034571e+12   1.821107e+12  -3.302114e+11   1.874530e+05   5.628945e-22   0.000000e+00   0.000000e+00
     3216000   3.215999e-05   7.182691e-01   1.917856e+01   1.159817e+00   2.974476e+04   9.768347e+04  -1.572113e+05  -1.204863e+12  -1.356076e+12  -1.070845e+12   1.874626e+05   5.556295e-22   0.000000e+00   0.000000e+00
     3224000   3.223999e-05   7.197525e-01   1.918051e+01   1.145492e+00   4.505849e+04  -4.829814e+04  -1.754502e+05   1.476953e+12  -1.313503e+12   7.406342e+11   1.874720e+05   5.579232e-22   0.000000e+00   0.000000e+00
     3232000   3.231999e-05   7.285259e-01   1.917596e+01   1.134842e+00   1.634102e+05  -2.198062e+04  -8.923720e+04   7.058553e+11   1.793484e+12   8.502924e+11   1.874815e+05   5.558020e-22   0.000000e+00   0.000000e+00
     3240000   3.239999e-05   7.408214e-01   1.918028e+01   1.128394e+00   1.106973e+05   1.150517e+05  -9.829574e+04  -1.661422e+12   7.265228e+11  -1.021108e+12   1.874909e+05   5.424557e-22   0.000000e+00   0.000000e+00
     3248000   3.247999e-05   7.449350e-01   1.918820e+01   1.116906e+00   1.392508e+04   4.454815e+04  -1.815980e+05  -1.148062e+11  -2.012998e+12  -5.028536e+11   1.875001e+05   5.409273e-22   0.000000e+00   0.000000e+00
     3256000   3.255999e-05   7.484650e-01   1.918617e+01   1.102942e+00   9.970173e+04  -6.823664e+04  -1.433983e+05   1.694705e+12  -7.638885e+10   1.214337e+12   1.875094e+05   5.452741e-22   0.000000e+00   0.000000e+00
     3264000   3.263999e-05   7.604313e-01   1.918374e+01   1.095036e+00   1.703987e+05   3.704242e+04  -6.895913e+04  -3.749270e+11   2.030454e+12   1.636178e+11   1.875186e+05   5.375128e-22   0.000000e+00   0.000000e+00
     3272000   3.271999e-05   7.705664e-01   1.919140e+01   1.087929e+00   6.679875e+04   1.187182e+05  -1.288818e+05  -1.527360e+12  -5.190351e+11  -1.270054e+12   1.875276e+05   5.281879e-22   0.000000e+00   0.000000e+00
     3280000   3.279999e-05   7.731349e-01   1.919650e+01   1.074536e+00   3.095201e+04  -9.821377e+03  -1.847038e+05   8.592888e+11  -1.854198e+12   2.423617e+11   1.875367e+05   5.307320e-22   0.000000e+00   0.000000e+00
     3288000   3.287999e-05   7.799684e-01   1.919237e+01   1.062366e+00   1.457097e+05  -5.285348e+04  -1.055868e+05   1.277078e+12   1.048451e+12   1.237141e+12   1.875457e+05   5.339839e-22   0.000000e+00   0.000000e+00
     3296000   3.295999e-05   7.931953e-01   1.919347e+01   1.056377e+00   1.505236e+05   8.768980e+04  -6.949767e+04  -1.177129e+12   1.568820e+12  -5.706359e+11   1.875547e+05   5.229762e-22   0.000000e+00   0.000000e+00
     3304000   3.303999e-05   8.005881e-01   1.920239e+01   1.047538e+00   3.819522e+04   9.253612e+04  -1.586136e+05  -9.001779e+11  -1.476544e+12  -1.078455e+12   1.875636e+05   5.206561e-22   0.000000e+00   0.000000e+00
     3312000   3.311999e-05   8.034976e-01   1.920397e+01   1.033351e+00   6.730795e+04  -4.842394e+04  -1.682504e+05   1.435779e+12  -1.148593e+12   9.047037e+11   1.875725e+05   5.264277e-22   0.000000e+00   0.000000e+00
     3320000   3.319999e-05   8.135828e-01   1.919979e+01   1.023709e+00   1.720762e+05  -1.502104e+04  -7.315014e+04   5.279746e+11   1.772704e+12   8.774025e+11   1.875815e+05   5.254589e-22   0.000000e+00   0.000000e+00
     3328000   3.327999e-05   8.263347e-01   1.920449e+01   1.018451e+00   1.178743e+05   1.175483e+05  -8.647629e+04  -1.528230e+12   7.007146e+11  -1.131088e+12   1.875903e+05   5.148222e-22   0.000000e+00   0.000000e+00
     3336000   3.335999e-05   8.314859e-01   1.921269e+01   1.007555e+00   3.121544e+04   5.040333e+04  -1.779845e+05  -8.294094e+10  -1.945202e+12  -5.656380e+11   1.875990e+05   5.154692e-22   0.000000e+00   0.000000e+00
     3344000   3.343999e-05   8.362106e-01   1.921118e+01   9.938522e-01   1.097244e+05  -6.368371e+04  -1.382087e+05   1.547998e+12  -1.935296e+11   1.317834e+12   1.876079e+05   5.230174e-22   0.000000e+00   0.000000e+00
     3352000   3.351999e-05   8.487038e-01   1.920870e+01   9.867760e-01   1.769669e+05   3.223730e+04  -5.332472e+04  -2.811752e+11   1.994556e+12   2.719015e+11   1.876167e+05   5.181529e-22   0.000000e+00   0.000000e+00
     3360000   3.359999e-05   8.598145e-01   1.921620e+01   9.810447e-01   8.467806e+04   1.232504e+05  -1.133238e+05  -1.430304e+12  -2.970040e+11  -1.392134e+12   1.876255e+05   5.107709e-22   0.000000e+00   0.000000e+00
     3368000   3.367999e-05   8.637988e-01   1.922223e+01   9.683777e-01   4.454308e+04   4.863823e+03  -1.822055e+05   6.794756e+11  -1.908289e+12   1.149427e+11   1.876342e+05   5.163927e-22   0.000000e+00   0.000000e+00
     3376000   3.375999e-05   8.711737e-01   1.921870e+01   9.563119e-01   1.478988e+05  -5.548328e+04  -1.012791e+05   1.257350e+12   7.754233e+11   1.410912e+12   1.876430e+05   5.235210e-22   0.000000e+00   0.000000e+00
     3384000   3.383999e-05   8.848672e-01   1.921907e+01   9.513298e-01   1.633446e+05   7.815757e+04  -4.922574e+04  -9.607102e+11   1.730013e+12  -4.419295e+11   1.876519e+05   5.158333e-22   0.000000e+00   0.000000e+00
     3392000   3.391999e-05   8.937823e-01   1.922809e+01   9.441263e-01   5.945867e+04   1.060836e+05  -1.429245e+05  -9.666956e+11  -1.209543e+12  -1.300211e+12   1.876606e+05   5.129725e-22   0.000000e+00   0.000000e+00
     3400000   3.399999e-05   8.978757e-01   1.923108e+01   9.304530e-01   7.363997e+04  -3.421526e+04  -1.691930e+05   1.226936e+12  -1.409522e+12   8.188109e+11   1.876694e+05   5.223730e-22   0.000000e+00   0.000000e+00
     3408000   3.407999e-05   9.081085e-01   1.922700e+01   9.209100e-01   1.742044e+05  -2.595540e+04  -6.482501e+04   6.588273e+11   1.566904e+12   1.142446e+12   1.876783e+05   5.264219e-22   0.000000e+00   0.000000e+00
     3416000   3.415999e-05   9.216556e-01   1.923079e+01   9.170804e-01   1.361270e+05   1.131290e+05  -6.243186e+04  -1.361683e+12   1.029441e+12  -1.104300e+12   1.876872e+05   5.188131e-22   0.000000e+00   0.000000e+00
     3424000   3.423999e-05   9.284326e-01   1.923971e+01   9.077408e-01   4.882227e+04   6.957466e+04  -1.673485e+05  -2.569558e+11  -1.838098e+12  -8.393962e+11   1.876960e+05   5.208447e-22   0.000000e+00   0.000000e+00
     3432000   3.431999e-05   9.339218e-01   1.923945e+01   8.942396e-01   1.120776e+05  -5.759804e+04  -1.391194e+05   1.432919e+12  -5.366382e+11   1.376264e+12   1.877049e+05   5.317063e-22   0.000000e+00   0.000000e+00
     3440000   3.439999e-05   9.465824e-01   1.923652e+01   8.876486e-01   1.828421e+05   1.971934e+04  -3.763590e+04  -1.071905e+11   1.987001e+12   5.192147e+11   1.877140e+05   5.309941e-22   0.000000e+00   0.000000e+00
     3448000   3.447999e-05   9.587241e-01   1.924352e+01   8.836312e-01   1.029994e+05   1.275207e+05  -9.148493e+04  -1.367329e+12   1.238683e+10  -1.522616e+12   1.877229e+05   5.258777e-22   0.000000e+00   0.000000e+00
     3456000   3.455999e-05   9.640823e-01   1.925057e+01   8.720522e-01   5.754133e+04   2.071784e+04  -1.774909e+05   5.246788e+11  -1.991367e+12  -6.258656e+10   1.877319e+05   5.330395e-22   0.000000e+00   0.000000e+00
     3464000   3.463999e-05   9.720449e-01   1.924771e+01   8.601940e-01   1.512077e+05  -5.677516e+04  -9.570529e+04   1.216573e+12   5.501849e+11   1.595262e+12   1.877410e+05   5.435001e-22   0.000000e+00   0.000000e+00
     3472000   3.471999e-05   9.860825e-01   1.924760e+01   8.563026e-01   1.707360e+05   7.249690e+04  -2.904399e+04  -8.495024e+11   1.855550e+12  -3.636566e+11   1.877502e+05   5.397050e-22   0.000000e+00   0.000000e+00
     3480000   3.479999e-05   9.959174e-01   1.925671e+01   8.505877e-01   7.404583e+04   1.137830e+05  -1.297082e+05  -9.269378e+11  -1.097026e+12  -1.491823e+12   1.877594e+05   5.386568e-22   0.000000e+00   0.000000e+00
     3488000   3.487999e-05   1.001166e+00   1.926038e+01   8.375017e-01   8.638974e+04  -2.803613e+04  -1.643406e+05   1.153304e+12  -1.524434e+12   8.660598e+11   1.877686e+05   5.532629e-22   0.000000e+00   0.000000e+00
     3496000   3.495999e-05   1.012132e+00   1.925649e+01   8.287546e-01   1.795943e+05  -2.570218e+04  -4.843448e+04   5.718607e+11   1.573862e+12   1.284347e+12   1.877781e+05   5.595455e-22   0.000000e+00   0.000000e+00
     3504000   3.503999e-05   1.025944e+00   1.926043e+01   8.263671e-01   1.392492e+05   1.168383e+05  -4.714445e+04  -1.308877e+12   1.048281e+12  -1.268972e+12   1.877875e+05   5.556724e-22   0.000000e+00   0.000000e+00
     3512000   3.511999e-05   1.033314e+00   1.926953e+01   8.177120e-01   6.204285e+04   6.877560e+04  -1.633655e+05  -9.942767e+10  -1.930314e+12  -8.506807e+11   1.877969e+05   5.604155e-22   0.000000e+00   0.000000e+00
     3520000   3.519999e-05   1.040191e+00   1.926910e+01   8.048937e-01   1.301600e+05  -5.780015e+04  -1.224288e+05   1.345367e+12  -3.922392e+11   1.615133e+12   1.878066e+05   5.746574e-22   0.000000e+00   0.000000e+00
     3528000   3.527999e-05   1.053715e+00   1.926676e+01   8.000812e-01   1.840435e+05   3.395554e+04  -1.581151e+04  -3.552305e+11   2.083630e+12   3.369134e+11   1.878163e+05   5.758115e-22   0.000000e+00   0.000000e+00
     3536000   3.535999e-05   1.065493e+00   1.927469e+01   7.969089e-01   9.856612e+04   1.301911e+05  -9.280974e+04  -1.195784e+12  -3.373298e+11  -1.743642e+12   1.878261e+05   5.762180e-22   0.000000e+00   0.000000e+00
     3544000   3.543999e-05   1.071416e+00   1.928095e+01   7.851905e-01   7.786709e+04   3.316956e+03  -1.709036e+05   8.182094e+11  -1.972677e+12   3.342327e+11   1.878359e+05   5.874224e-22   0.000000e+00   0.000000e+00
     3552000   3.551999e-05   1.081351e+00   1.927751e+01   7.751553e-01   1.714811e+05  -4.645121e+04  -6.101328e+04   8.882405e+11   1.070593e+12   1.680594e+12   1.878460e+05   5.984134e-22   0.000000e+00   0.000000e+00
     3560000   3.559999e-05   1.095655e+00   1.927936e+01   7.733764e-01   1.575803e+05   1.001765e+05  -2.056819e+04  -1.138067e+12   1.594419e+12  -9.559016e+11   1.878561e+05   5.974195e-22   0.000000e+00   0.000000e+00
     3568000   3.567999e-05   1.104420e+00   1.928898e+01   7.669010e-01   7.211639e+04   9.336276e+04  -1.462066e+05  -3.903166e+11  -1.725607e+12  -1.294769e+12   1.878663e+05   6.044466e-22   0.000000e+00   0.000000e+00
     3576000   3.575999e-05   1.111284e+00   1.929019e+01   7.541588e-01   1.234476e+05  -5.122159e+04  -1.320405e+05   1.309895e+12  -8.776475e+11   1.564736e+12   1.878767e+05   6.206111e-22   0.000000e+00   0.000000e+00
     3584000   3.583999e-05   1.124532e+00   1.928713e+01   7.490802e-01   1.869654e+05   1.706200e+04  -7.378299e+03  -1.662401e+11   2.117542e+12   6.774794e+11   1.878872e+05   6.252248e-22   0.000000e+00   0.000000e+00
     3592000   3.591999e-05   1.136979e+00   1.929438e+01   7.472678e-01   1.094002e+05   1.336668e+05  -7.396198e+04  -1.211947e+12  -4.354519e+10  -1.872009e+12   1.878978e+05   6.258646e-22   0.000000e+00   0.000000e+00
     3600000   3.599999e-05   1.143579e+00   1.930140e+01   7.364143e-01   8.325566e+04   1.281166e+04  -1.679700e+05   7.442303e+11  -2.106169e+12   2.079390e+11   1.879084e+05   6.332226e-22   0.000000e+00   0.000000e+00
     3608000   3.607999e-05   1.153777e+00   1.929821e+01   7.266083e-01   1.733223e+05  -4.842971e+04  -5.410729e+04   8.601918e+11   1.023215e+12   1.838657e+12   1.879193e+05   6.502208e-22   0.000000e+00   0.000000e+00
     3616000   3.615999e-05   1.168133e+00   1.930001e+01   7.256857e-01   1.572567e+05   1.024083e+05  -1.003352e+04  -1.145058e+12   1.654308e+12  -1.066939e+12   1.879303e+05   6.526496e-22   0.000000e+00   0.000000e+00
     3624000   3.623999e-05   1.176993e+00   1.930975e+01   7.196117e-01   7.664943e+04   9.134045e+04  -1.452713e+05  -2.673146e+11  -1.856564e+12  -1.308732e+12   1.879414e+05   6.583650e-22   0.000000e+00   0.000000e+00
     3632000   3.631999e-05   1.184570e+00   1.931056e+01   7.072910e-01   1.347344e+05  -5.500677e+04  -1.189416e+05   1.285664e+12  -7.209362e+11   1.789331e+12   1.879527e+05   6.764843e-22   0.000000e+00   0.000000e+00
     3640000   3.639999e-05   1.198319e+00   1.930793e+01   7.035968e-01   1.851714e+05   3.142454e+04   7.388275e+03  -3.991385e+11   2.253124e+12   4.276842e+11   1.879642e+05   6.821587e-22   0.000000e+00   0.000000e+00
     3648000   3.647999e-05   1.210163e+00   1.931609e+01   7.019165e-01   1.016927e+05   1.337828e+05  -8.423554e+04  -1.048594e+12  -4.797519e+11  -2.028495e+12   1.879757e+05   6.854789e-22   0.000000e+00   0.000000e+00
     3656000   3.655999e-05   1.217031e+00   1.932194e+01   6.906011e-01   9.908693e+04  -9.053680e+03  -1.594963e+05   1.001398e+12  -2.004074e+12   7.355288e+11   1.879874e+05   7.001203e-22   0.000000e+00   0.000000e+00
     3664000   3.663999e-05   1.228657e+00   1.931826e+01   6.828346e-01   1.840765e+05  -3.169103e+04  -2.133751e+04   4.735848e+11   1.622583e+12   1.673014e+12   1.879994e+05   7.122909e-22   0.000000e+00   0.000000e+00
     3672000   3.671999e-05   1.242532e+00   1.932231e+01   6.829992e-01   1.381173e+05   1.255666e+05  -2.247047e+04  -1.264336e+12   1.086048e+12  -1.704999e+12   1.880114e+05   7.160390e-22   0.000000e+00   0.000000e+00
     3680000   3.679999e-05   1.250452e+00   1.933147e+01   6.751051e-01   8.233693e+04   5.538222e+04  -1.597070e+05   3.142243e+11  -2.294807e+12  -6.341423e+11   1.880236e+05   7.264523e-22   0.000000e+00   0.000000e+00
     3688000   3.687999e-05   1.259848e+00   1.932980e+01   6.642676e-01   1.632148e+05  -5.999395e+04  -7.154863e+04   1.066584e+12   3.242258e+11   2.160372e+12   1.880360e+05   7.445552e-22   0.000000e+00   0.000000e+00
     3696000   3.695999e-05   1.274266e+00   1.932970e+01   6.636203e-01   1.681116e+05   8.296469e+04   1.475260e+04  -9.841764e+11   2.119746e+12  -7.017772e+11   1.880487e+05   7.502609e-22   0.000000e+00   0.000000e+00
     3704000   3.703999e-05   1.284081e+00   1.933951e+01   6.596577e-01   8.554210e+04   1.077873e+05  -1.281855e+05  -4.017123e+11  -1.711931e+12  -1.708055e+12   1.880614e+05   7.573067e-22   0.000000e+00   0.000000e+00
     3712000   3.711999e-05   1.292026e+00   1.934131e+01   6.477579e-01   1.367023e+05  -5.252699e+04  -1.180057e+05   1.258766e+12  -9.903645e+11   1.898514e+12   1.880743e+05   7.775938e-22   0.000000e+00   0.000000e+00
     3720000   3.719999e-05   1.305839e+00   1.933851e+01   6.447545e-01   1.841254e+05   3.113264e+04   2.248379e+04  -4.632451e+11   2.411843e+12   4.567982e+11   1.880875e+05   7.866007e-22   0.000000e+00   0.000000e+00
     3728000   3.727999e-05   1.317500e+00   1.934692e+01   6.438356e-01   1.009616e+05   1.347853e+05  -8.379515e+04  -9.130055e+11  -7.012688e+11  -2.228793e+12   1.881009e+05   7.933468e-22   0.000000e+00   0.000000e+00
     3736000   3.735999e-05   1.324960e+00   1.935207e+01   6.326447e-01   1.148247e+05  -2.363822e+04  -1.471174e+05   1.139705e+12  -1.925024e+12   1.198403e+12   1.881144e+05   8.121128e-22   0.000000e+00   0.000000e+00
     3744000   3.743999e-05   1.337669e+00   1.934834e+01   6.270346e-01   1.875121e+05  -1.162764e+04   9.809056e+03   5.980680e+10   2.139741e+12   1.399835e+12   1.881282e+05   8.249444e-22   0.000000e+00   0.000000e+00
     3752000   3.751999e-05   1.350649e+00   1.935448e+01   6.278330e-01   1.193359e+05   1.391931e+05  -4.221007e+04  -1.173146e+12   3.198890e+11  -2.263395e+12   1.881422e+05   8.326281e-22   0.000000e+00   0.000000e+00
     3760000   3.759999e-05   1.358284e+00   1.936205e+01   6.182901e-01   1.008237e+05   1.096170e+04  -1.584841e+05   8.732573e+11  -2.411748e+12   3.883093e+11   1.881563e+05   8.489399e-22   0.000000e+00   0.000000e+00
     3768000   3.767999e-05   1.369894e+00   1.935861e+01   6.105733e-01   1.836173e+05  -3.962024e+04  -1.109737e+04   4.683824e+11   1.603986e+12   2.017073e+12   1.881708e+05   8.655809e-22   0.000000e+00   0.000000e+00
     3776000   3.775999e-05   1.383630e+00   1.936251e+01   6.120220e-01   1.351966e+05   1.304792e+05  -1.052798e+04  -1.248150e+12   1.130523e+12  -2.023678e+12   1.881854e+05   8.746113e-22   0.000000e+00   0.000000e+00
     3784000   3.783999e-05   1.391737e+00   1.937149e+01   6.043085e-01   9.388301e+04   4.103206e+04  -1.578660e+05   5.932508e+11  -2.567593e+12  -3.150007e+11   1.882003e+05   8.889413e-22   0.000000e+00   0.000000e+00
     3792000   3.791999e-05   1.402511e+00   1.936887e+01   5.952309e-01   1.774804e+05  -5.459701e+04  -3.073974e+04   7.338360e+11   1.058531e+12   2.354505e+12   1.882155e+05   9.091551e-22   0.000000e+00   0.000000e+00
     3800000   3.799999e-05   1.416585e+00   1.937105e+01   5.967559e-01   1.461428e+05   1.181704e+05   1.043544e+04  -1.231864e+12   1.675979e+12  -1.720114e+12   1.882308e+05   9.197179e-22   0.000000e+00   0.000000e+00
     3808000   3.807999e-05   1.425156e+00   1.938071e+01   5.905629e-01   9.131424e+04   6.225364e+04  -1.523906e+05   3.795278e+11  -2.563800e+12  -8.204146e+11   1.882464e+05   9.331267e-22   0.000000e+00   0.000000e+00
     3816000   3.815999e-05   1.435414e+00   1.937891e+01   5.807615e-01   1.723347e+05  -6.130253e+04  -4.455857e+04   8.814397e+11   6.412726e+11   2.525111e+12   1.882623e+05   9.552802e-22   0.000000e+00   0.000000e+00
     3824000   3.823999e-05   1.449591e+00   1.938001e+01   5.822075e-01   1.521735e+05   1.084724e+05   2.292911e+04  -1.197351e+12   1.996624e+12  -1.495781e+12   1.882785e+05   9.672124e-22   0.000000e+00   0.000000e+00
     3832000   3.831999e-05   1.458479e+00   1.938991e+01   5.770111e-01   9.114854e+04   7.379387e+04  -1.473138e+05   2.685625e+11  -2.542115e+12  -1.107778e+12   1.882948e+05   9.805335e-22   0.000000e+00   0.000000e+00
     3840000   3.839999e-05   1.468546e+00   1.938860e+01   5.669825e-01   1.700739e+05  -6.380235e+04  -4.965239e+04   9.329152e+11   4.446241e+11   2.622573e+12   1.883116e+05   1.003991e-21   0.000000e+00   0.000000e+00
     3848000   3.847999e-05   1.482709e+00   1.938928e+01   5.684973e-01   1.533891e+05   1.053815e+05   2.888222e+04  -1.189945e+12   2.129721e+12  -1.448231e+12   1.883285e+05   1.017207e-21   0.000000e+00   0.000000e+00
     3856000   3.855999e-05   1.491679e+00   1.939925e+01   5.636558e-01   9.206165e+04   7.552315e+04  -1.459281e+05   2.773656e+11  -2.592105e+12  -1.167087e+12   1.883457e+05   1.031166e-21   0.000000e+00   0.000000e+00
     3864000   3.863999e-05   1.501853e+00   1.939789e+01   5.537944e-01   1.712692e+05  -6.445364e+04  -4.464671e+04   8.981791e+11   5.118870e+11   2.704648e+12   1.883634e+05   1.059912e-21   0.000000e+00   0.000000e+00
     3872000   3.871999e-05   1.515922e+00   1.939882e+01   5.556718e-01   1.498012e+05   1.105241e+05   2.883600e+04  -1.219550e+12   2.080894e+12  -1.637323e+12   1.883813e+05   1.074576e-21   0.000000e+00   0.000000e+00
     3880000   3.879999e-05   1.524740e+00   1.940869e+01   5.504730e-01   9.438117e+04   6.619520e+04  -1.490125e+05   4.174686e+11  -2.744483e+12  -9.553331e+11   1.883994e+05   1.090069e-21   0.000000e+00   0.000000e+00
     3888000   3.887999e-05   1.535343e+00   1.940676e+01   5.412289e-01   1.756281e+05  -6.191211e+04  -2.868794e+04   7.597269e+11   8.895329e+11   2.728268e+12   1.884179e+05   1.114670e-21   0.000000e+00   0.000000e+00
     3896000   3.895999e-05   1.549187e+00   1.940868e+01   5.436573e-01   1.411763e+05   1.231614e+05   2.022236e+04  -1.260559e+12   1.781119e+12  -2.043019e+12   1.884368e+05   1.130508e-21   0.000000e+00   0.000000e+00
     3904000   3.903999e-05   1.557686e+00   1.941814e+01   5.373825e-01   9.936549e+04   4.521370e+04  -1.536159e+05   6.706010e+11  -2.906200e+12  -4.221974e+11   1.884559e+05   1.148279e-21   0.000000e+00   0.000000e+00
     3912000   3.911999e-05   1.569013e+00   1.941528e+01   5.293792e-01   1.810845e+05  -5.218834e+04  -2.779233e+03   4.837125e+11   1.539205e+12   2.580453e+12   1.884754e+05   1.172303e-21   0.000000e+00   0.000000e+00
     3920000   3.919999e-05   1.582371e+00   1.941897e+01   5.322475e-01   1.278478e+05   1.385106e+05  -4.150887e+02  -1.233489e+12   1.131517e+12  -2.567358e+12   1.884952e+05   1.189171e-21   0.000000e+00   0.000000e+00
     3928000   3.927999e-05   1.590576e+00   1.942735e+01   5.243490e-01   1.095965e+05   1.243211e+04  -1.528791e+05   9.830655e+11  -2.893194e+12   4.688441e+11   1.885152e+05   1.210144e-21   0.000000e+00   0.000000e+00
     3936000   3.935999e-05   1.602872e+00   1.942365e+01   5.184710e-01   1.840507e+05  -2.865137e+04   2.915748e+04   4.005088e+10   2.346380e+12   2.056177e+12   1.885357e+05   1.232974e-21   0.000000e+00   0.000000e+00
     3944000   3.943999e-05   1.615324e+00   1.942975e+01   5.211057e-01   1.116620e+05   1.474374e+05  -3.670674e+04  -1.024552e+12   3.724493e+10  -2.969780e+12   1.885565e+05   1.250440e-21   0.000000e+00   0.000000e+00
     3952000   3.951999e-05   1.623565e+00   1.943595e+01   5.114915e-01   1.274171e+05  -2.814497e+04  -1.361406e+05   1.234533e+12  -2.411407e+12   1.653208e+12   1.885776e+05   1.276233e-21   0.000000e+00   0.000000e+00
     3960000   3.959999e-05   1.636871e+00   1.943225e+01   5.087384e-01   1.792033e+05   1.501139e+04   5.683726e+04  -5.461175e+11   3.013044e+12   9.278857e+11   1.885992e+05   1.297514e-21   0.000000e+00   0.000000e+00
     3968000   3.967999e-05   1.647931e+00   1.944089e+01   5.097349e-01   9.757559e+04   1.358967e+05  -8.711480e+04  -5.237442e+11  -1.439604e+12  -2.833570e+12   1.886211e+05   1.315339e-21   0.000000e+00   0.000000e+00
     3976000   3.975999e-05   1.656874e+00   1.944365e+01   4.992429e-01   1.516038e+05  -6.309058e+04  -9.285561e+04   1.223010e+12  -1.157059e+12   2.781810e+12   1.886433e+05   1.340643e-21   0.000000e+00   0.000000e+00
     3984000   3.983999e-05   1.670762e+00   1.944173e+01   5.000632e-01   1.615548e+05   7.608584e+04   6.087534e+04  -1.098386e+12   2.978478e+12  -8.059635e+11   1.886659e+05   1.360541e-21   0.000000e+00   0.000000e+00
     3992000   3.991999e-05   1.680228e+00   1.945180e+01   4.975975e-01   9.497537e+04   9.046615e+04  -1.356429e+05   2.557357e+11  -2.809134e+12  -1.695269e+12   1.886887e+05   1.373964e-21   0.000000e+00   0.000000e+00
     4000000   3.999999e-05   1.690719e+00   1.945058e+01   4.883772e-01   1.744613e+05  -6.789861e+04  -2.377468e+04   7.440348e+11   8.115183e+11   3.137530e+12   1.887120e+05   1.402939e-21   0.000000e+00   0.000000e+00
     4008000   4.007999e-05   1.704171e+00   1.945265e+01   4.916857e-01   1.320603e+05   1.329919e+05   2.223377e+04  -1.276246e+12   1.700585e+12  -2.586622e+12   1.887356e+05   1.422984e-21   0.000000e+00   0.000000e+00
     4016000   4.015999e-05   1.712582e+00   1.946142e+01   4.847340e-01   1.123910e+05   1.421849e+04  -1.509843e+05   1.038089e+12  -3.176936e+12   4.728087e+11   1.887595e+05   1.446536e-21   0.000000e+00   0.000000e+00
     4024000   4.023999e-05   1.725070e+00   1.945765e+01   4.797103e-01   1.815705e+05  -2.046279e+04   4.746325e+04  -1.987633e+11   2.777308e+12   1.960190e+12   1.887839e+05   1.472460e-21   0.000000e+00   0.000000e+00
     4032000   4.031999e-05   1.736765e+00   1.946482e+01   4.823356e-01   1.026287e+05   1.470908e+05  -5.899450e+04  -7.468753e+11  -7.833037e+11  -3.254290e+12   1.888086e+05   1.493996e-21   0.000000e+00   0.000000e+00
     4040000   4.039999e-05   1.745566e+00   1.946889e+01   4.723052e-01   1.472594e+05  -5.836883e+04  -1.027908e+05   1.270128e+12  -1.660495e+12   2.761331e+12   1.888338e+05   1.524076e-21   0.000000e+00   0.000000e+00
     4048000   4.047999e-05   1.759281e+00   1.946656e+01   4.730372e-01   1.601875e+05   7.233127e+04   6.910868e+04  -1.124646e+12   3.216397e+12  -7.577908e+11   1.888594e+05   1.548492e-21   0.000000e+00   0.000000e+00
     4056000   4.055999e-05   1.768658e+00   1.947660e+01   4.708020e-01   9.688447e+04   8.517863e+04  -1.379698e+05   4.039135e+11  -3.090068e+12  -1.624981e+12   1.888853e+05   1.570268e-21   0.000000e+00   0.000000e+00
     4064000   4.063999e-05   1.779575e+00   1.947477e+01   4.623936e-01   1.776264e+05  -6.431535e+04  -2.132253e+02   5.100985e+11   1.396152e+12   3.222173e+12   1.889118e+05   1.601177e-21   0.000000e+00   0.000000e+00
     4072000   4.071999e-05   1.792427e+00   1.947833e+01   4.662687e-01   1.184949e+05   1.471582e+05   1.104389e+03  -1.178976e+12   9.744606e+11  -3.231957e+12   1.889387e+05   1.626216e-21   0.000000e+00   0.000000e+00
     4080000   4.079999e-05   1.800829e+00   1.948553e+01   4.578993e-01   1.283310e+05  -2.471722e+04  -1.364856e+05   1.285653e+12  -2.884794e+12   1.730319e+12   1.889659e+05   1.650074e-21   0.000000e+00   0.000000e+00
     4088000   4.087999e-05   1.814069e+00   1.948186e+01   4.561114e-01   1.712933e+05   2.789171e+04   7.482815e+04  -8.211182e+11   3.488601e+12   5.810751e+11   1.889936e+05   1.677701e-21   0.000000e+00   0.000000e+00
     4096000   4.095999e-05   1.824219e+00   1.949127e+01   4.564502e-01   9.476399e+04   1.170815e+05  -1.141968e+05   7.396541e+09  -2.555020e+12  -2.614595e+12   1.890217e+05   1.701380e-21   0.000000e+00   0.000000e+00
     4104000   4.103999e-05   1.834398e+00   1.949112e+01   4.470982e-01   1.715165e+05  -7.470142e+04  -2.723606e+04   7.970041e+11   5.282211e+11   3.565282e+12   1.890503e+05   1.735154e-21   0.000000e+00   0.000000e+00
     4112000   4.111999e-05   1.847519e+00   1.949300e+01   4.509683e-01   1.253066e+05   1.393542e+05   2.509274e+04  -1.285632e+12   1.705485e+12  -3.045904e+12   1.890793e+05   1.762896e-21   0.000000e+00   0.000000e+00
     4120000   4.119999e-05   1.855922e+00   1.950110e+01   4.436171e-01   1.230534e+05  -1.142630e+04  -1.431413e+05   1.264120e+12  -3.265605e+12   1.346414e+12   1.891088e+05   1.793510e-21   0.000000e+00   0.000000e+00
     4128000   4.127999e-05   1.868935e+00   1.949725e+01   4.412600e-01   1.715927e+05   1.830416e+04   7.742348e+04  -7.807001e+11   3.594361e+12   8.823390e+11   1.891388e+05   1.823709e-21   0.000000e+00   0.000000e+00
     4136000   4.135999e-05   1.879094e+00   1.950649e+01   4.420599e-01   9.445697e+04   1.193231e+05  -1.123606e+05   2.581556e+10  -2.621214e+12  -2.763227e+12   1.891693e+05   1.849723e-21   0.000000e+00   0.000000e+00
     4144000   4.143999e-05   1.889347e+00   1.950623e+01   4.329228e-01   1.723767e+05  -7.570792e+04  -1.874418e+04   7.235686e+11   7.283290e+11   3.704524e+12   1.892003e+05   1.884851e-21   0.000000e+00   0.000000e+00
     4152000   4.151999e-05   1.902189e+00   1.950864e+01   4.371067e-01   1.190413e+05   1.461827e+05   1.638430e+04  -1.239884e+12   1.391328e+12  -3.395973e+12   1.892318e+05   1.914599e-21   0.000000e+00   0.000000e+00
     4160000   4.159999e-05   1.910619e+00   1.951596e+01   4.291642e-01   1.308621e+05  -3.025861e+04  -1.333427e+05   1.350047e+12  -3.059126e+12   2.017976e+12   1.892637e+05   1.946816e-21   0.000000e+00   0.000000e+00
     4168000   4.167999e-05   1.923823e+00   1.951245e+01   4.284464e-01   1.628192e+05   4.593034e+04   8.493155e+04  -1.062289e+12   3.790885e+12  -1.178090e+10   1.892962e+05   1.978931e-21   0.000000e+00   0.000000e+00
     4176000   4.175999e-05   1.933271e+00   1.952229e+01   4.276350e-01   9.662044e+04   9.114946e+04  -1.349140e+05   4.758709e+11  -3.410246e+12  -1.964365e+12   1.893292e+05   2.007152e-21   0.000000e+00   0.000000e+00
     4184000   4.183999e-05   1.944378e+00   1.952016e+01   4.200006e-01   1.773068e+05  -6.138133e+04   2.555094e+04   2.287553e+11   2.077588e+12   3.409863e+12   1.893627e+05   2.043755e-21   0.000000e+00   0.000000e+00
     4192000   4.191999e-05   1.956266e+00   1.952532e+01   4.242175e-01   1.031085e+05   1.557075e+05  -3.154250e+04  -8.726093e+11  -2.168261e+11  -3.927947e+12   1.893968e+05   2.075340e-21   0.000000e+00   0.000000e+00
     4200000   4.199999e-05   1.965154e+00   1.952968e+01   4.148759e-01   1.518049e+05  -6.926637e+04  -8.967538e+04   1.276929e+12  -1.692782e+12   3.467303e+12   1.894313e+05   2.112028e-21   0.000000e+00   0.000000e+00
     4208000   4.207999e-05   1.978414e+00   1.952827e+01   4.174929e-01   1.391223e+05   1.082637e+05   6.943695e+04  -1.390650e+12   3.181950e+12  -2.172492e+12   1.894664e+05   2.146091e-21   0.000000e+00   0.000000e+00
     4216000   4.215999e-05   1.986933e+00   1.953767e+01   4.126635e-01   1.131861e+05   1.829973e+04  -1.508810e+05   1.188087e+12  -3.929134e+12   4.135876e+11   1.895021e+05   2.177896e-21   0.000000e+00   0.000000e+00
     4224000   4.223999e-05   1.999459e+00   1.953375e+01   4.093021e-01   1.705330e+05   1.998370e+03   8.269990e+04  -7.422157e+11   3.830808e+12   1.440025e+12   1.895383e+05   2.214437e-21   0.000000e+00   0.000000e+00
     4232000   4.231999e-05   2.009470e+00   1.954274e+01   4.107416e-01   9.340062e+04   1.191216e+05  -1.141275e+05   1.560549e+11  -2.956777e+12  -2.959986e+12   1.895751e+05   2.244590e-21   0.000000e+00   0.000000e+00
     4240000   4.239999e-05   2.020003e+00   1.954181e+01   4.023278e-01   1.742747e+05  -7.415310e+04   9.082906e+03   4.414448e+11   1.514813e+12   3.916555e+12   1.896124e+05   2.283974e-21   0.000000e+00   0.000000e+00
     4248000   4.247999e-05   2.031987e+00   1.954597e+01   4.069261e-01   1.037491e+05   1.577683e+05  -1.767786e+04  -9.622391e+11   1.700660e+11  -4.139720e+12   1.896503e+05   2.318615e-21   0.000000e+00   0.000000e+00
     4256000   4.255999e-05   2.040811e+00   1.955064e+01   3.978744e-01   1.515857e+05  -7.150288e+04  -8.883091e+04   1.296431e+12  -1.809484e+12   3.666740e+12   1.896887e+05   2.359021e-21   0.000000e+00   0.000000e+00
     4264000   4.263999e-05   2.053868e+00   1.954942e+01   4.008839e-01   1.328372e+05   1.173385e+05   6.769489e+04  -1.433503e+12   3.128909e+12  -2.607767e+12   1.897278e+05   2.391482e-21   0.000000e+00   0.000000e+00
     4272000   4.271999e-05   2.062262e+00   1.955836e+01   3.953787e-01   1.199739e+05  -3.228432e+03  -1.469949e+05   1.353235e+12  -3.960700e+12   1.190179e+12   1.897674e+05   2.429620e-21   0.000000e+00   0.000000e+00
     4280000   4.279999e-05   2.075009e+00   1.955450e+01   3.937860e-01   1.609855e+05   3.312671e+04   9.493794e+04  -1.094620e+12   4.229863e+12   3.822373e+11   1.898076e+05   2.469306e-21   0.000000e+00   0.000000e+00
     4288000   4.287999e-05   2.084231e+00   1.956421e+01   3.933660e-01   9.733773e+04   8.318997e+04  -1.401686e+05   7.050772e+11  -3.945375e+12  -1.853340e+12   1.898484e+05   2.504009e-21   0.000000e+00   0.000000e+00
