     timestep     time              x             y              z              vx             vy             vz             ax             ay             az         v_magnitude      ELoss        Electronic      Nuclear
           0   0.000000e+00   1.000000e-01   7.490211e+00   1.166938e+01   1.376982e+05  -5.174495e+04   9.868749e+03   0.000000e+00   0.000000e+00   0.000000e+00   1.474304e+05   0.000000e+00   0.000000e+00   0.000000e+00
        8000   7.999000e-08   9.847507e-02   7.493119e+00   1.167002e+01  -3.787692e+04  -1.426371e+05   4.303967e+03   8.567942e+12  -2.276405e+12   1.425720e+11   1.476432e+05   6.105885e-21   0.000000e+00   0.000000e+00
       16000   1.599900e-07   1.012236e-01   7.494903e+00   1.167073e+01  -1.459089e+05   2.343348e+04   4.794092e+03  -1.419812e+12  -8.767783e+12  -1.906974e+11   1.478564e+05   6.148009e-21   0.000000e+00   0.000000e+00
       24000   2.399900e-07   1.032756e-01   7.492317e+00   1.167132e+01   8.867989e+03   1.474452e+05   1.029460e+04  -8.877292e+12   5.522818e+11  -1.861273e+11   1.480699e+05   6.182940e-21   0.000000e+00   0.000000e+00
       32000   3.199900e-07   1.009071e-01   7.489995e+00   1.167182e+01   1.478030e+05   5.520876e+03   1.057877e+04  -3.380665e+11   8.898390e+12   1.544148e+11   1.482839e+05   6.214412e-21   0.000000e+00   0.000000e+00
       40000   3.999900e-07   9.835909e-02   7.492103e+00   1.167238e+01   2.038248e+04  -1.470104e+05   4.921505e+03   8.833322e+12   1.226344e+12   2.105063e+11   1.484982e+05   6.252533e-21   0.000000e+00   0.000000e+00
       48000   4.799900e-07   1.002050e-01   7.494831e+00   1.167303e+01  -1.444415e+05  -3.524012e+04   3.209081e+03   2.110991e+12  -8.685301e+12  -1.113732e+11   1.487128e+05   6.296413e-21   0.000000e+00   0.000000e+00
       56000   5.599900e-07   1.031110e-01   7.493244e+00   1.167362e+01  -4.961345e+04   1.401744e+05   8.313634e+03  -8.443007e+12  -2.968309e+12  -2.410770e+11   1.489277e+05   6.334397e-21   0.000000e+00   0.000000e+00
       64000   6.399900e-07   1.018247e-01   7.490170e+00   1.167408e+01   1.346449e+05   6.323044e+04   1.078461e+04  -3.808935e+12   8.112562e+12   6.456270e+10   1.491431e+05   6.366396e-21   0.000000e+00   0.000000e+00
       72000   7.199900e-07   9.863542e-02   7.491123e+00   1.167456e+01   7.670048e+04  -1.280243e+05   5.905289e+03   7.693919e+12   4.614588e+12   2.468184e+11   1.493588e+05   6.402789e-21   0.000000e+00   0.000000e+00
       80000   7.999900e-07   9.926275e-02   7.494377e+00   1.167515e+01  -1.197461e+05  -8.960280e+04   2.205076e+03   5.383441e+12  -7.203837e+12  -1.330364e+10   1.495749e+05   6.447248e-21   0.000000e+00   0.000000e+00
       88000   8.799900e-07   1.025712e-01   7.494062e+00   1.167572e+01  -1.014255e+05   1.100619e+05   6.055113e+03  -6.632960e+12  -6.090925e+12  -2.577988e+11   1.497912e+05   6.488703e-21   0.000000e+00   0.000000e+00
       96000   9.599900e-07   1.025963e-01   7.490716e+00   1.167616e+01   9.931155e+04   1.119501e+05   1.033329e+04  -6.741545e+12   5.991300e+12  -3.871270e+10   1.500080e+05   6.522215e-21   0.000000e+00   0.000000e+00
      104000   1.039990e-06   9.926923e-02   7.490334e+00   1.167657e+01   1.217231e+05  -8.775968e+04   7.021889e+03   5.274261e+12   7.325671e+12   2.441497e+11   1.502251e+05   6.556978e-21   0.000000e+00   0.000000e+00
      112000   1.119990e-06   9.854938e-02   7.493592e+00   1.167708e+01  -7.489387e+04  -1.304623e+05   1.868334e+03   7.843871e+12  -4.507918e+12   8.734232e+10   1.504426e+05   6.601173e-21   0.000000e+00   0.000000e+00
      120000   1.199990e-06   1.017234e-01   7.494624e+00   1.167763e+01  -1.376503e+05   6.112745e+04   3.792929e+03  -3.688119e+12  -8.277278e+12  -2.320365e+11   1.506604e+05   6.645703e-21   0.000000e+00   0.000000e+00
      128000   1.279990e-06   1.030805e-01   7.491551e+00   1.167805e+01   4.675483e+04   1.431579e+05   9.173077e+03  -8.622279e+12   2.830629e+12  -1.384374e+11   1.508786e+05   6.681661e-21   0.000000e+00   0.000000e+00
      136000   1.359990e-06   1.001629e-01   7.489869e+00   1.167840e+01   1.474358e+05  -3.207844e+04   7.999742e+03   1.926090e+12   8.877352e+12   2.028320e+11   1.510971e+05   6.715921e-21   0.000000e+00   0.000000e+00
      144000   1.439990e-06   9.818827e-02   7.492587e+00   1.167883e+01  -1.662393e+04  -1.503842e+05   2.181988e+03   9.044507e+12  -1.002775e+12   1.751255e+11   1.513160e+05   6.758325e-21   0.000000e+00   0.000000e+00
      152000   1.519990e-06   1.006929e-01   7.494818e+00   1.167934e+01  -1.515217e+05   9.052950e+02   1.814436e+03  -6.196768e+10  -9.118252e+12  -1.669924e+11   1.515352e+05   6.805322e-21   0.000000e+00   0.000000e+00
      160000   1.599990e-06   1.031780e-01   7.492538e+00   1.167975e+01  -1.477672e+04   1.508535e+05   7.374028e+03  -9.088437e+12  -8.741165e+11  -2.169267e+11   1.517548e+05   6.844464e-21   0.000000e+00   0.000000e+00
      168000   1.679990e-06   1.011685e-01   7.489814e+00   1.168005e+01   1.487110e+05   3.013009e+04   8.574449e+03  -1.816716e+12   8.959257e+12   1.234261e+11   1.519747e+05   6.878569e-21   0.000000e+00   0.000000e+00
      176000   1.759990e-06   9.824895e-02   7.491520e+00   1.168040e+01   4.559447e+04  -1.451736e+05   3.018250e+03   8.732726e+12   2.741790e+12   2.351352e+11   1.521950e+05   6.919101e-21   0.000000e+00   0.000000e+00
      184000   1.839990e-06   9.964493e-02   7.494591e+00   1.168085e+01  -1.398245e+05  -6.065896e+04   3.696870e+02   3.645974e+12  -8.418625e+12  -7.240942e+10   1.524157e+05   6.967190e-21   0.000000e+00   0.000000e+00
      192000   1.919990e-06   1.028531e-01   7.493507e+00   1.168125e+01  -7.498986e+04   1.328465e+05   5.125181e+03  -8.006407e+12  -4.503135e+12  -2.593362e+11   1.526366e+05   7.010345e-21   0.000000e+00   0.000000e+00
      200000   1.999990e-06   1.021111e-01   7.490187e+00   1.168152e+01   1.244556e+05   8.833952e+04   8.514277e+03  -5.321040e+12   7.504073e+12   2.032517e+10   1.528579e+05   7.045421e-21   0.000000e+00   0.000000e+00
      208000   2.079990e-06   9.873064e-02   7.490568e+00   1.168178e+01   1.011024e+05  -1.148671e+05   4.152233e+03   6.910568e+12   6.084343e+12   2.563204e+11   1.530797e+05   7.083905e-21   0.000000e+00   0.000000e+00
      216000   2.159990e-06   9.875687e-02   7.493963e+00   1.168216e+01  -1.037336e+05  -1.128743e+05  -3.828482e+02   6.791291e+12  -6.248982e+12   3.385084e+10   1.533017e+05   7.132248e-21   0.000000e+00   0.000000e+00
      224000   2.239990e-06   1.021440e-01   7.494280e+00   1.168255e+01  -1.233038e+05   9.142476e+04   2.706287e+03  -5.512739e+12  -7.418028e+12  -2.569474e+11   1.535241e+05   7.179058e-21   0.000000e+00   0.000000e+00
      232000   2.319990e-06   1.028196e-01   7.490930e+00   1.168280e+01   7.808214e+04   1.322194e+05   7.699337e+03  -7.964710e+12   4.715229e+12  -8.913636e+10   1.537468e+05   7.216277e-21   0.000000e+00   0.000000e+00
      240000   2.399990e-06   9.955793e-02   7.489896e+00   1.168299e+01   1.399410e+05  -6.399370e+04   5.294481e+03   3.850149e+12   8.425387e+12   2.335429e+11   1.539699e+05   7.253069e-21   0.000000e+00   0.000000e+00
      248000   2.479990e-06   9.818630e-02   7.493026e+00   1.168328e+01  -4.886297e+04  -1.462458e+05  -4.056212e+02   8.801848e+12  -2.947101e+12   1.353365e+11   1.541933e+05   7.300480e-21   0.000000e+00   0.000000e+00
      256000   2.559990e-06   1.011611e-01   7.494712e+00   1.168363e+01  -1.508037e+05   3.320671e+04   4.377718e+02  -2.005763e+12  -9.080086e+12  -2.092490e+11   1.544171e+05   7.350447e-21   0.000000e+00   0.000000e+00
      264000   2.639990e-06   1.031578e-01   7.491918e+00   1.168387e+01   1.714802e+04   1.535647e+05   6.141317e+03  -9.252533e+12   1.046253e+12  -1.852172e+11   1.546411e+05   7.390834e-21   0.000000e+00   0.000000e+00
      272000   2.719990e-06   1.005906e-01   7.489627e+00   1.168401e+01   1.547405e+05  -9.861339e+02   6.144771e+03   5.824403e+10   9.321121e+12   1.706035e+11   1.548656e+05   7.427473e-21   0.000000e+00   0.000000e+00
      280000   2.799990e-06   9.804042e-02   7.491934e+00   1.168421e+01   1.554090e+04  -1.543097e+05   2.164246e+02   9.288492e+12   9.301172e+11   2.145031e+11   1.550905e+05   7.472324e-21   0.000000e+00   0.000000e+00
      288000   2.879990e-06   1.000692e-01   7.494711e+00   1.168451e+01  -1.520055e+05  -3.186470e+04  -1.379868e+03   1.915030e+12  -9.157441e+12  -1.242070e+11   1.553156e+05   7.524485e-21   0.000000e+00   0.000000e+00
      296000   2.959990e-06   1.030529e-01   7.492976e+00   1.168474e+01  -4.783710e+04   1.479483e+05   3.990806e+03  -8.916300e+12  -2.870296e+12  -2.496857e+11   1.555411e+05   7.568742e-21   0.000000e+00   0.000000e+00
      304000   3.039990e-06   1.016466e-01   7.489816e+00   1.168483e+01   1.422269e+05   6.319433e+04   6.426337e+03  -3.805959e+12   8.572292e+12   7.304761e+10   1.557669e+05   7.605733e-21   0.000000e+00   0.000000e+00
      312000   3.119990e-06   9.835360e-02   7.490876e+00   1.168495e+01   7.816307e+04  -1.349916e+05   1.280942e+03   8.126574e+12   4.701367e+12   2.571542e+11   1.559931e+05   7.648252e-21   0.000000e+00   0.000000e+00
      320000   3.199990e-06   9.906008e-02   7.494262e+00   1.168518e+01  -1.260550e+05  -9.224080e+04  -2.520206e+03   5.552842e+12  -7.597580e+12  -1.670640e+10   1.562196e+05   7.700689e-21   0.000000e+00   0.000000e+00
      328000   3.279990e-06   1.025112e-01   7.493913e+00   1.168540e+01  -1.052546e+05   1.157353e+05   1.514779e+03  -6.976693e+12  -6.333688e+12  -2.697951e+11   1.564465e+05   7.749668e-21   0.000000e+00   0.000000e+00
      336000   3.359990e-06   1.025343e-01   7.490435e+00   1.168546e+01   1.040230e+05   1.170061e+05   5.951071e+03  -7.047548e+12   6.275195e+12  -4.018400e+10   1.566736e+05   7.788368e-21   0.000000e+00   0.000000e+00
      344000   3.439990e-06   9.907787e-02   7.490039e+00   1.168550e+01   1.276668e+05  -9.117531e+04   2.499268e+03   5.489774e+12   7.684166e+12   2.548621e+11   1.569012e+05   7.828678e-21   0.000000e+00   0.000000e+00
      352000   3.519990e-06   9.831655e-02   7.493435e+00   1.168565e+01  -7.707110e+04  -1.368987e+05  -2.892024e+03   8.243445e+12  -4.649400e+12   9.320615e+10   1.571291e+05   7.880562e-21   0.000000e+00   0.000000e+00
      360000   3.599990e-06   1.016207e-01   7.494551e+00   1.168584e+01  -1.445361e+05   6.220710e+04  -9.525976e+02  -3.751444e+12  -8.705594e+12  -2.411865e+11   1.573573e+05   7.933362e-21   0.000000e+00   0.000000e+00
      368000   3.679990e-06   1.030886e-01   7.491377e+00   1.168589e+01   4.652833e+04   1.504879e+05   4.671033e+03  -9.065925e+12   2.813632e+12  -1.485334e+11   1.575858e+05   7.975063e-21   0.000000e+00   0.000000e+00
      376000   3.759990e-06   1.000891e-01   7.489576e+00   1.168586e+01   1.548325e+05  -3.032866e+04   3.545386e+03   1.827382e+12   9.323691e+12   2.087608e+11   1.578148e+05   8.014629e-21   0.000000e+00   0.000000e+00
      384000   3.839990e-06   9.797790e-02   7.492370e+00   1.168592e+01  -1.352597e+04  -1.574438e+05  -2.531963e+03   9.481250e+12  -8.233004e+11   1.873783e+11   1.580440e+05   8.064008e-21   0.000000e+00   0.000000e+00
      392000   3.919990e-06   1.005366e-01   7.494769e+00   1.168606e+01  -1.582097e+05  -3.281028e+03  -3.075106e+03   1.952580e+11  -9.534248e+12  -1.688615e+11   1.582736e+05   8.119715e-21   0.000000e+00   0.000000e+00
      400000   3.999990e-06   1.032030e-01   7.492475e+00   1.168610e+01  -2.013987e+04   1.571958e+05   2.688572e+03  -9.471692e+12  -1.203748e+12  -2.314901e+11   1.585035e+05   8.165425e-21   0.000000e+00   0.000000e+00
      408000   4.079990e-06   1.012084e-01   7.489576e+00   1.168602e+01   1.543590e+05   3.677932e+04   4.120302e+03  -2.213053e+12   9.299244e+12   1.210195e+11   1.587337e+05   8.204665e-21   0.000000e+00   0.000000e+00
      416000   4.159990e-06   9.811228e-02   7.491254e+00   1.168599e+01   5.325048e+04  -1.497714e+05  -1.608395e+03   9.019645e+12   3.198096e+12   2.491519e+11   1.589643e+05   8.251553e-21   0.000000e+00   0.000000e+00
      424000   4.239990e-06   9.945398e-02   7.494517e+00   1.168606e+01  -1.434036e+05  -6.897540e+04  -4.577070e+03   4.154033e+12  -8.645450e+12  -6.549295e+10   1.591953e+05   8.308070e-21   0.000000e+00   0.000000e+00
      432000   4.319990e-06   1.028511e-01   7.493530e+00   1.168610e+01  -8.397362e+04   1.355182e+05   2.416984e+02  -8.166528e+12  -5.053078e+12  -2.729828e+11   1.594265e+05   8.359041e-21   0.000000e+00   0.000000e+00
      440000   4.399990e-06   1.022347e-01   7.490044e+00   1.168598e+01   1.259545e+05   9.803235e+04   3.975770e+03  -5.902117e+12   7.592254e+12   9.199326e+09   1.596580e+05   8.399424e-21   0.000000e+00   0.000000e+00
      448000   4.479990e-06   9.870237e-02   7.490289e+00   1.168586e+01   1.111620e+05  -1.149246e+05  -3.934235e+02   6.922062e+12   6.686460e+12   2.672282e+11   1.598900e+05   8.443684e-21   0.000000e+00   0.000000e+00
      456000   4.559990e-06   9.857110e-02   7.493836e+00   1.168586e+01  -1.024776e+05  -1.229200e+05  -5.307303e+03   7.404070e+12  -6.182373e+12   4.808537e+10   1.601223e+05   8.500139e-21   0.000000e+00   0.000000e+00
      464000   4.639990e-06   1.020931e-01   7.494348e+00   1.168587e+01  -1.333199e+05   8.907291e+04  -2.341171e+03  -5.367899e+12  -8.030885e+12  -2.649327e+11   1.603548e+05   8.555566e-21   0.000000e+00   0.000000e+00
      472000   4.719990e-06   1.029824e-01   7.490898e+00   1.168573e+01   7.447633e+04   1.422415e+05   3.006382e+03  -8.565753e+12   4.493779e+12  -1.065349e+11   1.605877e+05   8.598612e-21   0.000000e+00   0.000000e+00
      480000   4.799990e-06   9.964758e-02   7.489651e+00   1.168554e+01   1.496202e+05  -5.896248e+04   7.833907e+02   3.553498e+12   9.004429e+12   2.376251e+11   1.608210e+05   8.640757e-21   0.000000e+00   0.000000e+00
      488000   4.879990e-06   9.805217e-02   7.492844e+00   1.168544e+01  -4.263120e+04  -1.552210e+05  -5.254338e+03   9.349398e+12  -2.579053e+12   1.534415e+11   1.610546e+05   8.695713e-21   0.000000e+00   0.000000e+00
      496000   4.959990e-06   1.010655e-01   7.494778e+00   1.168541e+01  -1.590959e+05   2.608275e+04  -4.706497e+03  -1.571711e+12  -9.588387e+12  -2.089246e+11   1.612884e+05   8.754797e-21   0.000000e+00   0.000000e+00
      504000   5.039990e-06   1.033165e-01   7.491988e+00   1.168527e+01   9.066595e+03   1.612630e+05   1.259412e+03  -9.712621e+12   5.535361e+11  -2.046020e+11   1.615226e+05   8.801815e-21   0.000000e+00   0.000000e+00
      512000   5.119990e-06   1.007824e-01   7.489457e+00   1.168501e+01   1.615439e+05   8.148496e+03   1.602031e+03  -4.863658e+11   9.725927e+12   1.662385e+11   1.617572e+05   8.843676e-21   0.000000e+00   0.000000e+00
      520000   5.199990e-06   9.799619e-02   7.491720e+00   1.168482e+01   2.543327e+04  -1.599186e+05  -4.542244e+03   9.631892e+12   1.519300e+12   2.322377e+11   1.619921e+05   8.895355e-21   0.000000e+00   0.000000e+00
      528000   5.279990e-06   9.995564e-02   7.494742e+00   1.168474e+01  -1.565170e+05  -4.215789e+04  -6.544975e+03   2.540296e+12  -9.436073e+12  -1.145393e+11   1.622273e+05   8.955915e-21   0.000000e+00   0.000000e+00
      536000   5.359990e-06   1.031784e-01   7.493118e+00   1.168458e+01  -5.854959e+04   1.515419e+05  -1.071176e+03  -9.127588e+12  -3.522088e+12  -2.664940e+11   1.624628e+05   9.008568e-21   0.000000e+00   0.000000e+00
      544000   5.439990e-06   1.019072e-01   7.489746e+00   1.168428e+01   1.446843e+05   7.439160e+04   1.782702e+03  -4.474570e+12   8.714034e+12   6.104175e+10   1.626986e+05   9.050862e-21   0.000000e+00   0.000000e+00
      552000   5.519990e-06   9.841855e-02   7.490664e+00   1.168400e+01   8.952461e+04  -1.360936e+05  -3.411384e+03   8.197310e+12   5.378468e+12   2.708165e+11   1.629349e+05   9.099611e-21   0.000000e+00   0.000000e+00
      560000   5.599990e-06   9.896651e-02   7.494246e+00   1.168384e+01  -1.259856e+05  -1.034120e+05  -7.647352e+03   6.230114e+12  -7.599252e+12  -2.228155e+09   1.631714e+05   9.160754e-21   0.000000e+00   0.000000e+00
      568000   5.679990e-06   1.025961e-01   7.494087e+00   1.168366e+01  -1.162657e+05   1.147648e+05  -3.682571e+03  -6.911772e+12  -7.002732e+12  -2.807350e+11   1.634082e+05   9.218439e-21   0.000000e+00   0.000000e+00
      576000   5.759990e-06   1.028260e-01   7.490466e+00   1.168334e+01   1.020196e+05   1.279469e+05   1.161924e+03  -7.699452e+12   6.147330e+12  -5.698539e+10   1.636453e+05   9.262842e-21   0.000000e+00   0.000000e+00
      584000   5.839990e-06   9.924887e-02   7.489868e+00   1.168297e+01   1.382405e+05  -8.799088e+04  -2.175465e+03   5.302004e+12   8.312318e+12   2.623076e+11   1.638828e+05   9.308912e-21   0.000000e+00   0.000000e+00
      592000   5.919990e-06   9.827875e-02   7.493380e+00   1.168272e+01  -7.295801e+04  -1.467973e+05  -7.953887e+03   8.842154e+12  -4.407163e+12   1.102897e+11   1.641206e+05   9.368994e-21   0.000000e+00   0.000000e+00
      600000   5.999990e-06   1.016787e-01   7.494727e+00   1.168251e+01  -1.538485e+05   5.749497e+04  -6.224224e+03  -3.460969e+12  -9.270568e+12  -2.451701e+11   1.643587e+05   9.431122e-21   0.000000e+00   0.000000e+00
      608000   6.079990e-06   1.033819e-01   7.491493e+00   1.168217e+01   4.114269e+04   1.593719e+05  -2.728596e+02  -9.592074e+12   2.482121e+12  -1.664991e+11   1.645970e+05   9.479218e-21   0.000000e+00   0.000000e+00
      616000   6.159990e-06   1.003453e-01   7.489473e+00   1.168174e+01   1.630519e+05  -2.415712e+04  -1.162252e+03   1.460662e+12   9.808125e+12   2.097863e+11   1.648358e+05   9.524199e-21   0.000000e+00   0.000000e+00
      624000   6.239990e-06   9.801786e-02   7.492300e+00   1.168139e+01  -6.850893e+03  -1.647605e+05  -7.534998e+03   9.922426e+12  -4.278973e+11   2.038858e+11   1.650749e+05   9.581213e-21   0.000000e+00   0.000000e+00
      632000   6.319990e-06   1.005945e-01   7.494928e+00   1.168114e+01  -1.647919e+05  -1.012045e+04  -8.367061e+03   6.124785e+11  -9.932840e+12  -1.670001e+11   1.653143e+05   9.646520e-21   0.000000e+00   0.000000e+00
      640000   6.399990e-06   1.034860e-01   7.492648e+00   1.168078e+01  -2.721196e+04   1.632847e+05  -2.385690e+03  -9.827749e+12  -1.635363e+12  -2.476341e+11   1.655539e+05   9.699505e-21   0.000000e+00   0.000000e+00
      648000   6.479990e-06   1.015217e-01   7.489547e+00   1.168030e+01   1.597901e+05   4.420737e+04  -6.627142e+02  -2.653171e+12   9.614303e+12   1.172570e+11   1.657939e+05   9.744054e-21   0.000000e+00   0.000000e+00
      656000   6.559990e-06   9.823272e-02   7.491199e+00   1.167985e+01   6.077117e+04  -1.543726e+05  -6.583888e+03   9.296065e+12   3.641855e+12   2.631607e+11   1.660343e+05   9.798001e-21   0.000000e+00   0.000000e+00
      664000   6.639990e-06   9.953911e-02   7.494663e+00   1.167953e+01  -1.474117e+05  -7.628814e+04  -9.862036e+03   4.596884e+12  -8.887889e+12  -6.035347e+10   1.662749e+05   9.863895e-21   0.000000e+00   0.000000e+00
      672000   6.719990e-06   1.031308e-01   7.493735e+00   1.167916e+01  -9.119134e+04   1.392388e+05  -4.919852e+03  -8.379211e+12  -5.490672e+12  -2.860679e+11   1.665158e+05   9.923209e-21   0.000000e+00   0.000000e+00
      680000   6.799990e-06   1.025827e-01   7.490079e+00   1.167864e+01   1.292749e+05   1.053333e+05  -8.923337e+02  -6.331295e+12   7.779938e+12   3.147093e+09   1.667570e+05   9.969045e-21   0.000000e+00   0.000000e+00
      688000   6.879990e-06   9.888910e-02   7.490268e+00   1.167811e+01   1.183405e+05  -1.177078e+05  -5.379387e+03   7.089318e+12   7.106127e+12   2.786299e+11   1.669986e+05   1.001986e-20   0.000000e+00   0.000000e+00
      696000   6.959990e-06   9.869945e-02   7.493986e+00   1.167770e+01  -1.049919e+05  -1.297458e+05  -1.058938e+04   7.814009e+12  -6.335414e+12   5.418778e+10   1.672405e+05   1.008539e-20   0.000000e+00   0.000000e+00
      704000   7.039990e-06   1.023896e-01   7.494574e+00   1.167730e+01  -1.399818e+05   9.164348e+04  -7.550477e+03  -5.512341e+12  -8.431522e+12  -2.757724e+11   1.674827e+05   1.014993e-20   0.000000e+00   0.000000e+00
      712000   7.119990e-06   1.033585e-01   7.490976e+00   1.167676e+01   7.699744e+04   1.489946e+05  -1.925278e+03  -8.958365e+12   4.634874e+12  -1.128574e+11   1.677251e+05   1.019884e-20   0.000000e+00   0.000000e+00
      720000   7.199990e-06   9.987888e-02   7.489666e+00   1.167615e+01   1.563316e+05  -6.128393e+04  -4.236947e+03   3.695184e+12   9.392411e+12   2.479849e+11   1.679679e+05   1.024711e-20   0.000000e+00   0.000000e+00
      728000   7.279990e-06   9.822116e-02   7.493020e+00   1.167565e+01  -4.500132e+04  -1.617352e+05  -1.056263e+04   9.737200e+12  -2.726013e+12   1.593081e+11   1.682111e+05   1.031071e-20   0.000000e+00   0.000000e+00
      736000   7.359990e-06   1.014000e-01   7.495034e+00   1.167521e+01  -1.656770e+05   2.879354e+04  -9.948318e+03  -1.727637e+12  -9.981036e+12  -2.197499e+11   1.684545e+05   1.037944e-20   0.000000e+00   0.000000e+00
      744000   7.439990e-06   1.037336e-01   7.492090e+00   1.167465e+01   1.196595e+04   1.682326e+05  -3.695242e+03  -1.011540e+13   7.209666e+11  -2.108663e+11   1.686981e+05   1.043296e-20   0.000000e+00   0.000000e+00
      752000   7.519990e-06   1.010422e-01   7.489491e+00   1.167398e+01   1.688247e+05   5.272926e+03  -3.443441e+03  -3.071394e+11   1.014539e+13   1.779084e+11   1.689421e+05   1.048039e-20   0.000000e+00   0.000000e+00
      760000   7.599990e-06   9.818514e-02   7.491935e+00   1.167338e+01   2.240303e+04  -1.674034e+05  -9.913381e+03   1.007599e+13   1.328129e+12   2.386488e+11   1.691865e+05   1.054046e-20   0.000000e+00   0.000000e+00
      768000   7.679990e-06   1.003370e-01   7.495051e+00   1.167288e+01  -1.645134e+05  -3.875671e+04  -1.183967e+04   2.338231e+12  -9.912696e+12  -1.287404e+11   1.694311e+05   1.061178e-20   0.000000e+00   0.000000e+00
      776000   7.759990e-06   1.036639e-01   7.493241e+00   1.167231e+01  -5.501562e+04   1.603966e+05  -6.011761e+03  -9.642769e+12  -3.311252e+12  -2.746179e+11   1.696760e+05   1.067092e-20   0.000000e+00   0.000000e+00
      784000   7.839990e-06   1.021974e-01   7.489770e+00   1.167159e+01   1.543289e+05   7.102998e+04  -3.249209e+03  -4.260523e+12   9.275106e+12   7.600350e+10   1.699212e+05   1.071851e-20   0.000000e+00   0.000000e+00
      792000   7.919990e-06   9.859726e-02   7.490912e+00   1.167090e+01   8.625762e+04  -1.464163e+05  -8.866293e+03   8.812156e+12   5.167343e+12   2.805858e+11   1.701668e+05   1.077520e-20   0.000000e+00   0.000000e+00
      800000   7.999990e-06   9.938153e-02   7.494640e+00   1.167033e+01  -1.372829e+05  -1.001179e+05  -1.304835e+04   6.028853e+12  -8.274883e+12  -1.860882e+10   1.704126e+05   1.084639e-20   0.000000e+00   0.000000e+00
      808000   8.079990e-06   1.031803e-01   7.494251e+00   1.166974e+01  -1.132768e+05   1.273530e+05  -8.600299e+03  -7.653112e+12  -6.818854e+12  -2.944553e+11   1.706587e+05   1.091223e-20   0.000000e+00   0.000000e+00
      816000   8.159990e-06   1.031727e-01   7.490453e+00   1.166898e+01   1.157743e+05   1.256603e+05  -3.787702e+03  -7.544147e+12   6.957846e+12  -3.883303e+10   1.709051e+05   1.096183e-20   0.000000e+00   0.000000e+00
      824000   8.239990e-06   9.939205e-02   7.490116e+00   1.166820e+01   1.366742e+05  -1.027319e+05  -7.698200e+03   6.185247e+12   8.197611e+12   2.795532e+11   1.711518e+05   1.101533e-20   0.000000e+00   0.000000e+00
      832000   8.319990e-06   9.868949e-02   7.493880e+00   1.166754e+01  -8.890901e+04  -1.459104e+05  -1.352472e+04   8.780548e+12  -5.366141e+12   9.219201e+10   1.713989e+05   1.108544e-20   0.000000e+00   0.000000e+00
      840000   8.399990e-06   1.023789e-01   7.494975e+00   1.166692e+01  -1.540446e+05   7.488783e+04  -1.115616e+04  -4.495551e+12  -9.273208e+12  -2.687038e+11   1.716461e+05   1.115655e-20   0.000000e+00   0.000000e+00
      848000   8.479990e-06   1.038341e-01   7.491431e+00   1.166615e+01   5.973897e+04   1.610994e+05  -5.068467e+03  -9.673318e+12   3.589010e+12  -1.483020e+11   1.718937e+05   1.120996e-20   0.000000e+00   0.000000e+00
      856000   8.559990e-06   1.004483e-01   7.489668e+00   1.166529e+01   1.663803e+05  -4.365351e+04  -6.686548e+03   2.635192e+12   9.982759e+12   2.385303e+11   1.721416e+05   1.126139e-20   0.000000e+00   0.000000e+00
      864000   8.639990e-06   9.836838e-02   7.492905e+00   1.166454e+01  -2.734475e+04  -1.696846e+05  -1.332921e+04   1.020659e+13  -1.665903e+12   1.884234e+11   1.723898e+05   1.132869e-20   0.000000e+00   0.000000e+00
      872000   8.719990e-06   1.014004e-01   7.495319e+00   1.166387e+01  -1.717339e+05   1.148521e+04  -1.339930e+04  -6.817927e+11  -1.033820e+13  -2.032416e+11   1.726383e+05   1.140376e-20   0.000000e+00   0.000000e+00
      880000   8.799990e-06   1.041039e-01   7.492556e+00   1.166308e+01  -4.877299e+03   1.726770e+05  -6.983481e+03  -1.036743e+13  -2.961266e+11  -2.356256e+11   1.728870e+05   1.146244e-20   0.000000e+00   0.000000e+00
      888000   8.879990e-06   1.016126e-01   7.489631e+00   1.166216e+01   1.716766e+05   2.159312e+04  -6.078614e+03  -1.283726e+12   1.030118e+13   1.597187e+11   1.731360e+05   1.151268e-20   0.000000e+00   0.000000e+00
      896000   8.959990e-06   9.846394e-02   7.491871e+00   1.166131e+01   3.793523e+04  -1.687136e+05  -1.261498e+04   1.014506e+13   2.255485e+12   2.571116e+11   1.733854e+05   1.157672e-20   0.000000e+00   0.000000e+00
      904000   9.039990e-06   1.004046e-01   7.495255e+00   1.166058e+01  -1.645792e+05  -5.323782e+04  -1.511785e+04   3.208640e+12  -9.908428e+12  -1.096192e+11   1.736350e+05   1.165399e-20   0.000000e+00   0.000000e+00
      912000   9.119990e-06   1.039684e-01   7.493669e+00   1.165978e+01  -6.844075e+04   1.595767e+05  -9.332838e+03  -9.577798e+12  -4.117868e+12  -2.884253e+11   1.738849e+05   1.171877e-20   0.000000e+00   0.000000e+00
      920000   9.199990e-06   1.027260e-01   7.490001e+00   1.165882e+01   1.527121e+05   8.345848e+04  -6.060050e+03  -4.997893e+12   9.162375e+12   5.776201e+10   1.741351e+05   1.176950e-20   0.000000e+00   0.000000e+00
      928000   9.279990e-06   9.895840e-02   7.490934e+00   1.165787e+01   9.753997e+04  -1.440895e+05  -1.159832e+04   8.663655e+12   5.833860e+12   2.899634e+11   1.743856e+05   1.183000e-20   0.000000e+00   0.000000e+00
      936000   9.359990e-06   9.954372e-02   7.494814e+00   1.165706e+01  -1.345694e+05  -1.101213e+05  -1.619423e+04   6.624518e+12  -8.104777e+12  -2.752990e+09   1.746364e+05   1.190695e-20   0.000000e+00   0.000000e+00
      944000   9.439990e-06   1.034741e-01   7.494622e+00   1.165623e+01  -1.221287e+05   1.246170e+05  -1.186504e+04  -7.474713e+12  -7.345254e+12  -3.005318e+11   1.748874e+05   1.197854e-20   0.000000e+00   0.000000e+00
      952000   9.519990e-06   1.036490e-01   7.490720e+00   1.165524e+01   1.131061e+05   1.335497e+05  -6.711544e+03  -8.003641e+12   6.784069e+12  -5.239247e+10   1.751387e+05   1.203159e-20   0.000000e+00   0.000000e+00
      960000   9.599990e-06   9.977927e-02   7.490227e+00   1.165421e+01   1.435721e+05  -1.001903e+05  -1.052205e+04   6.026941e+12   8.595738e+12   2.839707e+11   1.753903e+05   1.208886e-20   0.000000e+00   0.000000e+00
      968000   9.679990e-06   9.894053e-02   7.494081e+00   1.165331e+01  -8.677948e+04  -1.518007e+05  -1.661519e+04   9.124273e+12  -5.234513e+12   1.021089e+11   1.756422e+05   1.216446e-20   0.000000e+00   0.000000e+00
      976000   9.759990e-06   1.027154e-01   7.495303e+00   1.165245e+01  -1.591705e+05   7.347411e+04  -1.432209e+04  -4.400538e+12  -9.571081e+12  -2.723895e+11   1.758944e+05   1.224147e-20   0.000000e+00   0.000000e+00
      984000   9.839990e-06   1.042795e-01   7.491683e+00   1.165144e+01   5.906561e+04   1.657550e+05  -8.013673e+03  -9.934426e+12   3.539260e+12  -1.553979e+11   1.761468e+05   1.229860e-20   0.000000e+00   0.000000e+00
      992000   9.919990e-06   1.008156e-01   7.489840e+00   1.165033e+01   1.706314e+05  -4.369623e+04  -9.609388e+03   2.636888e+12   1.021794e+13   2.431351e+11   1.763995e+05   1.235336e-20   0.000000e+00   0.000000e+00
     1000000   9.999990e-06   9.867328e-02   7.493173e+00   1.164934e+01  -2.829826e+04  -1.735934e+05  -1.645243e+04   1.042810e+13  -1.724619e+12   1.925435e+11   1.766526e+05   1.242642e-20   0.000000e+00   0.000000e+00
     1008000   1.007999e-05   1.018151e-01   7.495645e+00   1.164843e+01  -1.756146e+05   1.354969e+04  -1.647986e+04  -8.013006e+11  -1.055830e+13  -2.101482e+11   1.769058e+05   1.250749e-20   0.000000e+00   0.000000e+00
     1016000   1.015999e-05   1.045642e-01   7.492765e+00   1.164740e+01  -1.789166e+03   1.768757e+05  -9.858614e+03  -1.059876e+13  -1.141177e+11  -2.379403e+11   1.771593e+05   1.257011e-20   0.000000e+00   0.000000e+00
     1024000   1.023999e-05   1.019380e-01   7.489814e+00   1.164624e+01   1.763028e+05   1.762304e+04  -9.064796e+03  -1.040136e+12   1.055687e+13   1.698451e+11   1.774131e+05   1.262355e-20   0.000000e+00   0.000000e+00
     1032000   1.031999e-05   9.876982e-02   7.492221e+00   1.164515e+01   3.301071e+04  -1.738532e+05  -1.584385e+04   1.043931e+13   1.952129e+12   2.585712e+11   1.776673e+05   1.269334e-20   0.000000e+00   0.000000e+00
     1040000   1.039999e-05   1.009042e-01   7.495633e+00   1.164418e+01  -1.705599e+05  -4.727643e+04  -1.817647e+04   2.848781e+12  -1.025392e+13  -1.238751e+11   1.779216e+05   1.277674e-20   0.000000e+00   0.000000e+00
     1048000   1.047999e-05   1.044998e-01   7.493836e+00   1.164313e+01  -6.165559e+04   1.667320e+05  -1.207516e+04  -9.986620e+12  -3.707176e+12  -2.906255e+11   1.781762e+05   1.284571e-20   0.000000e+00   0.000000e+00
     1056000   1.055999e-05   1.030190e-01   7.490139e+00   1.164192e+01   1.611304e+05   7.611334e+04  -9.023447e+03  -4.545137e+12   9.645980e+12   7.657577e+10   1.784311e+05   1.289938e-20   0.000000e+00   0.000000e+00
     1064000   1.063999e-05   9.920995e-02   7.491350e+00   1.164074e+01   8.968861e+04  -1.538204e+05  -1.496789e+04   9.234467e+12   5.348345e+12   2.940968e+11   1.786864e+05   1.296562e-20   0.000000e+00   0.000000e+00
     1072000   1.071999e-05   1.001030e-01   7.495299e+00   1.163969e+01  -1.458970e+05  -1.017878e+05  -1.932580e+04   6.116268e+12  -8.773128e+12  -2.545158e+10   1.789418e+05   1.304956e-20   0.000000e+00   0.000000e+00
     1080000   1.079999e-05   1.041273e-01   7.494780e+00   1.163862e+01  -1.136314e+05   1.378061e+05  -1.446084e+04  -8.248088e+12  -6.825265e+12  -3.089657e+11   1.791975e+05   1.312502e-20   0.000000e+00   0.000000e+00
     1088000   1.087999e-05   1.039496e-01   7.490765e+00   1.163738e+01   1.281616e+05   1.252480e+05  -9.543145e+03  -7.487245e+12   7.668695e+12  -2.482773e+10   1.794534e+05   1.318063e-20   0.000000e+00   0.000000e+00
     1096000   1.095999e-05   9.993443e-02   7.490661e+00   1.163611e+01   1.356221e+05  -1.170717e+05  -1.401583e+04   7.029762e+12   8.098260e+12   2.970708e+11   1.797097e+05   1.324355e-20   0.000000e+00   0.000000e+00
     1104000   1.103999e-05   9.950631e-02   7.494709e+00   1.163498e+01  -1.056800e+05  -1.443010e+05  -1.992011e+04   8.660905e+12  -6.360877e+12   7.235522e+10   1.799663e+05   1.332636e-20   0.000000e+00   0.000000e+00
     1112000   1.111999e-05   1.035208e-01   7.495510e+00   1.163388e+01  -1.525024e+05   9.455485e+04  -1.681447e+04  -5.651854e+12  -9.155486e+12  -2.933707e+11   1.802230e+05   1.340782e-20   0.000000e+00   0.000000e+00
     1120000   1.119999e-05   1.046513e-01   7.491613e+00   1.163261e+01   8.220463e+04   1.603212e+05  -1.060863e+04  -9.585003e+12   4.913835e+12  -1.225659e+11   1.804800e+05   1.346704e-20   0.000000e+00   0.000000e+00
     1128000   1.127999e-05   1.008582e-01   7.490224e+00   1.163127e+01   1.666414e+05  -6.872794e+04  -1.315614e+04   4.133184e+12   9.952771e+12   2.708981e+11   1.807373e+05   1.352657e-20   0.000000e+00   0.000000e+00
     1136000   1.135999e-05   9.917511e-02   7.493952e+00   1.163005e+01  -5.529170e+04  -1.711766e+05  -2.001350e+04   1.026587e+13  -3.341582e+12   1.607773e+11   1.809949e+05   1.360786e-20   0.000000e+00   0.000000e+00
     1144000   1.143999e-05   1.027728e-01   7.495975e+00   1.162890e+01  -1.751631e+05   4.255371e+04  -1.896301e+04  -2.533580e+12  -1.051210e+13  -2.483129e+11   1.812527e+05   1.369403e-20   0.000000e+00   0.000000e+00
     1152000   1.151999e-05   1.050810e-01   7.492588e+00   1.162761e+01   2.896318e+04   1.787731e+05  -1.214282e+04  -1.068579e+13   1.723746e+12  -2.064660e+11   1.815107e+05   1.375830e-20   0.000000e+00   0.000000e+00
     1160000   1.159999e-05   1.018847e-01   7.490074e+00   1.162620e+01   1.807485e+05  -1.457686e+04  -1.254943e+04   8.920343e+11   1.079415e+13   2.163765e+11   1.817691e+05   1.381589e-20   0.000000e+00   0.000000e+00
     1168000   1.167999e-05   9.913413e-02   7.493126e+00   1.162489e+01  -5.693366e+02  -1.809572e+05  -1.970447e+04   1.084571e+13  -6.587618e+10   2.318780e+11   1.820277e+05   1.389435e-20   0.000000e+00   0.000000e+00
     1176000   1.175999e-05   1.019806e-01   7.496158e+00   1.162369e+01  -1.806756e+05  -1.236661e+04  -2.077912e+04   7.562334e+11  -1.083992e+13  -1.809964e+11   1.822866e+05   1.398375e-20   0.000000e+00   0.000000e+00
     1184000   1.183999e-05   1.052313e-01   7.493593e+00   1.162238e+01  -2.580104e+04   1.801680e+05  -1.402534e+04  -1.076442e+13  -1.555905e+12  -2.691262e+11   1.825456e+05   1.405408e-20   0.000000e+00   0.000000e+00
     1192000   1.191999e-05   1.029198e-01   7.490209e+00   1.162092e+01   1.780107e+05   3.973091e+04  -1.230028e+04  -2.355434e+12   1.062731e+13   1.426749e+11   1.828050e+05   1.411095e-20   0.000000e+00   0.000000e+00
     1200000   1.199999e-05   9.937472e-02   7.492323e+00   1.161952e+01   5.297307e+04  -1.741866e+05  -1.911882e+04   1.043503e+13   3.135828e+12   2.807670e+11   1.830646e+05   1.418618e-20   0.000000e+00   0.000000e+00
     1208000   1.207999e-05   1.012330e-01   7.496075e+00   1.161826e+01  -1.700252e+05  -6.486122e+04  -2.218864e+04   3.896930e+12  -1.019950e+13  -9.989946e+10   1.833245e+05   1.427724e-20   0.000000e+00   0.000000e+00
     1216000   1.215999e-05   1.051249e-01   7.494542e+00   1.161693e+01  -7.696085e+04   1.658935e+05  -1.611426e+04  -9.905115e+12  -4.617718e+12  -3.064692e+11   1.835846e+05   1.435412e-20   0.000000e+00   0.000000e+00
     1224000   1.223999e-05   1.038819e-01   7.490600e+00   1.161542e+01   1.602040e+05   8.932148e+04  -1.246216e+04  -5.317918e+12   9.559519e+12   5.793270e+10   1.838449e+05   1.441165e-20   0.000000e+00   0.000000e+00
     1232000   1.231999e-05   9.986159e-02   7.491619e+00   1.161394e+01   1.007321e+05  -1.530023e+05  -1.839064e+04   9.163534e+12   5.988452e+12   3.053453e+11   1.841056e+05   1.448362e-20   0.000000e+00   0.000000e+00
     1240000   1.239999e-05   1.006025e-01   7.495766e+00   1.161260e+01  -1.456716e+05  -1.106073e+05  -2.316907e+04   6.629908e+12  -8.739752e+12  -1.348048e+10   1.843665e+05   1.457484e-20   0.000000e+00   0.000000e+00
     1248000   1.247999e-05   1.048072e-01   7.495370e+00   1.161124e+01  -1.205020e+05   1.386829e+05  -1.826673e+04  -8.272685e+12  -7.221304e+12  -3.176988e+11   1.846276e+05   1.465820e-20   0.000000e+00   0.000000e+00
     1256000   1.255999e-05   1.047093e-01   7.491198e+00   1.160970e+01   1.303078e+05   1.305133e+05  -1.304003e+04  -7.775791e+12   7.769842e+12  -2.967757e+10   1.848889e+05   1.471784e-20   0.000000e+00   0.000000e+00
     1264000   1.263999e-05   1.005416e-01   7.491071e+00   1.160814e+01   1.393682e+05  -1.206073e+05  -1.763856e+04   7.223877e+12   8.292542e+12   3.076586e+11   1.851506e+05   1.478532e-20   0.000000e+00   0.000000e+00
     1272000   1.271999e-05   1.001393e-01   7.495288e+00   1.160672e+01  -1.110027e+05  -1.466033e+05  -2.374154e+04   8.776409e+12  -6.664922e+12   7.078379e+10   1.854125e+05   1.487695e-20   0.000000e+00   0.000000e+00
     1280000   1.279999e-05   1.043367e-01   7.496030e+00   1.160533e+01  -1.537658e+05   1.020625e+05  -2.035579e+04  -6.079331e+12  -9.207871e+12  -3.047820e+11   1.856745e+05   1.496625e-20   0.000000e+00   0.000000e+00
     1288000   1.287999e-05   1.053632e-01   7.491942e+00   1.160377e+01   9.195284e+04   1.610008e+05  -1.399798e+04  -9.591931e+12   5.476032e+12  -1.128755e+11   1.859368e+05   1.502935e-20   0.000000e+00   0.000000e+00
     1296000   1.295999e-05   1.013527e-01   7.490712e+00   1.160213e+01   1.669352e+05  -8.071342e+04  -1.697699e+04   4.839502e+12   9.933898e+12   2.864304e+11   1.861995e+05   1.509413e-20   0.000000e+00   0.000000e+00
     1304000   1.303999e-05   9.987049e-02   7.494704e+00   1.160063e+01  -6.978592e+04  -1.712425e+05  -2.396153e+04   1.024221e+13  -4.201511e+12   1.456130e+11   1.864624e+05   1.518532e-20   0.000000e+00   0.000000e+00
     1312000   1.311999e-05   1.037767e-01   7.496502e+00   1.159920e+01  -1.754752e+05   5.983890e+04  -2.222936e+04  -3.553819e+12  -1.050089e+13  -2.691956e+11   1.867254e+05   1.527711e-20   0.000000e+00   0.000000e+00
     1320000   1.319999e-05   1.058267e-01   7.492766e+00   1.159761e+01   4.902700e+04   1.798006e+05  -1.525999e+04  -1.070815e+13   2.911040e+12  -1.843833e+11   1.869886e+05   1.534537e-20   0.000000e+00   0.000000e+00
     1328000   1.327999e-05   1.022282e-01   7.490550e+00   1.159592e+01   1.827659e+05  -3.727305e+04  -1.645411e+04   2.246297e+12   1.087307e+13   2.455785e+11   1.872522e+05   1.540829e-20   0.000000e+00   0.000000e+00
     1336000   1.335999e-05   9.980085e-02   7.494077e+00   1.159434e+01  -2.598071e+04  -1.841762e+05  -2.379929e+04   1.100282e+13  -1.585693e+12   2.079789e+11   1.875161e+05   1.548808e-20   0.000000e+00   0.000000e+00
     1344000   1.343999e-05   1.031906e-01   7.496779e+00   1.159287e+01  -1.855799e+05   1.589037e+04  -2.385303e+04  -9.286364e+11  -1.109994e+13  -2.216549e+11   1.877801e+05   1.559460e-20   0.000000e+00   0.000000e+00
     1352000   1.351999e-05   1.061037e-01   7.493610e+00   1.159126e+01   5.079296e+03   1.872327e+05  -1.669617e+04  -1.114522e+13   2.873610e+11  -2.425745e+11   1.880443e+05   1.566838e-20   0.000000e+00   0.000000e+00
     1360000   1.359999e-05   1.031146e-01   7.490577e+00   1.158952e+01   1.875018e+05   6.519737e+03  -1.614844e+04  -3.643381e+11   1.115023e+13   1.942909e+11   1.883088e+05   1.573028e-20   0.000000e+00   0.000000e+00
     1368000   1.367999e-05   9.991705e-02   7.493457e+00   1.158787e+01   1.748238e+04  -1.862856e+05  -2.349637e+04   1.112130e+13   1.004597e+12   2.569440e+11   1.885737e+05   1.580758e-20   0.000000e+00   0.000000e+00
     1376000   1.375999e-05   1.026242e-01   7.496884e+00   1.158634e+01  -1.851753e+05  -2.709919e+04  -2.521513e+04   1.635771e+12  -1.107090e+13  -1.643679e+11   1.888387e+05   1.591672e-20   0.000000e+00   0.000000e+00
     1384000   1.383999e-05   1.062147e-01   7.494431e+00   1.158472e+01  -3.727289e+04   1.844916e+05  -1.827185e+04  -1.097496e+13  -2.238729e+12  -2.853315e+11   1.891039e+05   1.599654e-20   0.000000e+00   0.000000e+00
     1392000   1.391999e-05   1.039695e-01   7.490772e+00   1.158293e+01   1.824461e+05   4.812214e+04  -1.607634e+04  -2.841351e+12   1.084362e+13   1.348657e+11   1.893694e+05   1.605843e-20   0.000000e+00   0.000000e+00
     1400000   1.399999e-05   1.001952e-01   7.492886e+00   1.158120e+01   5.819753e+04  -1.790054e+05  -2.305698e+04   1.068284e+13   3.428467e+12   2.923678e+11   1.896352e+05   1.614037e-20   0.000000e+00   0.000000e+00
     1408000   1.407999e-05   1.021160e-01   7.496844e+00   1.157962e+01  -1.758009e+05  -6.681991e+04  -2.629879e+04   4.001603e+12  -1.050681e+13  -1.021122e+11   1.899012e+05   1.624394e-20   0.000000e+00   0.000000e+00
     1416000   1.415999e-05   1.061871e-01   7.495195e+00   1.157798e+01  -7.589627e+04   1.732263e+05  -1.990053e+04  -1.029670e+13  -4.539910e+12  -3.124493e+11   1.901674e+05   1.632998e-20   0.000000e+00   0.000000e+00
     1424000   1.423999e-05   1.047597e-01   7.491106e+00   1.157616e+01   1.693527e+05   8.556247e+04  -1.624163e+04  -5.067563e+12   1.005861e+13   7.175432e+10   1.904339e+05   1.639264e-20   0.000000e+00   0.000000e+00
     1432000   1.431999e-05   1.006044e-01   7.492395e+00   1.157436e+01   9.434828e+04  -1.641816e+05  -2.257303e+04   9.793553e+12   5.577291e+12   3.121077e+11   1.907006e+05   1.647182e-20   0.000000e+00   0.000000e+00
     1440000   1.439999e-05   1.016936e-01   7.496688e+00   1.157273e+01  -1.593797e+05  -1.016384e+05  -2.713634e+04   6.071870e+12  -9.523449e+12  -3.908219e+10   1.909676e+05   1.657619e-20   0.000000e+00   0.000000e+00
     1448000   1.447999e-05   1.060538e-01   7.495877e+00   1.157106e+01  -1.093243e+05   1.554189e+05  -2.153828e+04  -9.229428e+12  -6.528942e+12  -3.249841e+11   1.912348e+05   1.666817e-20   0.000000e+00   0.000000e+00
     1456000   1.455999e-05   1.054637e-01   7.491544e+00   1.156921e+01   1.502432e+05   1.175713e+05  -1.664503e+04  -6.967804e+12   8.916241e+12   8.873269e+09   1.915022e+05   1.673241e-20   0.000000e+00   0.000000e+00
     1464000   1.463999e-05   1.011106e-01   7.492001e+00   1.156735e+01   1.248620e+05  -1.438611e+05  -2.211697e+04   8.578756e+12   7.387854e+12   3.189113e+11   1.917699e+05   1.680905e-20   0.000000e+00   0.000000e+00
     1472000   1.471999e-05   1.013720e-01   7.496451e+00   1.156565e+01  -1.379714e+05  -1.306576e+05  -2.776741e+04   7.793768e+12  -8.244447e+12   2.142072e+10   1.920379e+05   1.691349e-20   0.000000e+00   0.000000e+00
     1480000   1.479999e-05   1.058489e-01   7.496463e+00   1.156395e+01  -1.368396e+05   1.331216e+05  -2.313347e+04  -7.896123e+12  -8.163431e+12  -3.249598e+11   1.923060e+05   1.701104e-20   0.000000e+00   0.000000e+00
     1488000   1.487999e-05   1.060721e-01   7.492054e+00   1.156207e+01   1.271498e+05   1.435971e+05  -1.725323e+04  -8.509787e+12   7.537999e+12  -5.073675e+10   1.925743e+05   1.707764e-20   0.000000e+00   0.000000e+00
     1496000   1.495999e-05   1.016802e-01   7.491711e+00   1.156014e+01   1.493449e+05  -1.200508e+05  -2.173331e+04   7.158425e+12   8.837404e+12   3.148525e+11   1.928430e+05   1.715202e-20   0.000000e+00   0.000000e+00
     1504000   1.503999e-05   1.011557e-01   7.496167e+00   1.155838e+01  -1.135508e+05  -1.536275e+05  -2.823117e+04   9.153193e+12  -6.788023e+12   7.706613e+10   1.931119e+05   1.725600e-20   0.000000e+00   0.000000e+00
     1512000   1.511999e-05   1.056050e-01   7.496952e+00   1.155665e+01  -1.583268e+05   1.082649e+05  -2.464802e+04  -6.412282e+12  -9.436989e+12  -3.149132e+11   1.933809e+05   1.735863e-20   0.000000e+00   0.000000e+00
     1520000   1.519999e-05   1.065850e-01   7.492603e+00   1.155474e+01   1.019479e+05   1.636524e+05  -1.802543e+04  -9.694824e+12   6.035838e+12  -1.049312e+11   1.936502e+05   1.742819e-20   0.000000e+00   0.000000e+00
     1528000   1.527999e-05   1.022830e-01   7.491523e+00   1.155276e+01   1.679335e+05  -9.456756e+04  -2.145207e+04   5.640906e+12   9.934757e+12   3.023271e+11   1.939198e+05   1.750070e-20   0.000000e+00   0.000000e+00
     1536000   1.535999e-05   1.010409e-01   7.495864e+00   1.155093e+01  -8.787387e+04  -1.707967e+05  -2.857059e+04   1.016574e+13  -5.259029e+12   1.264085e+11   1.941896e+05   1.760388e-20   0.000000e+00   0.000000e+00
     1544000   1.543999e-05   1.053502e-01   7.497349e+00   1.154916e+01  -1.741349e+05   8.253793e+04  -2.605889e+04  -4.878734e+12  -1.037096e+13  -2.975549e+11   1.944596e+05   1.771100e-20   0.000000e+00   0.000000e+00
     1552000   1.551999e-05   1.070097e-01   7.493164e+00   1.154722e+01   7.625114e+04   1.781784e+05  -1.891824e+04  -1.054971e+13   4.505932e+12  -1.524284e+11   1.947298e+05   1.778398e-20   0.000000e+00   0.000000e+00
     1560000   1.559999e-05   1.028930e-01   7.491428e+00   1.154518e+01   1.811572e+05  -6.894845e+04  -2.129006e+04   4.117616e+12   1.071200e+13   2.838114e+11   1.950003e+05   1.785501e-20   0.000000e+00   0.000000e+00
     1568000   1.567999e-05   1.010175e-01   7.495567e+00   1.154329e+01  -6.240140e+04  -1.827724e+05  -2.882839e+04   1.086829e+13  -3.744456e+12   1.687640e+11   1.952710e+05   1.795720e-20   0.000000e+00   0.000000e+00
     1576000   1.575999e-05   1.051080e-01   7.497665e+00   1.154148e+01  -1.849383e+05   5.732436e+04  -2.735605e+04  -3.377892e+12  -1.100601e+13  -2.755163e+11   1.955419e+05   1.806825e-20   0.000000e+00   0.000000e+00
     1584000   1.583999e-05   1.073586e-01   7.493716e+00   1.153951e+01   5.136136e+04   1.879072e+05  -1.988947e+04  -1.111848e+13   3.025725e+12  -1.926982e+11   1.958129e+05   1.814491e-20   0.000000e+00   0.000000e+00
     1592000   1.591999e-05   1.034899e-01   7.491414e+00   1.153742e+01   1.898021e+05  -4.441317e+04  -2.125290e+04   2.660905e+12   1.121637e+13   2.616785e+11   1.960843e+05   1.821487e-20   0.000000e+00   0.000000e+00
     1600000   1.599999e-05   1.010718e-01   7.495296e+00   1.153546e+01  -3.827359e+04  -1.903871e+05  -2.904422e+04   1.131095e+13  -2.311977e+12   2.040546e+11   1.963560e+05   1.831602e-20   0.000000e+00   0.000000e+00
     1608000   1.607999e-05   1.048963e-01   7.497916e+00   1.153361e+01  -1.916066e+05   3.368758e+04  -2.853972e+04  -1.972886e+12  -1.139437e+13  -2.511830e+11   1.966278e+05   1.843048e-20   0.000000e+00   0.000000e+00
     1616000   1.615999e-05   1.076465e-01   7.494241e+00   1.153160e+01   2.826312e+04   1.937365e+05  -2.090070e+04  -1.145490e+13   1.653646e+12  -2.258068e+11   1.968997e+05   1.851093e-20   0.000000e+00   0.000000e+00
     1624000   1.623999e-05   1.040583e-01   7.491465e+00   1.152946e+01   1.947903e+05  -2.186871e+04  -2.133763e+04   1.324386e+12   1.150303e+13   2.380740e+11   1.971720e+05   1.858018e-20   0.000000e+00   0.000000e+00
     1632000   1.631999e-05   1.011880e-01   7.495064e+00   1.152744e+01  -1.632316e+04  -1.945820e+05  -2.925298e+04   1.155014e+13  -1.010808e+12   2.326424e+11   1.974445e+05   1.868037e-20   0.000000e+00   0.000000e+00
     1640000   1.639999e-05   1.047280e-01   7.498117e+00   1.152554e+01  -1.950931e+05   1.239118e+04  -2.961747e+04  -7.088427e+11  -1.159310e+13  -2.266046e+11   1.977171e+05   1.879779e-20   0.000000e+00   0.000000e+00
     1648000   1.647999e-05   1.078897e-01   7.494729e+00   1.152350e+01   7.651221e+03   1.966241e+05  -2.191869e+04  -1.161619e+13   4.307764e+11  -2.522441e+11   1.979900e+05   1.888198e-20   0.000000e+00   0.000000e+00
     1656000   1.655999e-05   1.045878e-01   7.491564e+00   1.152131e+01   1.970804e+05  -1.943220e+03  -2.153535e+04   1.450061e+11   1.162916e+13   2.148467e+11   1.982631e+05   1.895086e-20   0.000000e+00   0.000000e+00
     1664000   1.663999e-05   1.013503e-01   7.494881e+00   1.151922e+01   2.884834e+03  -1.963138e+05  -2.948408e+04   1.164298e+13   1.258605e+11   2.551721e+11   1.985365e+05   1.905025e-20   0.000000e+00   0.000000e+00
     1672000   1.671999e-05   1.046119e-01   7.498284e+00   1.151727e+01  -1.963473e+05  -6.056719e+03  -3.060137e+04   3.844200e+11  -1.165890e+13  -2.034668e+11   1.988100e+05   1.917027e-20   0.000000e+00   0.000000e+00
     1680000   1.679999e-05   1.081038e-01   7.495171e+00   1.151519e+01  -1.002103e+04   1.975063e+05  -2.291598e+04  -1.165815e+13  -6.162511e+11  -2.727552e+11   1.990836e+05   1.925804e-20   0.000000e+00   0.000000e+00
     1688000   1.687999e-05   1.050714e-01   7.491697e+00   1.151295e+01   1.975927e+05   1.496215e+04  -2.183373e+04  -8.538355e+11   1.164952e+13   1.935259e+11   1.993576e+05   1.932681e-20   0.000000e+00   0.000000e+00
     1696000   1.695999e-05   1.015435e-01   7.494754e+00   1.151081e+01   1.899807e+04  -1.964846e+05  -2.976144e+04   1.164318e+13   1.077551e+12   2.724292e+11   1.996318e+05   1.942565e-20   0.000000e+00   0.000000e+00
     1704000   1.703999e-05   1.045534e-01   7.498432e+00   1.150881e+01  -1.962504e+05  -2.134624e+04  -3.150554e+04   1.288948e+12  -1.164423e+13  -1.831059e+11   1.999062e+05   1.954801e-20   0.000000e+00   0.000000e+00
     1712000   1.711999e-05   1.083034e-01   7.495564e+00   1.150669e+01  -2.448313e+04   1.972386e+05  -2.387063e+04  -1.163167e+13  -1.471737e+12  -2.881904e+11   2.001807e+05   1.963906e-20   0.000000e+00   0.000000e+00
     1720000   1.719999e-05   1.055051e-01   7.491850e+00   1.150440e+01   1.971547e+05   2.861338e+04  -2.221931e+04  -1.658704e+12   1.161322e+13   1.753323e+11   2.004555e+05   1.970794e-20   0.000000e+00   0.000000e+00
     1728000   1.727999e-05   1.017543e-01   7.494686e+00   1.150219e+01   3.181604e+04  -1.958935e+05  -3.010389e+04   1.159818e+13   1.832845e+12   2.852200e+11   2.007306e+05   1.980652e-20   0.000000e+00   0.000000e+00
     1736000   1.735999e-05   1.045556e-01   7.498573e+00   1.150014e+01  -1.955709e+05  -3.330448e+04  -3.234401e+04   1.994978e+12  -1.159476e+13  -1.665498e+11   2.010057e+05   1.993106e-20   0.000000e+00   0.000000e+00
     1744000   1.743999e-05   1.085043e-01   7.495895e+00   1.149798e+01  -3.518298e+04   1.966311e+05  -2.474559e+04  -1.157931e+13  -2.102576e+12  -2.999778e+11   2.012808e+05   2.000659e-20   0.000000e+00   0.000000e+00
     1752000   1.751999e-05   1.058741e-01   7.492004e+00   1.149564e+01   1.966282e+05   3.806713e+04  -2.265234e+04  -2.213500e+12   1.156615e+13   1.618615e+11   2.015562e+05   2.007735e-20   0.000000e+00   0.000000e+00
     1760000   1.759999e-05   1.019666e-01   7.494698e+00   1.149338e+01   4.001267e+04  -1.954564e+05  -3.052672e+04   1.155731e+13   2.312874e+12   2.942638e+11   2.018318e+05   2.017671e-20   0.000000e+00   0.000000e+00
     1768000   1.767999e-05   1.046480e-01   7.498725e+00   1.149128e+01  -1.952774e+05  -4.023083e+04  -3.310140e+04   2.401568e+12  -1.156296e+13  -1.564659e+11   2.021076e+05   2.030271e-20   0.000000e+00   0.000000e+00
     1776000   1.775999e-05   1.087157e-01   7.496153e+00   1.148907e+01  -4.127238e+04   1.964801e+05  -2.551929e+04  -1.155969e+13  -2.460881e+12  -3.062827e+11   2.023835e+05   2.039931e-20   0.000000e+00   0.000000e+00
     1784000   1.783999e-05   1.061768e-01   7.492157e+00   1.148668e+01   1.966023e+05   4.336626e+04  -2.319120e+04  -2.523147e+12   1.155386e+13   1.549052e+11   2.026597e+05   2.047054e-20   0.000000e+00   0.000000e+00
     1792000   1.791999e-05   1.021757e-01   7.494778e+00   1.148437e+01   4.449694e+04  -1.955446e+05  -3.107104e+04   1.155282e+13   2.574215e+12   2.989678e+11   2.029362e+05   2.057068e-20   0.000000e+00   0.000000e+00
     1800000   1.799999e-05   1.048004e-01   7.498890e+00   1.148221e+01  -1.955185e+05  -4.386819e+04  -3.381595e+04   2.614527e+12  -1.156781e+13  -1.518949e+11   2.032127e+05   2.069881e-20   0.000000e+00   0.000000e+00
     1808000   1.807999e-05   1.089421e-01   7.496360e+00   1.147996e+01  -4.407621e+04   1.969213e+05  -2.621562e+04  -1.157463e+13  -2.624793e+12  -3.097985e+11   2.034895e+05   2.079718e-20   0.000000e+00   0.000000e+00
     1816000   1.815999e-05   1.064285e-01   7.492303e+00   1.147752e+01   1.972247e+05   4.536005e+04  -2.378354e+04  -2.637538e+12   1.157926e+13   1.529477e+11   2.037665e+05   2.086891e-20   0.000000e+00   0.000000e+00
     1824000   1.823999e-05   1.023778e-01   7.494918e+00   1.147515e+01   4.565313e+04  -1.963268e+05  -3.170836e+04   1.158896e+13   2.639037e+12   3.010271e+11   2.040438e+05   2.097025e-20   0.000000e+00   0.000000e+00
     1832000   1.831999e-05   1.050145e-01   7.499070e+00   1.147295e+01  -1.964898e+05  -4.414844e+04  -3.449362e+04   2.629345e+12  -1.161528e+13  -1.525279e+11   2.043212e+05   2.110054e-20   0.000000e+00   0.000000e+00
     1840000   1.839999e-05   1.091862e-01   7.496513e+00   1.147064e+01  -4.349496e+04   1.981136e+05  -2.682938e+04  -1.163339e+13  -2.588952e+12  -3.106342e+11   2.045987e+05   2.120015e-20   0.000000e+00   0.000000e+00
     1848000   1.847999e-05   1.066271e-01   7.492440e+00   1.146814e+01   1.986123e+05   4.394013e+04  -2.442895e+04  -2.550820e+12   1.164912e+13   1.562525e+11   2.048765e+05   2.127243e-20   0.000000e+00   0.000000e+00
     1856000   1.855999e-05   1.025715e-01   7.495120e+00   1.146573e+01   4.336341e+04  -1.978774e+05  -3.244278e+04   1.167002e+13   2.500943e+12   3.004131e+11   2.051545e+05   2.137541e-20   0.000000e+00   0.000000e+00
     1864000   1.863999e-05   1.052927e-01   7.499268e+00   1.146347e+01  -1.982219e+05  -4.094343e+04  -3.513278e+04   2.439025e+12  -1.170708e+13  -1.585591e+11   2.054327e+05   2.150791e-20   0.000000e+00   0.000000e+00
     1872000   1.871999e-05   1.094479e-01   7.496610e+00   1.146111e+01  -3.939012e+04   2.000425e+05  -2.735765e+04  -1.173499e+13  -2.345765e+12  -3.086201e+11   2.057110e+05   2.160815e-20   0.000000e+00   0.000000e+00
     1880000   1.879999e-05   1.067700e-01   7.492568e+00   1.145856e+01   2.007048e+05   3.895778e+04  -2.513168e+04  -2.254823e+12   1.175973e+13   1.649350e+11   2.059896e+05   2.168105e-20   0.000000e+00   0.000000e+00
     1888000   1.887999e-05   1.027587e-01   7.495387e+00   1.145609e+01   3.746879e+04  -2.000887e+05  -3.327603e+04   1.178952e+13   2.151171e+12   2.968255e+11   2.062685e+05   2.178617e-20   0.000000e+00   0.000000e+00
     1896000   1.895999e-05   1.056380e-01   7.499480e+00   1.145379e+01  -2.005584e+05  -3.408437e+04  -3.572686e+04   2.034231e+12  -1.183384e+13  -1.700447e+11   2.065474e+05   2.192090e-20   0.000000e+00   0.000000e+00
     1904000   1.903999e-05   1.097238e-01   7.496648e+00   1.145137e+01  -3.158433e+04   2.025013e+05  -2.780018e+04  -1.186713e+13  -1.885430e+12  -3.032837e+11   2.068265e+05   2.202112e-20   0.000000e+00   0.000000e+00
     1912000   1.911999e-05   1.068539e-01   7.492692e+00   1.144876e+01   2.032442e+05   3.022825e+04  -2.590102e+04  -1.739334e+12   1.189582e+13   1.789345e+11   2.071058e+05   2.209474e-20   0.000000e+00   0.000000e+00
     1920000   1.919999e-05   1.029448e-01   7.495724e+00   1.144625e+01   2.777772e+04  -2.026500e+05  -3.420691e+04   1.192913e+13   1.579109e+12   2.896753e+11   2.073854e+05   2.220254e-20   0.000000e+00   0.000000e+00
     1928000   1.927999e-05   1.060542e-01   7.499700e+00   1.144389e+01  -2.031338e+05  -2.337504e+04  -3.626408e+04   1.404075e+12  -1.197398e+13  -1.868629e+11   2.076651e+05   2.233946e-20   0.000000e+00   0.000000e+00
     1936000   1.935999e-05   1.100067e-01   7.496623e+00   1.144141e+01  -1.987938e+04   2.050681e+05  -2.816021e+04  -1.200493e+13  -1.197011e+12  -2.938390e+11   2.079449e+05   2.243895e-20   0.000000e+00   0.000000e+00
     1944000   1.943999e-05   1.068753e-01   7.492821e+00   1.143875e+01   2.057520e+05   1.755366e+04  -2.675138e+04  -9.934475e+11   1.202922e+13   1.979594e+11   2.082250e+05   2.251347e-20   0.000000e+00   0.000000e+00
     1952000   1.951999e-05   1.031389e-01   7.496132e+00   1.143619e+01   1.409419e+04  -2.050236e+05  -3.523023e+04   1.205725e+13   7.739584e+11   2.780845e+11   2.085054e+05   2.262456e-20   0.000000e+00   0.000000e+00
     1960000   1.959999e-05   1.065446e-01   7.499918e+00   1.143378e+01  -2.053490e+05  -8.625512e+03  -3.672745e+04   5.381058e+11  -1.209228e+13  -2.086437e+11   2.087858e+05   2.276352e-20   0.000000e+00   0.000000e+00
     1968000   1.967999e-05   1.102856e-01   7.496532e+00   1.143123e+01  -4.095713e+03   2.070816e+05  -2.844591e+04  -1.210956e+13  -2.707696e+11  -2.791993e+11   2.090663e+05   2.286151e-20   0.000000e+00   0.000000e+00
     1976000   1.975999e-05   1.068313e-01   7.492966e+00   1.142851e+01   2.075048e+05   7.684178e+02  -2.770198e+04  -8.236794e+09   1.211754e+13   2.214038e+11   2.093472e+05   2.293724e-20   0.000000e+00   0.000000e+00
     1984000   1.983999e-05   1.033548e-01   7.496616e+00   1.142591e+01  -3.720299e+03  -2.064214e+05  -3.633696e+04   1.212776e+13  -2.716395e+11   2.609206e+11   2.096282e+05   2.305220e-20   0.000000e+00   0.000000e+00
     1992000   1.991999e-05   1.071117e-01   7.500119e+00   1.142345e+01  -2.063494e+05   1.027370e+04  -3.709855e+04  -5.693482e+11  -1.214016e+13  -2.349788e+11   2.099094e+05   2.319862e-20   0.000000e+00   0.000000e+00
     2000000   1.999999e-05   1.105450e-01   7.496373e+00   1.142084e+01   1.583864e+04   2.076219e+05  -2.867737e+04  -1.212718e+13   8.966162e+11  -2.580526e+11   2.101906e+05   2.328853e-20   0.000000e+00   0.000000e+00
     2008000   2.007999e-05   1.067218e-01   7.493145e+00   1.141806e+01   2.075188e+05  -2.015006e+04  -2.878316e+04   1.216792e+12   1.210334e+13   2.481933e+11   2.104722e+05   2.336581e-20   0.000000e+00   0.000000e+00
     2016000   2.015999e-05   1.036108e-01   7.497175e+00   1.141542e+01  -2.566564e+04  -2.057939e+05  -3.751476e+04   1.207942e+13  -1.556877e+12   2.368646e+11   2.107539e+05   2.348528e-20   0.000000e+00   0.000000e+00
     2024000   2.023999e-05   1.077555e-01   7.500285e+00   1.141290e+01  -2.050184e+05   3.328674e+04  -3.735710e+04  -1.915411e+12  -1.204885e+13  -2.639807e+11   2.110357e+05   2.363079e-20   0.000000e+00   0.000000e+00
     2032000   2.031999e-05   1.107649e-01   7.496149e+00   1.141022e+01   3.984709e+04   2.055074e+05  -2.888067e+04  -1.198893e+13   2.299691e+12  -2.289093e+11   2.113177e+05   2.371974e-20   0.000000e+00   0.000000e+00
     2040000   2.039999e-05   1.065481e-01   7.493379e+00   1.140738e+01   2.045478e+05  -4.509624e+04  -3.001726e+04   2.674597e+12   1.191412e+13   2.768093e+11   2.115999e+05   2.379929e-20   0.000000e+00   0.000000e+00
     2048000   2.047999e-05   1.039291e-01   7.497807e+00   1.140470e+01  -5.157227e+04  -2.018273e+05  -3.873219e+04   1.183577e+13  -3.070997e+12   2.044292e+11   2.118823e+05   2.392395e-20   0.000000e+00   0.000000e+00
     2056000   2.055999e-05   1.084713e-01   7.500392e+00   1.140213e+01  -1.999769e+05   6.015785e+04  -3.747238e+04  -3.484080e+12  -1.174012e+13  -2.942340e+11   2.121648e+05   2.406759e-20   0.000000e+00   0.000000e+00
     2064000   2.063999e-05   1.109193e-01   7.495864e+00   1.139936e+01   6.750046e+04   1.993352e+05  -2.903639e+04  -1.161698e+13   3.913878e+12  -1.887794e+11   2.124475e+05   2.417235e-20   0.000000e+00   0.000000e+00
     2072000   2.071999e-05   1.063212e-01   7.493692e+00   1.139648e+01   1.972198e+05  -7.330665e+04  -3.138062e+04   4.321404e+12   1.147418e+13   3.068272e+11   2.127305e+05   2.425571e-20   0.000000e+00   0.000000e+00
     2080000   2.079999e-05   1.043299e-01   7.498492e+00   1.139376e+01  -8.036326e+04  -1.932036e+05  -3.986180e+04   1.132443e+13  -4.751540e+12   1.615101e+11   2.130138e+05   2.438833e-20   0.000000e+00   0.000000e+00
     2088000   2.087999e-05   1.092301e-01   7.500417e+00   1.139114e+01  -1.900186e+05   8.942892e+04  -3.729647e+04  -5.189480e+12  -1.114429e+13  -3.227255e+11   2.132971e+05   2.451551e-20   0.000000e+00   0.000000e+00
     2096000   2.095999e-05   1.109849e-01   7.495549e+00   1.138831e+01   9.726229e+04   1.878998e+05  -2.916066e+04  -1.093405e+13   5.645948e+12  -1.410273e+11   2.135805e+05   2.461644e-20   0.000000e+00   0.000000e+00
     2104000   2.103999e-05   1.060585e-01   7.494108e+00   1.138538e+01   1.841853e+05  -1.036197e+05  -3.281221e+04   6.085631e+12   1.069774e+13   3.313178e+11   2.138643e+05   2.470413e-20   0.000000e+00   0.000000e+00
     2112000   2.111999e-05   1.048389e-01   7.499219e+00   1.138264e+01  -1.111915e+05  -1.783967e+05  -4.087201e+04   1.044856e+13  -6.546132e+12   1.100418e+11   2.141482e+05   2.484329e-20   0.000000e+00   0.000000e+00
     2120000   2.119999e-05   1.100281e-01   7.500334e+00   1.137996e+01  -1.733617e+05   1.206734e+05  -3.694312e+04  -7.006093e+12  -1.015871e+13  -3.470484e+11   2.144322e+05   2.496963e-20   0.000000e+00   0.000000e+00
     2128000   2.127999e-05   1.109322e-01   7.495206e+00   1.137706e+01   1.287562e+05   1.692965e+05  -2.938685e+04  -9.834336e+12   7.474169e+12  -8.190782e+10   2.147163e+05   2.506523e-20   0.000000e+00   0.000000e+00
     2136000   2.135999e-05   1.057776e-01   7.494658e+00   1.137410e+01   1.635793e+05  -1.352057e+05  -3.444598e+04   7.919849e+12   9.481591e+12   3.492516e+11   2.150007e+05   2.515845e-20   0.000000e+00   0.000000e+00
     2144000   2.143999e-05   1.054903e-01   7.499964e+00   1.137134e+01  -1.427894e+05  -1.556094e+05  -4.176870e+04   9.109219e+12  -8.381305e+12   4.733917e+10   2.152852e+05   2.530435e-20   0.000000e+00   0.000000e+00
     2152000   2.151999e-05   1.108360e-01   7.500110e+00   1.136859e+01  -1.483400e+05   1.521198e+05  -3.640317e+04  -8.829979e+12  -8.687264e+12  -3.626575e+11   2.155699e+05   2.542794e-20   0.000000e+00   0.000000e+00
     2160000   2.159999e-05   1.107343e-01   7.494872e+00   1.136562e+01   1.598345e+05   1.419794e+05  -2.979971e+04  -8.229511e+12   9.272781e+12  -1.185919e+10   2.158546e+05   2.551855e-20   0.000000e+00   0.000000e+00
     2168000   2.167999e-05   1.055191e-01   7.495368e+00   1.136262e+01   1.339362e+05  -1.657147e+05  -3.627773e+04   9.687026e+12   7.742125e+12   3.561562e+11   2.161397e+05   2.561869e-20   0.000000e+00   0.000000e+00
     2176000   2.175999e-05   1.063084e-01   7.500683e+00   1.135984e+01  -1.725850e+05  -1.234885e+05  -4.248232e+04   7.227278e+12  -1.010487e+13  -2.418844e+10   2.164249e+05   2.575924e-20   0.000000e+00   0.000000e+00
     2184000   2.183999e-05   1.116065e-01   7.499724e+00   1.135702e+01  -1.137177e+05   1.809884e+05  -3.570373e+04  -1.050106e+13  -6.661330e+12  -3.645343e+11   2.167101e+05   2.590011e-20   0.000000e+00   0.000000e+00
     2192000   2.191999e-05   1.103727e-01   7.494600e+00   1.135397e+01   1.875045e+05   1.048776e+05  -3.049277e+04  -6.059445e+12   1.086759e+13   6.706601e+10   2.169955e+05   2.597633e-20   0.000000e+00   0.000000e+00
     2200000   2.199999e-05   1.053383e-01   7.496253e+00   1.135095e+01   9.436180e+04  -1.919428e+05  -3.827434e+04   1.120116e+13   5.429349e+12   3.471299e+11   2.172812e+05   2.608489e-20   0.000000e+00   0.000000e+00
     2208000   2.207999e-05   1.073057e-01   7.501319e+00   1.134814e+01  -1.971730e+05  -8.134023e+04  -4.291823e+04   4.768726e+12  -1.152308e+13  -1.055342e+11   2.175670e+05   2.623267e-20   0.000000e+00   0.000000e+00
     2216000   2.215999e-05   1.122773e-01   7.499169e+00   1.134525e+01  -6.905705e+04   2.036478e+05  -3.490789e+04  -1.180414e+13  -4.054494e+12  -3.463056e+11   2.178528e+05   2.636302e-20   0.000000e+00   0.000000e+00
     2224000   2.223999e-05   1.098441e-01   7.494455e+00   1.134213e+01   2.079525e+05   5.782995e+04  -3.155978e+04  -3.317231e+12   1.203774e+13   1.506942e+11   2.181389e+05   2.643864e-20   0.000000e+00   0.000000e+00
     2232000   2.231999e-05   1.053047e-01   7.497313e+00   1.133909e+01   4.499046e+04  -2.098953e+05  -4.036530e+04   1.223120e+13   2.553248e+12   3.173611e+11   2.184251e+05   2.655711e-20   0.000000e+00   0.000000e+00
     2240000   2.239999e-05   1.084752e-01   7.501798e+00   1.133624e+01  -2.123867e+05  -2.963707e+04  -4.299106e+04   1.760413e+12  -1.239262e+13  -1.901417e+11   2.187115e+05   2.671034e-20   0.000000e+00   0.000000e+00
     2248000   2.247999e-05   1.127744e-01   7.498457e+00   1.133325e+01  -1.521480e+04   2.157877e+05  -3.412104e+04  -1.249202e+13  -9.215277e+11  -3.036453e+11   2.189979e+05   2.682808e-20   0.000000e+00   0.000000e+00
     2256000   2.255999e-05   1.091698e-01   7.494514e+00   1.133007e+01   2.167649e+05   2.095439e+03  -3.308002e+04  -7.840578e+10   1.252893e+13   2.323957e+11   2.192845e+05   2.690563e-20   0.000000e+00   0.000000e+00
     2264000   2.263999e-05   1.054967e-01   7.498519e+00   1.132701e+01  -1.249219e+04  -2.150690e+05  -4.243643e+04   1.251766e+13  -7.862834e+11   2.629438e+11   2.195714e+05   2.703532e-20   0.000000e+00   0.000000e+00
     2272000   2.271999e-05   1.097807e-01   7.502041e+00   1.132411e+01  -2.136633e+05   2.945939e+04  -4.263531e+04  -1.670056e+12  -1.245033e+13  -2.703869e+11   2.198582e+05   2.719103e-20   0.000000e+00   0.000000e+00
     2280000   2.279999e-05   1.130188e-01   7.497635e+00   1.132103e+01   4.513867e+04   2.128484e+05  -3.349567e+04  -1.230261e+13   2.579716e+12  -2.333370e+11   2.201452e+05   2.729498e-20   0.000000e+00   0.000000e+00
     2288000   2.287999e-05   1.084043e-01   7.494856e+00   1.131779e+01   2.094307e+05  -5.913833e+04  -3.509771e+04   3.470251e+12   1.208282e+13   3.031085e+11   2.204324e+05   2.737757e-20   0.000000e+00   0.000000e+00
     2296000   2.295999e-05   1.059918e-01   7.499808e+00   1.131472e+01  -7.435692e+04  -2.030350e+05  -4.432884e+04   1.180643e+13  -4.371383e+12   1.820089e+11   2.207197e+05   2.751933e-20   0.000000e+00   0.000000e+00
     2304000   2.303999e-05   1.111487e-01   7.501976e+00   1.131176e+01  -1.967166e+05   9.163506e+04  -4.182985e+04  -5.270600e+12  -1.145053e+13  -3.357841e+11   2.210071e+05   2.767327e-20   0.000000e+00   0.000000e+00
     2312000   2.311999e-05   1.129396e-01   7.496788e+00   1.130857e+01   1.071011e+05   1.907790e+05  -3.322681e+04  -1.100514e+13   6.162887e+12  -1.355613e+11   2.212946e+05   2.776377e-20   0.000000e+00   0.000000e+00
     2320000   2.319999e-05   1.076424e-01   7.495546e+00   1.130528e+01   1.821843e+05  -1.203912e+05  -3.759715e+04   7.010502e+12   1.048565e+13   3.519167e+11   2.215823e+05   2.785480e-20   0.000000e+00   0.000000e+00
     2328000   2.327999e-05   1.068507e-01   7.501075e+00   1.130220e+01  -1.345261e+05  -1.703731e+05  -4.584859e+04   9.902612e+12  -7.848997e+12   7.636491e+10   2.218701e+05   2.800696e-20   0.000000e+00   0.000000e+00
     2336000   2.335999e-05   1.124650e-01   7.501548e+00   1.129916e+01  -1.585390e+05   1.502245e+05  -4.064656e+04  -8.654351e+12  -9.223686e+12  -3.732760e+11   2.221579e+05   2.815687e-20   0.000000e+00   0.000000e+00
     2344000   2.343999e-05   1.124936e-01   7.496037e+00   1.129586e+01   1.635197e+05   1.470302e+05  -3.354981e+04  -8.455798e+12   9.411106e+12  -1.709377e+10   2.224458e+05   2.822217e-20   0.000000e+00   0.000000e+00
     2352000   2.351999e-05   1.070189e-01   7.496622e+00   1.129254e+01   1.329881e+05  -1.740242e+05  -4.049883e+04   1.009899e+13   7.622858e+12   3.674557e+11   2.227340e+05   2.832414e-20   0.000000e+00   0.000000e+00
     2360000   2.359999e-05   1.081046e-01   7.502180e+00   1.128944e+01  -1.848871e+05  -1.155991e+05  -4.682403e+04   6.725203e+12  -1.075047e+13  -4.842786e+10   2.230222e+05   2.849863e-20   0.000000e+00   0.000000e+00
     2368000   2.367999e-05   1.135857e-01   7.500741e+00   1.128629e+01  -9.834927e+04   1.966071e+05  -3.924981e+04  -1.132159e+13  -5.729060e+12  -3.698228e+11   2.233103e+05   2.863162e-20   0.000000e+00   0.000000e+00
     2376000   2.375999e-05   1.116846e-01   7.495544e+00   1.128289e+01   2.051673e+05   8.184931e+04  -3.469040e+04  -4.678994e+12   1.179686e+13   1.146633e+11   2.235986e+05   2.869401e-20   0.000000e+00   0.000000e+00
     2384000   2.383999e-05   1.067022e-01   7.498063e+00   1.127954e+01   6.313477e+04  -2.103280e+05  -4.360742e+04   1.218160e+13   3.578685e+12   3.387449e+11   2.238872e+05   2.881119e-20   0.000000e+00   0.000000e+00
     2392000   2.391999e-05   1.097075e-01   7.502945e+00   1.127640e+01  -2.152764e+05  -4.125610e+04  -4.699725e+04   2.424980e+12  -1.248971e+13  -1.783807e+11   2.241757e+05   2.899151e-20   0.000000e+00   0.000000e+00
     2400000   2.399999e-05   1.143226e-01   7.499624e+00   1.127313e+01  -2.010872e+04   2.203326e+05  -3.785954e+04  -1.266984e+13  -1.203367e+12  -3.166322e+11   2.244642e+05   2.909630e-20   0.000000e+00   0.000000e+00
     2408000   2.407999e-05   1.105954e-01   7.495490e+00   1.126964e+01   2.217340e+05   3.742417e+02  -3.671212e+04   2.535263e+10   1.272861e+13   2.387323e+11   2.247530e+05   2.917159e-20   0.000000e+00   0.000000e+00
     2416000   2.415999e-05   1.068658e-01   7.499760e+00   1.126628e+01  -2.100527e+04  -2.191751e+05  -4.652865e+04   1.267696e+13  -1.277606e+12   2.603234e+11   2.250419e+05   2.930626e-20   0.000000e+00   0.000000e+00
     2424000   2.423999e-05   1.115262e-01   7.503201e+00   1.126309e+01  -2.158962e+05   4.496590e+04  -4.626918e+04  -2.549344e+12  -1.250578e+13  -2.932816e+11   2.253307e+05   2.948542e-20   0.000000e+00   0.000000e+00
     2432000   2.431999e-05   1.145143e-01   7.498351e+00   1.125968e+01   6.719435e+04   2.122037e+05  -3.686099e+04  -1.217958e+13   3.827988e+12  -2.093380e+11   2.256196e+05   2.957190e-20   0.000000e+00   0.000000e+00
     2440000   2.439999e-05   1.094041e-01   7.496023e+00   1.125612e+01   2.046621e+05  -8.706158e+04  -3.960418e+04   5.058422e+12   1.172127e+13   3.323815e+11   2.259088e+05   2.965628e-20   0.000000e+00   0.000000e+00
     2448000   2.447999e-05   1.076468e-01   7.501512e+00   1.125277e+01  -1.077504e+05  -1.927916e+05  -4.885471e+04   1.114479e+13  -6.271088e+12   1.334984e+11   2.261980e+05   2.981694e-20   0.000000e+00   0.000000e+00
     2456000   2.455999e-05   1.133344e-01   7.502828e+00   1.124949e+01  -1.800066e+05   1.299784e+05  -4.471761e+04  -7.439897e+12  -1.041751e+13  -3.681203e+11   2.264872e+05   2.997754e-20   0.000000e+00   0.000000e+00
     2464000   2.463999e-05   1.140633e-01   7.497169e+00   1.124595e+01   1.492166e+05   1.667789e+05  -3.669825e+04  -9.544945e+12   8.536836e+12  -5.832314e+10   2.267764e+05   3.004953e-20   0.000000e+00   0.000000e+00
     2472000   2.471999e-05   1.083798e-01   7.497218e+00   1.124235e+01   1.499466e+05  -1.649618e+05  -4.315721e+04   9.528898e+12   8.554186e+12   3.723628e+11   2.270659e+05   3.014942e-20   0.000000e+00   0.000000e+00
     2480000   2.479999e-05   1.090887e-01   7.503028e+00   1.123899e+01  -1.805010e+05  -1.288103e+05  -5.017765e+04   7.452376e+12  -1.044553e+13  -2.620373e+10   2.273554e+05   3.032492e-20   0.000000e+00   0.000000e+00
     2488000   2.487999e-05   1.148277e-01   7.501816e+00   1.123560e+01  -1.071714e+05   1.962577e+05  -4.265418e+04  -1.123753e+13  -6.210249e+12  -3.778619e+11   2.276449e+05   3.046571e-20   0.000000e+00   0.000000e+00
     2496000   2.495999e-05   1.129957e-01   7.496397e+00   1.123194e+01   2.077879e+05   8.574864e+04  -3.775580e+04  -4.874566e+12   1.188089e+13   1.124438e+11   2.279345e+05   3.053174e-20   0.000000e+00   0.000000e+00
     2504000   2.503999e-05   1.078473e-01   7.499008e+00   1.122833e+01   6.149442e+04  -2.147136e+05  -4.693458e+04   1.237192e+13   3.461174e+12   3.407193e+11   2.282243e+05   3.065225e-20   0.000000e+00   0.000000e+00
     2512000   2.511999e-05   1.110838e-01   7.503982e+00   1.122494e+01  -2.203918e+05  -3.358648e+04  -5.018048e+04   1.974862e+12  -1.271969e+13  -1.931230e+11   2.285141e+05   3.083575e-20   0.000000e+00   0.000000e+00
     2520000   2.519999e-05   1.156785e-01   7.500318e+00   1.122141e+01  -6.380018e+03   2.250746e+05  -4.064358e+04  -1.287072e+13  -4.127417e+11  -3.061107e+11   2.288038e+05   3.094969e-20   0.000000e+00   0.000000e+00
     2528000   2.527999e-05   1.115112e-01   7.496353e+00   1.121765e+01   2.247142e+05  -1.923936e+04  -4.021570e+04   1.153109e+12   1.282503e+13   2.664602e+11   2.290937e+05   3.102120e-20   0.000000e+00   0.000000e+00
     2536000   2.535999e-05   1.081120e-01   7.501146e+00   1.121406e+01  -4.638640e+04  -2.189410e+05  -5.029996e+04   1.259921e+13  -2.730109e+12   2.313809e+11   2.293838e+05   3.116827e-20   0.000000e+00   0.000000e+00
     2544000   2.543999e-05   1.133364e-01   7.504087e+00   1.121061e+01  -2.112551e+05   7.576672e+04  -4.879269e+04  -4.297974e+12  -1.217310e+13  -3.282107e+11   2.296738e+05   3.134439e-20   0.000000e+00   0.000000e+00
     2552000   2.551999e-05   1.156320e-01   7.498678e+00   1.120693e+01   1.025383e+05   2.020261e+05  -3.942970e+04  -1.152465e+13   5.827219e+12  -1.555968e+11   2.299638e+05   3.142991e-20   0.000000e+00   0.000000e+00
     2560000   2.559999e-05   1.099975e-01   7.497255e+00   1.120312e+01   1.877388e+05  -1.258671e+05  -4.391519e+04   7.254808e+12   1.068143e+13   3.620455e+11   2.302541e+05   3.152029e-20   0.000000e+00   0.000000e+00
     2568000   2.567999e-05   1.093477e-01   7.503203e+00   1.119954e+01  -1.490115e+05  -1.678889e+05  -5.253192e+04   9.660124e+12  -8.601941e+12   5.762667e+10   2.305444e+05   3.168665e-20   0.000000e+00   0.000000e+00
     2576000   2.575999e-05   1.153791e-01   7.503224e+00   1.119599e+01  -1.463680e+05   1.723824e+05  -4.631761e+04  -9.821409e+12  -8.433408e+12  -3.866361e+11   2.308345e+05   3.184565e-20   0.000000e+00   0.000000e+00
     2584000   2.583999e-05   1.146276e-01   7.497394e+00   1.119216e+01   1.910151e+05   1.239268e+05  -3.967438e+04  -7.035696e+12   1.087201e+13   4.367254e+10   2.311249e+05   3.192040e-20   0.000000e+00   0.000000e+00
     2592000   2.591999e-05   1.089767e-01   7.499096e+00   1.118835e+01   9.745579e+04  -2.042851e+05  -4.819809e+04   1.172655e+13   5.499575e+12   3.664105e+11   2.314154e+05   3.203661e-20   0.000000e+00   0.000000e+00
     2600000   2.599999e-05   1.114750e-01   7.504640e+00   1.118477e+01  -2.156039e+05  -6.634279e+04  -5.292671e+04   3.841891e+12  -1.239583e+13  -1.443007e+11   2.317059e+05   3.222153e-20   0.000000e+00   0.000000e+00
     2608000   2.607999e-05   1.166664e-01   7.501551e+00   1.118109e+01  -3.516325e+04   2.251483e+05  -4.352162e+04  -1.281891e+13  -2.059578e+12  -3.364472e+11   2.319964e+05   3.234875e-20   0.000000e+00   0.000000e+00
     2616000   2.615999e-05   1.129090e-01   7.497004e+00   1.117715e+01   2.284314e+05   5.016004e+03  -4.184737e+04  -2.338643e+11   1.298198e+13   2.391848e+11   2.322871e+05   3.242298e-20   0.000000e+00   0.000000e+00
     2624000   2.623999e-05   1.089678e-01   7.501548e+00   1.117337e+01  -2.711638e+04  -2.250230e+05  -5.217135e+04   1.289479e+13  -1.621368e+12   2.586707e+11   2.325779e+05   3.256740e-20   0.000000e+00   0.000000e+00
     2632000   2.631999e-05   1.140790e-01   7.504970e+00   1.116975e+01  -2.185705e+05   6.175348e+04  -5.139322e+04  -3.477130e+12  -1.254266e+13  -3.161933e+11   2.328686e+05   3.275271e-20   0.000000e+00   0.000000e+00
     2640000   2.639999e-05   1.167630e-01   7.499568e+00   1.116590e+01   9.365736e+04   2.094241e+05  -4.163131e+04  -1.189621e+13   5.293227e+12  -1.761702e+11   2.331594e+05   3.284621e-20   0.000000e+00   0.000000e+00
     2648000   2.647999e-05   1.110520e-01   7.497879e+00   1.116191e+01   1.938849e+05  -1.216894e+05  -4.581968e+04   6.988437e+12   1.098366e+13   3.636337e+11   2.334504e+05   3.293644e-20   0.000000e+00   0.000000e+00
     2656000   2.655999e-05   1.102656e-01   7.503963e+00   1.115817e+01  -1.490297e+05  -1.715494e+05  -5.473600e+04   9.830279e+12  -8.569634e+12   6.232612e+10   2.337414e+05   3.310930e-20   0.000000e+00   0.000000e+00
     2664000   2.663999e-05   1.164520e-01   7.503991e+00   1.115445e+01  -1.466087e+05   1.758832e+05  -4.839577e+04  -9.976867e+12  -8.414203e+12  -3.910689e+11   2.340324e+05   3.327229e-20   0.000000e+00   0.000000e+00
     2672000   2.671999e-05   1.155708e-01   7.498032e+00   1.115044e+01   1.968866e+05   1.199967e+05  -4.176053e+04  -6.779385e+12   1.115680e+13   5.519183e+10   2.343234e+05   3.334484e-20   0.000000e+00   0.000000e+00
     2680000   2.679999e-05   1.098465e-01   7.500002e+00   1.114646e+01   8.865281e+04  -2.112215e+05  -5.069718e+04   1.207323e+13   4.972108e+12   3.630134e+11   2.346147e+05   3.346298e-20   0.000000e+00   0.000000e+00
     2688000   2.687999e-05   1.127302e-01   7.505536e+00   1.114272e+01  -2.223360e+05  -5.216455e+04  -5.501220e+04   3.020652e+12  -1.272856e+13  -1.696308e+11   2.349059e+05   3.365478e-20   0.000000e+00   0.000000e+00
     2696000   2.695999e-05   1.177896e-01   7.501976e+00   1.113885e+01  -1.562698e+04   2.302913e+05  -4.515894e+04  -1.305300e+13  -9.413814e+11  -3.216787e+11   2.351970e+05   3.377788e-20   0.000000e+00   0.000000e+00
     2704000   2.703999e-05   1.134980e-01   7.497720e+00   1.113473e+01   2.304271e+05  -1.950117e+04  -4.447263e+04   1.163033e+12   1.303441e+13   2.719648e+11   2.354883e+05   3.385210e-20   0.000000e+00   0.000000e+00
     2712000   2.711999e-05   1.100224e-01   7.502832e+00   1.113079e+01  -5.612708e+04  -2.222972e+05  -5.500715e+04   1.268661e+13  -3.266460e+12   2.244420e+11   2.357797e+05   3.400486e-20   0.000000e+00   0.000000e+00
     2720000   2.719999e-05   1.156874e-01   7.505608e+00   1.112699e+01  -2.098047e+05   9.445002e+04  -5.282727e+04  -5.318215e+12  -1.199092e+13  -3.497849e+11   2.360711e+05   3.419174e-20   0.000000e+00   0.000000e+00
     2728000   2.727999e-05   1.175323e-01   7.499724e+00   1.112294e+01   1.286270e+05   1.934979e+05  -4.336835e+04  -1.093542e+13   7.252178e+12  -1.160282e+11   2.363624e+05   3.427677e-20   0.000000e+00   0.000000e+00
     2736000   2.735999e-05   1.114530e-01   7.499069e+00   1.111878e+01   1.698382e+05  -1.572564e+05  -4.930003e+04   8.977914e+12   9.565676e+12   3.814843e+11   2.366539e+05   3.437330e-20   0.000000e+00   0.000000e+00
     2744000   2.743999e-05   1.118745e-01   7.505368e+00   1.111488e+01  -1.834947e+05  -1.385657e+05  -5.720491e+04   7.917768e+12  -1.049081e+13  -1.623597e+10   2.369455e+05   3.455765e-20   0.000000e+00   0.000000e+00
     2752000   2.751999e-05   1.180648e-01   7.504050e+00   1.111096e+01  -1.045160e+05   2.072306e+05  -4.912433e+04  -1.170792e+13  -5.988248e+12  -3.870623e+11   2.372369e+05   3.471000e-20   0.000000e+00   0.000000e+00
     2760000   2.759999e-05   1.157347e-01   7.498351e+00   1.110674e+01   2.228528e+05   6.915168e+04  -4.443461e+04  -3.863524e+12   1.257181e+13   1.493118e+11   2.375284e+05   3.477831e-20   0.000000e+00   0.000000e+00
     2768000   2.767999e-05   1.105612e-01   7.501832e+00   1.110261e+01   2.967337e+04  -2.295350e+05  -5.469542e+04   1.305969e+13   1.603707e+12   3.233520e+11   2.378201e+05   3.491066e-20   0.000000e+00   0.000000e+00
     2776000   2.775999e-05   1.149528e-01   7.506505e+00   1.109870e+01  -2.309245e+05   1.399227e+04  -5.634952e+04  -7.400214e+11  -1.315900e+13  -2.657171e+11   2.381117e+05   3.510655e-20   0.000000e+00   0.000000e+00
     2784000   2.783999e-05   1.188195e-01   7.501518e+00   1.109458e+01   5.588458e+04   2.271676e+05  -4.591124e+04  -1.281085e+13   3.110722e+12  -2.398604e+11   2.384031e+05   3.520759e-20   0.000000e+00   0.000000e+00
     2792000   2.791999e-05   1.132511e-01   7.498799e+00   1.109027e+01   2.139601e+05  -9.395701e+04  -4.866595e+04   5.371215e+12   1.203360e+13   3.461820e+11   2.386948e+05   3.527863e-20   0.000000e+00   0.000000e+00
     2800000   2.799999e-05   1.116319e-01   7.504973e+00   1.108620e+01  -1.311006e+05  -1.910383e+05  -5.857927e+04   1.086418e+13  -7.497267e+12   1.062219e+11   2.389865e+05   3.546129e-20   0.000000e+00   0.000000e+00
     2808000   2.807999e-05   1.180592e-01   7.505614e+00   1.108220e+01  -1.630225e+05   1.669942e+05  -5.282594e+04  -9.395160e+12  -9.286968e+12  -3.974180e+11   2.392780e+05   3.563433e-20   0.000000e+00   0.000000e+00
     2816000   2.815999e-05   1.175351e-01   7.499355e+00   1.107788e+01   1.952111e+05   1.312232e+05  -4.546079e+04  -7.357570e+12   1.097306e+13   4.170189e+10   2.395696e+05   3.569442e-20   0.000000e+00   0.000000e+00
     2824000   2.823999e-05   1.115209e-01   7.501244e+00   1.107357e+01   9.273747e+04  -2.143610e+05  -5.461320e+04   1.216407e+13   5.159679e+12   3.714095e+11   2.398614e+05   3.581858e-20   0.000000e+00   0.000000e+00
     2832000   2.831999e-05   1.145699e-01   7.506996e+00   1.106953e+01  -2.278472e+05  -4.763438e+04  -5.907682e+04   2.746767e+12  -1.294965e+13  -1.819260e+11   2.401530e+05   3.601802e-20   0.000000e+00   0.000000e+00
     2840000   2.839999e-05   1.196875e-01   7.503078e+00   1.106533e+01  -2.112582e+03   2.354515e+05  -4.869996e+04  -1.323984e+13  -1.763963e+11  -3.145127e+11   2.404445e+05   3.613685e-20   0.000000e+00   0.000000e+00
     2848000   2.847999e-05   1.148894e-01   7.499006e+00   1.106088e+01   2.320425e+05  -4.150371e+04  -4.886382e+04   2.399406e+12   1.301793e+13   3.012154e+11   2.407362e+05   3.620207e-20   0.000000e+00   0.000000e+00
     2856000   2.855999e-05   1.118747e-01   7.504718e+00   1.105664e+01  -8.575337e+04  -2.172025e+05  -5.969880e+04   1.230749e+13  -4.918578e+12   1.869556e+11   2.410280e+05   3.637009e-20   0.000000e+00   0.000000e+00
     2864000   2.863999e-05   1.181331e-01   7.506742e+00   1.105252e+01  -1.954242e+05   1.300667e+05  -5.592104e+04  -7.281225e+12  -1.109133e+13  -3.835222e+11   2.413196e+05   3.655752e-20   0.000000e+00   0.000000e+00
     2872000   2.871999e-05   1.189139e-01   7.500386e+00   1.104810e+01   1.673634e+05   1.677995e+05  -4.699717e+04  -9.395690e+12   9.370904e+12  -3.878554e+10   2.416111e+05   3.662789e-20   0.000000e+00   0.000000e+00
     2880000   2.879999e-05   1.125682e-01   7.501107e+00   1.104363e+01   1.311881e+05  -1.956443e+05  -5.504549e+04   1.107397e+13   7.307091e+12   3.891286e+11   2.419029e+05   3.673382e-20   0.000000e+00   0.000000e+00
     2888000   2.887999e-05   1.146180e-01   7.507388e+00   1.103944e+01  -2.180134e+05  -8.589022e+04  -6.124728e+04   4.895040e+12  -1.235850e+13  -1.220833e+11   2.421945e+05   3.693346e-20   0.000000e+00   0.000000e+00
     2896000   2.895999e-05   1.204055e-01   7.504277e+00   1.103514e+01  -3.828352e+04   2.339057e+05  -5.120516e+04  -1.311032e+13  -2.215344e+12  -3.523401e+11   2.424860e+05   3.706501e-20   0.000000e+00   0.000000e+00
     2904000   2.903999e-05   1.162017e-01   7.499456e+00   1.103056e+01   2.374564e+05  -8.984148e+03  -4.974650e+04   5.658771e+11   1.328146e+13   2.669659e+11   2.427776e+05   3.712829e-20   0.000000e+00   0.000000e+00
     2912000   2.911999e-05   1.124104e-01   7.504794e+00   1.102616e+01  -5.813617e+04  -2.280046e+05  -6.096543e+04   1.287708e+13  -3.352539e+12   2.296221e+11   2.430693e+05   3.728554e-20   0.000000e+00   0.000000e+00
     2920000   2.919999e-05   1.184952e-01   7.507577e+00   1.102192e+01  -2.100092e+05   1.082403e+05  -5.834947e+04  -6.028492e+12  -1.188002e+13  -3.707781e+11   2.433608e+05   3.748125e-20   0.000000e+00   0.000000e+00
     2928000   2.927999e-05   1.199659e-01   7.501226e+00   1.101738e+01   1.515823e+05   1.844446e+05  -4.867667e+04  -1.029901e+13   8.453167e+12  -7.768097e+10   2.436523e+05   3.755341e-20   0.000000e+00   0.000000e+00
     2936000   2.935999e-05   1.134861e-01   7.501371e+00   1.101276e+01   1.480110e+05  -1.856016e+05  -5.615552e+04   1.047663e+13   8.225677e+12   3.949977e+11   2.439439e+05   3.765311e-20   0.000000e+00   0.000000e+00
     2944000   2.943999e-05   1.150928e-01   7.507887e+00   1.100844e+01  -2.130988e+05  -1.012627e+05  -6.313270e+04   5.744374e+12  -1.204537e+13  -9.747072e+10   2.442354e+05   3.785388e-20   0.000000e+00   0.000000e+00
     2952000   2.951999e-05   1.211628e-01   7.505082e+00   1.100401e+01  -5.095705e+04   2.331721e+05  -5.317397e+04  -1.302476e+13  -2.922140e+12  -3.656213e+11   2.445268e+05   3.799077e-20   0.000000e+00   0.000000e+00
     2960000   2.959999e-05   1.171249e-01   7.499988e+00   1.099929e+01   2.394065e+05   1.632252e+02  -5.119068e+04   5.321174e+10   1.334175e+13   2.566138e+11   2.448182e+05   3.802888e-20   0.000000e+00   0.000000e+00
     2968000   2.967999e-05   1.131079e-01   7.505289e+00   1.099476e+01  -5.298159e+04  -2.309842e+05  -6.259444e+04   1.300404e+13  -3.054971e+12   2.378820e+11   2.451098e+05   3.821022e-20   0.000000e+00   0.000000e+00
     2976000   2.975999e-05   1.192478e-01   7.508220e+00   1.099039e+01  -2.124828e+05   1.070698e+05  -6.007347e+04  -5.941149e+12  -1.198225e+13  -3.717782e+11   2.454011e+05   3.841161e-20   0.000000e+00   0.000000e+00
     2984000   2.983999e-05   1.207566e-01   7.501768e+00   1.098572e+01   1.537086e+05   1.849694e+05  -5.024683e+04  -1.029255e+13   8.542388e+12  -7.488904e+10   2.456924e+05   3.848239e-20   0.000000e+00   0.000000e+00
     2992000   2.991999e-05   1.141730e-01   7.502003e+00   1.098097e+01   1.452804e+05  -1.898493e+05  -5.795600e+04   1.068170e+13   8.043434e+12   3.970643e+11   2.459839e+05   3.858209e-20   0.000000e+00   0.000000e+00
     3000000   2.999999e-05   1.159874e-01   7.508583e+00   1.097651e+01  -2.180788e+05  -9.433835e+04  -6.475633e+04   5.340160e+12  -1.228647e+13  -1.125036e+11   2.462752e+05   3.878899e-20   0.000000e+00   0.000000e+00
     3008000   3.007999e-05   1.220290e-01   7.505479e+00   1.097196e+01  -3.957842e+04   2.372041e+05  -5.443086e+04  -1.320498e+13  -2.277722e+12  -3.573302e+11   2.465664e+05   3.892399e-20   0.000000e+00   0.000000e+00
     3016000   3.015999e-05   1.176315e-01   7.500552e+00   1.096710e+01   2.405989e+05  -1.530703e+04  -5.307141e+04   9.194010e+11   1.336449e+13   2.796399e+11   2.468576e+05   3.898256e-20   0.000000e+00   0.000000e+00
     3024000   3.023999e-05   1.139430e-01   7.506231e+00   1.096245e+01  -7.175669e+04  -2.275046e+05  -6.461599e+04   1.276862e+13  -4.095918e+12   2.136905e+11   2.471490e+05   3.914581e-20   0.000000e+00   0.000000e+00
     3032000   3.031999e-05   1.204153e-01   7.508667e+00   1.095795e+01  -2.029006e+05   1.277716e+05  -6.109288e+04  -7.075492e+12  -1.140795e+13  -3.894599e+11   2.474401e+05   3.934616e-20   0.000000e+00   0.000000e+00
     3040000   3.039999e-05   1.212645e-01   7.502000e+00   1.095313e+01   1.742231e+05   1.683567e+05  -5.170123e+04  -9.328009e+12   9.654416e+12  -3.038329e+10   2.477311e+05   3.940923e-20   0.000000e+00   0.000000e+00
     3048000   3.047999e-05   1.146380e-01   7.503037e+00   1.094826e+01   1.212446e+05  -2.077366e+05  -6.050055e+04   1.164463e+13   6.672888e+12   3.940862e+11   2.480223e+05   3.951504e-20   0.000000e+00   0.000000e+00
     3056000   3.055999e-05   1.173427e-01   7.509441e+00   1.094369e+01  -2.308775e+05  -6.309946e+04  -6.613292e+04   3.582146e+12  -1.296033e+13  -1.671700e+11   2.483134e+05   3.972866e-20   0.000000e+00   0.000000e+00
     3064000   3.063999e-05   1.229424e-01   7.505434e+00   1.093898e+01  -2.458733e+03   2.424121e+05  -5.508566e+04  -1.344663e+13  -2.024669e+11  -3.236473e+11   2.486043e+05   3.984983e-20   0.000000e+00   0.000000e+00
     3072000   3.071999e-05   1.177058e-01   7.501240e+00   1.093398e+01   2.360204e+05  -5.613068e+04  -5.561091e+04   3.190256e+12   1.305845e+13   3.268741e+11   2.488953e+05   3.991014e-20   0.000000e+00   0.000000e+00
     3080000   3.079999e-05   1.150295e-01   7.507612e+00   1.092923e+01  -1.136296e+05  -2.114185e+05  -6.696507e+04   1.183240e+13  -6.415222e+12   1.489547e+11   2.491863e+05   4.008656e-20   0.000000e+00   0.000000e+00
     3088000   3.087999e-05   1.219510e-01   7.508797e+00   1.092459e+01  -1.745272e+05   1.673873e+05  -6.132325e+04  -9.253876e+12  -9.788725e+12  -4.121007e+11   2.494770e+05   4.027775e-20   0.000000e+00   0.000000e+00
     3096000   3.095999e-05   1.213699e-01   7.502016e+00   1.091960e+01   2.077199e+05   1.280246e+05  -5.334873e+04  -7.049914e+12   1.147741e+13   5.939494e+10   2.497677e+05   4.032999e-20   0.000000e+00   0.000000e+00
     3104000   3.103999e-05   1.150230e-01   7.504579e+00   1.091463e+01   7.031216e+04  -2.313295e+05  -6.381363e+04   1.291714e+13   3.816336e+12   3.695990e+11   2.500586e+05   4.045028e-20   0.000000e+00   0.000000e+00
     3112000   3.111999e-05   1.192310e-01   7.510277e+00   1.090995e+01  -2.412030e+05  -3.876913e+03  -6.693897e+04   2.804299e+11  -1.348971e+13  -2.564018e+11   2.503493e+05   4.067014e-20   0.000000e+00   0.000000e+00
     3120000   3.119999e-05   1.236860e-01   7.504925e+00   1.090505e+01   6.122626e+04   2.366601e+05  -5.534977e+04  -1.307508e+13   3.332877e+12  -2.457174e+11   2.506397e+05   4.076664e-20   0.000000e+00   0.000000e+00
     3128000   3.127999e-05   1.173928e-01   7.502290e+00   1.089993e+01   2.125544e+05  -1.195728e+05  -5.906789e+04   6.698692e+12   1.170389e+13   3.817689e+11   2.509304e+05   4.083280e-20   0.000000e+00   0.000000e+00
     3136000   3.135999e-05   1.166063e-01   7.509313e+00   1.089510e+01  -1.718504e+05  -1.696566e+05  -6.925325e+04   9.477116e+12  -9.624496e+12   3.450263e+10   2.512209e+05   4.102830e-20   0.000000e+00   0.000000e+00
     3144000   3.143999e-05   1.236616e-01   7.508394e+00   1.089028e+01  -1.156827e+05   2.149163e+05  -6.071521e+04  -1.185373e+13  -6.488409e+12  -4.121069e+11   2.515111e+05   4.119803e-20   0.000000e+00   0.000000e+00
     3152000   3.151999e-05   1.209092e-01   7.502083e+00   1.088511e+01   2.392846e+05   5.514558e+04  -5.572973e+04  -2.985247e+12   1.317673e+13   1.882099e+11   2.518015e+05   4.124647e-20   0.000000e+00   0.000000e+00
     3160000   3.159999e-05   1.156545e-01   7.506717e+00   1.088007e+01  -1.218791e+04  -2.425341e+05  -6.766814e+04   1.349509e+13  -7.683498e+11   2.962409e+11   2.520919e+05   4.139203e-20   0.000000e+00   0.000000e+00
     3168000   3.167999e-05   1.216454e-01   7.510727e+00   1.087527e+01  -2.289613e+05   8.259647e+04  -6.671751e+04  -4.507792e+12  -1.276268e+13  -3.578662e+11   2.523820e+05   4.160961e-20   0.000000e+00   0.000000e+00
     3176000   3.175999e-05   1.238901e-01   7.504075e+00   1.087015e+01   1.445186e+05   1.996054e+05  -5.581441e+04  -1.097297e+13   7.924610e+12  -1.045470e+11   2.526720e+05   4.167845e-20   0.000000e+00   0.000000e+00
     3184000   3.183999e-05   1.169304e-01   7.504041e+00   1.086492e+01   1.515888e+05  -1.922561e+05  -6.362661e+04   1.069380e+13   8.287364e+12   4.075687e+11   2.529622e+05   4.177142e-20   0.000000e+00   0.000000e+00
     3192000   3.191999e-05   1.189450e-01   7.510985e+00   1.086002e+01  -2.268975e+05  -8.749406e+04  -7.070393e+04   4.905184e+12  -1.263548e+13  -1.312809e+11   2.532523e+05   4.198826e-20   0.000000e+00   0.000000e+00
     3200000   3.199999e-05   1.251040e-01   7.507296e+00   1.085500e+01  -1.766277e+04   2.458353e+05  -5.946953e+04  -1.351530e+13  -1.047130e+12  -3.454346e+11   2.535420e+05   4.211773e-20   0.000000e+00   0.000000e+00
     3208000   3.207999e-05   1.198556e-01   7.502701e+00   1.084966e+01   2.413654e+05  -5.131033e+04  -5.950335e+04   2.901783e+12   1.323495e+13   3.270990e+11   2.538319e+05   4.217100e-20   0.000000e+00   0.000000e+00
     3216000   3.215999e-05   1.170455e-01   7.509321e+00   1.084458e+01  -1.186045e+05  -2.131234e+05  -7.133944e+04   1.182934e+13  -6.640434e+12   1.454758e+11   2.541218e+05   4.234994e-20   0.000000e+00   0.000000e+00
     3224000   3.223999e-05   1.242864e-01   7.510316e+00   1.083961e+01  -1.680903e+05   1.795350e+05  -6.509971e+04  -9.838603e+12  -9.354085e+12  -4.217616e+11   2.544114e+05   4.254450e-20   0.000000e+00   0.000000e+00
     3232000   3.231999e-05   1.231690e-01   7.503337e+00   1.083427e+01   2.222030e+05   1.104329e+05  -5.747159e+04  -6.013753e+12   1.216848e+13   9.891339e+10   2.547010e+05   4.258871e-20   0.000000e+00   0.000000e+00
     3240000   3.239999e-05   1.168960e-01   7.506738e+00   1.082898e+01   4.021335e+04  -2.421745e+05  -6.895385e+04   1.340770e+13   2.118899e+12   3.506894e+11   2.549906e+05   4.271627e-20   0.000000e+00   0.000000e+00
     3248000   3.247999e-05   1.221022e-01   7.511969e+00   1.082399e+01  -2.424533e+05   3.779591e+04  -7.039742e+04  -2.012670e+12  -1.344571e+13  -3.134199e+11   2.552801e+05   4.294269e-20   0.000000e+00   0.000000e+00
     3256000   3.255999e-05   1.255987e-01   7.505660e+00   1.081870e+01   1.104590e+05   2.228911e+05  -5.860061e+04  -1.219576e+13   6.006947e+12  -1.721055e+11   2.555693e+05   4.301984e-20   0.000000e+00   0.000000e+00
     3264000   3.263999e-05   1.185870e-01   7.504501e+00   1.081325e+01   1.796670e+05  -1.701523e+05  -6.505099e+04   9.425876e+12   9.785352e+12   4.100120e+11   2.558587e+05   4.309838e-20   0.000000e+00   0.000000e+00
     3272000   3.271999e-05   1.197029e-01   7.511805e+00   1.080814e+01  -2.164095e+05  -1.156362e+05  -7.353197e+04   6.430349e+12  -1.199644e+13  -8.457048e+10   2.561479e+05   4.331344e-20   0.000000e+00   0.000000e+00
     3280000   3.279999e-05   1.263973e-01   7.508734e+00   1.080294e+01  -4.198067e+04   2.451274e+05  -6.253034e+04  -1.340290e+13  -2.382404e+12  -3.707700e+11   2.564368e+05   4.345328e-20   0.000000e+00   0.000000e+00
     3288000   3.287999e-05   1.214650e-01   7.503574e+00   1.079740e+01   2.469868e+05  -3.339103e+04  -6.156886e+04   1.906211e+12   1.347181e+13   3.105327e+11   2.567258e+05   4.349698e-20   0.000000e+00   0.000000e+00
     3296000   3.295999e-05   1.181720e-01   7.510147e+00   1.079210e+01  -1.082539e+05  -2.211130e+05  -7.380221e+04   1.220825e+13  -6.040280e+12   1.644723e+11   2.570148e+05   4.367355e-20   0.000000e+00   0.000000e+00
     3304000   3.303999e-05   1.255419e-01   7.511461e+00   1.078694e+01  -1.747206e+05   1.762938e+05  -6.781082e+04  -9.605424e+12  -9.671971e+12  -4.232909e+11   2.573035e+05   4.387477e-20   0.000000e+00   0.000000e+00
     3312000   3.311999e-05   1.245227e-01   7.504299e+00   1.078139e+01   2.237743e+05   1.126623e+05  -5.988319e+04  -6.100624e+12   1.218636e+13   9.890504e+10   2.575922e+05   4.391282e-20   0.000000e+00   0.000000e+00
     3320000   3.319999e-05   1.181263e-01   7.507826e+00   1.077591e+01   3.609817e+04  -2.450853e+05  -7.164276e+04   1.349827e+13   1.878534e+12   3.489989e+11   2.578809e+05   4.403959e-20   0.000000e+00   0.000000e+00
     3328000   3.327999e-05   1.236147e-01   7.513023e+00   1.077072e+01  -2.429155e+05   4.856653e+04  -7.269625e+04  -2.588762e+12  -1.340162e+13  -3.285445e+11   2.581693e+05   4.427096e-20   0.000000e+00   0.000000e+00
     3336000   3.335999e-05   1.268362e-01   7.506390e+00   1.076523e+01   1.260823e+05   2.172750e+05  -6.078764e+04  -1.181836e+13   6.825715e+12  -1.462651e+11   2.584576e+05   4.433942e-20   0.000000e+00   0.000000e+00
     3344000   3.343999e-05   1.195820e-01   7.505780e+00   1.075958e+01   1.651311e+05  -1.871575e+05  -6.821475e+04   1.030719e+13   8.932558e+12   4.160594e+11   2.587460e+05   4.441856e-20   0.000000e+00   0.000000e+00
     3352000   3.351999e-05   1.214732e-01   7.513118e+00   1.075429e+01  -2.304109e+05  -9.082725e+04  -7.589412e+04   5.041839e+12  -1.269997e+13  -1.325359e+11   2.590342e+05   4.464312e-20   0.000000e+00   0.000000e+00
     3360000   3.359999e-05   1.278673e-01   7.509156e+00   1.074887e+01  -7.946117e+03   2.511696e+05  -6.402059e+04  -1.365495e+13  -5.115046e+11  -3.411234e+11   2.593221e+05   4.476838e-20   0.000000e+00   0.000000e+00
     3368000   3.367999e-05   1.220707e-01   7.504713e+00   1.074312e+01   2.404392e+05  -7.331729e+04  -6.489161e+04   4.077719e+12   1.303246e+13   3.555644e+11   2.596101e+05   4.481113e-20   0.000000e+00   0.000000e+00
     3376000   3.375999e-05   1.199091e-01   7.511956e+00   1.073767e+01  -1.490745e+05  -1.985418e+05  -7.684345e+04   1.091263e+13  -8.239368e+12   9.362418e+10   2.598980e+05   4.500259e-20   0.000000e+00   0.000000e+00
     3384000   3.383999e-05   1.275585e-01   7.511809e+00   1.073230e+01  -1.351433e+05   2.114830e+05  -6.861285e+04  -1.146805e+13  -7.458949e+12  -4.297082e+11   2.601855e+05   4.518793e-20   0.000000e+00   0.000000e+00
     3392000   3.391999e-05   1.248929e-01   7.504927e+00   1.072652e+01   2.460284e+05   5.805134e+04  -6.281966e+04  -3.086134e+12   1.332197e+13   1.943872e+11   2.604731e+05   4.521536e-20   0.000000e+00   0.000000e+00
     3400000   3.399999e-05   1.194161e-01   7.510081e+00   1.072089e+01  -2.894261e+04  -2.478364e+05  -7.573374e+04   1.357666e+13  -1.680231e+12   2.852871e+11   2.607607e+05   4.536217e-20   0.000000e+00   0.000000e+00
     3408000   3.407999e-05   1.262467e-01   7.513726e+00   1.071551e+01  -2.215935e+05   1.168862e+05  -7.334827e+04  -6.293342e+12  -1.216492e+13  -3.984510e+11   2.610479e+05   4.558836e-20   0.000000e+00   0.000000e+00
     3416000   3.415999e-05   1.273776e-01   7.506313e+00   1.070975e+01   1.880346e+05   1.703402e+05  -6.263533e+04  -9.190806e+12   1.015049e+13  -1.642148e+10   2.613350e+05   4.562866e-20   0.000000e+00   0.000000e+00
     3424000   3.423999e-05   1.201121e-01   7.508136e+00   1.070395e+01   9.474042e+04  -2.326021e+05  -7.325785e+04   1.272256e+13   5.048011e+12   3.997866e+11   2.616222e+05   4.572957e-20   0.000000e+00   0.000000e+00
     3432000   3.431999e-05   1.244769e-01   7.514592e+00   1.069851e+01  -2.502587e+05  -2.659218e+03  -7.720057e+04   2.218409e+11  -1.370820e+13  -2.713051e+11   2.619092e+05   4.595992e-20   0.000000e+00   0.000000e+00
     3440000   3.439999e-05   1.290613e-01   7.508482e+00   1.069280e+01   8.793293e+04   2.384689e+05  -6.439715e+04  -1.287798e+13   4.697550e+12  -2.183047e+11   2.621958e+05   4.604076e-20   0.000000e+00   0.000000e+00
     3448000   3.447999e-05   1.217937e-01   7.506669e+00   1.068687e+01   1.923357e+05  -1.641801e+05  -7.034865e+04   8.987131e+12   1.033712e+13   4.196069e+11   2.624825e+05   4.610319e-20   0.000000e+00   0.000000e+00
     3456000   3.455999e-05   1.228072e-01   7.514409e+00   1.068131e+01  -2.216143e+05  -1.166469e+05  -7.954977e+04   6.409988e+12  -1.213261e+13  -9.047082e+10   2.627691e+05   4.632587e-20   0.000000e+00   0.000000e+00
     3464000   3.463999e-05   1.297619e-01   7.510934e+00   1.067565e+01  -2.690106e+04   2.527838e+05  -6.763706e+04  -1.363521e+13  -1.541572e+12  -3.661762e+11   2.630553e+05   4.645963e-20   0.000000e+00   0.000000e+00
     3472000   3.471999e-05   1.240725e-01   7.506006e+00   1.066963e+01   2.463131e+05  -6.390709e+04  -6.778300e+04   3.541524e+12   1.324713e+13   3.519556e+11   2.633416e+05   4.649243e-20   0.000000e+00   0.000000e+00
     3480000   3.479999e-05   1.216608e-01   7.513416e+00   1.066392e+01  -1.489491e+05  -2.021591e+05  -8.028363e+04   1.103038e+13  -8.175447e+12   9.827845e+10   2.636278e+05   4.668380e-20   0.000000e+00   0.000000e+00
     3488000   3.487999e-05   1.295505e-01   7.513207e+00   1.065829e+01  -1.314431e+05   2.173418e+05  -7.166339e+04  -1.169329e+13  -7.206574e+12  -4.350378e+11   2.639136e+05   4.686941e-20   0.000000e+00   0.000000e+00
     3496000   3.495999e-05   1.265123e-01   7.506238e+00   1.065223e+01   2.518772e+05   4.448187e+04  -6.618566e+04  -2.324330e+12   1.353051e+13   2.195525e+11   2.641994e+05   4.688848e-20   0.000000e+00   0.000000e+00
     3504000   3.503999e-05   1.212695e-01   7.511972e+00   1.064636e+01  -5.195317e+04  -2.468028e+05  -7.963429e+04   1.342223e+13  -2.916755e+12   2.592921e+11   2.644852e+05   4.704131e-20   0.000000e+00   0.000000e+00
     3512000   3.511999e-05   1.286683e-01   7.514972e+00   1.064071e+01  -2.078834e+05   1.454261e+05  -7.575738e+04  -7.783644e+12  -1.133381e+13  -4.228396e+11   2.647706e+05   4.726476e-20   0.000000e+00   0.000000e+00
     3520000   3.519999e-05   1.287374e-01   7.507265e+00   1.063466e+01   2.147862e+05   1.406584e+05  -6.585360e+04  -7.512246e+12   1.150974e+13   5.352776e+10   2.650558e+05   4.728945e-20   0.000000e+00   0.000000e+00
     3528000   3.527999e-05   1.216708e-01   7.510447e+00   1.062863e+01   4.925549e+04  -2.487763e+05  -7.803963e+04   1.350255e+13   2.549524e+12   3.706281e+11   2.653412e+05   4.740280e-20   0.000000e+00   0.000000e+00
     3536000   3.535999e-05   1.274312e-01   7.516066e+00   1.062293e+01  -2.476152e+05   5.429258e+04  -7.934924e+04  -2.849349e+12  -1.346378e+13  -3.445058e+11   2.656262e+05   4.764409e-20   0.000000e+00   0.000000e+00
     3544000   3.543999e-05   1.304953e-01   7.508862e+00   1.061690e+01   1.473141e+05   2.110591e+05  -6.679259e+04  -1.129461e+13   7.856056e+12  -1.146342e+11   2.659110e+05   4.769291e-20   0.000000e+00   0.000000e+00
     3552000   3.551999e-05   1.227537e-01   7.509144e+00   1.061073e+01   1.384080e+05  -2.143077e+05  -7.599783e+04   1.162111e+13   7.346256e+12   4.237499e+11   2.661958e+05   4.776952e-20   0.000000e+00   0.000000e+00
     3560000   3.559999e-05   1.261456e-01   7.516483e+00   1.060495e+01  -2.504323e+05  -3.943927e+04  -8.209757e+04   2.206659e+12  -1.359494e+13  -2.234129e+11   2.664804e+05   4.800944e-20   0.000000e+00   0.000000e+00
     3568000   3.567999e-05   1.316723e-01   7.510762e+00   1.059894e+01   6.399763e+04   2.496642e+05  -6.881503e+04  -1.335397e+13   3.358566e+12  -2.616566e+11   2.667647e+05   4.809548e-20   0.000000e+00   0.000000e+00
     3576000   3.575999e-05   1.243242e-01   7.508255e+00   1.059266e+01   2.051757e+05  -1.540977e+05  -7.397313e+04   8.364578e+12   1.092246e+13   4.216082e+11   2.670490e+05   4.813888e-20   0.000000e+00   0.000000e+00
     3584000   3.583999e-05   1.250530e-01   7.516324e+00   1.058677e+01  -2.220876e+05  -1.228600e+05  -8.396155e+04   6.688306e+12  -1.204909e+13  -8.262248e+10   2.673332e+05   4.836285e-20   0.000000e+00   0.000000e+00
     3592000   3.591999e-05   1.322769e-01   7.512719e+00   1.058078e+01  -2.182645e+04   2.569416e+05  -7.157812e+04  -1.372212e+13  -1.260608e+12  -3.674003e+11   2.676169e+05   4.849093e-20   0.000000e+00   0.000000e+00
     3600000   3.599999e-05   1.261619e-01   7.507865e+00   1.057441e+01   2.452037e+05  -8.010868e+04  -7.230843e+04   4.381491e+12   1.305206e+13   3.717083e+11   2.679006e+05   4.850978e-20   0.000000e+00   0.000000e+00
     3608000   3.607999e-05   1.243048e-01   7.515756e+00   1.056839e+01  -1.716263e+05  -1.877891e+05  -8.486748e+04   1.015898e+13  -9.319850e+12   5.559217e+10   2.681843e+05   4.870885e-20   0.000000e+00   0.000000e+00
     3616000   3.615999e-05   1.323950e-01   7.514538e+00   1.056240e+01  -9.972054e+04   2.378025e+05  -7.470320e+04  -1.267089e+13  -5.439971e+12  -4.282728e+11   2.684674e+05   4.887868e-20   0.000000e+00   0.000000e+00
     3624000   3.623999e-05   1.280644e-01   7.507964e+00   1.055598e+01   2.591276e+05  -3.177156e+03  -7.120156e+04   2.556769e+11   1.377650e+13   2.890871e+11   2.687506e+05   4.888214e-20   0.000000e+00   0.000000e+00
     3632000   3.631999e-05   1.239643e-01   7.514957e+00   1.054982e+01  -1.087651e+05  -2.309028e+05  -8.504813e+04   1.244687e+13  -5.936761e+12   1.778712e+11   2.690337e+05   4.905242e-20   0.000000e+00   0.000000e+00
     3640000   3.639999e-05   1.321598e-01   7.516100e+00   1.054381e+01  -1.632659e+05   1.995261e+05  -7.787725e+04  -1.059757e+13  -8.836545e+12  -4.469325e+11   2.693163e+05   4.925664e-20   0.000000e+00   0.000000e+00
     3648000   3.647999e-05   1.298786e-01   7.508479e+00   1.053735e+01   2.509774e+05   6.849143e+04  -7.073050e+04  -3.573957e+12   1.331830e+13   1.881122e+11   2.695988e+05   4.925462e-20   0.000000e+00   0.000000e+00
     3656000   3.655999e-05   1.240236e-01   7.514089e+00   1.053105e+01  -4.214720e+04  -2.527484e+05  -8.472202e+04   1.358877e+13  -2.366244e+12   2.765794e+11   2.698814e+05   4.939547e-20   0.000000e+00   0.000000e+00
     3664000   3.663999e-05   1.317140e-01   7.517351e+00   1.052502e+01  -2.097555e+05   1.498357e+05  -8.087135e+04  -7.920982e+12  -1.130860e+13  -4.311815e+11   2.701634e+05   4.962412e-20   0.000000e+00   0.000000e+00
     3672000   3.671999e-05   1.315074e-01   7.509307e+00   1.051853e+01   2.264662e+05   1.297342e+05  -7.087152e+04  -6.833638e+12   1.198819e+13   8.163551e+10   2.704453e+05   4.962594e-20   0.000000e+00   0.000000e+00
     3680000   3.679999e-05   1.244270e-01   7.513273e+00   1.051210e+01   2.163174e+04  -2.564205e+05  -8.410618e+04   1.375704e+13   1.038559e+12   3.492744e+11   2.707272e+05   4.973860e-20   0.000000e+00   0.000000e+00
     3688000   3.687999e-05   1.311852e-01   7.518296e+00   1.050601e+01  -2.394210e+05   9.561843e+04  -8.354898e+04  -5.012611e+12  -1.287287e+13  -3.910132e+11   2.710087e+05   4.998159e-20   0.000000e+00   0.000000e+00
     3696000   3.695999e-05   1.329058e-01   7.510335e+00   1.049950e+01   1.916449e+05   1.781952e+05  -7.153270e+04  -9.399553e+12   1.011154e+13  -2.032790e+10   2.712900e+05   4.998188e-20   0.000000e+00   0.000000e+00
     3704000   3.703999e-05   1.250925e-01   7.512595e+00   1.049295e+01   7.814038e+04  -2.463537e+05  -8.339566e+04   1.319251e+13   4.042209e+12   3.974926e+11   2.715712e+05   5.007100e-20   0.000000e+00   0.000000e+00
     3712000   3.711999e-05   1.306790e-01   7.518974e+00   1.048679e+01  -2.544028e+05   4.253048e+04  -8.587128e+04  -2.175222e+12  -1.364668e+13  -3.368770e+11   2.718520e+05   5.031610e-20   0.000000e+00   0.000000e+00
     3720000   3.719999e-05   1.340664e-01   7.511457e+00   1.048027e+01   1.522713e+05   2.135419e+05  -7.259055e+04  -1.126008e+13   8.000207e+12  -1.118025e+11   2.721325e+05   5.034821e-20   0.000000e+00   0.000000e+00
     3728000   3.727999e-05   1.259343e-01   7.512094e+00   1.047361e+01   1.252423e+05  -2.273313e+05  -8.272688e+04   1.215678e+13   6.534297e+12   4.253293e+11   2.724131e+05   5.041510e-20   0.000000e+00   0.000000e+00
     3736000   3.735999e-05   1.302611e-01   7.519444e+00   1.046737e+01  -2.580867e+05  -6.017739e+03  -8.784449e+04   4.088855e+11  -1.381857e+13  -2.764356e+11   2.726933e+05   5.065962e-20   0.000000e+00   0.000000e+00
     3744000   3.743999e-05   1.350225e-01   7.512596e+00   1.046083e+01   1.123984e+05   2.375241e+05  -7.391364e+04  -1.251042e+13   5.869183e+12  -1.892533e+11   2.729731e+05   5.070975e-20   0.000000e+00   0.000000e+00
     3752000   3.751999e-05   1.268742e-01   7.511777e+00   1.045407e+01   1.627204e+05  -2.035544e+05  -8.218794e+04   1.087341e+13   8.506419e+12   4.368056e+11   2.732530e+05   5.075729e-20   0.000000e+00   0.000000e+00
     3760000   3.759999e-05   1.299697e-01   7.519772e+00   1.044774e+01  -2.539701e+05  -4.805402e+04  -8.949872e+04   2.637274e+12  -1.357532e+13  -2.162344e+11   2.735325e+05   5.099726e-20   0.000000e+00   0.000000e+00
     3768000   3.767999e-05   1.358133e-01   7.513692e+00   1.044117e+01   7.517436e+04   2.522688e+05  -7.537974e+04  -1.326635e+13   3.885667e+12  -2.516349e+11   2.738117e+05   5.106560e-20   0.000000e+00   0.000000e+00
     3776000   3.775999e-05   1.278459e-01   7.511632e+00   1.043432e+01   1.911649e+05  -1.785613e+05  -8.183923e+04   9.530932e+12   9.992745e+12   4.368726e+11   2.740908e+05   5.109671e-20   0.000000e+00   0.000000e+00
     3784000   3.783999e-05   1.298227e-01   7.520020e+00   1.042790e+01  -2.453219e+05  -8.266782e+04  -9.089537e+04   4.463750e+12  -1.309257e+13  -1.610051e+11   2.743697e+05   5.133005e-20   0.000000e+00   0.000000e+00
     3792000   3.791999e-05   1.364837e-01   7.514707e+00   1.042130e+01   4.268727e+04   2.601886e+05  -7.688512e+04  -1.365803e+13   2.159591e+12  -2.996159e+11   2.746482e+05   5.141508e-20   0.000000e+00   0.000000e+00
     3800000   3.799999e-05   1.287978e-01   7.511638e+00   1.041436e+01   2.117863e+05  -1.550953e+05  -8.171072e+04   8.274403e+12   1.105992e+13   4.302170e+11   2.749266e+05   5.143257e-20   0.000000e+00   0.000000e+00
     3808000   3.807999e-05   1.298228e-01   7.520239e+00   1.040786e+01  -2.349610e+05  -1.097647e+05  -9.210169e+04   5.885714e+12  -1.252078e+13  -1.138664e+11   2.752048e+05   5.165869e-20   0.000000e+00   0.000000e+00
     3816000   3.815999e-05   1.370771e-01   7.515616e+00   1.040121e+01   1.617490e+04   2.636107e+05  -7.834802e+04  -1.381025e+13   7.551310e+11  -3.348255e+11   2.754825e+05   5.175774e-20   0.000000e+00   0.000000e+00
     3824000   3.823999e-05   1.296953e-01   7.511768e+00   1.039419e+01   2.260960e+05  -1.350312e+05  -8.179808e+04   7.202694e+12   1.179178e+13   4.197079e+11   2.757603e+05   5.177975e-20   0.000000e+00   0.000000e+00
     3832000   3.831999e-05   1.299590e-01   7.520469e+00   1.038760e+01  -2.249921e+05  -1.299980e+05  -9.314495e+04   6.940569e+12  -1.197276e+13  -7.572580e+10   2.760379e+05   5.199898e-20   0.000000e+00   0.000000e+00
     3840000   3.839999e-05   1.376304e-01   7.516413e+00   1.038091e+01  -4.167924e+03   2.645316e+05  -7.972177e+04  -1.383168e+13  -3.187390e+11  -3.585295e+11   2.763149e+05   5.210912e-20   0.000000e+00   0.000000e+00
     3848000   3.847999e-05   1.305110e-01   7.511991e+00   1.037382e+01   2.354867e+05  -1.196097e+05  -8.211342e+04   6.377792e+12   1.225890e+13   4.103044e+11   2.765919e+05   5.209908e-20   0.000000e+00   0.000000e+00
     3856000   3.855999e-05   1.302255e-01   7.520744e+00   1.036714e+01  -2.172168e+05  -1.435729e+05  -9.412726e+04   7.639726e+12  -1.153936e+13  -4.944160e+10   2.768687e+05   5.231255e-20   0.000000e+00   0.000000e+00
     3864000   3.863999e-05   1.381728e-01   7.517079e+00   1.036040e+01  -1.736785e+04   2.644957e+05  -8.093024e+04  -1.379876e+13  -1.013079e+12  -3.733566e+11   2.771449e+05   5.242975e-20   0.000000e+00   0.000000e+00
     3872000   3.871999e-05   1.312202e-01   7.512297e+00   1.035323e+01   2.408078e+05  -1.101893e+05  -8.265838e+04   5.870919e+12   1.250989e+13   4.040263e+11   2.774211e+05   5.241274e-20   0.000000e+00   0.000000e+00
     3880000   3.879999e-05   1.306191e-01   7.521090e+00   1.034648e+01  -2.129481e+05  -1.507647e+05  -9.507239e+04   8.000931e+12  -1.129140e+13  -3.527935e+10   2.776970e+05   5.262254e-20   0.000000e+00   0.000000e+00
     3888000   3.887999e-05   1.387248e-01   7.517613e+00   1.033967e+01  -2.325768e+04   2.645951e+05  -8.195824e+04  -1.377238e+13  -1.321099e+12  -3.801754e+11   2.779724e+05   5.274240e-20   0.000000e+00   0.000000e+00
     3896000   3.895999e-05   1.318120e-01   7.512671e+00   1.033242e+01   2.427910e+05  -1.073042e+05  -8.342770e+04   5.707940e+12   1.258438e+13   4.023727e+11   2.782478e+05   5.272032e-20   0.000000e+00   0.000000e+00
     3904000   3.903999e-05   1.311356e-01   7.521521e+00   1.032560e+01  -2.128389e+05  -1.518490e+05  -9.600239e+04   8.040863e+12  -1.126187e+13  -3.354021e+10   2.785229e+05   5.292893e-20   0.000000e+00   0.000000e+00
     3912000   3.911999e-05   1.392962e-01   7.518010e+00   1.031872e+01  -2.174520e+04   2.653313e+05  -8.279139e+04  -1.377870e+13  -1.240455e+12  -3.795848e+11   2.787974e+05   5.304684e-20   0.000000e+00   0.000000e+00
     3920000   3.919999e-05   1.322811e-01   7.513109e+00   1.031140e+01   2.416414e+05  -1.111907e+05  -8.442262e+04   5.898898e+12   1.249423e+13   4.058826e+11   2.790719e+05   5.302153e-20   0.000000e+00   0.000000e+00
     3928000   3.927999e-05   1.317767e-01   7.522039e+00   1.030452e+01  -2.170251e+05  -1.467683e+05  -9.691974e+04   7.758680e+12  -1.145640e+13  -4.443554e+10   2.793461e+05   5.323165e-20   0.000000e+00   0.000000e+00
     3936000   3.935999e-05   1.398847e-01   7.518268e+00   1.029756e+01  -1.270121e+04   2.665999e+05  -8.336892e+04  -1.381175e+13  -7.654705e+11  -3.666023e+11   2.796197e+05   5.334610e-20   0.000000e+00   0.000000e+00
     3944000   3.943999e-05   1.326224e-01   7.513619e+00   1.029018e+01   2.369684e+05  -1.219031e+05  -8.559173e+04   6.443670e+12   1.222150e+13   4.112225e+11   2.798934e+05   5.333066e-20   0.000000e+00   0.000000e+00
     3952000   3.951999e-05   1.325464e-01   7.522637e+00   1.028324e+01  -2.252165e+05  -1.350872e+05  -9.758290e+04   7.133352e+12  -1.185710e+13  -6.887679e+10   2.801668e+05   5.355390e-20   0.000000e+00   0.000000e+00
     3960000   3.959999e-05   1.404682e-01   7.518380e+00   1.027620e+01   4.019523e+03   2.676166e+05  -8.373541e+04  -1.383319e+13   1.055859e+11  -3.494483e+11   2.804397e+05   5.366102e-20   0.000000e+00   0.000000e+00
     3968000   3.967999e-05   1.328481e-01   7.514216e+00   1.026876e+01   2.280023e+05  -1.387388e+05  -8.698309e+04   7.305440e+12   1.172694e+13   4.226565e+11   2.807126e+05   5.364731e-20   0.000000e+00   0.000000e+00
     3976000   3.975999e-05   1.334558e-01   7.523291e+00   1.026178e+01  -2.360603e+05  -1.164570e+05  -9.831568e+04   6.151038e+12  -1.239638e+13  -1.046230e+11   2.809852e+05   5.387736e-20   0.000000e+00   0.000000e+00
     3984000   3.983999e-05   1.410264e-01   7.518355e+00   1.025465e+01   2.800726e+04   2.669690e+05  -8.395716e+04  -1.376739e+13   1.350232e+12  -3.219679e+11   2.812573e+05   5.396802e-20   0.000000e+00   0.000000e+00
     3992000   3.991999e-05   1.329794e-01   7.514926e+00   1.024714e+01   2.134815e+05  -1.607163e+05  -8.862703e+04   8.429851e+12   1.094599e+13   4.344900e+11   2.815294e+05   5.395899e-20   0.000000e+00   0.000000e+00
     4000000   3.999999e-05   1.345208e-01   7.523972e+00   1.024012e+01  -2.479861e+05  -9.016153e+04  -9.892273e+04   4.775229e+12  -1.298901e+13  -1.516025e+11   2.818012e+05   5.419750e-20   0.000000e+00   0.000000e+00
     4008000   4.007999e-05   1.415213e-01   7.518198e+00   1.023289e+01   5.904858e+04   2.626948e+05  -8.408077e+04  -1.351323e+13   2.954608e+12  -2.817639e+11   2.820725e+05   5.426674e-20   0.000000e+00   0.000000e+00
     4016000   4.015999e-05   1.330425e-01   7.515782e+00   1.022533e+01   1.917213e+05  -1.864510e+05  -9.053717e+04   9.743553e+12   9.793520e+12   4.431818e+11   2.823438e+05   5.426608e-20   0.000000e+00   0.000000e+00
     4024000   4.023999e-05   1.357562e-01   7.524636e+00   1.021826e+01  -2.586987e+05  -5.549385e+04  -9.933043e+04   2.971894e+12  -1.351571e+13  -2.084162e+11   2.826148e+05   5.451365e-20   0.000000e+00   0.000000e+00
     4032000   4.031999e-05   1.419039e-01   7.517921e+00   1.021093e+01   9.638669e+04   2.522847e+05  -8.417910e+04  -1.294227e+13   4.876719e+12  -2.263538e+11   2.828853e+05   5.455694e-20   0.000000e+00   0.000000e+00
     4040000   4.039999e-05   1.330795e-01   7.516820e+00   1.020332e+01   1.609195e+05  -2.137437e+05  -9.271313e+04   1.113181e+13   8.179152e+12   4.440927e+11   2.831558e+05   5.456912e-20   0.000000e+00   0.000000e+00
     4048000   4.047999e-05   1.371702e-01   7.525225e+00   1.019621e+01  -2.651180e+05  -1.203956e+04  -9.948711e+04   7.226981e+11  -1.381479e+13  -2.733084e+11   2.834258e+05   5.479704e-20   0.000000e+00   0.000000e+00
     4056000   4.055999e-05   1.421141e-01   7.517552e+00   1.018876e+01   1.386661e+05   2.326778e+05  -8.435514e+04  -1.189649e+13   7.042390e+12  -1.534369e+11   2.836953e+05   5.481517e-20   0.000000e+00   0.000000e+00
     4064000   4.063999e-05   1.331476e-01   7.518083e+00   1.018111e+01   1.190579e+05  -2.395852e+05  -9.518506e+04   1.243821e+13   6.001126e+12   4.325957e+11   2.839649e+05   5.485175e-20   0.000000e+00   0.000000e+00
     4072000   4.071999e-05   1.387599e-01   7.525661e+00   1.017395e+01  -2.633509e+05   3.982880e+04  -9.924188e+04  -1.949960e+12  -1.369386e+13  -3.405890e+11   2.842340e+05   5.510849e-20   0.000000e+00   0.000000e+00
     4080000   4.079999e-05   1.420943e-01   7.517151e+00   1.016637e+01   1.827131e+05   2.009343e+05  -8.475335e+04  -1.023436e+13   9.289467e+12  -6.240794e+10   2.845027e+05   5.509732e-20   0.000000e+00   0.000000e+00
     4088000   4.087999e-05   1.333438e-01   7.519576e+00   1.015869e+01   6.591485e+04  -2.592009e+05  -9.780036e+04   1.342137e+13   3.254518e+12   4.006615e+11   2.847714e+05   5.515687e-20   0.000000e+00   0.000000e+00
     4096000   4.095999e-05   1.404719e-01   7.525861e+00   1.015148e+01  -2.491091e+05   9.736433e+04  -9.855169e+04  -4.902492e+12  -1.293088e+13  -4.024783e+11   2.850397e+05   5.541090e-20   0.000000e+00   0.000000e+00
     4104000   4.103999e-05   1.418015e-01   7.516810e+00   1.014377e+01   2.237845e+05   1.549308e+05  -8.554144e+04  -7.847820e+12   1.137207e+13   4.387934e+10   2.853076e+05   5.537295e-20   0.000000e+00   0.000000e+00
     4112000   4.111999e-05   1.337699e-01   7.521282e+00   1.013608e+01   2.354085e+03  -2.673144e+05  -1.004531e+05   1.381089e+13  -1.451385e+10   3.432765e+11   2.855755e+05   5.546095e-20   0.000000e+00   0.000000e+00
     4120000   4.119999e-05   1.422299e-01   7.525744e+00   1.012879e+01  -2.183974e+05   1.566011e+05  -9.738980e+04  -7.929067e+12  -1.132504e+13  -4.491231e+11   2.858428e+05   5.570152e-20   0.000000e+00   0.000000e+00
     4128000   4.127999e-05   1.412160e-01   7.516645e+00   1.012095e+01   2.559652e+05   9.375643e+04  -8.689300e+04  -4.695792e+12   1.298830e+13   1.596108e+11   2.861098e+05   5.564329e-20   0.000000e+00   0.000000e+00
     4136000   4.135999e-05   1.345382e-01   7.523146e+00   1.011327e+01  -6.867031e+04  -2.582572e+05  -1.029531e+05   1.332042e+13  -3.651430e+12   2.562509e+11   2.863769e+05   5.576496e-20   0.000000e+00   0.000000e+00
     4144000   4.143999e-05   1.439140e-01   7.525251e+00   1.010589e+01  -1.682542e+05   2.113681e+05  -9.580413e+04  -1.071255e+13  -8.730758e+12  -4.685002e+11   2.866433e+05   5.597762e-20   0.000000e+00   0.000000e+00
     4152000   4.151999e-05   1.403632e-01   7.516797e+00   1.009792e+01   2.721117e+05   1.883388e+04  -8.898058e+04  -8.570215e+11   1.377714e+13   2.738251e+11   2.869095e+05   5.590994e-20   0.000000e+00   0.000000e+00
     4160000   4.159999e-05   1.357524e-01   7.525054e+00   1.009027e+01  -1.413797e+05  -2.268221e+05  -1.050397e+05   1.168883e+13  -7.358287e+12   1.385312e+11   2.871756e+05   5.606473e-20   0.000000e+00   0.000000e+00
     4168000   4.167999e-05   1.453609e-01   7.524365e+00   1.008276e+01  -9.796032e+04   2.533694e+05  -9.396835e+04  -1.282982e+13  -5.118840e+12  -4.475378e+11   2.874410e+05   5.623156e-20   0.000000e+00   0.000000e+00
     4176000   4.175999e-05   1.393319e-01   7.517414e+00   1.007469e+01   2.647464e+05  -6.519422e+04  -9.183685e+04   3.427402e+12   1.336207e+13   3.741195e+11   2.877064e+05   5.616584e-20   0.000000e+00   0.000000e+00
     4184000   4.183999e-05   1.374841e-01   7.526835e+00   1.006706e+01  -2.070054e+05  -1.695485e+05  -1.064407e+05   8.747242e+12  -1.068753e+13  -5.445257e+09   2.879715e+05   5.635973e-20   0.000000e+00   0.000000e+00
     4192000   4.191999e-05   1.463806e-01   7.523138e+00   1.005940e+01  -1.030350e+04   2.729232e+05  -9.212338e+04  -1.379121e+13  -6.410337e+11  -3.773497e+11   2.882359e+05   5.646708e-20   0.000000e+00   0.000000e+00
     4200000   4.199999e-05   1.382940e-01   7.518628e+00   1.005126e+01   2.274584e+05  -1.495925e+05  -9.548400e+04   7.709857e+12   1.142837e+13   4.416560e+11   2.885004e+05   5.642068e-20   0.000000e+00   0.000000e+00
     4208000   4.207999e-05   1.397322e-01   7.528261e+00   1.004365e+01  -2.538612e+05  -8.675605e+04  -1.068307e+05   4.520380e+12  -1.304633e+13  -1.648187e+11   2.887645e+05   5.664978e-20   0.000000e+00   0.000000e+00
     4216000   4.215999e-05   1.467802e-01   7.521726e+00   1.003580e+01   8.669142e+04   2.603693e+05  -9.071700e+04  -1.311539e+13   4.286325e+12  -2.520904e+11   2.890279e+05   5.668821e-20   0.000000e+00   0.000000e+00
     4224000   4.223999e-05   1.375070e-01   7.520499e+00   1.002763e+01   1.573741e+05  -2.213112e+05  -9.972102e+04   1.132962e+13   7.841838e+12   4.572911e+11   2.892914e+05   5.667664e-20   0.000000e+00   0.000000e+00
     4232000   4.231999e-05   1.423781e-01   7.529074e+00   1.002002e+01  -2.690260e+05   1.535099e+04  -1.059770e+05  -6.682384e+11  -1.378447e+13  -3.183450e+11   2.895544e+05   5.692781e-20   0.000000e+00   0.000000e+00
     4240000   4.239999e-05   1.464231e-01   7.520398e+00   1.001198e+01   1.792821e+05   2.090507e+05  -9.027507e+04  -1.047873e+13   8.961635e+12  -7.880270e+10   2.898170e+05   5.689975e-20   0.000000e+00   0.000000e+00
     4248000   4.247999e-05   1.372865e-01   7.522963e+00   1.000382e+01   5.794973e+04  -2.644716e+05  -1.041284e+05   1.348915e+13   2.788952e+12   4.052252e+11   2.900795e+05   5.693665e-20   0.000000e+00   0.000000e+00
     4256000   4.255999e-05   1.451580e-01   7.529051e+00   9.996155e+00  -2.415085e+05   1.232205e+05  -1.038676e+05  -6.125707e+12  -1.235691e+13  -4.343902e+11   2.903414e+05   5.719165e-20   0.000000e+00   0.000000e+00
     4264000   4.263999e-05   1.453029e-01   7.519521e+00   9.987925e+00   2.489290e+05   1.189314e+05  -9.132220e+04  -5.897333e+12   1.245010e+13   1.181875e+11   2.906030e+05   5.711154e-20   0.000000e+00   0.000000e+00
     4272000   4.271999e-05   1.379433e-01   7.525780e+00   9.979820e+00  -5.854269e+04  -2.636390e+05  -1.080249e+05   1.341902e+13  -3.101208e+12   2.787911e+11   2.908645e+05   5.720472e-20   0.000000e+00   0.000000e+00
     4280000   4.279999e-05   1.476670e-01   7.528094e+00   9.972052e+00  -1.666980e+05   2.163642e+05  -1.007584e+05  -1.081151e+13  -8.543911e+12  -4.787594e+11   2.911253e+05   5.741334e-20   0.000000e+00   0.000000e+00
     4288000   4.287999e-05   1.436055e-01   7.519491e+00   9.963658e+00   2.757514e+05  -1.758751e+02  -9.416398e+04   1.195666e+11   1.376013e+13   3.043213e+11   2.913859e+05   5.731393e-20   0.000000e+00   0.000000e+00
