     timestep     time              x             y              z              vx             vy             vz             ax             ay             az         v_magnitude      ELoss        Electronic      Nuclear
           0   0.000000e+00   1.000000e-01   4.314296e+00   3.585088e+00   8.345731e+03  -9.856758e+04  -1.093183e+05   0.000000e+00   0.000000e+00   0.000000e+00   1.474304e+05   0.000000e+00   0.000000e+00   0.000000e+00
        8000   7.999000e-08   1.039019e-01   4.307409e+00   3.576570e+00   8.416983e+04  -6.301314e+04  -1.033510e+05   7.069229e+11   8.109080e+11   8.119986e+10   1.474335e+05   9.014532e-23   0.000000e+00   0.000000e+00
       16000   1.599900e-07   1.120783e-01   4.305420e+00   3.568543e+00   1.091075e+05   1.676985e+04  -9.773378e+04  -1.186072e+11   1.068558e+12   5.082191e+10   1.474367e+05   8.972789e-23   0.000000e+00   0.000000e+00
       24000   2.399900e-07   1.195389e-01   4.309890e+00   3.560820e+00   6.733587e+04   8.913631e+04  -9.622422e+04  -8.651547e+11   6.363316e+11  -1.607944e+10   1.474398e+05   8.936013e-23   0.000000e+00   0.000000e+00
       32000   3.199900e-07   1.217719e-01   4.318204e+00   3.552999e+00  -1.400914e+04   1.073485e+05  -1.000973e+05  -1.050533e+12  -2.070483e+11  -7.513467e+10   1.474429e+05   8.924499e-23   0.000000e+00   0.000000e+00
       40000   3.999900e-07   1.176579e-01   4.325269e+00   3.544726e+00  -8.215354e+04   5.975683e+04  -1.068656e+05  -5.549863e+11  -9.128638e+11  -8.391132e+10   1.474461e+05   8.895736e-23   0.000000e+00   0.000000e+00
       48000   4.799900e-07   1.101869e-01   4.326820e+00   3.535945e+00  -9.318010e+04  -2.247100e+04  -1.120437e+05   2.932446e+11  -1.024129e+12  -3.858071e+10   1.474492e+05   8.802769e-23   0.000000e+00   0.000000e+00
       56000   5.599900e-07   1.044828e-01   4.322179e+00   3.526928e+00  -4.066241e+04  -8.624722e+04  -1.124729e+05   9.431242e+11  -4.810203e+11   2.779110e+10   1.474522e+05   8.689367e-23   0.000000e+00   0.000000e+00
       64000   6.399900e-07   1.044816e-01   4.314621e+00   3.518079e+00   4.125374e+04  -9.139355e+04  -1.081129e+05   9.895055e+11   3.574524e+11   7.529942e+10   1.474553e+05   8.619428e-23   0.000000e+00   0.000000e+00
       72000   7.199900e-07   1.104721e-01   4.309222e+00   3.509687e+00   1.007824e+05  -3.540479e+04  -1.016531e+05   4.166218e+11   9.632299e+11   7.746092e+10   1.474583e+05   8.579665e-23   0.000000e+00   0.000000e+00
       80000   7.999900e-07   1.189872e-01   4.309655e+00   3.501764e+00   1.009120e+05   4.625280e+04  -9.706843e+04  -4.130087e+11   9.645623e+11   3.013516e+10   1.474613e+05   8.537237e-23   0.000000e+00   0.000000e+00
       88000   8.799900e-07   1.250029e-01   4.315929e+00   3.494021e+00   4.181089e+04   1.024698e+05  -9.745509e+04  -9.818992e+11   3.629091e+11  -3.979091e+10   1.474643e+05   8.503079e-23   0.000000e+00   0.000000e+00
       96000   9.599900e-07   1.250743e-01   4.324400e+00   3.486036e+00  -3.938594e+04   9.814839e+04  -1.027727e+05  -9.345011e+11  -4.643341e+11  -8.541571e+10   1.474672e+05   8.493986e-23   0.000000e+00   0.000000e+00
      104000   1.039990e-06   1.194873e-01   4.330062e+00   3.477536e+00  -9.177185e+04   3.622694e+04  -1.096038e+05  -3.030630e+11  -9.963931e+11  -7.567731e+10   1.474702e+05   8.449229e-23   0.000000e+00   0.000000e+00
      112000   1.119990e-06   1.120607e-01   4.329691e+00   3.468577e+00  -8.293587e+04  -4.423148e+04  -1.136378e+05   5.097087e+11  -9.038339e+11  -2.029252e+10   1.474731e+05   8.346948e-23   0.000000e+00   0.000000e+00
      120000   1.199990e-06   1.077170e-01   4.323842e+00   3.459492e+00  -1.907742e+04  -9.328417e+04  -1.126201e+05   9.980069e+11  -2.571376e+11   4.383610e+10   1.474760e+05   8.245975e-23   0.000000e+00   0.000000e+00
      128000   1.279990e-06   1.094227e-01   4.316428e+00   3.450673e+00   6.002686e+04  -8.136582e+04  -1.073611e+05   8.728178e+11   5.371081e+11   8.084586e+10   1.474789e+05   8.190283e-23   0.000000e+00   0.000000e+00
      136000   1.359990e-06   1.164246e-01   4.312268e+00   3.442345e+00   1.062414e+05  -1.640076e+04  -1.009686e+05   2.212933e+11   9.990374e+11   7.046749e+10   1.474818e+05   8.153245e-23   0.000000e+00   0.000000e+00
      144000   1.439990e-06   1.247708e-01   4.314169e+00   3.434444e+00   9.187449e+04   6.199797e+04  -9.729873e+04  -5.607009e+11   8.556867e+11   1.568637e+10   1.474846e+05   8.113406e-23   0.000000e+00   0.000000e+00
      152000   1.519990e-06   1.297159e-01   4.321262e+00   3.426636e+00   2.580973e+04   1.064030e+05  -9.881705e+04  -1.001688e+12   1.948171e+11  -5.196070e+10   1.474875e+05   8.092019e-23   0.000000e+00   0.000000e+00
      160000   1.599990e-06   1.285855e-01   4.329536e+00   3.418512e+00  -5.180856e+04   8.998773e+04  -1.047448e+05  -8.340946e+11  -5.823600e+11  -8.785584e+10   1.474903e+05   8.081042e-23   0.000000e+00   0.000000e+00
      168000   1.679990e-06   1.223944e-01   4.334281e+00   3.409857e+00  -9.392833e+04   2.297096e+04  -1.113733e+05  -1.634282e+11  -1.002037e+12  -6.893534e+10   1.474931e+05   8.026812e-23   0.000000e+00   0.000000e+00
      176000   1.759990e-06   1.152068e-01   4.332946e+00   3.400783e+00  -7.550902e+04  -5.381398e+04  -1.147061e+05   5.973415e+11  -8.155742e+11  -1.068463e+10   1.474959e+05   7.922889e-23   0.000000e+00   0.000000e+00
      184000   1.839990e-06   1.116442e-01   4.326656e+00   3.391642e+00  -8.228087e+03  -9.445143e+04  -1.129915e+05   9.938638e+11  -1.478158e+11   5.109849e+10   1.474987e+05   7.846698e-23   0.000000e+00   0.000000e+00
      192000   1.919990e-06   1.141182e-01   4.319461e+00   3.382811e+00   6.746778e+04  -7.535954e+04  -1.073578e+05   8.002557e+11   5.984763e+11   8.271892e+10   1.475014e+05   7.794265e-23   0.000000e+00   0.000000e+00
      200000   1.999990e-06   1.214580e-01   4.315901e+00   3.374483e+00   1.071466e+05  -8.403260e+03  -1.010270e+05   1.411396e+11   9.880978e+11   6.740147e+10   1.475041e+05   7.758698e-23   0.000000e+00   0.000000e+00
      208000   2.079990e-06   1.296572e-01   4.318346e+00   3.366565e+00   8.788620e+04   6.699482e+04  -9.770348e+04  -5.972466e+11   7.992356e+11   1.069517e+10   1.475068e+05   7.718628e-23   0.000000e+00   0.000000e+00
      216000   2.159990e-06   1.342268e-01   4.325649e+00   3.358709e+00   2.113801e+04   1.067477e+05  -9.958502e+04  -9.844835e+11   1.431536e+11  -5.561712e+10   1.475095e+05   7.697188e-23   0.000000e+00   0.000000e+00
      224000   2.239990e-06   1.328140e-01   4.333823e+00   3.350516e+00  -5.388509e+04   8.765988e+04  -1.056976e+05  -7.935809e+11  -5.947921e+11  -8.881127e+10   1.475122e+05   7.686940e-23   0.000000e+00   0.000000e+00
      232000   2.319990e-06   1.265768e-01   4.338385e+00   3.341784e+00  -9.324735e+04   2.119555e+04  -1.123224e+05  -1.406627e+11  -9.797787e+11  -6.819986e+10   1.475149e+05   7.632702e-23   0.000000e+00   0.000000e+00
      240000   2.399990e-06   1.194795e-01   4.336991e+00   3.332636e+00  -7.440061e+04  -5.350647e+04  -1.155986e+05   5.856113e+11  -7.921357e+11  -1.033886e+10   1.475175e+05   7.525377e-23   0.000000e+00   0.000000e+00
      248000   2.479990e-06   1.159394e-01   4.330776e+00   3.323422e+00  -8.991409e+03  -9.327027e+04  -1.139386e+05   9.653741e+11  -1.532609e+11   4.919346e+10   1.475201e+05   7.427390e-23   0.000000e+00   0.000000e+00
      256000   2.559990e-06   1.182737e-01   4.323622e+00   3.314508e+00   6.501094e+04  -7.592086e+04  -1.085014e+05   7.920084e+11   5.634562e+11   8.019817e+10   1.475227e+05   7.375970e-23   0.000000e+00   0.000000e+00
      264000   2.639990e-06   1.254323e-01   4.319896e+00   3.306083e+00   1.056251e+05  -1.196098e+04  -1.022937e+05   1.734371e+11   9.550278e+11   6.732362e+10   1.475253e+05   7.341324e-23   0.000000e+00   0.000000e+00
      272000   2.719990e-06   1.336485e-01   4.321986e+00   3.298067e+00   9.015057e+04   6.221271e+04  -9.882776e+04  -5.414671e+11   8.072084e+11   1.412168e+10   1.475279e+05   7.328244e-23   0.000000e+00   0.000000e+00
      280000   2.799990e-06   1.385701e-01   4.328988e+00   3.290137e+00   2.741477e+04   1.046859e+05  -1.002722e+05  -9.481214e+11   2.016340e+11  -4.880423e+10   1.475304e+05   7.305235e-23   0.000000e+00   0.000000e+00
      288000   2.879990e-06   1.377197e-01   4.337218e+00   3.281910e+00  -4.690382e+04   9.140330e+04  -1.058841e+05  -8.166061e+11  -5.164133e+11  -8.414243e+10   1.475330e+05   7.294910e-23   0.000000e+00   0.000000e+00
      296000   2.959990e-06   1.318964e-01   4.342307e+00   3.273171e+00  -9.070362e+04   3.013144e+04  -1.123907e+05  -2.245494e+11  -9.378682e+11  -7.030138e+10   1.475355e+05   7.251373e-23   0.000000e+00   0.000000e+00
      304000   3.039990e-06   1.247014e-01   4.341685e+00   3.264003e+00  -7.959119e+04  -4.420235e+04  -1.160985e+05   4.867660e+11  -8.283665e+11  -1.839622e+10   1.475380e+05   7.162501e-23   0.000000e+00   0.000000e+00
      312000   3.119990e-06   1.204677e-01   4.336013e+00   3.254722e+00  -2.044927e+04  -8.995053e+04  -1.151475e+05   9.179972e+11  -2.607658e+11   4.059604e+10   1.475405e+05   7.076606e-23   0.000000e+00   0.000000e+00
      320000   3.199990e-06   1.218292e-01   4.328746e+00   3.245688e+00   5.342797e+04  -8.225959e+04  -1.102168e+05   8.394833e+11   4.420095e+11   7.696929e+10   1.475430e+05   7.027686e-23   0.000000e+00   0.000000e+00
      328000   3.279990e-06   1.283129e-01   4.324172e+00   3.237124e+00   1.014589e+05  -2.597769e+04  -1.039275e+05   3.042508e+11   8.965499e+11   7.283565e+10   1.475454e+05   6.994150e-23   0.000000e+00   0.000000e+00
      336000   3.359990e-06   1.366546e-01   4.325067e+00   3.229004e+00   9.769035e+04   4.786878e+04  -9.967724e+04  -3.934061e+11   8.608307e+11   2.774925e+10   1.475479e+05   6.954762e-23   0.000000e+00   0.000000e+00
      344000   3.439990e-06   1.425968e-01   4.331213e+00   3.221052e+00   4.438822e+04   9.899863e+04  -1.000003e+05  -8.746127e+11   3.559298e+11  -3.594861e+10   1.475503e+05   6.926735e-23   0.000000e+00   0.000000e+00
      352000   3.519990e-06   1.432048e-01   4.339531e+00   3.212879e+00  -2.921116e+04   9.954998e+04  -1.049205e+05  -8.762902e+11  -3.423274e+11  -8.091978e+10   1.475527e+05   6.916835e-23   0.000000e+00   0.000000e+00
      360000   3.599990e-06   1.384676e-01   4.345763e+00   3.204214e+00  -8.279509e+04   4.941598e+04  -1.116940e+05  -3.992741e+11  -8.496356e+11  -8.000889e+10   1.475551e+05   6.886667e-23   0.000000e+00   0.000000e+00
      368000   3.679990e-06   1.312912e-01   4.346814e+00   3.195060e+00  -8.734771e+04  -2.368016e+04  -1.165455e+05   2.891063e+11  -8.900167e+11  -3.591567e+10   1.475575e+05   6.803885e-23   0.000000e+00   0.000000e+00
      376000   3.759990e-06   1.258746e-01   4.342431e+00   3.185686e+00  -4.102293e+04  -8.000112e+04  -1.170080e+05   8.126845e+11  -4.524558e+11   2.435401e+10   1.475599e+05   6.716922e-23   0.000000e+00   0.000000e+00
      384000   3.839990e-06   1.254184e-01   4.335280e+00   3.176459e+00   3.075855e+04  -8.972859e+04  -1.130367e+05   8.975972e+11   2.189159e+11   7.039474e+10   1.475622e+05   6.661229e-23   0.000000e+00   0.000000e+00
      392000   3.919990e-06   1.304475e-01   4.329463e+00   3.167664e+00   8.974087e+04  -4.832478e+04  -1.067080e+05   5.092263e+11   7.671130e+11   8.077466e+10   1.475646e+05   6.628369e-23   0.000000e+00   0.000000e+00
      400000   3.999990e-06   1.385908e-01   4.328333e+00   3.159362e+00   1.050620e+05   2.198186e+04  -1.012658e+05  -1.432546e+11   9.091165e+11   4.863407e+10   1.475669e+05   6.590416e-23   0.000000e+00   0.000000e+00
      408000   4.079990e-06   1.458596e-01   4.332760e+00   3.151356e+00   6.892176e+04   8.416391e+04  -9.971401e+04  -7.180600e+11   5.735601e+11  -1.228861e+10   1.475692e+05   6.554557e-23   0.000000e+00   0.000000e+00
      416000   4.159990e-06   1.487407e-01   4.340691e+00   3.143273e+00   4.791571e+02   1.055610e+05  -1.031212e+05  -9.132809e+11  -6.317600e+10  -6.899605e+10   1.475714e+05   6.540025e-23   0.000000e+00   0.000000e+00
      424000   4.239990e-06   1.460414e-01   4.348238e+00   3.134769e+00  -6.409697e+04   7.502559e+04  -1.097303e+05  -6.263047e+11  -6.639666e+11  -8.820405e+10   1.475737e+05   6.525142e-23   0.000000e+00   0.000000e+00
      432000   4.319990e-06   1.395130e-01   4.351730e+00   3.125727e+00  -9.085956e+04   8.939653e+03  -1.159452e+05  -1.300960e+10  -9.110859e+11  -6.012393e+10   1.475760e+05   6.470814e-23   0.000000e+00   0.000000e+00
      440000   4.399990e-06   1.329006e-01   4.349652e+00   3.116316e+00  -6.621013e+04  -5.777758e+04  -1.185635e+05   5.993429e+11  -6.809088e+11  -2.948099e+09   1.475782e+05   6.385615e-23   0.000000e+00   0.000000e+00
      448000   4.479990e-06   1.299501e-01   4.343407e+00   3.106885e+00  -3.584174e+03  -9.059169e+04  -1.164487e+05   8.945642e+11  -1.038886e+11   5.321689e+10   1.475805e+05   6.316056e-23   0.000000e+00   0.000000e+00
      456000   4.559990e-06   1.324736e-01   4.336521e+00   3.097781e+00   6.449058e+04  -7.321135e+04  -1.107326e+05   7.324153e+11   5.170814e+11   8.461418e+10   1.475827e+05   6.293697e-23   0.000000e+00   0.000000e+00
      464000   4.639990e-06   1.394797e-01   4.332801e+00   3.089193e+00   1.035027e+05  -1.501494e+04  -1.041299e+05   2.002257e+11   8.724342e+11   7.314205e+10   1.475849e+05   6.259865e-23   0.000000e+00   0.000000e+00
      472000   4.719990e-06   1.477134e-01   4.334421e+00   3.081051e+00   9.386179e+04   5.435637e+04  -1.000864e+05  -4.299974e+11   7.846773e+11   2.281902e+10   1.475870e+05   6.217794e-23   0.000000e+00   0.000000e+00
      480000   4.799990e-06   1.533154e-01   4.340846e+00   3.073047e+00   4.066993e+04   9.974127e+04  -1.008970e+05  -8.401033e+11   2.994716e+11  -4.266959e+10   1.475892e+05   6.188018e-23   0.000000e+00   0.000000e+00
      488000   4.879990e-06   1.537754e-01   4.349105e+00   3.064781e+00  -2.891861e+04   9.817144e+04  -1.063451e+05  -8.216115e+11  -3.364188e+11  -8.721431e+10   1.475914e+05   6.176960e-23   0.000000e+00   0.000000e+00
      496000   4.959990e-06   1.492059e-01   4.355307e+00   3.055983e+00  -7.945759e+04   5.066471e+04  -1.135932e+05  -3.860537e+11  -7.972875e+11  -8.563327e+10   1.475935e+05   6.147715e-23   0.000000e+00   0.000000e+00
      504000   5.039990e-06   1.422697e-01   4.356629e+00   3.046660e+00  -8.553709e+04  -1.832380e+04  -1.188786e+05   2.392141e+11  -8.506222e+11  -4.107444e+10   1.475956e+05   6.073620e-23   0.000000e+00   0.000000e+00
      512000   5.119990e-06   1.367937e-01   4.352740e+00   3.037084e+00  -4.468527e+04  -7.389153e+04  -1.197011e+05   7.357704e+11  -4.787170e+11   2.077944e+10   1.475977e+05   5.984457e-23   0.000000e+00   0.000000e+00
      520000   5.199990e-06   1.358238e-01   4.345913e+00   3.027633e+00   2.213399e+04  -8.869000e+04  -1.158874e+05   8.620171e+11   1.230200e+11   7.042703e+10   1.475998e+05   5.924131e-23   0.000000e+00   0.000000e+00
      528000   5.279990e-06   1.401400e-01   4.339836e+00   3.018616e+00   8.178931e+04  -5.606721e+04  -1.093311e+05   5.660820e+11   6.564164e+11   8.678619e+10   1.476019e+05   5.890883e-23   0.000000e+00   0.000000e+00
      536000   5.359990e-06   1.479303e-01   4.337783e+00   3.010131e+00   1.053292e+05   7.565774e+03  -1.031283e+05  -1.956718e+09   8.662893e+11   6.148176e+10   1.476039e+05   5.855166e-23   0.000000e+00   0.000000e+00
      544000   5.439990e-06   1.557099e-01   4.341044e+00   3.002022e+00   8.157411e+04   7.110827e+04  -1.003833e+05  -5.661535e+11   6.545889e+11   3.543724e+09   1.476060e+05   5.814864e-23   0.000000e+00   0.000000e+00
      552000   5.519990e-06   1.600146e-01   4.348324e+00   2.993935e+00   2.215526e+04   1.037952e+05  -1.025857e+05  -8.550925e+11   1.267992e+11  -5.645190e+10   1.476080e+05   5.826039e-23   0.000000e+00   0.000000e+00
      560000   5.599990e-06   1.590754e-01   4.356382e+00   2.985502e+00  -4.389545e+04   8.973018e+04  -1.086757e+05  -7.256749e+11  -4.627444e+11  -8.903372e+10   1.476100e+05   5.812345e-23   0.000000e+00   0.000000e+00
      568000   5.679990e-06   1.536840e-01   4.361604e+00   2.976524e+00  -8.442697e+04   3.597031e+04  -1.156181e+05  -2.453113e+11  -8.232511e+11  -7.705663e+10   1.476121e+05   5.775199e-23   0.000000e+00   0.000000e+00
      576000   5.759990e-06   1.467841e-01   4.361776e+00   2.967072e+00  -8.010025e+04  -3.111776e+04  -1.200231e+05   3.473879e+11  -7.831440e+11  -2.885710e+10   1.476141e+05   5.705233e-23   0.000000e+00   0.000000e+00
      584000   5.839990e-06   1.420123e-01   4.357140e+00   2.957442e+00  -3.356704e+04  -7.924506e+04  -1.199332e+05   7.662183e+11  -3.710228e+11   3.064031e+10   1.476160e+05   5.634431e-23   0.000000e+00   0.000000e+00
      592000   5.919990e-06   1.419440e-01   4.350221e+00   2.948000e+00   3.256588e+04  -8.592995e+04  -1.155274e+05   8.188879e+11   2.092360e+11   7.514204e+10   1.476180e+05   5.590444e-23   0.000000e+00   0.000000e+00
      600000   5.999990e-06   1.469081e-01   4.344584e+00   2.939020e+00   8.711006e+04  -4.860517e+04  -1.088165e+05   4.897345e+11   6.848935e+11   8.605563e+10   1.476199e+05   5.562026e-23   0.000000e+00   0.000000e+00
      608000   6.079990e-06   1.548839e-01   4.343155e+00   2.930570e+00   1.048463e+05   1.495132e+04  -1.028393e+05  -6.368364e+10   8.393098e+11   5.702758e+10   1.476219e+05   5.526643e-23   0.000000e+00   0.000000e+00
      616000   6.159990e-06   1.624695e-01   4.346884e+00   2.922468e+00   7.778786e+04   7.512421e+04  -1.004898e+05  -5.848709e+11   6.039890e+11  -1.281013e+09   1.476238e+05   5.488966e-23   0.000000e+00   0.000000e+00
      624000   6.239990e-06   1.664614e-01   4.354326e+00   2.914357e+00   1.868628e+04   1.039916e+05  -1.031015e+05  -8.321343e+11   8.856225e+10  -6.155879e+10   1.476257e+05   5.467378e-23   0.000000e+00   0.000000e+00
      632000   6.319990e-06   1.653403e-01   4.362313e+00   2.905867e+00  -4.480715e+04   8.823126e+04  -1.095513e+05  -6.904311e+11  -4.658224e+11  -9.284126e+10   1.476276e+05   5.453736e-23   0.000000e+00   0.000000e+00
      640000   6.399990e-06   1.599767e-01   4.367440e+00   2.896807e+00  -8.302342e+04   3.549015e+04  -1.167991e+05  -2.263679e+11  -7.973369e+11  -8.142793e+10   1.476295e+05   5.386427e-23   0.000000e+00   0.000000e+00
      648000   6.479990e-06   1.532122e-01   4.367666e+00   2.887249e+00  -7.859549e+04  -2.930648e+04  -1.214862e+05   3.311727e+11  -7.576836e+11  -3.153028e+10   1.476314e+05   5.317721e-23   0.000000e+00   0.000000e+00
      656000   6.559990e-06   1.484807e-01   4.363230e+00   2.877495e+00  -3.432539e+04  -7.646104e+04  -1.215362e+05   7.306089e+11  -3.755817e+11   2.988557e+10   1.476332e+05   5.247881e-23   0.000000e+00   0.000000e+00
      664000   6.639990e-06   1.482435e-01   4.356478e+00   2.867925e+00   2.928854e+04  -8.501209e+04  -1.170950e+05   7.973639e+11   1.686947e+11   7.691051e+10   1.476350e+05   5.204657e-23   0.000000e+00   0.000000e+00
      672000   6.719990e-06   1.529161e-01   4.350762e+00   2.858829e+00   8.366439e+04  -5.168716e+04  -1.101152e+05   5.099513e+11   6.311920e+11   9.111895e+10   1.476369e+05   5.178332e-23   0.000000e+00   0.000000e+00
      680000   6.799990e-06   1.607311e-01   4.348931e+00   2.850294e+00   1.048624e+05   8.333577e+03  -1.035934e+05   2.539488e+08   8.112411e+11   6.545343e+10   1.476387e+05   5.144597e-23   0.000000e+00   0.000000e+00
      688000   6.879990e-06   1.685491e-01   4.352097e+00   2.842161e+00   8.377872e+04   6.840808e+04  -1.004946e+05  -5.065388e+11   6.328639e+11   8.450781e+09   1.476404e+05   5.104126e-23   0.000000e+00   0.000000e+00
      696000   6.959990e-06   1.732485e-01   4.359160e+00   2.834079e+00   2.993439e+04   1.020393e+05  -1.024214e+05  -7.872267e+11   1.757570e+11  -5.504292e+10   1.476422e+05   5.076880e-23   0.000000e+00   0.000000e+00
      704000   7.039990e-06   1.731006e-01   4.367307e+00   2.825657e+00  -3.270086e+04   9.447896e+04  -1.086422e+05  -7.180563e+11  -3.568170e+11  -9.422813e+10   1.476440e+05   5.062678e-23   0.000000e+00   0.000000e+00
      712000   7.119990e-06   1.685301e-01   4.373259e+00   2.816656e+00  -7.638090e+04   4.933124e+04  -1.163256e+05  -3.324884e+11  -7.275560e+11  -9.028072e+10   1.476458e+05   5.033556e-23   0.000000e+00   0.000000e+00
      720000   7.199990e-06   1.619087e-01   4.374731e+00   2.807099e+00  -8.207807e+04  -1.316590e+04  -1.220231e+05   1.941752e+11  -7.748369e+11  -4.706080e+10   1.476475e+05   4.973512e-23   0.000000e+00   0.000000e+00
      728000   7.279990e-06   1.564805e-01   4.371426e+00   2.797251e+00  -4.773405e+04  -6.560697e+04  -1.233592e+05   6.324631e+11  -4.886826e+11   1.511500e+10   1.476492e+05   4.963979e-23   0.000000e+00   0.000000e+00
      736000   7.359990e-06   1.549444e-01   4.365114e+00   2.787495e+00   1.146878e+04  -8.553701e+04  -1.198027e+05   7.917350e+11   7.563581e+09   7.034024e+10   1.476509e+05   4.908166e-23   0.000000e+00   0.000000e+00
      744000   7.439990e-06   1.582911e-01   4.358844e+00   2.778173e+00   6.979474e+04  -6.469217e+04  -1.128934e+05   6.128751e+11   4.930488e+11   9.631012e+10   1.476527e+05   4.878287e-23   0.000000e+00   0.000000e+00
      752000   7.519990e-06   1.654206e-01   4.355613e+00   2.769446e+00   1.025969e+05  -1.241653e+04  -1.054586e+05   1.777558e+11   7.653340e+11   8.276388e+10   1.476544e+05   4.848838e-23   0.000000e+00   0.000000e+00
      760000   7.599990e-06   1.736485e-01   4.357105e+00   2.761229e+00   9.629647e+04   4.900597e+04  -1.006365e+05  -3.289164e+11   7.139165e+11   3.285579e+10   1.476560e+05   4.808237e-23   0.000000e+00   0.000000e+00
      768000   7.679990e-06   1.798481e-01   4.363001e+00   2.753213e+00   5.378630e+04   9.367993e+04  -1.006673e+05  -6.943596e+11   3.621116e+11  -3.407847e+10   1.476577e+05   4.773223e-23   0.000000e+00   0.000000e+00
      776000   7.759990e-06   1.817648e-01   4.371132e+00   2.744986e+00  -6.813568e+03   1.028448e+05  -1.057346e+05  -7.646141e+11  -1.409229e+11  -8.785741e+10   1.476594e+05   4.756171e-23   0.000000e+00   0.000000e+00
      784000   7.839990e-06   1.789642e-01   4.378396e+00   2.736217e+00  -5.980010e+04   7.283663e+04  -1.136774e+05  -5.116433e+11  -5.808639e+11  -1.030807e+11   1.476610e+05   4.737591e-23   0.000000e+00   0.000000e+00
      792000   7.919990e-06   1.730048e-01   4.382078e+00   2.726813e+00  -8.294268e+04   1.664463e+04  -1.210278e+05  -4.688721e+10  -7.719463e+11  -7.408086e+10   1.476627e+05   4.689378e-23   0.000000e+00   0.000000e+00
      800000   7.999990e-06   1.667520e-01   4.380996e+00   2.716951e+00  -6.696874e+04  -4.191026e+04  -1.247536e+05   4.303153e+11  -6.392511e+11  -1.629157e+10   1.476643e+05   4.615605e-23   0.000000e+00   0.000000e+00
      808000   8.079990e-06   1.631526e-01   4.375964e+00   2.706986e+00  -1.908896e+04  -7.860523e+04  -1.235396e+05   7.229870e+11  -2.466018e+11   4.514556e+10   1.476659e+05   4.549522e-23   0.000000e+00   0.000000e+00
      816000   8.159990e-06   1.640172e-01   4.369406e+00   2.697299e+00   4.057210e+04  -7.876840e+04  -1.181318e+05   7.139477e+11   2.424012e+11   8.352571e+10   1.476675e+05   4.471106e-23   0.000000e+00   0.000000e+00
      824000   8.239990e-06   1.693006e-01   4.364335e+00   2.688134e+00   8.757668e+04  -4.290836e+04  -1.108843e+05   4.207682e+11   6.220621e+11   9.155574e+10   1.476690e+05   4.447374e-23   0.000000e+00   0.000000e+00
      832000   8.319990e-06   1.771870e-01   4.363109e+00   2.679535e+00   1.034269e+05   1.396577e+04  -1.044721e+05  -3.766288e+10   7.502518e+11   6.295272e+10   1.476706e+05   4.415375e-23   0.000000e+00   0.000000e+00
      840000   8.399990e-06   1.848417e-01   4.366521e+00   2.671324e+00   8.202599e+04   6.902514e+04  -1.015594e+05  -4.783372e+11   5.785445e+11   6.817634e+09   1.476721e+05   4.379005e-23   0.000000e+00   0.000000e+00
      848000   8.479990e-06   1.895403e-01   4.373509e+00   2.663154e+00   3.211932e+04   1.002931e+05  -1.035236e+05  -7.255682e+11   1.762173e+11  -5.445117e+10   1.476736e+05   4.355004e-23   0.000000e+00   0.000000e+00
      856000   8.559990e-06   1.897544e-01   4.381588e+00   2.654647e+00  -2.616264e+04   9.535965e+04  -1.096813e+05  -6.806124e+11  -2.946916e+11  -9.391443e+10   1.476751e+05   4.342891e-23   0.000000e+00   0.000000e+00
      864000   8.639990e-06   1.857608e-01   4.387848e+00   2.645560e+00  -6.942366e+04   5.643178e+04  -1.174913e+05  -3.638227e+11  -6.439254e+11  -9.435181e+10   1.476766e+05   4.319771e-23   0.000000e+00   0.000000e+00
      872000   8.719990e-06   1.795153e-01   4.390127e+00   2.635890e+00  -8.056993e+04  -6.330495e+02  -1.237615e+05   9.362803e+10  -7.331073e+11  -5.724723e+10   1.476781e+05   4.269977e-23   0.000000e+00   0.000000e+00
      880000   8.799990e-06   1.738453e-01   4.387873e+00   2.625865e+00  -5.562700e+04  -5.303872e+04  -1.261023e+05   5.074234e+11  -5.328683e+11   2.442424e+08   1.476796e+05   4.207409e-23   0.000000e+00   0.000000e+00
      888000   8.879990e-06   1.713120e-01   4.382319e+00   2.615840e+00  -4.882248e+03  -8.040078e+04  -1.237804e+05   7.178521e+11  -1.293746e+11   5.567714e+10   1.476811e+05   4.158703e-23   0.000000e+00   0.000000e+00
      896000   8.959990e-06   1.732218e-01   4.375960e+00   2.606160e+00   5.171599e+04  -7.257386e+04  -1.177651e+05   6.502193e+11   3.173552e+11   8.992248e+10   1.476825e+05   4.131088e-23   0.000000e+00   0.000000e+00
      904000   9.039990e-06   1.791592e-01   4.371563e+00   2.597037e+00   9.251957e+04  -3.308723e+04  -1.102539e+05   3.372939e+11   6.358889e+11   9.216197e+10   1.476840e+05   4.092546e-23   0.000000e+00   0.000000e+00
      912000   9.119990e-06   1.871878e-01   4.371107e+00   2.588484e+00   1.023325e+05   2.272498e+04  -1.040317e+05  -9.942953e+10   7.135770e+11   5.802004e+10   1.476854e+05   4.060210e-23   0.000000e+00   0.000000e+00
      920000   9.199990e-06   1.946016e-01   4.375071e+00   2.580289e+00   7.769330e+04   7.379899e+04  -1.016309e+05  -4.959185e+11   5.215456e+11  -4.446523e+08   1.476868e+05   4.025319e-23   0.000000e+00   0.000000e+00
      928000   9.279990e-06   1.989447e-01   4.382266e+00   2.572090e+00   2.811047e+04   1.008610e+05  -1.041569e+05  -7.026023e+11   1.330824e+11  -6.080070e+10   1.476882e+05   4.002952e-23   0.000000e+00   0.000000e+00
      936000   9.359990e-06   1.989368e-01   4.390286e+00   2.563515e+00  -2.749071e+04   9.378479e+04  -1.107289e+05  -6.416732e+11  -3.035828e+11  -9.786550e+10   1.476896e+05   3.990802e-23   0.000000e+00   0.000000e+00
      944000   9.439990e-06   1.949539e-01   4.396428e+00   2.554334e+00  -6.801517e+04   5.549281e+04  -1.187733e+05  -3.387614e+11  -6.216064e+11  -9.647685e+10   1.476910e+05   3.967384e-23   0.000000e+00   0.000000e+00
      952000   9.519990e-06   1.888700e-01   4.398720e+00   2.544555e+00  -7.836316e+04   7.454723e+02  -1.251866e+05   8.735092e+10  -7.022156e+11  -5.890102e+10   1.476923e+05   3.918842e-23   0.000000e+00   0.000000e+00
      960000   9.599990e-06   1.833238e-01   4.396662e+00   2.534410e+00  -5.509839e+04  -4.978416e+04  -1.276681e+05   4.743602e+11  -5.208981e+11  -1.636842e+09   1.476937e+05   3.857892e-23   0.000000e+00   0.000000e+00
      968000   9.679990e-06   1.807156e-01   4.391371e+00   2.524254e+00  -7.333766e+03  -7.753375e+04  -1.254932e+05   6.812222e+11  -1.519859e+11   5.405243e+10   1.476950e+05   3.809224e-23   0.000000e+00   0.000000e+00
      976000   9.759990e-06   1.823316e-01   4.385134e+00   2.514433e+00   4.715868e+04  -7.278486e+04  -1.195518e+05   6.385147e+11   2.658169e+11   8.999616e+10   1.476963e+05   3.781105e-23   0.000000e+00   0.000000e+00
      984000   9.839990e-06   1.879101e-01   4.380543e+00   2.505171e+00   8.866798e+04  -3.772575e+04  -1.119346e+05   3.675477e+11   5.827722e+11   9.469238e+10   1.476977e+05   3.759584e-23   0.000000e+00   0.000000e+00
      992000   9.919990e-06   1.957720e-01   4.379568e+00   2.496497e+00   1.025545e+05   1.476046e+04  -1.052601e+05  -3.042486e+10   6.888823e+11   6.691245e+10   1.476990e+05   3.730739e-23   0.000000e+00   0.000000e+00
     1000000   9.999990e-06   2.034435e-01   4.382868e+00   2.488235e+00   8.403559e+04   6.587510e+04  -1.020483e+05  -4.174904e+11   5.495008e+11   1.087330e+10   1.477003e+05   3.702866e-23   0.000000e+00   0.000000e+00
     1008000   1.007999e-05   2.085261e-01   4.389579e+00   2.480040e+00   3.988520e+04   9.738938e+04  -1.036351e+05  -6.518148e+11   2.142793e+11  -4.953890e+10   1.477015e+05   3.678557e-23   0.000000e+00   0.000000e+00
     1016000   1.015999e-05   2.095645e-01   4.397620e+00   2.471538e+00  -1.392430e+04   9.813975e+04  -1.095026e+05  -6.516789e+11  -1.955897e+11  -9.246962e+10   1.477028e+05   3.665087e-23   0.000000e+00   0.000000e+00
     1024000   1.023999e-05   2.065584e-01   4.404447e+00   2.462461e+00  -5.809729e+04   6.799912e+04  -1.175471e+05  -4.184802e+11  -5.336611e+11  -1.019219e+11   1.477041e+05   3.655954e-23   0.000000e+00   0.000000e+00
     1032000   1.031999e-05   2.009535e-01   4.407965e+00   2.452752e+00  -7.693433e+04   1.802276e+04  -1.247925e+05  -3.897578e+10  -6.767927e+11  -7.375243e+10   1.477054e+05   3.614811e-23   0.000000e+00   0.000000e+00
     1040000   1.039999e-05   1.951007e-01   4.407285e+00   2.442586e+00  -6.421516e+04  -3.369356e+04  -1.286794e+05   3.464292e+11  -5.786411e+11  -2.140268e+10   1.477066e+05   3.539388e-23   0.000000e+00   0.000000e+00
     1048000   1.047999e-05   1.913965e-01   4.403010e+00   2.432285e+00  -2.490757e+04  -6.922264e+04  -1.280837e+05   6.060518e+11  -2.839062e+11   3.554680e+10   1.477078e+05   3.491777e-23   0.000000e+00   0.000000e+00
     1056000   1.055999e-05   1.914598e-01   4.396966e+00   2.422206e+00   2.722398e+04  -7.673589e+04  -1.232413e+05   6.589539e+11   1.014709e+11   8.234556e+10   1.477091e+05   3.508410e-23   0.000000e+00   0.000000e+00
     1064000   1.063999e-05   1.956151e-01   4.391553e+00   2.412638e+00   7.431380e+04  -5.389798e+04  -1.157186e+05   4.840867e+11   4.517624e+11   1.004225e+11   1.477103e+05   3.486827e-23   0.000000e+00   0.000000e+00
     1072000   1.071999e-05   2.027802e-01   4.388946e+00   2.403694e+00   1.002646e+05  -8.673545e+03  -1.081224e+05   1.458984e+11   6.452662e+11   8.349109e+10   1.477115e+05   3.456656e-23   0.000000e+00   0.000000e+00
     1080000   1.079999e-05   2.108605e-01   4.390345e+00   2.395273e+00   9.670351e+04   4.320354e+04  -1.029608e+05  -2.313664e+11   6.151845e+11   4.079103e+10   1.477127e+05   3.371356e-23   0.000000e+00   0.000000e+00
     1088000   1.087999e-05   2.175021e-01   4.395572e+00   2.387102e+00   6.533902e+04   8.438516e+04  -1.021241e+05  -5.295324e+11   3.847416e+11  -2.092488e+10   1.477138e+05   3.334264e-23   0.000000e+00   0.000000e+00
     1096000   1.095999e-05   2.208505e-01   4.403194e+00   2.378803e+00   1.670771e+04   1.014513e+05  -1.060576e+05  -6.521397e+11   3.045058e+10  -7.364704e+10   1.477150e+05   3.355840e-23   0.000000e+00   0.000000e+00
     1104000   1.103999e-05   2.201484e-01   4.411002e+00   2.370042e+00  -3.292656e+04   8.880463e+04  -1.133563e+05  -5.526868e+11  -3.367755e+11  -1.033330e+11   1.477162e+05   3.339728e-23   0.000000e+00   0.000000e+00
     1112000   1.111999e-05   2.160092e-01   4.416717e+00   2.360640e+00  -6.674705e+04   5.072187e+04  -1.216246e+05  -2.689251e+11  -5.870728e+11  -9.728079e+10   1.477173e+05   3.315529e-23   0.000000e+00   0.000000e+00
     1120000   1.119999e-05   2.101953e-01   4.418783e+00   2.350632e+00  -7.364808e+04   2.382918e+02  -1.280494e+05   1.003285e+11  -6.385719e+11  -5.892553e+10   1.477185e+05   3.275723e-23   0.000000e+00   0.000000e+00
     1128000   1.127999e-05   2.050024e-01   4.416876e+00   2.340257e+00  -5.174504e+04  -4.576929e+04  -1.305707e+05   4.307183e+11  -4.795154e+11  -2.639286e+09   1.477196e+05   3.230274e-23   0.000000e+00   0.000000e+00
     1136000   1.135999e-05   2.024875e-01   4.411983e+00   2.329865e+00  -8.640475e+03  -7.237931e+04  -1.284834e+05   6.162878e+11  -1.681796e+11   5.326442e+10   1.477207e+05   3.195114e-23   0.000000e+00   0.000000e+00
     1144000   1.143999e-05   2.038088e-01   4.406040e+00   2.319805e+00   4.148667e+04  -7.137611e+04  -1.224992e+05   6.025087e+11   1.915319e+11   9.241851e+10   1.477218e+05   3.174246e-23   0.000000e+00   0.000000e+00
     1152000   1.151999e-05   2.088834e-01   4.401288e+00   2.310321e+00   8.264982e+04  -4.349897e+04  -1.144505e+05   3.990700e+11   4.857844e+11   1.035197e+11   1.477229e+05   3.156545e-23   0.000000e+00   0.000000e+00
     1160000   1.159999e-05   2.164459e-01   4.399559e+00   2.301482e+00   1.020518e+05   2.135182e+03  -1.067860e+05   7.352566e+10   6.241649e+11   8.270854e+10   1.477240e+05   3.124471e-23   0.000000e+00   0.000000e+00
     1168000   1.167999e-05   2.244660e-01   4.401722e+00   2.293157e+00   9.381787e+04   5.116031e+04  -1.019977e+05  -2.725868e+11   5.671753e+11   3.372014e+10   1.477251e+05   3.087971e-23   0.000000e+00   0.000000e+00
     1176000   1.175999e-05   2.307889e-01   4.407421e+00   2.285040e+00   6.080341e+04   8.816284e+04  -1.017511e+05  -5.300356e+11   3.331806e+11  -2.808579e+10   1.477262e+05   3.053858e-23   0.000000e+00   0.000000e+00
     1184000   1.183999e-05   2.338108e-01   4.415196e+00   2.276748e+00   1.355333e+04   1.016977e+05  -1.062884e+05  -6.189840e+11  -3.495857e+09  -8.231110e+10   1.477272e+05   3.032071e-23   0.000000e+00   0.000000e+00
     1192000   1.191999e-05   2.329771e-01   4.422950e+00   2.267943e+00  -3.297052e+04   8.771207e+04  -1.142068e+05  -5.127423e+11  -3.360394e+11  -1.100916e+11   1.477283e+05   3.016708e-23   0.000000e+00   0.000000e+00
     1200000   1.199999e-05   2.289482e-01   4.428613e+00   2.258453e+00  -6.419595e+04   5.086805e+04  -1.229442e+05  -2.474569e+11  -5.596460e+11  -1.023734e+11   1.477293e+05   2.993203e-23   0.000000e+00   0.000000e+00
     1208000   1.207999e-05   2.233750e-01   4.430791e+00   2.248324e+00  -7.059978e+04   2.935045e+03  -1.297356e+05   9.067744e+10  -6.064955e+11  -6.309525e+10   1.477304e+05   2.955308e-23   0.000000e+00   0.000000e+00
     1216000   1.215999e-05   2.183642e-01   4.429187e+00   2.237802e+00  -5.058521e+04  -4.114607e+04  -1.325621e+05   3.955665e+11  -4.669248e+11  -6.045764e+09   1.477314e+05   2.912485e-23   0.000000e+00   0.000000e+00
     1224000   1.223999e-05   2.158176e-01   4.424671e+00   2.227241e+00  -1.066159e+04  -6.804820e+04  -1.306929e+05   5.760953e+11  -1.890818e+11   5.142495e+10   1.477324e+05   2.879505e-23   0.000000e+00   0.000000e+00
     1232000   1.231999e-05   2.168638e-01   4.418971e+00   2.217001e+00   3.690218e+04  -7.001610e+04  -1.247443e+05   5.826088e+11   1.401652e+11   9.364790e+10   1.477334e+05   2.860622e-23   0.000000e+00   0.000000e+00
     1240000   1.239999e-05   2.215461e-01   4.414145e+00   2.207346e+00   7.794772e+04  -4.686203e+04  -1.164197e+05   4.180053e+11   4.233779e+11   1.094192e+11   1.477344e+05   2.845890e-23   0.000000e+00   0.000000e+00
     1248000   1.247999e-05   2.288387e-01   4.411959e+00   2.198374e+00   1.005704e+05  -5.699805e+03  -1.080688e+05   1.346099e+11   5.790151e+11   9.469773e+10   1.477354e+05   2.817902e-23   0.000000e+00   0.000000e+00
     1256000   1.255999e-05   2.369711e-01   4.413389e+00   2.189990e+00   9.844449e+04   4.129731e+04  -1.021237e+05  -1.858805e+11   5.664712e+11   4.985372e+10   1.477364e+05   2.783571e-23   0.000000e+00   0.000000e+00
     1264000   1.263999e-05   2.439446e-01   4.418356e+00   2.181916e+00   7.236257e+04   8.049508e+04  -1.005511e+05  -4.493347e+11   3.890783e+11  -1.193084e+10   1.477373e+05   2.748605e-23   0.000000e+00   0.000000e+00
     1272000   1.271999e-05   2.481147e-01   4.425752e+00   2.173767e+00   3.015216e+04   1.005208e+05  -1.039856e+05  -5.790313e+11   9.934369e+10  -7.189879e+10   1.477383e+05   2.724452e-23   0.000000e+00   0.000000e+00
     1280000   1.279999e-05   2.486716e-01   4.433769e+00   2.165169e+00  -1.567632e+04   9.567191e+04  -1.114810e+05  -5.377704e+11  -2.169312e+11  -1.105789e+11   1.477392e+05   2.710237e-23   0.000000e+00   0.000000e+00
     1288000   1.287999e-05   2.458717e-01   4.440434e+00   2.155882e+00  -5.166974e+04   6.761640e+04  -1.207701e+05  -3.398815e+11  -4.661805e+11  -1.156190e+11   1.477402e+05   2.692600e-23   0.000000e+00   0.000000e+00
     1296000   1.295999e-05   2.409482e-01   4.444191e+00   2.145873e+00  -6.748424e+04   2.482724e+04  -1.290617e+05  -4.650029e+10  -5.764801e+11  -8.660813e+10   1.477411e+05   2.659824e-23   0.000000e+00   0.000000e+00
     1304000   1.303999e-05   2.357315e-01   4.444349e+00   2.135323e+00  -5.889366e+04  -2.011681e+04  -1.339946e+05   2.549471e+11  -5.196204e+11  -3.406875e+10   1.477420e+05   2.614527e-23   0.000000e+00   0.000000e+00
     1312000   1.311999e-05   2.321045e-01   4.441260e+00   2.124558e+00  -2.878532e+04  -5.439704e+04  -1.343143e+05   4.787478e+11  -3.173627e+11   2.590473e+10   1.477429e+05   2.571202e-23   0.000000e+00   0.000000e+00
     1320000   1.319999e-05   2.314673e-01   4.436185e+00   2.113955e+00   1.401705e+04  -6.863732e+04  -1.300795e+05   5.655490e+11  -3.118708e+10   7.737313e+10   1.477438e+05   2.541795e-23   0.000000e+00   0.000000e+00
     1328000   1.327999e-05   2.343652e-01   4.430913e+00   2.103835e+00   5.750244e+04  -5.930239e+04  -1.224957e+05   4.962813e+11   2.581779e+11   1.079514e+11   1.477447e+05   2.524710e-23   0.000000e+00   0.000000e+00
     1336000   1.335999e-05   2.403656e-01   4.427254e+00   2.094390e+00   8.976132e+04  -2.926217e+04  -1.136459e+05   2.920844e+11   4.742952e+11   1.085455e+11   1.477456e+05   2.504882e-23   0.000000e+00   0.000000e+00
     1344000   1.343999e-05   2.481947e-01   4.426560e+00   2.085624e+00   1.022263e+05   1.303493e+04  -1.058720e+05   1.286021e+10   5.585802e+11   8.115948e+10   1.477464e+05   2.479345e-23   0.000000e+00   0.000000e+00
     1352000   1.351999e-05   2.561056e-01   4.429359e+00   2.077364e+00   9.179485e+04   5.606029e+04  -1.012927e+05  -2.671648e+11   4.923239e+11   3.033106e+10   1.477473e+05   2.447606e-23   0.000000e+00   0.000000e+00
     1360000   1.359999e-05   2.623467e-01   4.435238e+00   2.069294e+00   6.147886e+04   8.825667e+04  -1.012947e+05  -4.728193e+11   2.942085e+11  -3.065942e+10   1.477481e+05   2.419452e-23   0.000000e+00   0.000000e+00
     1368000   1.367999e-05   2.656318e-01   4.442958e+00   2.061031e+00   1.963065e+04   1.010360e+05  -1.060006e+05  -5.488907e+11   1.826829e+10  -8.426759e+10   1.477490e+05   2.401269e-23   0.000000e+00   0.000000e+00
     1376000   1.375999e-05   2.654847e-01   4.450793e+00   2.052241e+00  -2.232787e+04   9.111475e+04  -1.141472e+05  -4.758115e+11  -2.599880e+11  -1.144834e+11   1.477498e+05   2.388704e-23   0.000000e+00   0.000000e+00
     1384000   1.383999e-05   2.623613e-01   4.457004e+00   2.042736e+00  -5.307637e+04   6.141327e+04  -1.234567e+05  -2.756315e+11  -4.648394e+11  -1.127588e+11   1.477506e+05   2.370578e-23   0.000000e+00   0.000000e+00
     1392000   1.391999e-05   2.575119e-01   4.460308e+00   2.032525e+00  -6.453558e+04   2.016539e+04  -1.313735e+05  -5.125530e+09  -5.424822e+11  -8.077422e+10   1.477515e+05   2.340073e-23   0.000000e+00   0.000000e+00
     1400000   1.399999e-05   2.526277e-01   4.460219e+00   2.021809e+00  -5.399240e+04  -2.150208e+04  -1.358426e+05   2.618495e+11  -4.759161e+11  -2.876608e+10   1.477523e+05   2.301604e-23   0.000000e+00   0.000000e+00
     1408000   1.407999e-05   2.493800e-01   4.457150e+00   2.010911e+00  -2.460104e+04  -5.270255e+04  -1.358241e+05   4.559722e+11  -2.874807e+11   2.893934e+10   1.477531e+05   2.266658e-23   0.000000e+00   0.000000e+00
     1416000   1.415999e-05   2.489859e-01   4.452278e+00   2.000194e+00   1.574380e+04  -6.563362e+04  -1.314365e+05   5.304293e+11  -2.965326e+10   7.832178e+10   1.477538e+05   2.243155e-23   0.000000e+00   0.000000e+00
     1424000   1.423999e-05   2.519133e-01   4.447215e+00   1.989970e+00   5.664814e+04  -5.747282e+04  -1.237711e+05   4.708594e+11   2.296130e+11   1.088617e+11   1.477546e+05   2.226941e-23   0.000000e+00   0.000000e+00
     1432000   1.431999e-05   2.577917e-01   4.443588e+00   1.980428e+00   8.796951e+04  -3.052624e+04  -1.147221e+05   2.959684e+11   4.292848e+11   1.126975e+11   1.477554e+05   2.213755e-23   0.000000e+00   0.000000e+00
     1440000   1.439999e-05   2.655260e-01   4.442650e+00   1.971593e+00   1.020976e+05   8.312350e+03  -1.064841e+05   5.024470e+10   5.210371e+11   8.882154e+10   1.477562e+05   2.192854e-23   0.000000e+00   0.000000e+00
     1448000   1.447999e-05   2.735764e-01   4.444978e+00   1.963313e+00   9.573926e+04   4.937891e+04  -1.011327e+05  -2.054167e+11   4.840523e+11   4.185343e+10   1.477569e+05   2.164568e-23   0.000000e+00   0.000000e+00
     1456000   1.455999e-05   2.803406e-01   4.450339e+00   1.955295e+00   7.065220e+04   8.256705e+04  -1.001163e+05  -4.081355e+11   3.283361e+11  -1.726671e+10   1.477577e+05   2.136763e-23   0.000000e+00   0.000000e+00
     1464000   1.463999e-05   2.845483e-01   4.457758e+00   1.947168e+00   3.320122e+04   9.976547e+04  -1.038127e+05  -5.080470e+11   9.286703e+10  -7.326250e+10   1.477584e+05   2.116760e-23   0.000000e+00   0.000000e+00
     1472000   1.471999e-05   2.855729e-01   4.465761e+00   1.938582e+00  -7.223293e+03   9.686600e+04  -1.113444e+05  -4.811135e+11  -1.633218e+11  -1.108975e+11   1.477591e+05   2.103859e-23   0.000000e+00   0.000000e+00
     1480000   1.479999e-05   2.835825e-01   4.472741e+00   1.929301e+00  -4.059020e+04   7.479994e+04  -1.207907e+05  -3.357466e+11  -3.761165e+11  -1.201099e+11   1.477599e+05   2.089671e-23   0.000000e+00   0.000000e+00
     1488000   1.487999e-05   2.794866e-01   4.477366e+00   1.919268e+00  -5.878992e+04   3.925420e+04  -1.297538e+05  -1.103670e+11  -4.934859e+11  -9.930795e+10   1.477606e+05   2.066008e-23   0.000000e+00   0.000000e+00
     1496000   1.495999e-05   2.746966e-01   4.478899e+00   1.908612e+00  -5.763833e+04  -8.840860e+02  -1.360531e+05   1.377247e+11  -4.891526e+11  -5.518715e+10   1.477613e+05   2.032675e-23   0.000000e+00   0.000000e+00
     1504000   1.503999e-05   2.707682e-01   4.477363e+00   1.897609e+00  -3.770664e+04  -3.595263e+04  -1.382723e+05   3.519141e+11  -3.724689e+11   8.614308e+08   1.477620e+05   2.042757e-23   0.000000e+00   0.000000e+00
     1512000   1.511999e-05   2.690404e-01   4.473500e+00   1.886612e+00  -3.800003e+03  -5.783274e+04  -1.359219e+05   4.781519e+11  -1.642555e+11   5.650144e+10   1.477627e+05   2.013400e-23   0.000000e+00   0.000000e+00
     1520000   1.519999e-05   2.703114e-01   4.468604e+00   1.875969e+00   3.574240e+04  -6.132204e+04  -1.295998e+05   4.907110e+11   7.790765e+10   9.845050e+10   1.477634e+05   1.995975e-23   0.000000e+00   0.000000e+00
     1528000   1.527999e-05   2.746621e-01   4.464195e+00   1.865943e+00   7.168174e+04  -4.596526e+04  -1.207607e+05   3.904216e+11   2.978331e+11   1.183628e+11   1.477641e+05   1.984976e-23   0.000000e+00   0.000000e+00
     1536000   1.535999e-05   2.814643e-01   4.461654e+00   1.856662e+00   9.586072e+04  -1.557191e+04  -1.113673e+05   2.027099e+11   4.468928e+11   1.119756e+11   1.477648e+05   1.970989e-23   0.000000e+00   0.000000e+00
     1544000   1.543999e-05   2.895402e-01   4.461917e+00   1.848083e+00   1.029364e+05   2.277872e+04  -1.035368e+05  -2.882669e+10   4.932261e+11   7.982901e+10   1.477655e+05   1.948700e-23   0.000000e+00   0.000000e+00
     1552000   1.551999e-05   2.974362e-01   4.465277e+00   1.840004e+00   9.148154e+04   6.033518e+04  -9.912431e+04  -2.516011e+11   4.275620e+11   2.802241e+10   1.477662e+05   1.920881e-23   0.000000e+00   0.000000e+00
     1560000   1.559999e-05   3.037529e-01   4.471323e+00   1.832101e+00   6.423276e+04   8.866492e+04  -9.923566e+04  -4.159503e+11   2.669170e+11  -3.077437e+10   1.477668e+05   1.907740e-23   0.000000e+00   0.000000e+00
     1568000   1.567999e-05   3.074595e-01   4.479044e+00   1.824004e+00   2.752494e+04   1.014176e+05  -1.038849e+05  -4.837668e+11   4.607233e+10  -8.322228e+10   1.477675e+05   1.891203e-23   0.000000e+00   0.000000e+00
     1576000   1.575999e-05   3.081296e-01   4.487056e+00   1.815385e+00  -1.019993e+04   9.581239e+04  -1.120329e+05  -4.410960e+11  -1.830311e+11  -1.163936e+11   1.477681e+05   1.879819e-23   0.000000e+00   0.000000e+00
     1584000   1.583999e-05   3.060303e-01   4.493920e+00   1.806036e+00  -4.038298e+04   7.331829e+04  -1.217754e+05  -2.992205e+11  -3.679820e+11  -1.223464e+11   1.477688e+05   1.866600e-23   0.000000e+00   0.000000e+00
     1592000   1.591999e-05   3.020536e-01   4.498474e+00   1.795917e+00  -5.616792e+04   3.912085e+04  -1.309600e+05  -8.684849e+10  -4.706472e+11  -1.033630e+11   1.477694e+05   1.865241e-23   0.000000e+00   0.000000e+00
     1600000   1.599999e-05   2.975183e-01   4.500084e+00   1.785157e+00  -5.425935e+04   1.267655e+03  -1.374420e+05   1.379394e+11  -4.647151e+11  -5.875920e+10   1.477701e+05   1.855180e-23   0.000000e+00   0.000000e+00
     1608000   1.607999e-05   2.938230e-01   4.498805e+00   1.774035e+00  -3.573178e+04  -3.168722e+04  -1.398404e+05   3.188144e+11  -3.494796e+11  -2.288358e+09   1.477707e+05   1.741160e-23   0.000000e+00   0.000000e+00
     1616000   1.615999e-05   2.921317e-01   4.495325e+00   1.762898e+00  -4.988031e+03  -5.292910e+04  -1.378767e+05   4.355434e+11  -1.725289e+11   5.045868e+10   1.477713e+05   1.727375e-23   0.000000e+00   0.000000e+00
     1624000   1.623999e-05   2.931780e-01   4.490759e+00   1.752079e+00   3.146376e+04  -5.840626e+04  -1.320427e+05   4.594949e+11   3.741151e+10   9.292571e+10   1.477719e+05   1.720852e-23   0.000000e+00   0.000000e+00
     1632000   1.631999e-05   2.971138e-01   4.486427e+00   1.741844e+00   6.598268e+04  -4.723573e+04  -1.234981e+05   3.885248e+11   2.364526e+11   1.171248e+11   1.477725e+05   1.716270e-23   0.000000e+00   0.000000e+00
     1640000   1.639999e-05   3.034980e-01   4.483578e+00   1.732350e+00   9.172044e+04  -2.206045e+04  -1.137435e+05   2.441200e+11   3.824562e+11   1.226569e+11   1.477731e+05   1.718871e-23   0.000000e+00   0.000000e+00
     1648000   1.647999e-05   3.114151e-01   4.483138e+00   1.723625e+00   1.035774e+05   1.200177e+04  -1.047127e+05   4.756093e+10   4.541524e+11   9.907766e+10   1.477737e+05   1.698818e-23   0.000000e+00   0.000000e+00
     1656000   1.655999e-05   3.196326e-01   4.485553e+00   1.715521e+00   9.913051e+04   4.810638e+04  -9.846905e+04  -1.563654e+11   4.328031e+11   5.400542e+10   1.477743e+05   1.670451e-23   0.000000e+00   0.000000e+00
     1664000   1.663999e-05   3.268678e-01   4.490692e+00   1.707757e+00   7.948182e+04   7.888572e+04  -9.642142e+04  -3.258470e+11   3.234145e+11  -4.026470e+09   1.477748e+05   1.640150e-23   0.000000e+00   0.000000e+00
     1672000   1.671999e-05   3.320549e-01   4.497864e+00   1.699966e+00   4.885463e+04   9.809863e+04  -9.913353e+04  -4.274668e+11   1.488458e+11  -6.339178e+10   1.477754e+05   1.625472e-23   0.000000e+00   0.000000e+00
     1680000   1.679999e-05   3.345619e-01   4.505974e+00   1.691780e+00   1.370505e+04   1.019250e+05  -1.061188e+05  -4.364472e+11  -5.428434e+10  -1.085248e+11   1.477760e+05   1.596764e-23   0.000000e+00   0.000000e+00
     1688000   1.687999e-05   3.343241e-01   4.513743e+00   1.682912e+00  -1.857877e+04   8.978075e+04  -1.158971e+05  -3.565258e+11  -2.434912e+11  -1.314877e+11   1.477765e+05   1.584925e-23   0.000000e+00   0.000000e+00
     1696000   1.695999e-05   3.318437e-01   4.519983e+00   1.673217e+00  -4.139447e+04   6.438598e+04  -1.264081e+05  -2.042351e+11  -3.798263e+11  -1.266004e+11   1.477771e+05   1.571865e-23   0.000000e+00   0.000000e+00
     1704000   1.703999e-05   3.280773e-01   4.523835e+00   1.662726e+00  -5.020102e+04   3.114927e+04  -1.354541e+05  -1.266448e+10  -4.364608e+11  -9.569046e+10   1.477776e+05   1.554816e-23   0.000000e+00   0.000000e+00
     1712000   1.711999e-05   3.242296e-01   4.524941e+00   1.651633e+00  -4.343835e+04  -3.064493e+03  -1.412165e+05   1.782546e+11  -4.043569e+11  -4.607045e+10   1.477782e+05   1.536048e-23   0.000000e+00   0.000000e+00
     1720000   1.719999e-05   3.215020e-01   4.523502e+00   1.640249e+00  -2.271211e+04  -3.142188e+04  -1.426021e+05   3.307503e+11  -2.930683e+11   1.188458e+10   1.477787e+05   1.520685e-23   0.000000e+00   0.000000e+00
     1728000   1.727999e-05   3.208554e-01   4.520217e+00   1.628940e+00   7.695524e+03  -4.848991e+04  -1.393851e+05   4.167046e+11  -1.271706e+11   6.723320e+10   1.477792e+05   1.512208e-23   0.000000e+00   0.000000e+00
     1736000   1.735999e-05   3.228323e-01   4.516129e+00   1.618054e+00   4.180007e+04  -5.119968e+04  -1.321749e+05   4.221450e+11   5.995605e+10   1.102631e+11   1.477797e+05   1.509290e-23   0.000000e+00   0.000000e+00
     1744000   1.743999e-05   3.274684e-01   4.512417e+00   1.607864e+00   7.311687e+04  -3.927483e+04  -1.222719e+05   3.485035e+11   2.329883e+11   1.335464e+11   1.477803e+05   1.506297e-23   0.000000e+00   0.000000e+00
     1752000   1.751999e-05   3.343008e-01   4.510173e+00   1.598515e+00   9.586784e+04  -1.514995e+04  -1.114406e+05   2.123363e+11   3.597129e+11   1.337454e+11   1.477808e+05   1.496932e-23   0.000000e+00   0.000000e+00
     1760000   1.759999e-05   3.424694e-01   4.510197e+00   1.590007e+00   1.060114e+05   1.656424e+04  -1.016195e+05   3.764273e+10   4.205698e+11   1.078049e+11   1.477813e+05   1.477878e-23   0.000000e+00   0.000000e+00
     1768000   1.767999e-05   3.508763e-01   4.512870e+00   1.582177e+00   1.017599e+05   5.004825e+04  -9.476056e+04  -1.418608e+11   4.033998e+11   6.069878e+10   1.477818e+05   1.451604e-23   0.000000e+00   0.000000e+00
     1776000   1.775999e-05   3.583906e-01   4.518086e+00   1.574728e+00   8.407941e+04   7.911186e+04  -9.225822e+04  -2.927624e+11   3.118502e+11   5.844998e+08   1.477823e+05   1.423759e-23   0.000000e+00   0.000000e+00
     1784000   1.783999e-05   3.640618e-01   4.525266e+00   1.567283e+00   5.644226e+04   9.840927e+04  -9.470821e+04  -3.868196e+11   1.631591e+11  -6.101266e+10   1.477828e+05   1.400517e-23   0.000000e+00   0.000000e+00
     1792000   1.791999e-05   3.672973e-01   4.533475e+00   1.559452e+00   2.418358e+04   1.044387e+05  -1.017233e+05  -4.065298e+11  -1.447058e+10  -1.115223e+11   1.477833e+05   1.384496e-23   0.000000e+00   0.000000e+00
     1800000   1.799999e-05   3.679728e-01   4.541594e+00   1.550920e+00  -6.527268e+03   9.622767e+04  -1.119717e+05  -3.489506e+11  -1.870605e+11  -1.404325e+11   1.477838e+05   1.373349e-23   0.000000e+00   0.000000e+00
     1808000   1.807999e-05   3.664499e-01   4.548536e+00   1.541504e+00  -2.990461e+04   7.552353e+04  -1.234589e+05  -2.264347e+11  -3.218284e+11  -1.420386e+11   1.477842e+05   1.362010e-23   0.000000e+00   0.000000e+00
     1816000   1.815999e-05   3.634996e-01   4.553452e+00   1.531193e+00  -4.167852e+04   4.641073e+04  -1.339749e+05  -6.376441e+10  -3.941738e+11  -1.167235e+11   1.477847e+05   1.346782e-23   0.000000e+00   0.000000e+00
     1824000   1.823999e-05   3.601458e-01   4.555885e+00   1.520146e+00  -3.987464e+04   1.443975e+04  -1.415697e+05   1.075601e+11  -3.926069e+11  -7.035245e+10   1.477852e+05   1.328080e-23   0.000000e+00   0.000000e+00
     1832000   1.831999e-05   3.574681e-01   4.555844e+00   1.508656e+00  -2.507981e+04  -1.450713e+04  -1.449177e+05   2.561271e+11  -3.202652e+11  -1.227712e+10   1.477856e+05   1.309899e-23   0.000000e+00   0.000000e+00
     1840000   1.839999e-05   3.564029e-01   4.553783e+00   1.497087e+00  -2.746024e+02  -3.524377e+04  -1.435219e+05   3.519368e+11  -1.891017e+11   4.575187e+10   1.477861e+05   1.258471e-23   0.000000e+00   0.000000e+00
     1848000   1.847999e-05   3.575633e-01   4.550519e+00   1.485807e+00   2.976828e+04  -4.428703e+04  -1.378164e+05   3.881509e+11  -3.426567e+10   9.483994e+10   1.477865e+05   1.251611e-23   0.000000e+00   0.000000e+00
     1856000   1.855999e-05   3.611726e-01   4.547037e+00   1.475126e+00   6.006733e+04  -4.065140e+04  -1.287648e+05   3.586413e+11   1.233609e+11   1.283443e+11   1.477870e+05   1.247602e-23   0.000000e+00   0.000000e+00
     1864000   1.863999e-05   3.670454e-01   4.544333e+00   1.465255e+00   8.557273e+04  -2.516431e+04  -1.178354e+05   2.702737e+11   2.580299e+11   1.411572e+11   1.477874e+05   1.241686e-23   0.000000e+00   0.000000e+00
     1872000   1.871999e-05   3.746249e-01   4.543256e+00   1.456275e+00   1.021559e+05  -5.455987e+02  -1.067947e+05   1.388392e+11   3.486922e+11   1.310122e+11   1.477878e+05   1.229820e-23   0.000000e+00   0.000000e+00
     1880000   1.879999e-05   3.830816e-01   4.544380e+00   1.448122e+00   1.072239e+05   2.907923e+04  -9.746176e+04  -1.355351e+10   3.816162e+11   9.893408e+10   1.477882e+05   1.210961e-23   0.000000e+00   0.000000e+00
     1888000   1.887999e-05   3.914537e-01   4.547912e+00   1.440593e+00   1.000987e+05   5.883960e+04  -9.143112e+04  -1.617373e+11   3.521199e+11   4.951684e+10   1.477887e+05   1.187596e-23   0.000000e+00   0.000000e+00
     1896000   1.895999e-05   3.988061e-01   4.553667e+00   1.433375e+00   8.211337e+04   8.388207e+04  -8.979311e+04  -2.812501e+11   2.653510e+11  -9.329228e+09   1.477891e+05   1.164259e-23   0.000000e+00   0.000000e+00
     1904000   1.903999e-05   4.043878e-01   4.561094e+00   1.426097e+00   5.650507e+04   1.000284e+05  -9.296893e+04  -3.502892e+11   1.339544e+11  -6.878989e+10   1.477895e+05   1.131411e-23   0.000000e+00   0.000000e+00
     1912000   1.911999e-05   4.077600e-01   4.569367e+00   1.418384e+00   2.766763e+04   1.047808e+05  -1.004855e+05  -3.601590e+11  -1.649445e+10  -1.163798e+11   1.477899e+05   1.117038e-23   0.000000e+00   0.000000e+00
     1920000   1.919999e-05   4.088602e-01   4.577537e+00   1.409937e+00   5.245752e+02   9.752126e+04  -1.110463e+05  -3.087262e+11  -1.619749e+11  -1.437181e+11   1.477902e+05   1.106707e-23   0.000000e+00   0.000000e+00
     1928000   1.927999e-05   4.080121e-01   4.584686e+00   1.400584e+00  -2.035252e+04   7.966122e+04  -1.228085e+05  -2.060218e+11  -2.777439e+11  -1.460303e+11   1.477906e+05   1.096664e-23   0.000000e+00   0.000000e+00
     1936000   1.935999e-05   4.058504e-01   4.590091e+00   1.390316e+00  -3.192165e+04   5.455118e+04  -1.335940e+05  -7.625964e+10  -3.434305e+11  -1.220234e+11   1.477910e+05   1.079067e-23   0.000000e+00   0.000000e+00
     1944000   1.943999e-05   4.032061e-01   4.593328e+00   1.379278e+00  -3.226873e+04   2.623713e+04  -1.418190e+05   6.721259e+10  -3.545848e+11  -8.090255e+10   1.477914e+05   1.064624e-23   0.000000e+00   0.000000e+00
     1952000   1.951999e-05   4.009846e-01   4.594327e+00   1.367728e+00  -2.153030e+04  -6.550485e+02  -1.462136e+05   1.971599e+11  -3.087848e+11  -2.765810e+10   1.477918e+05   1.050556e-23   0.000000e+00   0.000000e+00
     1960000   1.959999e-05   4.000071e-01   4.593375e+00   1.356003e+00  -1.618114e+03  -2.189968e+04  -1.461516e+05   2.937246e+11  -2.156578e+11   2.905353e+10   1.477921e+05   1.039989e-23   0.000000e+00   0.000000e+00
     1968000   1.967999e-05   4.008842e-01   4.591059e+00   1.344462e+00   2.421142e+04  -3.432900e+04  -1.416967e+05   3.434927e+11  -9.151174e+10   8.085317e+10   1.477925e+05   1.034330e-23   0.000000e+00   0.000000e+00
     1976000   1.975999e-05   4.039315e-01   4.588164e+00   1.333431e+00   5.193534e+04  -3.623948e+04  -1.335370e+05   3.408129e+11   4.390548e+10   1.206242e+11   1.477928e+05   1.032252e-23   0.000000e+00   0.000000e+00
     1984000   1.983999e-05   4.091330e-01   4.585545e+00   1.323163e+00   7.739306e+04  -2.753935e+04  -1.228606e+05   2.878087e+11   1.705302e+11   1.430628e+11   1.477932e+05   1.030312e-23   0.000000e+00   0.000000e+00
     1992000   1.991999e-05   4.161542e-01   4.584004e+00   1.313800e+00   9.687695e+04  -9.666592e+03  -1.111951e+05   1.934712e+11   2.705564e+11   1.450264e+11   1.477935e+05   1.024738e-23   0.000000e+00   0.000000e+00
     2000000   1.999999e-05   4.243992e-01   4.584172e+00   1.305353e+00   1.076253e+05   1.467327e+04  -1.002223e+05   7.217563e+10   3.303765e+11   1.258634e+11   1.477939e+05   1.013342e-23   0.000000e+00   0.000000e+00
     2008000   2.007999e-05   4.331013e-01   4.586429e+00   1.297702e+00   1.081933e+05   4.191699e+04  -9.154410e+04  -5.765429e+10   3.425896e+11   8.871390e+10   1.477943e+05   1.000601e-23   0.000000e+00   0.000000e+00
     2016000   2.015999e-05   4.414390e-01   4.590851e+00   1.290611e+00   9.864273e+04   6.813660e+04  -8.643066e+04  -1.778877e+11   3.049506e+11   3.736758e+10   1.477946e+05   9.809412e-24   0.000000e+00   0.000000e+00
     2024000   2.023999e-05   4.486530e-01   4.597202e+00   1.283755e+00   8.046876e+04   8.953679e+04  -8.573964e+04  -2.705573e+11   2.235916e+11  -2.044528e+10   1.477949e+05   9.620890e-24   0.000000e+00   0.000000e+00
     2032000   2.031999e-05   4.541588e-01   4.604962e+00   1.276766e+00   5.651590e+04   1.028917e+05  -8.979246e+04  -3.201572e+11   1.067622e+11  -7.918510e+10   1.477953e+05   9.352927e-24   0.000000e+00   0.000000e+00
     2040000   2.039999e-05   4.576419e-01   4.613399e+00   1.269277e+00   3.056134e+04   1.063141e+05  -9.801459e+04  -3.202680e+11  -2.197059e+10  -1.237039e+11   1.477956e+05   9.211922e-24   0.000000e+00   0.000000e+00
     2048000   2.047999e-05   4.591016e-01   4.621698e+00   1.261007e+00   6.583425e+03   9.951717e+04  -1.090716e+05  -2.715155e+11  -1.454102e+11  -1.490716e+11   1.477959e+05   9.113123e-24   0.000000e+00   0.000000e+00
     2056000   2.055999e-05   4.588454e-01   4.629080e+00   1.251796e+00  -1.179505e+04   8.369205e+04  -1.212445e+05  -1.822730e+11  -2.448182e+11  -1.512693e+11   1.477962e+05   9.031802e-24   0.000000e+00   0.000000e+00
     2064000   2.063999e-05   4.574366e-01   4.634915e+00   1.241629e+00  -2.188572e+04   6.137868e+04  -1.326555e+05  -6.713989e+10  -3.057082e+11  -1.303806e+11   1.477965e+05   8.947984e-24   0.000000e+00   0.000000e+00
     2072000   2.071999e-05   4.556024e-01   4.638819e+00   1.230637e+00  -2.232636e+04   3.602148e+04  -1.415906e+05   5.585918e+10  -3.202395e+11  -9.028686e+10   1.477968e+05   8.859362e-24   0.000000e+00   0.000000e+00
     2080000   2.079999e-05   4.541201e-01   4.640698e+00   1.219075e+00  -1.322551e+04   1.139076e+04  -1.467629e+05   1.685103e+11  -2.881189e+11  -3.755484e+10   1.477972e+05   8.781039e-24   0.000000e+00   0.000000e+00
     2088000   2.087999e-05   4.537024e-01   4.640755e+00   1.207275e+00   3.941980e+03  -9.004618e+03  -1.474702e+05   2.552847e+11  -2.159562e+11   2.000274e+10   1.477975e+05   8.733506e-24   0.000000e+00   0.000000e+00
     2096000   2.095999e-05   4.548961e-01   4.639447e+00   1.195601e+00   2.646254e+04  -2.226577e+04  -1.436946e+05   2.996138e+11  -1.116350e+11   7.246692e+10   1.477978e+05   8.365746e-24   0.000000e+00   0.000000e+00
     2104000   2.103999e-05   4.579924e-01   4.637425e+00   1.184386e+00   5.106299e+04  -2.681633e+04  -1.360798e+05   3.084678e+11  -1.107401e+09   1.159606e+11   1.477980e+05   8.452813e-24   0.000000e+00   0.000000e+00
     2112000   2.111999e-05   4.630411e-01   4.635395e+00   1.173907e+00   7.473030e+04  -2.247167e+04  -1.255179e+05   2.767290e+11   1.083319e+11   1.453541e+11   1.477983e+05   8.518395e-24   0.000000e+00   0.000000e+00
     2120000   2.119999e-05   4.698418e-01   4.634050e+00   1.164348e+00   9.438665e+04  -9.880583e+03  -1.133048e+05   2.094138e+11   2.029059e+11   1.567449e+11   1.477986e+05   8.530222e-24   0.000000e+00   0.000000e+00
     2128000   2.127999e-05   4.779685e-01   4.633990e+00   1.155781e+00   1.075302e+05   9.285868e+03  -1.009731e+05   1.157466e+11   2.710308e+11   1.481773e+11   1.477989e+05   8.469362e-24   0.000000e+00   0.000000e+00
     2136000   2.135999e-05   4.868285e-01   4.635646e+00   1.148153e+00   1.125302e+05   3.255368e+04  -9.012117e+04   8.081161e+09   3.043745e+11   1.200252e+11   1.477992e+05   8.337374e-24   0.000000e+00   0.000000e+00
     2144000   2.143999e-05   4.957402e-01   4.639229e+00   1.141283e+00   1.088258e+05   5.694149e+04  -8.221499e+04  -9.943741e+10   2.987111e+11   7.524964e+10   1.477995e+05   8.155542e-24   0.000000e+00   0.000000e+00
     2152000   2.151999e-05   5.040253e-01   4.644701e+00   1.134890e+00   9.710989e+04   7.924651e+04  -7.832265e+04  -1.897512e+11   2.530208e+11   2.072564e+10   1.477998e+05   7.819010e-24   0.000000e+00   0.000000e+00
     2160000   2.159999e-05   5.111086e-01   4.651777e+00   1.128627e+00   7.909970e+04   9.662683e+04  -7.906548e+04  -2.550784e+11   1.767121e+11  -3.923931e+10   1.478001e+05   7.614891e-24   0.000000e+00   0.000000e+00
     2168000   2.167999e-05   5.165788e-01   4.659971e+00   1.122115e+00   5.726906e+04   1.069061e+05  -8.447643e+04  -2.841219e+11   7.751981e+10  -9.452346e+10   1.478003e+05   7.446582e-24   0.000000e+00   0.000000e+00
     2176000   2.175999e-05   5.202524e-01   4.668657e+00   1.115005e+00   3.472194e+04   1.087797e+05  -9.384232e+04  -2.727990e+11  -3.096702e+10  -1.368427e+11   1.478006e+05   7.324781e-24   0.000000e+00   0.000000e+00
     2184000   2.183999e-05   5.222008e-01   4.677147e+00   1.107029e+00   1.465369e+04   1.021072e+05  -1.058512e+05  -2.229648e+11  -1.336026e+11  -1.597523e+11   1.478008e+05   7.245374e-24   0.000000e+00   0.000000e+00
     2192000   2.191999e-05   5.227385e-01   4.684793e+00   1.098044e+00  -1.705854e+02   8.796385e+04  -1.187750e+05  -1.451376e+11  -2.149044e+11  -1.589559e+11   1.478011e+05   7.201187e-24   0.000000e+00   0.000000e+00
     2200000   2.199999e-05   5.223630e-01   4.691077e+00   1.088050e+00  -7.886823e+03   6.843453e+04  -1.307660e+05  -4.565098e+10  -2.675173e+11  -1.372551e+11   1.478013e+05   7.199080e-24   0.000000e+00   0.000000e+00
     2208000   2.207999e-05   5.216983e-01   4.695669e+00   1.077189e+00  -7.327015e+03   4.615318e+04  -1.402195e+05   5.933240e+10  -2.830993e+11  -9.628898e+10   1.478016e+05   7.234022e-24   0.000000e+00   0.000000e+00
     2216000   2.215999e-05   5.214087e-01   4.698469e+00   1.065719e+00   1.372080e+03   2.415519e+04  -1.458082e+05   1.555574e+11  -2.607354e+11  -4.173713e+10   1.478018e+05   7.310783e-24   0.000000e+00   0.000000e+00
     2224000   2.223999e-05   5.221033e-01   4.699619e+00   1.053985e+00   1.699631e+04   5.339470e+03  -1.467245e+05   2.306451e+11  -2.046235e+11   1.926454e+10   1.478021e+05   7.428810e-24   0.000000e+00   0.000000e+00
     2232000   2.231999e-05   5.242578e-01   4.699473e+00   1.042374e+00   3.746790e+04  -7.900968e+03  -1.427560e+05   2.755740e+11  -1.229878e+11   7.912754e+10   1.478024e+05   7.575881e-24   0.000000e+00   0.000000e+00
     2240000   2.239999e-05   5.281573e-01   4.698548e+00   1.031264e+00   6.015062e+04  -1.394394e+04  -1.342873e+05   2.854821e+11  -2.662243e+10   1.306315e+11   1.478026e+05   7.727319e-24   0.000000e+00   0.000000e+00
     2248000   2.247999e-05   5.338648e-01   4.697454e+00   1.020983e+00   8.219397e+04  -1.208427e+04  -1.222449e+05   2.598667e+11   7.257345e+10   1.675445e+11   1.478029e+05   7.851537e-24   0.000000e+00   0.000000e+00
     2256000   2.255999e-05   5.412183e-01   4.696819e+00   1.011764e+00   1.008750e+05  -2.569842e+03  -1.079972e+05   2.023525e+11   1.628625e+11   1.851229e+11   1.478032e+05   7.919487e-24   0.000000e+00   0.000000e+00
     2264000   2.263999e-05   5.498536e-01   4.697217e+00   1.003718e+00   1.139095e+05   1.345412e+04  -9.321727e+04   1.201807e+11   2.337055e+11   1.805783e+11   1.478034e+05   7.913995e-24   0.000000e+00   0.000000e+00
     2272000   2.271999e-05   5.592510e-01   4.699094e+00   9.968161e-01   1.197554e+05   3.400003e+04  -7.967795e+04   2.468718e+10   2.747894e+11   1.543498e+11   1.478037e+05   7.779551e-24   0.000000e+00   0.000000e+00
     2280000   2.279999e-05   5.688023e-01   4.702716e+00   9.908898e-01   1.176846e+05   5.673602e+04  -6.911852e+04  -7.554621e+10   2.867951e+11   1.067730e+11   1.478040e+05   7.734176e-24   0.000000e+00   0.000000e+00
     2288000   2.287999e-05   5.778760e-01   4.708155e+00   9.856389e-01   1.079657e+05   7.888551e+04  -6.298082e+04  -1.646512e+11   2.611247e+11   4.479627e+10   1.478042e+05   7.574139e-24   0.000000e+00   0.000000e+00
     2296000   2.295999e-05   5.859077e-01   4.715247e+00   9.806709e-01   9.193444e+04   9.763616e+04  -6.214027e+04  -2.315383e+11   2.026278e+11  -2.419526e+10   1.478045e+05   7.414638e-24   0.000000e+00   0.000000e+00
     2304000   2.303999e-05   5.924745e-01   4.723622e+00   9.755493e-01   7.176345e+04   1.106126e+05  -6.679152e+04  -2.669000e+11   1.182892e+11  -9.088474e+10   1.478048e+05   7.277235e-24   0.000000e+00   0.000000e+00
     2312000   2.311999e-05   5.973529e-01   4.732746e+00   9.698523e-01   5.021348e+04   1.161594e+05  -7.636700e+04  -2.655672e+11   1.895764e+10  -1.457942e+11   1.478050e+05   7.172427e-24   0.000000e+00   0.000000e+00
     2320000   2.319999e-05   6.005515e-01   4.741990e+00   9.632329e-01   3.026785e+04   1.135983e+05  -8.958620e+04  -2.268493e+11  -8.212708e+10  -1.807939e+11   1.478053e+05   7.075192e-24   0.000000e+00   0.000000e+00
     2328000   2.327999e-05   6.023138e-01   4.750716e+00   9.554695e-01   1.471826e+04   1.033509e+05  -1.046347e+05  -1.573793e+11  -1.709484e+11  -1.909970e+11   1.478055e+05   7.042482e-24   0.000000e+00   0.000000e+00
     2336000   2.335999e-05   6.030804e-01   4.758360e+00   9.464980e-01   5.662688e+03   8.689054e+04  -1.194341e+05  -6.645525e+10  -2.357176e+11  -1.746473e+11   1.478058e+05   7.043224e-24   0.000000e+00   0.000000e+00
     2344000   2.343999e-05   6.034264e-01   4.764513e+00   9.364218e-01   4.317715e+03   6.650239e+04  -1.319295e+05   3.311796e+10  -2.681481e+11  -1.340898e+11   1.478060e+05   7.082128e-24   0.000000e+00   0.000000e+00
     2352000   2.351999e-05   6.039817e-01   4.768969e+00   9.254974e-01   1.082936e+04   4.494585e+04  -1.403898e+05   1.277405e+11  -2.647795e+11  -7.492220e+10   1.478062e+05   7.164570e-24   0.000000e+00   0.000000e+00
     2360000   2.359999e-05   6.053453e-01   4.771749e+00   9.140993e-01   2.429293e+04   2.505624e+04  -1.436273e+05   2.050551e+11  -2.271169e+11  -4.945033e+09   1.478065e+05   7.290306e-24   0.000000e+00   0.000000e+00
     2368000   2.367999e-05   6.080068e-01   4.773091e+00   9.026707e-01   4.291961e+04   9.370927e+03  -1.411274e+05   2.555275e+11  -1.609350e+11   6.701801e+10   1.478068e+05   7.448481e-24   0.000000e+00   0.000000e+00
     2376000   2.375999e-05   6.122905e-01   4.773410e+00   8.916691e-01   6.444101e+04  -2.741391e+02  -1.330195e+05   2.754265e+11  -7.630641e+10   1.335795e+11   1.478070e+05   7.747442e-24   0.000000e+00   0.000000e+00
     2384000   2.383999e-05   6.183179e-01   4.773245e+00   8.815142e-01   8.601549e+04  -2.554162e+03  -1.201741e+05   2.582711e+11   1.981056e+10   1.844300e+11   1.478073e+05   7.870847e-24   0.000000e+00   0.000000e+00
     2392000   2.391999e-05   6.259811e-01   4.773206e+00   8.725282e-01   1.049074e+05   2.827109e+03  -1.040842e+05   2.091100e+11   1.133446e+11   2.138326e+11   1.478076e+05   7.963323e-24   0.000000e+00   0.000000e+00
     2400000   2.399999e-05   6.349687e-01   4.773885e+00   8.648970e-01   1.187802e+05   1.522240e+04  -8.664128e+04   1.340868e+11   1.934459e+11   2.178007e+11   1.478078e+05   8.005347e-24   0.000000e+00   0.000000e+00
     2408000   2.407999e-05   6.448054e-01   4.775790e+00   8.586454e-01   1.259117e+05   3.316678e+04  -6.995326e+04   4.230844e+10   2.506570e+11   1.949814e+11   1.478081e+05   7.989734e-24   0.000000e+00   0.000000e+00
     2416000   2.415999e-05   6.549100e-01   4.779283e+00   8.536282e-01   1.254020e+05   5.452162e+04  -5.611633e+04  -5.492452e+10   2.777344e+11   1.470849e+11   1.478084e+05   7.923630e-24   0.000000e+00   0.000000e+00
     2424000   2.423999e-05   6.646667e-01   4.784535e+00   8.495416e-01   1.173094e+05   7.668679e+04  -4.695778e+04  -1.451656e+11   2.705357e+11   7.913938e+10   1.478087e+05   7.825470e-24   0.000000e+00   0.000000e+00
     2432000   2.431999e-05   6.735045e-01   4.791500e+00   8.459550e-01   1.026879e+05   9.688439e+04  -4.377312e+04  -2.162270e+11   2.288907e+11  -6.616528e+08   1.478089e+05   7.718058e-24   0.000000e+00   0.000000e+00
     2440000   2.439999e-05   6.809743e-01   4.799914e+00   8.423635e-01   8.349997e+04   1.125032e+05  -4.709923e+04  -2.578859e+11   1.571943e+11  -8.173321e+10   1.478092e+05   7.620774e-24   0.000000e+00   0.000000e+00
     2448000   2.447999e-05   6.868072e-01   4.809326e+00   8.382531e-01   6.223483e+04   1.215348e+05  -5.660170e+04  -2.658790e+11   6.503248e+10  -1.527198e+11   1.478095e+05   7.647944e-24   0.000000e+00   0.000000e+00
     2456000   2.455999e-05   6.909584e-01   4.819148e+00   8.331765e-01   4.195716e+04   1.226755e+05  -7.097909e+04  -2.350471e+11  -3.677721e+10  -2.025181e+11   1.478097e+05   7.598855e-24   0.000000e+00   0.000000e+00
     2464000   2.463999e-05   6.936231e-01   4.828739e+00   8.268190e-01   2.551360e+04   1.157968e+05  -8.824938e+04  -1.711665e+11  -1.330862e+11  -2.241263e+11   1.478100e+05   7.570015e-24   0.000000e+00   0.000000e+00
     2472000   2.471999e-05   6.952052e-01   4.837488e+00   8.190438e-01   1.521291e+04   1.018876e+05  -1.059970e+05  -8.334281e+10  -2.104941e+11  -2.143042e+11   1.478103e+05   7.565177e-24   0.000000e+00   0.000000e+00
     2480000   2.479999e-05   6.962600e-01   4.844905e+00   8.099133e-01   1.248432e+04   8.290345e+04  -1.217338e+05   1.585986e+10  -2.585709e+11  -1.744742e+11   1.478105e+05   7.594130e-24   0.000000e+00   0.000000e+00
     2488000   2.487999e-05   6.974151e-01   4.850686e+00   7.996793e-01   1.769223e+04   6.145475e+04  -1.332604e+05   1.162745e+11  -2.734306e+11  -1.106665e+11   1.478108e+05   7.826093e-24   0.000000e+00   0.000000e+00
     2496000   2.495999e-05   6.992951e-01   4.854744e+00   7.887485e-01   3.039537e+04   4.032667e+04  -1.389172e+05   1.975528e+11  -2.488872e+11  -2.903255e+10   1.478111e+05   7.926052e-24   0.000000e+00   0.000000e+00
     2504000   2.503999e-05   7.024214e-01   4.857226e+00   7.776334e-01   4.845644e+04   2.247195e+04  -1.378230e+05   2.498620e+11  -1.928934e+11   5.638900e+10   1.478113e+05   8.004219e-24   0.000000e+00   0.000000e+00
     2512000   2.511999e-05   7.071297e-01   4.858487e+00   7.668761e-01   6.953800e+04   1.010858e+04  -1.300406e+05   2.713749e+11  -1.129772e+11   1.363249e+11   1.478116e+05   8.173494e-24   0.000000e+00   0.000000e+00
     2520000   2.519999e-05   7.135560e-01   4.859032e+00   7.569829e-01   9.093730e+04   4.768328e+03  -1.164304e+05   2.578108e+11  -1.915231e+10   2.005681e+11   1.478119e+05   8.334529e-24   0.000000e+00   0.000000e+00
     2528000   2.527999e-05   7.216145e-01   4.859456e+00   7.483607e-01   1.099036e+05   7.113288e+03  -9.858525e+04   2.112306e+11   7.722540e+10   2.410426e+11   1.478122e+05   8.460911e-24   0.000000e+00   0.000000e+00
     2536000   2.535999e-05   7.310103e-01   4.860369e+00   7.412653e-01   1.240069e+05   1.688785e+04  -7.864869e+04   1.375091e+11   1.647254e+11   2.521700e+11   1.478125e+05   8.534851e-24   0.000000e+00   0.000000e+00
     2544000   2.543999e-05   7.412765e-01   4.862326e+00   7.357669e-01   1.314210e+05   3.294900e+04  -5.908908e+04   4.574806e+10   2.327404e+11   2.315101e+11   1.478128e+05   8.552404e-24   0.000000e+00   0.000000e+00
     2552000   2.551999e-05   7.518319e-01   4.865758e+00   7.317337e-01   1.311513e+05   5.336852e+04  -4.242465e+04  -5.250517e+10   2.724113e+11   1.803426e+11   1.478131e+05   8.523661e-24   0.000000e+00   0.000000e+00
     2560000   2.559999e-05   7.620547e-01   4.870914e+00   7.288411e-01   1.231905e+05   7.561448e+04  -3.090889e+04  -1.443372e+11   2.776940e+11   1.040361e+11   1.478134e+05   8.467842e-24   0.000000e+00   0.000000e+00
     2568000   2.567999e-05   7.713640e-01   4.877828e+00   7.266058e-01   1.085711e+05   9.682237e+04  -2.620379e+04  -2.169375e+11   2.465024e+11   1.193433e+10   1.478137e+05   8.405363e-24   0.000000e+00   0.000000e+00
     2576000   2.575999e-05   7.793010e-01   4.886302e+00   7.244451e-01   8.928648e+04   1.141518e+05  -2.909058e+04  -2.594200e+11   1.816411e+11  -8.350140e+10   1.478140e+05   8.350664e-24   0.000000e+00   0.000000e+00
     2584000   2.583999e-05   7.855977e-01   4.895924e+00   7.217555e-01   6.805955e+04   1.251952e+05  -3.928267e+04  -2.647387e+11   9.109450e+10  -1.683816e+11   1.478143e+05   8.309624e-24   0.000000e+00   0.000000e+00
     2592000   2.591999e-05   7.902181e-01   4.906123e+00   7.180009e-01   4.784873e+04   1.284121e+05  -5.540744e+04  -2.338428e+11  -1.213641e+10  -2.300886e+11   1.478146e+05   8.390104e-24   0.000000e+00   0.000000e+00
     2600000   2.599999e-05   7.933620e-01   4.916245e+00   7.127916e-01   3.166036e+04   1.232504e+05  -7.520763e+04  -1.656994e+11  -1.153077e+11  -2.587358e+11   1.478148e+05   8.384364e-24   0.000000e+00   0.000000e+00
     2608000   2.607999e-05   7.954590e-01   4.925638e+00   7.059471e-01   2.201015e+04   1.104164e+05  -9.577622e+04  -7.247529e+10  -2.015289e+11  -2.490009e+11   1.478151e+05   8.397755e-24   0.000000e+00   0.000000e+00
     2616000   2.615999e-05   7.970987e-01   4.933756e+00   6.975286e-01   2.042028e+04   9.175467e+04  -1.140767e+05   3.455360e+10  -2.601695e+11  -2.030850e+11   1.478154e+05   8.573541e-24   0.000000e+00   0.000000e+00
     2624000   2.623999e-05   7.989527e-01   4.940233e+00   6.878293e-01   2.726274e+04   6.990449e+04  -1.273562e+05   1.343744e+11  -2.794845e+11  -1.246498e+11   1.478157e+05   8.696576e-24   0.000000e+00   0.000000e+00
     2632000   2.631999e-05   8.016550e-01   4.944944e+00   6.773431e-01   4.134817e+04   4.817024e+04  -1.334898e+05   2.135741e+11  -2.576664e+11  -2.683410e+10   1.478160e+05   8.776038e-24   0.000000e+00   0.000000e+00
     2640000   2.639999e-05   8.057085e-01   4.948024e+00   6.666879e-01   6.064950e+04   2.957526e+04  -1.315166e+05   2.631232e+11  -2.018196e+11   7.594680e+10   1.478163e+05   9.010169e-24   0.000000e+00   0.000000e+00
     2648000   2.647999e-05   8.114258e-01   4.949827e+00   6.565144e-01   8.244706e+04   1.662003e+04  -1.215567e+05   2.753048e+11  -1.183165e+11   1.705415e+11   1.478167e+05   9.254911e-24   0.000000e+00   0.000000e+00
     2656000   2.655999e-05   8.188843e-01   4.950882e+00   6.474211e-01   1.036580e+05   1.108795e+04  -1.047947e+05   2.486507e+11  -1.828096e+10   2.440078e+11   1.478170e+05   9.474912e-24   0.000000e+00   0.000000e+00
     2664000   2.663999e-05   8.279151e-01   4.951822e+00   6.398724e-01   1.212868e+05   1.379384e+04  -8.336193e+04   1.867509e+11   8.540038e+10   2.858280e+11   1.478173e+05   9.643563e-24   0.000000e+00   0.000000e+00
     2672000   2.671999e-05   8.381266e-01   4.953303e+00   6.341324e-01   1.328116e+05   2.449021e+04  -6.009466e+04   9.775993e+10   1.792455e+11   2.890800e+11   1.478177e+05   9.751551e-24   0.000000e+00   0.000000e+00
     2680000   2.679999e-05   8.489556e-01   4.955919e+00   6.302206e-01   1.365209e+05   4.186589e+04  -3.820271e+04  -6.382882e+09   2.503538e+11   2.515169e+11   1.478180e+05   9.808075e-24   0.000000e+00   0.000000e+00
     2688000   2.687999e-05   8.597434e-01   4.960119e+00   6.278983e-01   1.317736e+05   6.364691e+04  -2.085791e+04  -1.110775e+11   2.878188e+11   1.764528e+11   1.478183e+05   9.834200e-24   0.000000e+00   0.000000e+00
     2696000   2.695999e-05   8.698283e-01   4.966140e+00   6.266900e-01   1.191510e+05   8.682330e+04  -1.072950e+04  -2.006797e+11   2.844530e+11   7.313448e+10   1.478187e+05   9.851453e-24   0.000000e+00   0.000000e+00
     2704000   2.703999e-05   8.786447e-01   4.973958e+00   6.259424e-01   1.004568e+05   1.080194e+05  -9.524648e+03  -2.606805e+11   2.385769e+11  -4.382904e+10   1.478190e+05   9.871724e-24   0.000000e+00   0.000000e+00
     2712000   2.711999e-05   8.858144e-01   4.983283e+00   6.249166e-01   7.852502e+04   1.239911e+05  -1.762381e+04  -2.802637e+11   1.552896e+11  -1.562916e+11   1.478194e+05   9.894767e-24   0.000000e+00   0.000000e+00
     2720000   2.719999e-05   8.912148e-01   4.993588e+00   6.229030e-01   5.682491e+04   1.321802e+05  -3.391148e+04  -2.547209e+11   4.651137e+10  -2.455771e+11   1.478197e+05   9.915406e-24   0.000000e+00   0.000000e+00
     2728000   2.727999e-05   8.950089e-01   5.004186e+00   6.193381e-01   3.898413e+04   1.311738e+05  -5.589674e+04  -1.842838e+11  -7.158704e+10  -2.965424e+11   1.478201e+05   9.889644e-24   0.000000e+00   0.000000e+00
     2736000   2.735999e-05   8.976378e-01   5.014333e+00   6.139024e-01   2.806933e+04   1.210795e+05  -8.001708e+04  -8.464640e+10  -1.773657e+11  -2.980939e+11   1.478204e+05   9.925570e-24   0.000000e+00   0.000000e+00
     2744000   2.743999e-05   8.997329e-01   5.023359e+00   6.065853e-01   2.583637e+04   1.035540e+05  -1.022742e+05   2.970054e+10  -2.548305e+11  -2.505289e+11   1.478207e+05   1.001140e-23   0.000000e+00   0.000000e+00
     2752000   2.751999e-05   9.020152e-01   5.030777e+00   5.976871e-01   3.268746e+04   8.139926e+04  -1.189822e+05   1.391792e+11  -2.912170e+11  -1.610050e+11   1.478211e+05   1.012941e-23   0.000000e+00   0.000000e+00
     2760000   2.759999e-05   9.051774e-01   5.036354e+00   5.877725e-01   4.754552e+04   5.813409e+04  -1.273226e+05   2.272471e+11  -2.827495e+11  -4.425091e+10   1.478215e+05   1.039775e-23   0.000000e+00   0.000000e+00
     2768000   2.767999e-05   9.097745e-01   5.040144e+00   5.775801e-01   6.807468e+04   3.733543e+04  -1.257903e+05   2.790282e+11  -2.304009e+11   8.260778e+10   1.478218e+05   1.072626e-23   0.000000e+00   0.000000e+00
     2776000   2.775999e-05   9.161335e-01   5.042480e+00   5.679115e-01   9.099348e+04   2.223300e+04  -1.143559e+05   2.861626e+11  -1.421265e+11   2.000561e+11   1.478222e+05   1.106470e-23   0.000000e+00   0.000000e+00
     2784000   2.783999e-05   9.242990e-01   5.043918e+00   5.595082e-01   1.126254e+05   1.521524e+04  -9.452790e+04   2.472174e+11  -3.074820e+10   2.895829e+11   1.478226e+05   1.136131e-23   0.000000e+00   0.000000e+00
     2792000   2.791999e-05   9.340250e-01   5.045164e+00   5.529353e-01   1.294616e+05   1.750187e+04  -6.917388e+04   1.677560e+11   8.760272e+10   3.361049e+11   1.478230e+05   1.158427e-23   0.000000e+00   0.000000e+00
     2800000   2.799999e-05   9.448092e-01   5.046964e+00   5.484852e-01   1.386972e+05   2.894435e+04  -4.215514e+04   5.965435e+10   1.951459e+11   3.302269e+11   1.478234e+05   1.173287e-23   0.000000e+00   0.000000e+00
     2808000   2.807999e-05   9.559687e-01   5.049998e+00   5.461195e-01   1.386876e+05   4.797053e+04  -1.778943e+04  -6.025644e+10   2.744479e+11   2.702206e+11   1.478238e+05   1.183270e-23   0.000000e+00   0.000000e+00
     2816000   2.815999e-05   9.667467e-01   5.054766e+00   5.454579e-01   1.292654e+05   7.171066e+04  -1.793182e+02  -1.722759e+11   3.109738e+11   1.633210e+11   1.478242e+05   1.191730e-23   0.000000e+00   0.000000e+00
     2824000   2.823999e-05   9.764370e-01   5.061496e+00   5.458250e-01   1.118612e+05   9.634682e+04   7.515083e+03  -2.567065e+11   2.960543e+11   2.570308e+10   1.478246e+05   1.200688e-23   0.000000e+00   0.000000e+00
     2832000   2.831999e-05   9.845078e-01   5.070093e+00   5.463523e-01   8.936598e+04   1.176948e+05   3.728120e+03  -2.973407e+11   2.295683e+11  -1.194428e+11   1.478251e+05   1.209826e-23   0.000000e+00   0.000000e+00
     2840000   2.839999e-05   9.907042e-01   5.080137e+00   5.461253e-01   6.570842e+04   1.319533e+05  -1.109528e+04  -2.849843e+11   1.212531e+11  -2.458424e+11   1.478255e+05   1.217441e-23   0.000000e+00   0.000000e+00
     2848000   2.847999e-05   9.951050e-01   5.090945e+00   5.443478e-01   4.518001e+04   1.364693e+05  -3.445854e+04  -2.200647e+11  -1.030711e+10  -3.294017e+11   1.478259e+05   1.222769e-23   0.000000e+00   0.000000e+00
     2856000   2.855999e-05   9.981201e-01   5.101686e+00   5.404939e-01   3.163962e+04   1.302892e+05  -6.225983e+04  -1.116995e+11  -1.438500e+11  -3.578205e+11   1.478263e+05   1.255206e-23   0.000000e+00   0.000000e+00
     2864000   2.863999e-05   1.000432e+00   5.111524e+00   5.343966e-01   2.791187e+04   1.142339e+05  -8.957841e+04   1.967619e+10  -2.505652e+11  -3.134176e+11   1.478268e+05   1.256735e-23   0.000000e+00   0.000000e+00
     2872000   2.871999e-05   1.002869e+00   5.119781e+00   5.263229e-01   3.475121e+04   9.136855e+04  -1.108919e+05   1.487543e+11  -3.122601e+11  -2.106826e+11   1.478272e+05   1.277147e-23   0.000000e+00   0.000000e+00
     2880000   2.879999e-05   1.006244e+00   5.126070e+00   5.169232e-01   5.098884e+04   6.578768e+04  -1.221685e+05   2.508275e+11  -3.174654e+11  -6.628213e+10   1.478277e+05   1.308850e-23   0.000000e+00   0.000000e+00
     2888000   2.887999e-05   1.011200e+00   5.130358e+00   5.071080e-01   7.363704e+04   4.211061e+04  -1.210679e+05   3.064218e+11  -2.653876e+11   9.405158e+10   1.478281e+05   1.348402e-23   0.000000e+00   0.000000e+00
     2896000   2.895999e-05   1.018085e+00   5.132974e+00   4.978879e-01   9.850189e+04   2.459859e+04  -1.074504e+05   3.058645e+11  -1.661507e+11   2.423385e+11   1.478286e+05   1.400710e-23   0.000000e+00   0.000000e+00
     2904000   2.903999e-05   1.026895e+00   5.134546e+00   4.901965e-01   1.209461e+05   1.648031e+04  -8.338995e+04   2.460975e+11  -3.326742e+10   3.503351e+11   1.478291e+05   1.435903e-23   0.000000e+00   0.000000e+00
     2912000   2.911999e-05   1.037254e+00   5.135910e+00   4.847138e-01   1.365887e+05   1.952479e+04  -5.306506e+04   1.383373e+11   1.088043e+11   3.960764e+11   1.478296e+05   1.462752e-23   0.000000e+00   0.000000e+00
     2920000   2.919999e-05   1.048483e+00   5.137962e+00   4.817263e-01   1.423044e+05   3.345462e+04  -2.199961e+04   1.751983e+09   2.345595e+11   3.679387e+11   1.478301e+05   1.482604e-23   0.000000e+00   0.000000e+00
     2928000   2.927999e-05   1.059721e+00   5.141493e+00   4.810545e-01   1.367763e+05   5.595736e+04   3.861821e+03  -1.381763e+11   3.193202e+11   2.674510e+11   1.478306e+05   1.499652e-23   0.000000e+00   0.000000e+00
     2936000   2.935999e-05   1.070088e+00   5.147035e+00   4.820640e-01   1.208495e+05   8.293184e+04   1.928118e+04  -2.536530e+11   3.438915e+11   1.107934e+11   1.478311e+05   1.517481e-23   0.000000e+00   0.000000e+00
     2944000   2.943999e-05   1.078858e+00   5.154741e+00   4.837681e-01   9.751493e+04   1.091311e+05   2.086727e+04  -3.197684e+11   2.996254e+11  -7.256708e+10   1.478317e+05   1.536311e-23   0.000000e+00   0.000000e+00
     2952000   2.951999e-05   1.085617e+00   5.164331e+00   4.850135e-01   7.144940e+04   1.291741e+05   7.962553e+03  -3.202215e+11   1.922340e+11  -2.448998e+11   1.478322e+05   1.553286e-23   0.000000e+00   0.000000e+00
     2960000   2.959999e-05   1.090363e+00   5.175128e+00   4.847179e-01   4.812190e+04   1.387427e+05  -1.700791e+04  -2.521298e+11   4.230154e+10  -3.684136e+11   1.478327e+05   1.565881e-23   0.000000e+00   0.000000e+00
     2968000   2.967999e-05   1.093526e+00   5.186190e+00   4.821060e-01   3.261410e+04   1.356437e+05  -4.890591e+04  -1.280848e+11  -1.186546e+11  -4.145542e+11   1.478333e+05   1.575645e-23   0.000000e+00   0.000000e+00
     2976000   2.975999e-05   1.095886e+00   5.196505e+00   4.768892e-01   2.843360e+04   1.203973e+05  -8.093737e+04   2.584345e+10  -2.557616e+11  -3.714012e+11   1.478338e+05   1.588746e-23   0.000000e+00   0.000000e+00
     2984000   2.983999e-05   1.098404e+00   5.205217e+00   4.693426e-01   3.644540e+04   9.635534e+04  -1.060301e+05   1.713047e+11  -3.351845e+11  -2.457374e+11   1.478344e+05   1.573649e-23   0.000000e+00   0.000000e+00
     2992000   2.991999e-05   1.102003e+00   5.211817e+00   4.602508e-01   5.509483e+04   6.841372e+04  -1.189088e+05   2.867962e+11  -3.510739e+11  -6.912349e+10   1.478349e+05   1.637532e-23   0.000000e+00   0.000000e+00
     3000000   2.999999e-05   1.107402e+00   5.216211e+00   4.507281e-01   8.059074e+04   4.225942e+04  -1.165102e+05   3.388884e+11  -2.911159e+11   1.288018e+11   1.478355e+05   1.683495e-23   0.000000e+00   0.000000e+00
     3008000   3.007999e-05   1.114931e+00   5.218776e+00   4.420178e-01   1.073435e+05   2.349386e+04  -9.889861e+04   3.174958e+11  -1.693960e+11   3.043432e+11   1.478361e+05   1.729764e-23   0.000000e+00   0.000000e+00
     3016000   3.015999e-05   1.124454e+00   5.220278e+00   4.352228e-01   1.295092e+05   1.618218e+04  -6.943484e+04   2.260950e+11  -9.531150e+09   4.194564e+11   1.478367e+05   1.768951e-23   0.000000e+00   0.000000e+00
     3024000   3.023999e-05   1.135396e+00   5.221722e+00   4.310651e-01   1.421273e+05   2.213934e+04  -3.414021e+04   8.296095e+10   1.565435e+11   4.468186e+11   1.478373e+05   1.799196e-23   0.000000e+00   0.000000e+00
     3032000   3.031999e-05   1.146858e+00   5.224152e+00   4.297142e-01   1.421953e+05   4.045034e+04  -5.790582e+02  -8.193061e+10   2.934529e+11   3.760902e+11   1.478380e+05   1.824411e-23   0.000000e+00   0.000000e+00
     3040000   3.039999e-05   1.157802e+00   5.228427e+00   4.307230e-01   1.294081e+05   6.744443e+04   2.368637e+04  -2.321712e+11   3.689145e+11   2.180995e+11   1.478386e+05   1.850109e-23   0.000000e+00   0.000000e+00
     3048000   3.047999e-05   1.167288e+00   5.235019e+00   4.330979e-01   1.063949e+05   9.725460e+04   3.283481e+04  -3.321656e+11   3.616640e+11   5.166161e+09   1.478393e+05   1.878104e-23   0.000000e+00   0.000000e+00
     3056000   3.055999e-05   1.174689e+00   5.243879e+00   4.355021e-01   7.831802e+04   1.230072e+05   2.433455e+04  -3.556064e+11   2.688062e+11  -2.141913e+11   1.478399e+05   1.904826e-23   0.000000e+00   0.000000e+00
     3064000   3.063999e-05   1.179860e+00   5.254424e+00   4.365609e-01   5.180457e+04   1.384669e+05  -1.705086e+02  -2.932913e+11   1.092710e+11  -3.863399e+11   1.478406e+05   1.925309e-23   0.000000e+00   0.000000e+00
     3072000   3.071999e-05   1.183195e+00   5.265652e+00   4.351966e-01   3.337132e+04   1.397040e+05  -3.501712e+04  -1.574545e+11  -7.938736e+10  -4.668484e+11   1.478413e+05   1.939527e-23   0.000000e+00   0.000000e+00
     3080000   3.079999e-05   1.185544e+00   5.276381e+00   4.309060e-01   2.772991e+04   1.262275e+05  -7.179766e+04   1.983593e+10  -2.507758e+11  -4.332630e+11   1.478419e+05   1.954786e-23   0.000000e+00   0.000000e+00
     3088000   3.087999e-05   1.188019e+00   5.285537e+00   4.239009e-01   3.647865e+04   1.011825e+05  -1.014339e+05   1.945640e+11  -3.625338e+11  -2.916895e+11   1.478426e+05   1.981047e-23   0.000000e+00   0.000000e+00
     3096000   3.095999e-05   1.191713e+00   5.292420e+00   4.150696e-01   5.760384e+04   7.055860e+04  -1.164514e+05   3.225209e+11  -3.873683e+11  -7.519294e+10   1.478433e+05   2.022802e-23   0.000000e+00   0.000000e+00
     3104000   3.103999e-05   1.197429e+00   5.296874e+00   4.057697e-01   8.594410e+04   4.171056e+04  -1.128348e+05   3.709469e+11  -3.189280e+11   1.646244e+11   1.478440e+05   2.074924e-23   0.000000e+00   0.000000e+00
     3112000   3.111999e-05   1.205466e+00   5.299334e+00   3.975020e-01   1.143456e+05   2.177106e+04  -9.115463e+04   3.252117e+11  -1.708615e+11   3.671124e+11   1.478447e+05   2.100725e-23   0.000000e+00   0.000000e+00
     3120000   3.119999e-05   1.215538e+00   5.300726e+00   3.915371e-01   1.357685e+05   1.560265e+04  -5.640716e+04   1.987490e+11   2.023683e+10   4.839253e+11   1.478455e+05   2.134755e-23   0.000000e+00   0.000000e+00
     3128000   3.127999e-05   1.226854e+00   5.302247e+00   3.886064e-01   1.447428e+05   2.497184e+04  -1.686502e+04   2.013848e+10   2.100205e+11   4.836469e+11   1.478462e+05   2.168534e-23   0.000000e+00   0.000000e+00
     3136000   3.135999e-05   1.238294e+00   5.305087e+00   3.887044e-01   1.387371e+05   4.794508e+04   1.766406e+04  -1.677393e+11   3.527089e+11   3.602697e+11   1.478470e+05   2.198977e-23   0.000000e+00   0.000000e+00
     3144000   3.143999e-05   1.248682e+00   5.310138e+00   3.910554e-01   1.189543e+05   7.907295e+04   3.816139e+04  -3.164228e+11   4.085729e+11   1.398183e+11   1.478478e+05   2.232258e-23   0.000000e+00   0.000000e+00
     3152000   3.151999e-05   1.257087e+00   5.317746e+00   3.942781e-01   9.027291e+04   1.104452e+05   3.888261e+04  -3.845911e+11   3.577459e+11  -1.231974e+11   1.478485e+05   2.267063e-23   0.000000e+00   0.000000e+00
     3160000   3.159999e-05   1.263087e+00   5.327591e+00   3.967272e-01   6.018136e+04   1.336761e+05   1.919160e+04  -3.501464e+11   2.091181e+11  -3.584309e+11   1.478493e+05   2.296184e-23   0.000000e+00   0.000000e+00
     3168000   3.167999e-05   1.266898e+00   5.338741e+00   3.969331e-01   3.686557e+04   1.422908e+05  -1.593479e+04  -2.186147e+11   7.225042e+08  -4.995061e+11   1.478501e+05   2.315633e-23   0.000000e+00   0.000000e+00
     3176000   3.175999e-05   1.269345e+00   5.349894e+00   3.940157e-01   2.690849e+04   1.337136e+05  -5.706592e+04  -2.387680e+10  -2.104750e+11  -5.044839e+11   1.478509e+05   2.331817e-23   0.000000e+00   0.000000e+00
     3184000   3.183999e-05   1.271644e+00   5.359731e+00   3.879456e-01   3.330657e+04   1.101141e+05  -9.287464e+04   1.804396e+11  -3.659326e+11  -3.691809e+11   1.478518e+05   2.358212e-23   0.000000e+00   0.000000e+00
     3192000   3.191999e-05   1.275072e+00   5.367278e+00   3.795698e-01   5.448275e+04   7.781601e+04  -1.132991e+05   3.365326e+11  -4.228407e+11  -1.286122e+11   1.478526e+05   2.403646e-23   0.000000e+00   0.000000e+00
     3200000   3.199999e-05   1.280603e+00   5.372182e+00   3.703931e-01   8.464446e+04   4.554147e+04  -1.123473e+05   3.994469e+11  -3.651973e+11   1.528846e+11   1.478534e+05   2.463736e-23   0.000000e+00   0.000000e+00
     3208000   3.207999e-05   1.288630e+00   5.374803e+00   3.621757e-01   1.153668e+05   2.209617e+04  -8.979508e+04   3.498959e+11  -2.067988e+11   3.986149e+11   1.478543e+05   2.524415e-23   0.000000e+00   0.000000e+00
     3216000   3.215999e-05   1.298842e+00   5.376133e+00   3.564526e-01   1.379153e+05   1.408970e+04  -5.140051e+04   1.996383e+11   1.226073e+10   5.389561e+11   1.478552e+05   2.574243e-23   0.000000e+00   0.000000e+00
     3224000   3.223999e-05   1.310297e+00   5.377551e+00   3.540966e-01   1.456345e+05   2.436443e+04  -7.641687e+03  -1.189856e+10   2.369491e+11   5.282783e+11   1.478561e+05   2.612326e-23   0.000000e+00   0.000000e+00
     3232000   3.231999e-05   1.321676e+00   5.380453e+00   3.550385e-01   1.359754e+05   5.031964e+04   2.898831e+04  -2.243930e+11   3.967209e+11   3.640252e+11   1.478570e+05   2.650447e-23   0.000000e+00   0.000000e+00
     3240000   3.239999e-05   1.331651e+00   5.385833e+00   3.582493e-01   1.113751e+05   8.481372e+04   4.758355e+04  -3.756762e+11   4.440210e+11   8.795778e+10   1.478579e+05   2.695424e-23   0.000000e+00   0.000000e+00
     3248000   3.247999e-05   1.339281e+00   5.393982e+00   3.620051e-01   7.880675e+04   1.177852e+05   4.217099e+04  -4.177421e+11   3.586012e+11  -2.208508e+11   1.478589e+05   2.741065e-23   0.000000e+00   0.000000e+00
     3256000   3.255999e-05   1.344306e+00   5.404366e+00   3.643804e-01   4.798700e+04   1.391641e+05   1.389665e+04  -3.319155e+11   1.612259e+11  -4.681475e+11   1.478598e+05   2.767941e-23   0.000000e+00   0.000000e+00
     3264000   3.263999e-05   1.347263e+00   5.415754e+00   3.638361e-01   2.847816e+04   1.421786e+05  -2.893198e+04  -1.422674e+11  -8.837550e+10  -5.744576e+11   1.478608e+05   2.789230e-23   0.000000e+00   0.000000e+00
     3272000   3.271999e-05   1.349336e+00   5.426589e+00   3.597112e-01   2.651506e+04   1.256818e+05  -7.324031e+04   9.509467e+10  -3.134898e+11  -5.035768e+11   1.478618e+05   2.811519e-23   0.000000e+00   0.000000e+00
     3280000   3.279999e-05   1.352002e+00   5.435469e+00   3.524493e-01   4.297888e+04   9.456302e+04  -1.052333e+05   3.058206e+11  -4.442098e+11  -2.743015e+11   1.478627e+05   2.851919e-23   0.000000e+00   0.000000e+00
     3288000   3.287999e-05   1.356575e+00   5.441579e+00   3.434809e-01   7.291080e+04   5.824311e+04  -1.146972e+05   4.224051e+11  -4.399828e+11   4.505936e+10   1.478637e+05   2.913899e-23   0.000000e+00   0.000000e+00
     3296000   3.295999e-05   1.363780e+00   5.444946e+00   3.347972e-01   1.069851e+05   2.781139e+04  -9.820744e+04   4.061996e+11  -3.004258e+11   3.573886e+11   1.478648e+05   2.983579e-23   0.000000e+00   0.000000e+00
     3304000   3.303999e-05   1.373513e+00   5.446443e+00   3.283443e-01   1.343915e+05   1.276696e+04  -6.033429e+04   2.597692e+11  -6.477947e+10   5.648501e+11   1.478658e+05   3.044013e-23   0.000000e+00   0.000000e+00
     3312000   3.311999e-05   1.384862e+00   5.447540e+00   3.254118e-01   1.462098e+05   1.817045e+04  -1.253567e+04   2.672789e+10   1.974461e+11   5.976221e+11   1.478669e+05   3.091733e-23   0.000000e+00   0.000000e+00
     3320000   3.319999e-05   1.396375e+00   5.449870e+00   3.261995e-01   1.382875e+05   4.285659e+04   3.007997e+04  -2.202005e+11   4.036327e+11   4.373907e+11   1.478680e+05   3.137483e-23   0.000000e+00   0.000000e+00
     3328000   3.327999e-05   1.406513e+00   5.454716e+00   3.297050e-01   1.127526e+05   7.937022e+04   5.340864e+04  -4.007460e+11   4.832583e+11   1.279370e+11   1.478691e+05   3.198186e-23   0.000000e+00   0.000000e+00
     3336000   3.335999e-05   1.414158e+00   5.462568e+00   3.340020e-01   7.768211e+04   1.158054e+05   4.919537e+04  -4.509419e+11   4.008505e+11  -2.314519e+11   1.478702e+05   3.253519e-23   0.000000e+00   0.000000e+00
     3344000   3.343999e-05   1.418999e+00   5.472909e+00   3.368566e-01   4.471363e+04   1.397538e+05   1.831664e+04  -3.487848e+11   1.795989e+11  -5.186519e+11   1.478713e+05   3.294916e-23   0.000000e+00   0.000000e+00
     3352000   3.351999e-05   1.421674e+00   5.484364e+00   3.364862e-01   2.517789e+04   1.427793e+05  -2.909338e+04  -1.244730e+11  -1.067494e+11  -6.317530e+11   1.478725e+05   3.319079e-23   0.000000e+00   0.000000e+00
     3360000   3.359999e-05   1.423578e+00   5.495154e+00   3.321906e-01   2.606737e+04   1.235834e+05  -7.690410e+04   1.466674e+11  -3.593110e+11  -5.277473e+11   1.478736e+05   3.343533e-23   0.000000e+00   0.000000e+00
     3368000   3.367999e-05   1.426396e+00   5.503709e+00   3.246175e-01   4.737981e+04   8.853620e+04  -1.085516e+05   3.707187e+11  -4.914311e+11  -2.390497e+11   1.478748e+05   3.397722e-23   0.000000e+00   0.000000e+00
     3376000   3.375999e-05   1.431516e+00   5.509211e+00   3.155632e-01   8.192184e+04   4.945968e+04  -1.127380e+05   4.667970e+11  -4.567286e+11   1.387887e+11   1.478760e+05   3.473206e-23   0.000000e+00   0.000000e+00
     3384000   3.383999e-05   1.439535e+00   5.511874e+00   3.073758e-01   1.176320e+05   1.971119e+04  -8.741769e+04   3.985289e+11  -2.644218e+11   4.765983e+11   1.478772e+05   3.552175e-23   0.000000e+00   0.000000e+00
     3392000   3.391999e-05   1.450027e+00   5.512898e+00   3.021521e-01   1.418086e+05   9.757718e+03  -4.078162e+04   1.866689e+11   2.425883e+10   6.547883e+11   1.478784e+05   3.616842e-23   0.000000e+00   0.000000e+00
     3400000   3.399999e-05   1.461673e+00   5.514077e+00   3.009946e-01   1.455598e+05   2.358535e+04   1.115715e+04  -9.682363e+10   3.122753e+11   6.034888e+11   1.478797e+05   3.670731e-23   0.000000e+00   0.000000e+00
     3408000   3.407999e-05   1.472716e+00   5.517198e+00   3.035791e-01   1.270862e+05   5.689848e+04   4.980411e+04  -3.515315e+11   4.953508e+11   3.311952e+11   1.478810e+05   3.729606e-23   0.000000e+00   0.000000e+00
     3416000   3.415999e-05   1.481576e+00   5.523393e+00   3.082126e-01   9.265355e+04   9.801295e+04   6.064617e+04  -4.823724e+11   4.995602e+11  -7.032570e+10   1.478823e+05   3.796312e-23   0.000000e+00   0.000000e+00
     3424000   3.423999e-05   1.487445e+00   5.532681e+00   3.124056e-01   5.471291e+04   1.317287e+05   3.903335e+04  -4.352476e+11   3.152271e+11  -4.536086e+11   1.478836e+05   3.853893e-23   0.000000e+00   0.000000e+00
     3432000   3.431999e-05   1.490620e+00   5.543920e+00   3.137856e-01   2.751744e+04   1.451113e+05  -7.448043e+03  -2.216175e+11   7.631595e+09  -6.707679e+11   1.478850e+05   3.889287e-23   0.000000e+00   0.000000e+00
     3440000   3.439999e-05   1.492425e+00   5.555204e+00   3.110108e-01   2.166378e+04   1.327683e+05  -6.142987e+04   8.092163e+10  -3.065399e+11  -6.340684e+11   1.478863e+05   3.916286e-23   0.000000e+00   0.000000e+00
     3448000   3.447999e-05   1.494733e+00   5.564588e+00   3.043111e-01   3.973997e+04   9.913647e+04  -1.022911e+05   3.564290e+11  -5.069773e+11  -3.529198e+11   1.478877e+05   3.963597e-23   0.000000e+00   0.000000e+00
     3456000   3.455999e-05   1.499246e+00   5.570833e+00   2.954291e-01   7.489040e+04   5.690897e+04  -1.141226e+05   4.929351e+11  -5.143805e+11   6.692908e+10   1.478891e+05   3.990413e-23   0.000000e+00   0.000000e+00
     3464000   3.463999e-05   1.506823e+00   5.573879e+00   2.869733e-01   1.138847e+05   2.172296e+04  -9.181498e+04   4.450833e+11  -3.323615e+11   4.733756e+11   1.478905e+05   4.150997e-23   0.000000e+00   0.000000e+00
     3472000   3.471999e-05   1.517153e+00   5.574871e+00   2.814519e-01   1.412734e+05   7.350538e+03  -4.312556e+04   2.155933e+11  -1.370442e+10   7.037928e+11   1.478920e+05   4.223908e-23   0.000000e+00   0.000000e+00
     3480000   3.479999e-05   1.528813e+00   5.575783e+00   2.802864e-01   1.459311e+05   1.991101e+04   1.342093e+04  -1.042526e+11   3.185857e+11   6.613429e+11   1.478934e+05   4.284371e-23   0.000000e+00   0.000000e+00
     3488000   3.487999e-05   1.539824e+00   5.578670e+00   2.832079e-01   1.255305e+05   5.512609e+04   5.546273e+04  -3.890947e+11   5.321389e+11   3.518418e+11   1.478949e+05   4.351631e-23   0.000000e+00   0.000000e+00
     3496000   3.495999e-05   1.548428e+00   5.584847e+00   2.882985e-01   8.778333e+04   9.930387e+04   6.562156e+04  -5.217871e+11   5.330182e+11  -1.085142e+11   1.478965e+05   4.427994e-23   0.000000e+00   0.000000e+00
     3504000   3.503999e-05   1.553808e+00   5.594313e+00   2.927139e-01   4.780016e+04   1.343984e+05   3.906440e+04  -4.416810e+11   3.119838e+11  -5.327600e+11   1.478980e+05   4.491250e-23   0.000000e+00   0.000000e+00
     3512000   3.511999e-05   1.556462e+00   5.605704e+00   2.938394e-01   2.205704e+04   1.456053e+05  -1.366989e+04  -1.786021e+11  -4.221488e+10  -7.382596e+11   1.478996e+05   4.510512e-23   0.000000e+00   0.000000e+00
     3520000   3.519999e-05   1.558017e+00   5.616831e+00   2.904045e-01   2.142697e+04   1.280275e+05  -7.088425e+04   1.642430e+11  -3.818632e+11  -6.401367e+11   1.479011e+05   4.540709e-23   0.000000e+00   0.000000e+00
     3528000   3.527999e-05   1.560588e+00   5.625600e+00   2.830199e-01   4.658833e+04   8.870834e+04  -1.087914e+05   4.422810e+11  -5.661477e+11  -2.722898e+11   1.479027e+05   4.600874e-23   0.000000e+00   0.000000e+00
     3536000   3.535999e-05   1.565890e+00   5.630872e+00   2.739588e-01   8.719838e+04   4.372893e+04  -1.111752e+05   5.356807e+11  -5.179539e+11   2.163693e+11   1.479043e+05   4.692702e-23   0.000000e+00   0.000000e+00
     3544000   3.543999e-05   1.574495e+00   5.632946e+00   2.662384e-01   1.261272e+05   1.169570e+04  -7.636300e+04   4.010910e+11  -2.531162e+11   6.236266e+11   1.479060e+05   4.784835e-23   0.000000e+00   0.000000e+00
     3552000   3.551999e-05   1.585572e+00   5.633463e+00   2.623696e-01   1.466320e+05   6.293625e+03  -1.833356e+04   9.147813e+10   1.245972e+11   7.740752e+11   1.479076e+05   4.856918e-23   0.000000e+00   0.000000e+00
     3560000   3.559999e-05   1.597209e+00   5.634754e+00   2.632742e-01   1.395190e+05   3.045851e+04   3.852157e+04  -2.638147e+11   4.584011e+11   5.932067e+11   1.479093e+05   4.923590e-23   0.000000e+00   0.000000e+00
     3568000   3.567999e-05   1.607214e+00   5.638875e+00   2.678322e-01   1.072670e+05   7.449496e+04   6.944051e+04  -5.124800e+11   6.006568e+11   1.473595e+11   1.479111e+05   5.029057e-23   0.000000e+00   0.000000e+00
     3576000   3.575999e-05   1.614061e+00   5.646695e+00   2.732914e-01   6.357499e+04   1.193116e+05   6.000973e+04  -5.375252e+11   4.753787e+11  -3.755803e+11   1.479128e+05   5.113679e-23   0.000000e+00   0.000000e+00
     3584000   3.583999e-05   1.617601e+00   5.657437e+00   2.764345e-01   2.783492e+04   1.446238e+05   1.370813e+04  -3.201067e+11   1.315280e+11  -7.371759e+11   1.479146e+05   5.170072e-23   0.000000e+00   0.000000e+00
     3592000   3.591999e-05   1.619174e+00   5.668986e+00   2.750407e-01   1.643521e+04   1.386072e+05  -4.896102e+04   4.744430e+10  -2.766387e+11  -7.673666e+11   1.479164e+05   5.204775e-23   0.000000e+00   0.000000e+00
     3600000   3.599999e-05   1.621042e+00   5.678830e+00   2.689277e-01   3.498509e+04   1.036646e+05  -9.954643e+04   3.984113e+11  -5.628148e+11  -4.461463e+11   1.479182e+05   5.258746e-23   0.000000e+00   0.000000e+00
     3608000   3.607999e-05   1.625361e+00   5.685211e+00   2.600745e-01   7.529091e+04   5.539729e+04  -1.146419e+05   5.687696e+11  -5.963517e+11   8.530953e+10   1.479201e+05   5.351441e-23   0.000000e+00   0.000000e+00
     3616000   3.615999e-05   1.633177e+00   5.687923e+00   2.517517e-01   1.188452e+05   1.559708e+04  -8.668016e+04   4.755342e+11  -3.585186e+11   5.874022e+11   1.479219e+05   5.455255e-23   0.000000e+00   0.000000e+00
     3624000   3.623999e-05   1.643913e+00   5.688434e+00   2.470451e-01   1.452704e+05   2.657537e+03  -2.776549e+04   1.571445e+11   4.965799e+10   8.266843e+11   1.479238e+05   5.540050e-23   0.000000e+00   0.000000e+00
     3632000   3.631999e-05   1.655610e+00   5.689256e+00   2.474191e-01   1.417990e+05   2.320565e+04   3.516510e+04  -2.416787e+11   4.447412e+11   6.812576e+11   1.479258e+05   5.616198e-23   0.000000e+00   0.000000e+00
     3640000   3.639999e-05   1.665819e+00   5.692813e+00   2.519726e-01   1.094995e+05   6.831962e+04   7.228346e+04  -5.331986e+11   6.366068e+11   2.061272e+11   1.479277e+05   5.707900e-23   0.000000e+00   0.000000e+00
     3648000   3.647999e-05   1.672752e+00   5.700278e+00   2.577846e-01   6.330716e+04   1.167477e+05   6.515657e+04  -5.733003e+11   5.217568e+11  -3.777435e+11   1.479297e+05   5.798006e-23   0.000000e+00   0.000000e+00
     3656000   3.655999e-05   1.676170e+00   5.710940e+00   2.612737e-01   2.533759e+04   1.447991e+05   1.658427e+04  -3.347672e+11   1.485998e+11  -7.855277e+11   1.479318e+05   5.857518e-23   0.000000e+00   0.000000e+00
     3664000   3.663999e-05   1.677538e+00   5.722511e+00   2.599440e-01   1.433278e+04   1.384224e+05  -5.018184e+04   7.250987e+10  -3.017863e+11  -8.118929e+11   1.479338e+05   5.891195e-23   0.000000e+00   0.000000e+00
     3672000   3.671999e-05   1.679353e+00   5.732230e+00   2.536375e-01   3.611997e+04   1.004244e+05  -1.024466e+05   4.492498e+11  -6.079333e+11  -4.376140e+11   1.479359e+05   5.949148e-23   0.000000e+00   0.000000e+00
     3680000   3.679999e-05   1.683923e+00   5.738219e+00   2.446524e-01   8.024287e+04   4.913964e+04  -1.141578e+05   6.058104e+11  -6.194701e+11   1.591102e+11   1.479379e+05   6.051865e-23   0.000000e+00   0.000000e+00
     3688000   3.687999e-05   1.692205e+00   5.740409e+00   2.366487e-01   1.248255e+05   9.571040e+03  -7.882415e+04   4.593073e+11  -3.263370e+11   6.876316e+11   1.479401e+05   6.163018e-23   0.000000e+00   0.000000e+00
     3696000   3.695999e-05   1.703297e+00   5.740604e+00   2.328635e-01   1.473462e+05   1.507388e+03  -1.318039e+04   7.761301e+10   1.352943e+11   8.825147e+11   1.479422e+05   6.263523e-23   0.000000e+00   0.000000e+00
     3704000   3.703999e-05   1.714859e+00   5.741636e+00   2.344808e-01   1.359403e+05   2.974012e+04   5.023238e+04  -3.513913e+11   5.407322e+11   6.309666e+11   1.479444e+05   6.348132e-23   0.000000e+00   0.000000e+00
     3712000   3.711999e-05   1.724267e+00   5.745980e+00   2.399539e-01   9.580510e+04   8.067592e+04   7.874629e+04  -6.075334e+11   6.751275e+11   4.757732e+10   1.479466e+05   6.451048e-23   0.000000e+00   0.000000e+00
     3720000   3.719999e-05   1.729957e+00   5.754452e+00   2.457115e-01   4.719760e+04   1.281688e+05   5.686829e+04  -5.519198e+11   4.566671e+11  -5.710178e+11   1.479489e+05   6.545340e-23   0.000000e+00   0.000000e+00
     3728000   3.727999e-05   1.732276e+00   5.765711e+00   2.479748e-01   1.543324e+04   1.470698e+05  -4.671929e+03  -2.044640e+11  -6.975454e+09  -8.968207e+11   1.479511e+05   6.599518e-23   0.000000e+00   0.000000e+00
     3736000   3.735999e-05   1.733348e+00   5.776925e+00   2.447573e-01   1.759314e+04   1.270227e+05  -7.379660e+04   2.569876e+11  -4.715582e+11  -7.505208e+11   1.479534e+05   6.643006e-23   0.000000e+00   0.000000e+00
     3744000   3.743999e-05   1.735993e+00   5.785255e+00   2.369571e-01   5.297228e+04   7.827184e+04  -1.138348e+05   5.864012e+11  -6.911791e+11  -2.024467e+11   1.479558e+05   6.728138e-23   0.000000e+00   0.000000e+00
     3752000   3.751999e-05   1.742220e+00   5.789360e+00   2.279258e-01   1.029200e+05   2.628435e+04  -1.029961e+05   6.030214e+11  -5.479530e+11   4.626544e+11   1.479581e+05   6.848136e-23   0.000000e+00   0.000000e+00
     3760000   3.759999e-05   1.752126e+00   5.790120e+00   2.217264e-01   1.405496e+05  -1.390526e+03  -4.621880e+04   2.920410e+11  -1.100140e+11   8.912027e+11   1.479605e+05   6.955205e-23   0.000000e+00   0.000000e+00
     3768000   3.767999e-05   1.763811e+00   5.790215e+00   2.209696e-01   1.451557e+05   1.058631e+04   2.666028e+04  -1.838165e+11   3.972298e+11   8.434217e+11   1.479629e+05   7.043636e-23   0.000000e+00   0.000000e+00
     3776000   3.775999e-05   1.774369e+00   5.792738e+00   2.253544e-01   1.136387e+05   5.654778e+04   7.604172e+04  -5.672205e+11   6.970640e+11   3.294239e+11   1.479654e+05   7.146976e-23   0.000000e+00   0.000000e+00
     3784000   3.783999e-05   1.781466e+00   5.799512e+00   2.317406e-01   6.276559e+04   1.116500e+05   7.408952e+04  -6.426663e+11   6.120704e+11  -3.777998e+11   1.479679e+05   7.258196e-23   0.000000e+00   0.000000e+00
     3792000   3.791999e-05   1.784642e+00   5.810012e+00   2.358215e-01   2.044416e+04   1.450203e+05   2.112791e+04  -3.609916e+11   1.795070e+11  -8.823673e+11   1.479704e+05   7.342138e-23   0.000000e+00   0.000000e+00
     3800000   3.799999e-05   1.785623e+00   5.821602e+00   2.345263e-01   1.069980e+04   1.374806e+05  -5.367115e+04   1.306801e+11  -3.592612e+11  -8.943849e+11   1.479730e+05   7.381092e-23   0.000000e+00   0.000000e+00
     3808000   3.807999e-05   1.787403e+00   5.831002e+00   2.277861e-01   3.950199e+04   9.293678e+04  -1.081624e+05   5.538942e+11  -6.995051e+11  -3.988390e+11   1.479755e+05   7.452406e-23   0.000000e+00   0.000000e+00
     3816000   3.815999e-05   1.792556e+00   5.836140e+00   2.186224e-01   9.079721e+04   3.618834e+04  -1.111026e+05   6.636041e+11  -6.487324e+11   3.309295e+11   1.479781e+05   7.574068e-23   0.000000e+00   0.000000e+00
     3824000   3.823999e-05   1.801745e+00   5.837328e+00   2.114801e-01   1.352679e+05  -8.358271e+02  -6.000184e+04   3.908440e+11  -2.300029e+11   8.841561e+11   1.479808e+05   7.704288e-23   0.000000e+00   0.000000e+00
     3832000   3.831999e-05   1.813308e+00   5.837126e+00   2.097213e-01   1.469961e+05   3.327605e+03   1.673882e+04  -1.140602e+11   3.309584e+11   9.364515e+11   1.479835e+05   7.798924e-23   0.000000e+00   0.000000e+00
     3840000   3.839999e-05   1.824172e+00   5.838942e+00   2.136538e-01   1.185879e+05   4.719799e+04   7.489439e+04  -5.607680e+11   7.102915e+11   4.404348e+11   1.479862e+05   7.904340e-23   0.000000e+00   0.000000e+00
     3848000   3.847999e-05   1.831625e+00   5.845076e+00   2.202557e-01   6.606668e+04   1.056542e+05   7.983183e+04  -6.841254e+11   6.738542e+11  -3.255259e+11   1.479889e+05   8.022598e-23   0.000000e+00   0.000000e+00
     3856000   3.855999e-05   1.834923e+00   5.855298e+00   2.248750e-01   2.017885e+04   1.439479e+05   2.780970e+04  -4.018212e+11   2.316824e+11  -9.072918e+11   1.479917e+05   8.102830e-23   0.000000e+00   0.000000e+00
     3864000   3.863999e-05   1.835784e+00   5.866924e+00   2.239844e-01   8.479493e+03   1.387985e+05  -5.065041e+04   1.260812e+11  -3.542621e+11  -9.498910e+11   1.479946e+05   8.145091e-23   0.000000e+00   0.000000e+00
     3872000   3.871999e-05   1.837415e+00   5.876397e+00   2.173298e-01   3.845321e+04   9.293337e+04  -1.085724e+05   5.838197e+11  -7.320628e+11  -4.199396e+11   1.479974e+05   8.218910e-23   0.000000e+00   0.000000e+00
     3880000   3.879999e-05   1.842589e+00   5.881424e+00   2.081320e-01   9.232335e+04   3.351742e+04  -1.107116e+05   6.902337e+11  -6.745426e+11   3.712806e+11   1.480002e+05   8.345419e-23   0.000000e+00   0.000000e+00
     3888000   3.887999e-05   1.851947e+00   5.882359e+00   2.011938e-01   1.373704e+05  -3.879127e+03  -5.494782e+04   3.739715e+11  -2.089959e+11   9.494913e+11   1.480032e+05   8.468978e-23   0.000000e+00   0.000000e+00
     3896000   3.895999e-05   1.863568e+00   5.882033e+00   2.000208e-01   1.456986e+05   3.891556e+03   2.574086e+04  -1.790075e+11   3.947863e+11   9.539617e+11   1.480061e+05   8.569811e-23   0.000000e+00   0.000000e+00
     3904000   3.903999e-05   1.874101e+00   5.884106e+00   2.046334e-01   1.115493e+05   5.292356e+04   8.162441e+04  -6.290369e+11   7.644731e+11   3.641204e+11   1.480091e+05   8.685267e-23   0.000000e+00   0.000000e+00
     3912000   3.911999e-05   1.880820e+00   5.890809e+00   2.114438e-01   5.557331e+04   1.132176e+05   7.746603e+04  -6.928333e+11   6.578682e+11  -4.643056e+11   1.480121e+05   8.808164e-23   0.000000e+00   0.000000e+00
     3920000   3.919999e-05   1.883346e+00   5.901490e+00   2.154386e-01   1.258725e+04   1.467100e+05   1.504131e+04  -3.217094e+11   1.313012e+11  -1.010706e+12   1.480152e+05   8.916850e-23   0.000000e+00   0.000000e+00
     3928000   3.927999e-05   1.883934e+00   5.912960e+00   2.133194e-01   9.977738e+03   1.317189e+05  -6.678309e+04   2.613901e+11  -4.855475e+11  -9.187835e+11   1.480183e+05   8.963912e-23   0.000000e+00   0.000000e+00
     3936000   3.935999e-05   1.886106e+00   5.921490e+00   2.056451e-01   5.001389e+04   7.731533e+04  -1.158934e+05   6.829055e+11  -7.982499e+11  -2.379236e+11   1.480214e+05   9.057387e-23   0.000000e+00   0.000000e+00
     3944000   3.943999e-05   1.892408e+00   5.925189e+00   1.965382e-01   1.073124e+05   1.770178e+04  -1.004090e+05   6.666989e+11  -6.081592e+11   6.052019e+11   1.480246e+05   9.217386e-23   0.000000e+00   0.000000e+00
     3952000   3.951999e-05   1.902736e+00   5.925214e+00   1.910975e-01   1.448090e+05  -9.171689e+03  -2.929927e+04   2.157006e+11  -2.166212e+10   1.072453e+12   1.480278e+05   9.346912e-23   0.000000e+00   0.000000e+00
     3960000   3.959999e-05   1.914361e+00   5.925111e+00   1.921364e-01   1.377128e+05   1.486192e+04   5.222538e+04  -3.845199e+11   5.899991e+11   8.462729e+11   1.480310e+05   9.464282e-23   0.000000e+00   0.000000e+00
     3968000   3.967999e-05   1.923658e+00   5.928576e+00   1.982786e-01   8.989654e+04   7.492321e+04   9.066031e+04  -7.418486e+11   8.233581e+11   5.529774e+10   1.480343e+05   9.614491e-23   0.000000e+00   0.000000e+00
     3976000   3.975999e-05   1.928478e+00   5.937006e+00   2.047463e-01   3.237612e+04   1.315428e+05   5.969456e+04  -6.107666e+11   5.066098e+11  -7.848983e+11   1.480377e+05   9.727684e-23   0.000000e+00   0.000000e+00
     3984000   3.983999e-05   1.929617e+00   5.948486e+00   2.064768e-01   3.423857e+03   1.465356e+05  -2.077867e+04  -6.838396e+10  -1.552461e+11  -1.106700e+12   1.480411e+05   9.789104e-23   0.000000e+00   0.000000e+00
     3992000   3.991999e-05   1.930349e+00   5.959028e+00   2.015355e-01   2.289692e+04   1.094161e+05  -9.706194e+04   5.268529e+11  -7.177058e+11  -6.849013e+11   1.480445e+05   9.853607e-23   0.000000e+00   0.000000e+00
     4000000   3.999999e-05   1.934259e+00   5.965239e+00   1.924707e-01   7.814112e+04   4.470779e+04  -1.175303e+05   7.697884e+11  -8.028263e+11   2.063021e+11   1.480479e+05   9.993849e-23   0.000000e+00   0.000000e+00
     4008000   4.007999e-05   1.942805e+00   5.966611e+00   1.846561e-01   1.316847e+05  -4.260452e+03  -6.752932e+04   4.862372e+11  -3.464961e+11   9.698490e+11   1.480514e+05   1.013044e-22   0.000000e+00   0.000000e+00
     4016000   4.015999e-05   1.954275e+00   5.965901e+00   1.826882e-01   1.466655e+05  -4.016948e+03   1.983311e+04  -1.363262e+11   3.547591e+11   1.080643e+12   1.480549e+05   1.024914e-22   0.000000e+00   0.000000e+00
     4024000   4.023999e-05   1.964919e+00   5.967335e+00   1.872217e-01   1.121548e+05   4.620397e+04   8.489880e+04  -6.746385e+11   8.243113e+11   4.427719e+11   1.480585e+05   1.039369e-22   0.000000e+00   0.000000e+00
     4032000   4.031999e-05   1.971500e+00   5.973727e+00   1.944093e-01   5.135020e+04   1.122069e+05   8.182387e+04  -7.505744e+11   7.209378e+11  -5.174353e+11   1.480621e+05   1.055183e-22   0.000000e+00   0.000000e+00
     4040000   4.039999e-05   1.973571e+00   5.984447e+00   1.984804e-01   6.537215e+03   1.474533e+05   1.175871e+04  -2.976310e+11   1.029256e+11  -1.124053e+12   1.480658e+05   1.064471e-22   0.000000e+00   0.000000e+00
     4048000   4.047999e-05   1.973859e+00   5.995782e+00   1.957974e-01   9.709035e+03   1.265212e+05  -7.630649e+04   3.731044e+11  -5.935600e+11  -9.368685e+11   1.480695e+05   1.069655e-22   0.000000e+00   0.000000e+00
     4056000   4.055999e-05   1.976387e+00   6.003551e+00   1.874901e-01   5.897278e+04   6.396371e+04  -1.198187e+05   7.797506e+11  -8.715184e+11  -8.158357e+10   1.480732e+05   1.073590e-22   0.000000e+00   0.000000e+00
     4064000   4.063999e-05   1.983600e+00   6.006080e+00   1.786977e-01   1.193510e+05   3.772469e+03  -8.756642e+04   6.323455e+11  -5.374752e+11   8.385582e+11   1.480769e+05   1.087480e-22   0.000000e+00   0.000000e+00
     4072000   4.071999e-05   1.994605e+00   6.005385e+00   1.749476e-01   1.476316e+05  -1.140026e+04  -1.683711e+03   2.772300e+10   1.847493e+11   1.171535e+12   1.480807e+05   1.099626e-22   0.000000e+00   0.000000e+00
     4080000   4.079999e-05   2.005772e+00   6.005807e+00   1.782290e-01   1.229541e+05   3.008710e+04   7.685104e+04  -6.065480e+11   7.874670e+11   6.623100e+11   1.480845e+05   1.114735e-22   0.000000e+00   0.000000e+00
     4088000   4.087999e-05   2.013295e+00   6.010954e+00   1.854725e-01   6.240836e+04   9.907930e+04   9.065682e+04  -8.083418e+11   8.229784e+11  -3.428131e+11   1.480884e+05   1.131649e-22   0.000000e+00   0.000000e+00
     4096000   4.095999e-05   2.015975e+00   6.021028e+00   1.906540e-01   9.870487e+03   1.449812e+05   2.853683e+04  -4.168573e+11   2.466050e+11  -1.108178e+12   1.480923e+05   1.142973e-22   0.000000e+00   0.000000e+00
     4104000   4.103999e-05   2.016163e+00   6.032575e+00   1.891967e-01   4.371760e+03   1.333498e+05  -6.427453e+04   2.899629e+11  -5.186790e+11  -1.056605e+12   1.480963e+05   1.148409e-22   0.000000e+00   0.000000e+00
     4112000   4.111999e-05   2.018090e+00   6.041013e+00   1.814152e-01   5.051195e+04   7.240353e+04  -1.189116e+05   7.862799e+11  -9.038171e+11  -2.164452e+11   1.481003e+05   1.158199e-22   0.000000e+00   0.000000e+00
     4120000   4.119999e-05   2.024722e+00   6.044037e+00   1.723441e-01   1.140724e+05   7.004335e+03  -9.419830e+04   6.947262e+11  -6.215797e+11   7.949219e+11   1.481043e+05   1.173062e-22   0.000000e+00   0.000000e+00
     4128000   4.127999e-05   2.035509e+00   6.043344e+00   1.680377e-01   1.472278e+05  -1.418330e+04  -7.675018e+03   7.637107e+10   1.299613e+11   1.222861e+12   1.481084e+05   1.186575e-22   0.000000e+00   0.000000e+00
     4136000   4.135999e-05   2.046746e+00   6.043437e+00   1.710450e-01   1.244279e+05   2.553321e+04   7.617785e+04  -6.092472e+11   7.972348e+11   7.281217e+11   1.481125e+05   1.201347e-22   0.000000e+00   0.000000e+00
     4144000   4.143999e-05   2.054336e+00   6.048298e+00   1.783950e-01   6.221147e+04   9.686396e+04   9.319686e+04  -8.394056e+11   8.617338e+11  -3.351476e+11   1.481167e+05   1.219069e-22   0.000000e+00   0.000000e+00
     4152000   4.151999e-05   2.056913e+00   6.058300e+00   1.837355e-01   7.820203e+03   1.449924e+05   2.925479e+04  -4.243605e+11   2.556126e+11  -1.152890e+12   1.481209e+05   1.230916e-22   0.000000e+00   0.000000e+00
     4160000   4.159999e-05   2.056961e+00   6.069824e+00   1.821928e-01   3.549826e+03   1.321386e+05  -6.684197e+04   3.265035e+11  -5.550832e+11  -1.080230e+12   1.481252e+05   1.236495e-22   0.000000e+00   0.000000e+00
     4168000   4.167999e-05   2.058961e+00   6.078032e+00   1.742065e-01   5.323818e+04   6.787499e+04  -1.204202e+05   8.281343e+11  -9.393025e+11  -1.634505e+11   1.481295e+05   1.246879e-22   0.000000e+00   0.000000e+00
     4176000   4.175999e-05   2.065901e+00   6.080633e+00   1.652515e-01   1.182598e+05   1.768543e+03  -8.919146e+04   6.812213e+11  -5.967446e+11   8.912239e+11   1.481338e+05   1.262304e-22   0.000000e+00   0.000000e+00
     4184000   4.183999e-05   2.076898e+00   6.079678e+00   1.616192e-01   1.473773e+05  -1.461479e+04   3.357193e+03  -6.865074e+09   2.187897e+11   1.258683e+12   1.481382e+05   1.276260e-22   0.000000e+00   0.000000e+00
     4192000   4.191999e-05   2.087849e+00   6.080036e+00   1.654877e-01   1.170123e+05   3.246355e+04   8.485557e+04  -6.995343e+11   8.754664e+11   6.298928e+11   1.481426e+05   1.292254e-22   0.000000e+00   0.000000e+00
     4200000   4.199999e-05   2.094628e+00   6.085610e+00   1.730979e-01   5.052110e+04   1.063681e+05   8.989438e+04  -8.424882e+11   8.364531e+11  -5.160699e+11   1.481471e+05   1.310486e-22   0.000000e+00   0.000000e+00
     4208000   4.207999e-05   2.096393e+00   6.096157e+00   1.776295e-01   8.684713e+02   1.475457e+05   1.335763e+04  -3.065006e+11   1.157878e+11  -1.257776e+12   1.481516e+05   1.321189e-22   0.000000e+00   0.000000e+00
     4216000   4.215999e-05   2.096338e+00   6.107392e+00   1.746845e-01   8.385325e+03   1.222909e+05  -8.321593e+04   4.807556e+11  -7.003342e+11  -9.809421e+11   1.481562e+05   1.316962e-22   0.000000e+00   0.000000e+00
     4224000   4.223999e-05   2.099145e+00   6.114456e+00   1.659038e-01   6.723017e+04   5.084733e+04  -1.218452e+05   8.821121e+11  -9.559721e+11   8.764331e+10   1.481608e+05   1.329435e-22   0.000000e+00   0.000000e+00
     4232000   4.231999e-05   2.107200e+00   6.115829e+00   1.576544e-01   1.298568e+05  -9.559662e+03  -7.070223e+04   5.659368e+11  -4.419058e+11   1.098947e+12   1.481654e+05   1.347950e-22   0.000000e+00   0.000000e+00
     4240000   4.239999e-05   2.118614e+00   6.114581e+00   1.559452e-01   1.448474e+05  -9.672956e+03   2.966549e+04  -2.209669e+11   4.422428e+11   1.223701e+12   1.481701e+05   1.362585e-22   0.000000e+00   0.000000e+00
     4248000   4.247999e-05   2.128708e+00   6.115970e+00   1.615020e-01   9.917946e+04   5.161379e+04   9.723796e+04  -8.366756e+11   9.758271e+11   3.355948e+11   1.481748e+05   1.380696e-22   0.000000e+00   0.000000e+00
     4256000   4.255999e-05   2.133831e+00   6.123150e+00   1.690407e-01   2.987271e+04   1.241234e+05   7.522093e+04  -7.644819e+11   6.972735e+11  -8.467450e+11   1.481796e+05   1.398555e-22   0.000000e+00   0.000000e+00
     4264000   4.263999e-05   2.134422e+00   6.134461e+00   1.715506e-01  -5.428993e+03   1.468607e+05  -1.900224e+04  -4.895464e+10  -1.736213e+11  -1.328809e+12   1.481844e+05   1.406999e-22   0.000000e+00   0.000000e+00
     4272000   4.271999e-05   2.134727e+00   6.144739e+00   1.661809e-01   2.340554e+04   1.002137e+05  -1.066277e+05   7.152727e+11  -9.037752e+11  -6.925720e+11   1.481893e+05   1.414763e-22   0.000000e+00   0.000000e+00
     4280000   4.279999e-05   2.139273e+00   6.149655e+00   1.567099e-01   9.244579e+04   2.300986e+04  -1.135158e+05   8.768449e+11  -8.787274e+11   5.358102e+11   1.481942e+05   1.430531e-22   0.000000e+00   0.000000e+00
     4288000   4.287999e-05   2.149013e+00   6.149361e+00   1.504235e-01   1.431018e+05  -1.994662e+04  -3.296982e+04   2.897525e+11  -1.103951e+11   1.323866e+12   1.481992e+05   1.446789e-22   0.000000e+00   0.000000e+00
