     timestep     time              x             y              z              vx             vy             vz             ax             ay             az         v_magnitude      ELoss        Electronic      Nuclear
           0  1.273197e-313   1.000000e-01   2.357426e+00   1.594729e+01   1.343323e+04  -1.274178e+05   7.293812e+04   0.000000e+00   0.000000e+00   0.000000e+00   1.474304e+05   0.000000e+00   0.000000e+00   0.000000e+00
        8000   7.999000e-08   1.017608e-01   2.359501e+00   1.595398e+01  -1.292131e+05  -2.338578e+03   7.123040e+04  -1.392297e+11  -7.032828e+12  -4.764827e+11   1.475644e+05   3.856686e-21   0.000000e+00   0.000000e+00
       16000   1.599900e-07   1.034382e-01   2.356494e+00   1.596029e+01   1.722663e+04   1.168307e+05   8.870780e+04  -6.956873e+12   1.328748e+12  -3.933349e+11   1.476998e+05   3.911274e-21   0.000000e+00   0.000000e+00
       24000   2.399900e-07   1.001450e-01   2.354419e+00   1.596629e+01   1.124759e+05  -4.700722e+04   8.363705e+04   2.355729e+12   6.701551e+12   6.045978e+11   1.478366e+05   3.958040e-21   0.000000e+00   0.000000e+00
       32000   3.199900e-07   9.850114e-02   2.357087e+00   1.597268e+01  -6.317600e+04  -1.159027e+05   6.687287e+04   6.343891e+12  -3.345084e+12   2.032529e+11   1.479751e+05   4.016183e-21   0.000000e+00   0.000000e+00
       40000   3.999900e-07   1.013008e-01   2.357439e+00   1.597916e+01  -1.078249e+05   6.826550e+04   7.517752e+04  -4.182162e+12  -5.850240e+12  -6.790602e+11   1.481150e+05   4.078579e-21   0.000000e+00   0.000000e+00
       48000   4.799900e-07   1.012372e-01   2.353743e+00   1.598513e+01   8.068791e+04   8.730744e+04   8.858249e+04  -5.318625e+12   4.958777e+12  -3.680856e+10   1.482565e+05   4.141322e-21   0.000000e+00   0.000000e+00
       56000   5.599900e-07   9.753054e-02   2.353417e+00   1.599102e+01   7.725677e+04  -1.019073e+05   7.529136e+04   5.550360e+12   4.691853e+12   6.622790e+11   1.483998e+05   4.179158e-21   0.000000e+00   0.000000e+00
       64000   6.399900e-07   9.756551e-02   2.356282e+00   1.599732e+01  -1.105445e+05  -7.597201e+04   6.382574e+04   4.116614e+12  -6.096637e+12  -1.185034e+11   1.485448e+05   4.255805e-21   0.000000e+00   0.000000e+00
       72000   7.199900e-07   1.003582e-01   2.355090e+00   1.600350e+01  -6.579503e+04   1.080472e+05   7.814028e+04  -6.511918e+12  -3.466966e+12  -6.821939e+11   1.486913e+05   4.324132e-21   0.000000e+00   0.000000e+00
       80000   7.999900e-07   9.887414e-02   2.351607e+00   1.600921e+01   1.129379e+05   4.488428e+04   8.592767e+04  -2.904547e+12   6.838111e+12   2.520984e+11   1.488393e+05   4.361896e-21   0.000000e+00   0.000000e+00
       88000   8.799900e-07   9.549605e-02   2.352562e+00   1.601505e+01   3.579109e+04  -1.270134e+05   6.916780e+04   7.062438e+12   2.326411e+12   6.255792e+11   1.489886e+05   4.404027e-21   0.000000e+00   0.000000e+00
       96000   9.599900e-07   9.665094e-02   2.355018e+00   1.602129e+01  -1.298928e+05  -3.628120e+04   6.367050e+04   1.853687e+12  -7.262085e+12  -3.476266e+11   1.491389e+05   4.461524e-21   0.000000e+00   0.000000e+00
      104000   1.039990e-06   9.898704e-02   2.352874e+00   1.602729e+01  -2.885122e+04   1.222557e+05   8.067658e+04  -7.391856e+12  -1.347767e+12  -5.940221e+11   1.492902e+05   4.511395e-21   0.000000e+00   0.000000e+00
      112000   1.119990e-06   9.669784e-02   2.349880e+00   1.603290e+01   1.234116e+05   1.142211e+04   8.349984e+04  -9.732131e+11   7.481892e+12   4.217712e+11   1.494427e+05   4.544076e-21   0.000000e+00   0.000000e+00
      120000   1.199990e-06   9.379906e-02   2.351519e+00   1.603876e+01   6.078271e+03  -1.341378e+05   6.594824e+04   7.544011e+12   6.040924e+11   5.421344e+11   1.495964e+05   4.590691e-21   0.000000e+00   0.000000e+00
      128000   1.279990e-06   9.551714e-02   2.353534e+00   1.604493e+01  -1.348654e+05  -1.033330e+04   6.426446e+04   3.552214e+11  -7.605694e+12  -4.684226e+11   1.497511e+05   4.649830e-21   0.000000e+00   0.000000e+00
      136000   1.359990e-06   9.745613e-02   2.350957e+00   1.605081e+01  -7.108293e+03   1.256223e+05   8.148959e+04  -7.643053e+12  -8.745335e+10  -5.246802e+11   1.499068e+05   4.700098e-21   0.000000e+00   0.000000e+00
      144000   1.439990e-06   9.483537e-02   2.348322e+00   1.605636e+01   1.257727e+05  -5.795640e+03   8.165021e+04   3.509849e+10   7.664558e+12   4.972005e+11   1.500637e+05   4.733586e-21   0.000000e+00   0.000000e+00
      152000   1.519990e-06   9.222916e-02   2.350210e+00   1.606219e+01  -6.750844e+03  -1.356272e+05   6.423633e+04   7.695843e+12  -1.504817e+11   5.003245e+11   1.502219e+05   4.784192e-21   0.000000e+00   0.000000e+00
      160000   1.599990e-06   9.411076e-02   2.352017e+00   1.606830e+01  -1.360868e+05  -1.748686e+03   6.396713e+04  -1.432030e+11  -7.736504e+12  -5.067516e+11   1.503811e+05   4.845246e-21   0.000000e+00   0.000000e+00
      168000   1.679990e-06   9.591591e-02   2.349373e+00   1.607409e+01  -2.987870e+03   1.268870e+05   8.095336e+04  -7.769042e+12   1.499392e+11  -5.142686e+11   1.505413e+05   4.897091e-21   0.000000e+00   0.000000e+00
      176000   1.759990e-06   9.330582e-02   2.346809e+00   1.607959e+01   1.270510e+05  -5.250063e+03   8.088132e+04   8.636816e+09   7.791020e+12   4.996892e+11   1.507027e+05   4.932262e-21   0.000000e+00   0.000000e+00
      184000   1.839990e-06   9.069509e-02   2.348625e+00   1.608534e+01  -1.711510e+03  -1.367324e+05   6.373153e+04   7.821058e+12   1.417216e+11   5.237343e+11   1.508654e+05   4.984578e-21   0.000000e+00   0.000000e+00
      192000   1.919990e-06   9.242740e-02   2.350525e+00   1.609138e+01  -1.370246e+05  -1.114467e+04   6.252884e+04   4.186449e+11  -7.855768e+12  -4.728087e+11   1.510292e+05   5.048114e-21   0.000000e+00   0.000000e+00
      200000   1.999990e-06   9.439448e-02   2.348122e+00   1.609713e+01  -1.691167e+04   1.276924e+05   7.917244e+04  -7.864945e+12  -6.827733e+11  -5.708795e+11   1.511940e+05   5.102916e-21   0.000000e+00   0.000000e+00
      208000   2.079990e-06   9.210102e-02   2.345347e+00   1.610258e+01   1.266304e+05   1.340203e+04   8.182267e+04  -1.109411e+12   7.839723e+12   4.405354e+11   1.513599e+05   5.133437e-21   0.000000e+00   0.000000e+00
      216000   2.159990e-06   8.921523e-02   2.346736e+00   1.610825e+01   2.198805e+04  -1.352306e+05   6.472748e+04   7.783057e+12   1.560193e+12   6.254781e+11   1.515270e+05   5.186946e-21   0.000000e+00   0.000000e+00
      224000   2.239990e-06   9.041515e-02   2.348948e+00   1.611424e+01  -1.333768e+05  -4.000662e+04   6.017950e+04   2.145028e+12  -7.705093e+12  -3.575436e+11   1.516953e+05   5.255541e-21   0.000000e+00   0.000000e+00
      232000   2.319990e-06   9.272945e-02   2.347176e+00   1.612002e+01  -5.063147e+04   1.212561e+05   7.613349e+04  -7.542295e+12  -2.707291e+12  -6.955552e+11   1.518647e+05   5.316751e-21   0.000000e+00   0.000000e+00
      240000   2.399990e-06   9.119686e-02   2.344019e+00   1.612543e+01   1.167486e+05   5.147378e+04   8.267382e+04  -3.395196e+12   7.314256e+12   2.484827e+11   1.520354e+05   5.360659e-21   0.000000e+00   0.000000e+00
      248000   2.479990e-06   8.794995e-02   2.344547e+00   1.613095e+01   6.358753e+04  -1.206371e+05   6.760489e+04   6.959695e+12   4.071355e+12   7.286754e+11   1.522074e+05   5.410518e-21   0.000000e+00   0.000000e+00
      256000   2.559990e-06   8.816413e-02   2.347104e+00   1.613681e+01  -1.128668e+05  -8.445767e+04   5.786072e+04   4.840329e+12  -6.543418e+12  -9.793806e+10   1.523807e+05   5.481624e-21   0.000000e+00   0.000000e+00
      264000   2.639990e-06   9.075510e-02   2.346455e+00   1.614261e+01  -9.698348e+04   9.447994e+04   7.029090e+04  -5.964366e+12  -5.544486e+12  -7.672858e+11   1.525551e+05   5.547996e-21   0.000000e+00   0.000000e+00
      272000   2.719990e-06   9.046618e-02   2.343125e+00   1.614802e+01   8.217723e+04   9.888086e+04   8.243889e+04  -6.275992e+12   5.289463e+12  -8.017281e+10   1.527308e+05   5.599771e-21   0.000000e+00   0.000000e+00
      280000   2.799990e-06   8.718107e-02   2.342316e+00   1.615338e+01   1.099601e+05  -7.760402e+04   7.257552e+04   4.400736e+12   6.917298e+12   7.382980e+11   1.529079e+05   5.645064e-21   0.000000e+00   0.000000e+00
      288000   2.879990e-06   8.596697e-02   2.344769e+00   1.615907e+01  -6.047316e+04  -1.282440e+05   5.772232e+04   7.524453e+12  -3.427349e+12   2.802217e+11   1.530862e+05   5.715203e-21   0.000000e+00   0.000000e+00
      296000   2.959990e-06   8.824922e-02   2.345633e+00   1.616487e+01  -1.358514e+05   3.304737e+04   6.279048e+04  -2.253314e+12  -7.976439e+12  -6.660912e+11   1.532657e+05   5.787372e-21   0.000000e+00   0.000000e+00
      304000   3.039990e-06   8.950376e-02   2.342847e+00   1.617035e+01   1.142462e+04   1.311886e+05   7.877095e+04  -8.272528e+12   1.021226e+12  -4.921293e+11   1.534465e+05   5.849275e-21   0.000000e+00   0.000000e+00
      312000   3.119990e-06   8.702430e-02   2.340519e+00   1.617558e+01   1.322211e+05   1.700011e+03   7.820763e+04  -4.031998e+11   8.347075e+12   5.091878e+11   1.536286e+05   5.894760e-21   0.000000e+00   0.000000e+00
      320000   3.199990e-06   8.436322e-02   2.341913e+00   1.618103e+01   2.615960e+04  -1.383295e+05   6.195796e+04   8.177478e+12   1.834581e+12   6.546976e+11   1.538121e+05   5.956910e-21   0.000000e+00   0.000000e+00
      328000   3.279990e-06   8.529686e-02   2.344115e+00   1.618675e+01  -1.307379e+05  -5.866597e+04   5.639974e+04   3.355673e+12  -7.751152e+12  -2.712942e+11   1.539969e+05   6.034520e-21   0.000000e+00   0.000000e+00
      336000   3.359990e-06   8.768658e-02   2.342963e+00   1.619233e+01  -8.257282e+04   1.097217e+05   7.010865e+04  -6.988745e+12  -4.758274e+12  -7.741397e+11   1.541828e+05   6.105724e-21   0.000000e+00   0.000000e+00
      344000   3.439990e-06   8.709507e-02   2.339778e+00   1.619757e+01   9.164312e+04   9.462795e+04   8.048108e+04  -6.104291e+12   5.941440e+12  -2.589904e+10   1.543701e+05   6.161373e-21   0.000000e+00   0.000000e+00
      352000   3.519990e-06   8.392859e-02   2.339095e+00   1.620277e+01   1.129673e+05  -7.817627e+04   7.081858e+04   4.513996e+12   7.214037e+12   7.732785e+11   1.545588e+05   6.214988e-21   0.000000e+00   0.000000e+00
      360000   3.599990e-06   8.262893e-02   2.341386e+00   1.620829e+01  -4.998117e+04  -1.353843e+05   5.585898e+04   8.095064e+12  -2.845798e+12   3.591564e+11   1.547490e+05   6.293541e-21   0.000000e+00   0.000000e+00
      368000   3.679990e-06   8.462167e-02   2.342522e+00   1.621393e+01  -1.429900e+05   1.038715e+04   5.875795e+04  -8.812182e+11  -8.565993e+12  -6.175133e+11   1.549404e+05   6.375539e-21   0.000000e+00   0.000000e+00
      376000   3.759990e-06   8.626378e-02   2.340233e+00   1.621930e+01  -2.370896e+04   1.339129e+05   7.464270e+04  -8.570657e+12  -1.143693e+12  -6.604010e+11   1.551332e+05   6.448536e-21   0.000000e+00   0.000000e+00
      384000   3.839990e-06   8.453048e-02   2.337493e+00   1.622440e+01   1.249729e+05   4.794996e+04   7.879832e+04  -3.274510e+12   8.052457e+12   3.028825e+11   1.553274e+05   6.503879e-21   0.000000e+00   0.000000e+00
      392000   3.919990e-06   8.152617e-02   2.337880e+00   1.622959e+01   8.012330e+04  -1.164657e+05   6.483400e+04   6.950792e+12   5.219689e+12   7.982920e+11   1.555232e+05   6.566811e-21   0.000000e+00   0.000000e+00
      400000   3.999990e-06   8.118163e-02   2.340266e+00   1.623508e+01  -8.993985e+04  -1.154148e+05   5.328285e+04   6.944139e+12  -5.363280e+12   1.186640e+11   1.557203e+05   6.652940e-21   0.000000e+00   0.000000e+00
      408000   4.079990e-06   8.345248e-02   2.340634e+00   1.624058e+01  -1.353572e+05   4.826677e+04   6.049319e+04  -3.250923e+12  -8.163957e+12  -7.473599e+11   1.559188e+05   6.737239e-21   0.000000e+00   0.000000e+00
      416000   4.159990e-06   8.452042e-02   2.337979e+00   1.624579e+01   8.676354e+03   1.363088e+05   7.561521e+04  -8.797146e+12   8.647538e+11  -5.390732e+11   1.561187e+05   6.811043e-21   0.000000e+00   0.000000e+00
      424000   4.239990e-06   8.238061e-02   2.335640e+00   1.625078e+01   1.343002e+05   2.360241e+04   7.643518e+04  -1.772890e+12   8.691650e+12   4.414756e+11   1.563200e+05   6.868205e-21   0.000000e+00   0.000000e+00
      432000   4.319990e-06   7.960486e-02   2.336426e+00   1.625592e+01   6.457535e+04  -1.285194e+05   6.174298e+04   7.780745e+12   4.280716e+12   7.856077e+11   1.565229e+05   6.938338e-21   0.000000e+00   0.000000e+00
      440000   4.399990e-06   7.958432e-02   2.338728e+00   1.626131e+01  -1.012951e+05  -1.077849e+05   5.181831e+04   6.536833e+12  -6.130512e+12   4.199357e+10   1.567272e+05   7.029407e-21   0.000000e+00   0.000000e+00
      448000   4.479990e-06   8.184090e-02   2.338896e+00   1.626669e+01  -1.339364e+05   5.578783e+04   5.980537e+04  -3.747382e+12  -8.152751e+12  -7.737665e+11   1.569328e+05   7.117521e-21   0.000000e+00   0.000000e+00
      456000   4.559990e-06   8.281440e-02   2.336273e+00   1.627179e+01   1.001205e+04   1.380402e+05   7.441504e+04  -8.976795e+12   9.486515e+11  -5.409948e+11   1.571399e+05   7.194949e-21   0.000000e+00   0.000000e+00
      464000   4.639990e-06   8.076143e-02   2.333971e+00   1.627669e+01   1.349683e+05   2.921065e+04   7.542435e+04  -2.134754e+12   8.804354e+12   4.211599e+11   1.573484e+05   7.256025e-21   0.000000e+00   0.000000e+00
      472000   4.719990e-06   7.800122e-02   2.334596e+00   1.628171e+01   7.542596e+04  -1.239342e+05   6.144879e+04   7.564016e+12   4.998537e+12   8.103482e+11   1.575586e+05   7.328963e-21   0.000000e+00   0.000000e+00
      480000   4.799990e-06   7.771696e-02   2.336856e+00   1.628697e+01  -8.852324e+04  -1.203741e+05   5.064718e+04   7.395233e+12  -5.384615e+12   1.445095e+11   1.577702e+05   7.423880e-21   0.000000e+00   0.000000e+00
      488000   4.879990e-06   7.981289e-02   2.337384e+00   1.629226e+01  -1.436065e+05   3.384040e+04   5.648591e+04  -2.375157e+12  -8.852797e+12  -7.198342e+11   1.579831e+05   7.517484e-21   0.000000e+00   0.000000e+00
      496000   4.959990e-06   8.115718e-02   2.335112e+00   1.629730e+01  -2.026136e+04   1.398554e+05   7.110824e+04  -9.156282e+12  -9.788433e+11  -6.717897e+11   1.581975e+05   7.601684e-21   0.000000e+00   0.000000e+00
      504000   5.039990e-06   7.964596e-02   2.332540e+00   1.630212e+01   1.232091e+05   6.429455e+04   7.602968e+04  -4.390541e+12   8.151186e+12   2.332711e+11   1.584133e+05   7.669485e-21   0.000000e+00   0.000000e+00
      512000   5.119990e-06   7.680034e-02   2.332449e+00   1.630700e+01   1.088111e+05  -9.584009e+04   6.433176e+04   5.832398e+12   7.184755e+12   8.521684e+11   1.586309e+05   7.743536e-21   0.000000e+00   0.000000e+00
      520000   5.199990e-06   7.570540e-02   2.334511e+00   1.631210e+01  -4.366573e+04  -1.440576e+05   5.073484e+04   8.968117e+12  -2.572103e+12   4.324543e+11   1.588500e+05   7.842823e-21   0.000000e+00   0.000000e+00
      528000   5.279990e-06   7.725081e-02   2.335815e+00   1.631732e+01  -1.487842e+05  -2.352226e+04   5.112150e+04   1.286406e+12  -9.285598e+12  -5.113302e+11   1.590706e+05   7.946552e-21   0.000000e+00   0.000000e+00
      536000   5.359990e-06   7.916685e-02   2.334436e+00   1.632236e+01  -8.184759e+04   1.204186e+05   6.461042e+04  -7.979864e+12  -4.953534e+12  -8.627952e+11   1.592927e+05   8.043027e-21   0.000000e+00   0.000000e+00
      544000   5.439990e-06   7.881670e-02   2.331654e+00   1.632713e+01   7.640617e+04   1.183564e+05   7.482880e+04  -7.891277e+12   5.224923e+12  -1.946401e+11   1.595164e+05   8.124537e-21   0.000000e+00   0.000000e+00
      552000   5.519990e-06   7.626672e-02   2.330335e+00   1.633183e+01   1.415713e+05  -2.517116e+04   6.958040e+04   1.334238e+12   9.375361e+12   6.898565e+11   1.597418e+05   8.196933e-21   0.000000e+00   0.000000e+00
      560000   5.599990e-06   7.408756e-02   2.331589e+00   1.633669e+01   4.086831e+04  -1.445726e+05   5.494146e+04   9.065262e+12   2.852219e+12   7.786496e+11   1.599688e+05   8.290197e-21   0.000000e+00   0.000000e+00
      568000   5.679990e-06   7.435546e-02   2.333611e+00   1.634175e+01  -1.103826e+05  -1.061304e+05   4.706625e+04   6.638729e+12  -6.913274e+12   2.152014e+08   1.601974e+05   8.400379e-21   0.000000e+00   0.000000e+00
      576000   5.759990e-06   7.638037e-02   2.333802e+00   1.634678e+01  -1.439151e+05   4.570694e+04   5.418776e+04  -3.181167e+12  -9.056486e+12  -7.925403e+11   1.604275e+05   8.507224e-21   0.000000e+00   0.000000e+00
      584000   5.839990e-06   7.757642e-02   2.331641e+00   1.635158e+01  -2.443067e+04   1.434370e+05   6.811998e+04  -9.560527e+12  -1.277656e+12  -7.247684e+11   1.606592e+05   8.604777e-21   0.000000e+00   0.000000e+00
      592000   5.919990e-06   7.633144e-02   2.329158e+00   1.635617e+01   1.171032e+05   8.245810e+04   7.330682e+04  -5.635437e+12   7.899024e+12   1.300156e+11   1.608925e+05   8.685884e-21   0.000000e+00   0.000000e+00
      600000   5.999990e-06   7.367637e-02   2.328662e+00   1.636077e+01   1.302050e+05  -6.999845e+04   6.410110e+04   4.277846e+12   8.705575e+12   8.319299e+11   1.611275e+05   8.767669e-21   0.000000e+00   0.000000e+00
      608000   6.079990e-06   7.208157e-02   2.330313e+00   1.636556e+01   3.228771e+03  -1.533277e+05   5.018562e+04   9.748358e+12   4.157974e+11   6.622308e+11   1.613642e+05   8.873510e-21   0.000000e+00   0.000000e+00
      616000   6.159990e-06   7.285014e-02   2.332062e+00   1.637048e+01  -1.311672e+05  -8.270597e+04   4.549976e+04   5.190486e+12  -8.345169e+12  -1.847799e+11   1.616024e+05   8.990475e-21   0.000000e+00   0.000000e+00
      624000   6.239990e-06   7.485125e-02   2.331826e+00   1.637534e+01  -1.363263e+05   6.820972e+04   5.436439e+04  -4.679998e+12  -8.653964e+12  -8.598808e+11   1.618422e+05   9.102635e-21   0.000000e+00   0.000000e+00
      632000   6.319990e-06   7.575769e-02   2.329573e+00   1.637997e+01  -8.755670e+03   1.470996e+05   6.749925e+04  -9.889522e+12  -2.720005e+11  -6.754875e+11   1.620836e+05   9.204689e-21   0.000000e+00   0.000000e+00
      640000   6.399990e-06   7.439792e-02   2.327264e+00   1.638442e+01   1.236275e+05   7.720738e+04   7.145078e+04  -5.337332e+12   8.392754e+12   1.798146e+11   1.623267e+05   9.290975e-21   0.000000e+00   0.000000e+00
      648000   6.479990e-06   7.184111e-02   2.326849e+00   1.638889e+01   1.322584e+05  -7.111002e+04   6.229421e+04   4.403225e+12   8.916138e+12   8.453300e+11   1.625715e+05   9.379558e-21   0.000000e+00   0.000000e+00
      656000   6.559990e-06   7.026426e-02   2.328406e+00   1.639352e+01   1.095413e+04  -1.549336e+05   4.883940e+04   9.957447e+12   9.183806e+11   7.006170e+11   1.628180e+05   9.491587e-21   0.000000e+00   0.000000e+00
      664000   6.639990e-06   7.085275e-02   2.330161e+00   1.639829e+01  -1.242074e+05  -9.633282e+04   4.339416e+04   6.147167e+12  -7.980680e+12  -9.823923e+10   1.630660e+05   9.615611e-21   0.000000e+00   0.000000e+00
      672000   6.719990e-06   7.273585e-02   2.330209e+00   1.640300e+01  -1.478639e+05   4.787833e+04   5.016034e+04  -3.375174e+12  -9.518978e+12  -8.430273e+11   1.633161e+05   9.761521e-21   0.000000e+00   0.000000e+00
      680000   6.799990e-06   7.391353e-02   2.328284e+00   1.640751e+01  -4.050278e+04   1.452631e+05   6.334550e+04  -9.861303e+12  -2.383355e+12  -8.234310e+11   1.635680e+05   9.876524e-21   0.000000e+00   0.000000e+00
      688000   6.879990e-06   7.308732e-02   2.325882e+00   1.641182e+01   9.955946e+04   1.096032e+05   7.009007e+04  -7.535931e+12   6.894024e+12  -6.121165e+10   1.638217e+05   9.975821e-21   0.000000e+00   0.000000e+00
      696000   6.959990e-06   7.076458e-02   2.324861e+00   1.641609e+01   1.488258e+05  -2.528854e+04   6.428624e+04   1.406369e+12   1.012196e+13   7.422322e+11   1.640773e+05   1.007040e-20   0.000000e+00   0.000000e+00
      704000   7.039990e-06   6.872457e-02   2.325820e+00   1.642049e+01   6.659244e+04  -1.412970e+05   5.105377e+04   9.145485e+12   4.626267e+12   8.954438e+11   1.643346e+05   1.018491e-20   0.000000e+00   0.000000e+00
      712000   7.119990e-06   6.844224e-02   2.327661e+00   1.642503e+01  -7.512989e+04  -1.404717e+05   4.140407e+04   9.146252e+12  -4.811807e+12   2.971515e+11   1.645937e+05   1.031857e-20   0.000000e+00   0.000000e+00
      720000   7.199990e-06   6.987718e-02   2.328596e+00   1.642960e+01  -1.571344e+05  -2.535627e+04   4.292822e+04   1.498176e+12  -1.026637e+13  -5.549324e+11   1.648545e+05   1.045345e-20   0.000000e+00   0.000000e+00
      728000   7.279990e-06   7.158370e-02   2.327641e+00   1.643404e+01  -1.129449e+05   1.076588e+05   5.400587e+04  -7.413245e+12  -7.283232e+12  -9.646150e+11   1.651169e+05   1.058209e-20   0.000000e+00   0.000000e+00
      736000   7.359990e-06   7.195032e-02   2.325379e+00   1.643827e+01   1.958156e+04   1.506970e+05   6.525251e+04  -1.033717e+13   1.605844e+12  -5.897103e+11   1.653811e+05   1.069896e-20   0.000000e+00   0.000000e+00
      744000   7.439990e-06   7.049160e-02   2.323409e+00   1.644238e+01   1.335021e+05   7.128071e+04   6.734402e+04  -5.042498e+12   9.219155e+12   2.545295e+11   1.656471e+05   1.080190e-20   0.000000e+00   0.000000e+00
      752000   7.519990e-06   6.816608e-02   2.323042e+00   1.644651e+01   1.403799e+05  -6.619993e+04   5.864154e+04   4.184519e+12   9.639947e+12   8.842441e+11   1.659150e+05   1.090910e-20   0.000000e+00   0.000000e+00
      760000   7.599990e-06   6.655968e-02   2.324313e+00   1.645076e+01   3.707419e+04  -1.553643e+05   4.587805e+04   1.021377e+13   2.675949e+12   8.326721e+11   1.661847e+05   1.103852e-20   0.000000e+00   0.000000e+00
      768000   7.679990e-06   6.665820e-02   2.326025e+00   1.645513e+01  -9.664354e+04  -1.299797e+05   3.837861e+04   8.558372e+12  -6.324490e+12   1.612490e+11   1.664561e+05   1.118280e-20   0.000000e+00   0.000000e+00
      776000   7.759990e-06   6.815138e-02   2.326702e+00   1.645949e+01  -1.611793e+05  -1.076756e+04   4.127842e+04   5.417355e+11  -1.066073e+13  -6.378621e+11   1.667292e+05   1.132654e-20   0.000000e+00   0.000000e+00
      784000   7.839990e-06   6.972646e-02   2.325676e+00   1.646372e+01  -1.106080e+05   1.137509e+05   5.212423e+04  -7.894559e+12  -7.215840e+12  -9.830247e+11   1.670040e+05   1.146401e-20   0.000000e+00   0.000000e+00
      792000   7.919990e-06   7.006246e-02   2.323526e+00   1.646777e+01   1.673157e+04   1.541642e+05   6.273951e+04  -1.067008e+13   1.417102e+12  -6.180600e+11   1.672806e+05   1.158994e-20   0.000000e+00   0.000000e+00
      800000   7.999990e-06   6.876357e-02   2.321603e+00   1.647170e+01   1.296419e+05   8.369307e+04   6.530289e+04  -5.924023e+12   9.047328e+12   1.833436e+11   1.675590e+05   1.170268e-20   0.000000e+00   0.000000e+00
      808000   8.079990e-06   6.658122e-02   2.321046e+00   1.647563e+01   1.504268e+05  -4.663715e+04   5.802390e+04   2.912635e+12   1.041838e+13   8.431424e+11   1.678393e+05   1.181768e-20   0.000000e+00   0.000000e+00
      816000   8.159990e-06   6.483680e-02   2.322025e+00   1.647966e+01   6.692065e+04  -1.472328e+05   4.592329e+04   9.773747e+12   4.722559e+12   9.240796e+11   1.681214e+05   1.195269e-20   0.000000e+00   0.000000e+00
      824000   8.239990e-06   6.450885e-02   2.323681e+00   1.648379e+01  -6.321625e+04  -1.516743e+05   3.686416e+04   1.012707e+13  -4.132450e+12   3.962412e+11   1.684053e+05   1.210517e-20   0.000000e+00   0.000000e+00
      832000   8.319990e-06   6.561275e-02   2.324749e+00   1.648795e+01  -1.538736e+05  -5.877945e+04   3.639388e+04   3.833283e+12  -1.029914e+13  -3.936920e+11   1.686909e+05   1.226081e-20   0.000000e+00   0.000000e+00
      840000   8.399990e-06   6.724309e-02   2.324389e+00   1.649203e+01  -1.472927e+05   6.985436e+04   4.448458e+04  -4.953394e+12  -9.827059e+12  -9.422540e+11   1.689782e+05   1.241184e-20   0.000000e+00   0.000000e+00
      848000   8.479990e-06   6.819708e-02   2.322701e+00   1.649595e+01  -4.942712e+04   1.520150e+05   5.567610e+04  -1.060588e+13  -3.112796e+12  -8.944038e+11   1.692673e+05   1.255430e-20   0.000000e+00   0.000000e+00
      856000   8.559990e-06   6.774147e-02   2.320608e+00   1.649972e+01   7.697348e+04   1.374841e+05   6.263556e+04  -9.646522e+12   5.538884e+12  -2.832848e+11   1.695582e+05   1.268359e-20   0.000000e+00   0.000000e+00
      864000   8.639990e-06   6.603874e-02   2.319242e+00   1.650340e+01   1.540036e+05   3.766233e+04   6.094319e+04  -2.833047e+12   1.079979e+13   5.054410e+11   1.698518e+05   1.284084e-20   0.000000e+00   0.000000e+00
      872000   8.719990e-06   6.398880e-02   2.319244e+00   1.650711e+01   1.375303e+05  -8.593159e+04   5.149038e+04   5.659005e+12   9.633164e+12   9.859328e+11   1.701473e+05   1.297606e-20   0.000000e+00   0.000000e+00
      880000   8.799990e-06   6.264650e-02   2.320432e+00   1.651092e+01   3.933873e+04  -1.609864e+05   3.983993e+04   1.085629e+13   2.865645e+12   8.917136e+11   1.704447e+05   1.313244e-20   0.000000e+00   0.000000e+00
      888000   8.879990e-06   6.261869e-02   2.321960e+00   1.651480e+01  -8.280951e+04  -1.457675e+05   3.237123e+04   9.860589e+12  -5.544786e+12   2.959875e+11   1.707439e+05   1.330297e-20   0.000000e+00   0.000000e+00
      896000   8.959990e-06   6.375261e-02   2.322828e+00   1.651868e+01  -1.600316e+05  -5.064155e+04   3.288936e+04   3.332045e+12  -1.086010e+13  -4.696775e+11   1.710450e+05   1.347517e-20   0.000000e+00   0.000000e+00
      904000   9.039990e-06   6.526527e-02   2.322444e+00   1.652248e+01  -1.507696e+05   7.046223e+04   4.078848e+04  -5.042317e+12  -1.019852e+13  -9.883577e+11   1.713479e+05   1.364288e-20   0.000000e+00   0.000000e+00
      912000   9.119990e-06   6.620400e-02   2.320915e+00   1.652613e+01  -6.184267e+04   1.516239e+05   5.148105e+04  -1.069316e+13  -4.021997e+12  -9.741041e+11   1.716526e+05   1.380246e-20   0.000000e+00   0.000000e+00
      920000   9.199990e-06   6.596258e-02   2.318952e+00   1.652965e+01   5.789771e+04   1.508003e+05   5.896724e+04  -1.067279e+13   4.277622e+12  -4.377390e+11   1.719593e+05   1.394971e-20   0.000000e+00   0.000000e+00
      928000   9.279990e-06   6.457523e-02   2.317460e+00   1.653309e+01   1.456649e+05   7.039431e+04   5.918287e+04  -5.118550e+12   1.034068e+13   3.210457e+11   1.722679e+05   1.408801e-20   0.000000e+00   0.000000e+00
      936000   9.359990e-06   6.265758e-02   2.317066e+00   1.653653e+01   1.577290e+05  -4.684292e+04   5.206359e+04   3.020104e+12   1.114320e+13   9.020346e+11   1.725784e+05   1.423154e-20   0.000000e+00   0.000000e+00
      944000   9.439990e-06   6.106172e-02   2.317820e+00   1.654003e+01   8.994181e+04  -1.417866e+05   4.121034e+04   9.645032e+12   6.407478e+12   1.027756e+12   1.728909e+05   1.439317e-20   0.000000e+00   0.000000e+00
      952000   9.519990e-06   6.044555e-02   2.319216e+00   1.654361e+01  -2.283205e+04  -1.687295e+05   3.176634e+04   1.156683e+13  -1.449312e+12   6.584331e+11   1.732052e+05   1.457243e-20   0.000000e+00   0.000000e+00
      960000   9.599990e-06   6.097125e-02   2.320463e+00   1.654722e+01  -1.257227e+05  -1.162899e+05   2.793045e+04   7.955757e+12  -8.618310e+12  -2.246622e+10   1.735214e+05   1.475917e-20   0.000000e+00   0.000000e+00
      968000   9.679990e-06   6.226008e-02   2.320876e+00   1.655079e+01  -1.706814e+05  -1.074610e+04   3.118513e+04   6.032857e+11  -1.174461e+13  -7.006946e+11   1.738393e+05   1.494478e-20   0.000000e+00   0.000000e+00
      976000   9.759990e-06   6.359982e-02   2.320184e+00   1.655426e+01  -1.382493e+05   9.817328e+04   3.975617e+04  -7.030238e+12  -9.454889e+12  -1.064200e+12   1.741592e+05   1.512528e-20   0.000000e+00   0.000000e+00
      984000   9.839990e-06   6.428757e-02   2.318628e+00   1.655761e+01  -4.479926e+04   1.612088e+05   4.948042e+04  -1.147904e+13  -2.891292e+12  -9.446294e+11   1.744809e+05   1.529711e-20   0.000000e+00   0.000000e+00
      992000   9.919990e-06   6.394161e-02   2.316822e+00   1.656083e+01   6.688300e+04   1.515647e+05   5.577987e+04  -1.083595e+13   4.938973e+12  -4.018178e+11   1.748045e+05   1.545759e-20   0.000000e+00   0.000000e+00
     1000000   9.999990e-06   6.264691e-02   2.315460e+00   1.656399e+01   1.479787e+05   7.523051e+04   5.579596e+04  -5.499613e+12   1.060691e+13   3.098878e+11   1.751300e+05   1.561089e-20   0.000000e+00   0.000000e+00
     1008000   1.007999e-05   6.088808e-02   2.315018e+00   1.656715e+01   1.648935e+05  -3.374930e+04   4.956220e+04   2.152680e+12   1.176239e+13   8.766171e+11   1.754574e+05   1.576893e-20   0.000000e+00   0.000000e+00
     1016000   1.015999e-05   5.932079e-02   2.315566e+00   1.657034e+01   1.122190e+05  -1.293447e+05   3.972183e+04   8.893868e+12   8.034173e+12   1.071558e+12   1.757867e+05   1.594279e-20   0.000000e+00   0.000000e+00
     1024000   1.023999e-05   5.849350e-02   2.316773e+00   1.657359e+01   1.305034e+04  -1.730209e+05   3.018265e+04   1.200834e+13   1.042826e+12   8.341720e+11   1.761179e+05   1.613408e-20   0.000000e+00   0.000000e+00
     1032000   1.031999e-05   5.863584e-02   2.318058e+00   1.657688e+01  -9.200634e+04  -1.485580e+05   2.450122e+04   1.032928e+13  -6.362717e+12   2.693570e+11   1.764510e+05   1.633573e-20   0.000000e+00   0.000000e+00
     1040000   1.039999e-05   5.958915e-02   2.318837e+00   1.658015e+01  -1.617224e+05  -6.703130e+04   2.461477e+04   4.603414e+12  -1.127688e+13  -4.039581e+11   1.767858e+05   1.653942e-20   0.000000e+00   0.000000e+00
     1048000   1.047999e-05   6.089156e-02   2.318748e+00   1.658335e+01  -1.701089e+05   3.900802e+04   3.022795e+04  -2.892459e+12  -1.185420e+13  -9.304845e+11   1.771225e+05   1.674013e-20   0.000000e+00   0.000000e+00
     1056000   1.055999e-05   6.197108e-02   2.317772e+00   1.658645e+01  -1.153822e+05   1.290714e+05   3.898626e+04  -9.291695e+12  -7.959366e+12  -1.109623e+12   1.774610e+05   1.693481e-20   0.000000e+00   0.000000e+00
     1064000   1.063999e-05   6.236450e-02   2.316218e+00   1.658944e+01  -1.922123e+04   1.702838e+05   4.740576e+04  -1.224531e+13  -1.129825e+12  -8.745618e+11   1.778014e+05   1.712041e-20   0.000000e+00   0.000000e+00
     1072000   1.071999e-05   6.187892e-02   2.314593e+00   1.659233e+01   8.259173e+04   1.489459e+05   5.223864e+04  -1.076011e+13   6.089101e+12  -3.200825e+11   1.781436e+05   1.729612e-20   0.000000e+00   0.000000e+00
     1080000   1.079999e-05   6.064279e-02   2.313406e+00   1.659516e+01   1.538821e+05   7.420010e+04   5.169632e+04  -5.470499e+12   1.112799e+13   3.414620e+11   1.784877e+05   1.746695e-20   0.000000e+00   0.000000e+00
     1088000   1.087999e-05   5.903965e-02   2.312989e+00   1.659799e+01   1.707412e+05  -2.669454e+04   4.600368e+04   1.696367e+12   1.229571e+13   8.724712e+11   1.788337e+05   1.764280e-20   0.000000e+00   0.000000e+00
     1096000   1.095999e-05   5.756004e-02   2.313401e+00   1.660084e+01   1.287810e+05  -1.188271e+05   3.743876e+04   8.260573e+12   9.294578e+12   1.127224e+12   1.791817e+05   1.783433e-20   0.000000e+00   0.000000e+00
     1104000   1.103999e-05   5.662845e-02   2.314407e+00   1.660375e+01   4.399372e+04  -1.717813e+05   2.805891e+04   1.206790e+13   3.242980e+12   9.887336e+11   1.795315e+05   1.804552e-20   0.000000e+00   0.000000e+00
     1112000   1.111999e-05   5.646987e-02   2.315613e+00   1.660668e+01  -5.535521e+04  -1.698347e+05   2.121218e+04   1.197409e+13  -3.845011e+12   5.372590e+11   1.798832e+05   1.826883e-20   0.000000e+00   0.000000e+00
     1120000   1.119999e-05   5.705521e-02   2.316575e+00   1.660961e+01  -1.375228e+05  -1.149751e+05   1.880181e+04   8.094593e+12  -9.709464e+12  -8.282439e+10   1.802368e+05   1.849715e-20   0.000000e+00   0.000000e+00
     1128000   1.127999e-05   5.812750e-02   2.316946e+00   1.661249e+01  -1.775098e+05  -2.547635e+04   2.132608e+04   1.711419e+12  -1.255945e+13  -6.829218e+11   1.805923e+05   1.872500e-20   0.000000e+00   0.000000e+00
     1136000   1.135999e-05   5.929539e-02   2.316574e+00   1.661530e+01  -1.642389e+05   7.068049e+04   2.779658e+04  -5.182048e+12  -1.159291e+13  -1.082028e+12   1.809497e+05   1.894907e-20   0.000000e+00   0.000000e+00
     1144000   1.143999e-05   6.015883e-02   2.315538e+00   1.661800e+01  -1.029917e+05   1.447910e+05   3.607247e+04  -1.052091e+13  -7.183345e+12  -1.160065e+12   1.813090e+05   1.916677e-20   0.000000e+00   0.000000e+00
     1152000   1.151999e-05   6.042654e-02   2.314106e+00   1.662061e+01  -1.280213e+04   1.759110e+05   4.353700e+04  -1.278558e+13  -6.992360e+11  -8.965203e+11   1.816701e+05   1.937585e-20   0.000000e+00   0.000000e+00
     1160000   1.159999e-05   5.999184e-02   2.312646e+00   1.662312e+01   7.994182e+04   1.563649e+05   4.791053e+04  -1.140872e+13   5.958597e+12  -3.761899e+11   1.820332e+05   1.957632e-20   0.000000e+00   0.000000e+00
     1168000   1.167999e-05   5.894942e-02   2.311517e+00   1.662558e+01   1.494268e+05   9.297698e+04   4.791655e+04  -6.869857e+12   1.093356e+13   2.429239e+11   1.823982e+05   1.977242e-20   0.000000e+00   0.000000e+00
     1176000   1.175999e-05   5.755517e-02   2.310969e+00   1.662801e+01   1.774453e+05   4.161763e+03   4.357677e+04  -4.863254e+11   1.292091e+13   7.848309e+11   1.827651e+05   1.997176e-20   0.000000e+00   0.000000e+00
     1184000   1.183999e-05   5.614637e-02   2.311087e+00   1.663045e+01   1.577028e+05  -8.582505e+04   3.608183e+04   6.001113e+12   1.147356e+13   1.109023e+12   1.831339e+05   2.018195e-20   0.000000e+00   0.000000e+00
     1192000   1.191999e-05   5.504810e-02   2.311780e+00   1.663290e+01   9.660238e+04  -1.536023e+05   2.735376e+04   1.090954e+13   7.053655e+12   1.143224e+12   1.835046e+05   2.040689e-20   0.000000e+00   0.000000e+00
     1200000   1.199999e-05   5.449137e-02   2.312815e+00   1.663537e+01   1.073767e+04  -1.825255e+05   1.949163e+04   1.303266e+13   8.524572e+11   8.910739e+11   1.838771e+05   2.064550e-20   0.000000e+00   0.000000e+00
     1208000   1.207999e-05   5.456204e-02   2.313885e+00   1.663784e+01  -7.790246e+04  -1.663621e+05   1.426343e+04   1.190587e+13  -5.549407e+12   4.215637e+11   1.842514e+05   2.089324e-20   0.000000e+00   0.000000e+00
     1216000   1.215999e-05   5.518962e-02   2.314692e+00   1.664029e+01  -1.476273e+05  -1.101422e+05   1.273601e+04   7.873628e+12  -1.058656e+13  -1.510692e+11   1.846275e+05   2.114487e-20   0.000000e+00   0.000000e+00
     1224000   1.223999e-05   5.617435e-02   2.315013e+00   1.664270e+01  -1.822110e+05  -2.826223e+04   1.508068e+04   1.962028e+12  -1.308104e+13  -6.924015e+11   1.850055e+05   2.139623e-20   0.000000e+00   0.000000e+00
     1232000   1.231999e-05   5.724258e-02   2.314751e+00   1.664503e+01  -1.743787e+05   5.946937e+04   2.057056e+04  -4.399832e+12  -1.249937e+13  -1.076285e+12   1.853852e+05   2.164437e-20   0.000000e+00   0.000000e+00
     1240000   1.239999e-05   5.811463e-02   2.313947e+00   1.664728e+01  -1.269489e+05   1.327479e+05   2.777124e+04  -9.734739e+12  -9.042190e+12  -1.213586e+12   1.857667e+05   2.188699e-20   0.000000e+00   0.000000e+00
     1248000   1.247999e-05   5.856851e-02   2.312763e+00   1.664943e+01  -5.157197e+04   1.754271e+05   3.489272e+04  -1.285960e+13  -3.556579e+12  -1.074239e+12   1.861500e+05   2.212229e-20   0.000000e+00   0.000000e+00
     1256000   1.255999e-05   5.848543e-02   2.311440e+00   1.665150e+01   3.442881e+04   1.788637e+05   4.022178e+04  -1.313491e+13   2.694552e+12  -6.945358e+11   1.865352e+05   2.234981e-20   0.000000e+00   0.000000e+00
     1264000   1.263999e-05   5.786885e-02   2.310236e+00   1.665350e+01   1.122121e+05   1.433194e+05   4.251903e+04  -1.057104e+13   8.338484e+12  -1.659298e+11   1.869221e+05   2.257158e-20   0.000000e+00   0.000000e+00
     1272000   1.271999e-05   5.683556e-02   2.309374e+00   1.665546e+01   1.655439e+05   7.731159e+04   4.127318e+04  -5.781997e+12   1.219562e+13   3.909263e+11   1.873108e+05   2.279217e-20   0.000000e+00   0.000000e+00
     1280000   1.279999e-05   5.558392e-02   2.308994e+00   1.665739e+01   1.840067e+05  -4.716977e+03   3.675679e+04   1.850979e+11   1.351242e+13   8.573131e+11   1.877013e+05   2.301754e-20   0.000000e+00   0.000000e+00
     1288000   1.287999e-05   5.434810e-02   2.309136e+00   1.665931e+01   1.647289e+05  -8.573088e+04   2.989662e+04   6.092924e+12   1.208425e+13   1.142514e+12   1.880936e+05   2.325296e-20   0.000000e+00   0.000000e+00
     1296000   1.295999e-05   5.334913e-02   2.309732e+00   1.666123e+01   1.124593e+05  -1.496512e+05   2.202294e+04   1.077101e+13   8.258148e+12   1.198679e+12   1.884877e+05   2.350119e-20   0.000000e+00   0.000000e+00
     1304000   1.303999e-05   5.275271e-02   2.310629e+00   1.666316e+01   3.816118e+04  -1.844130e+05   1.457747e+04   1.333648e+13   2.830569e+12   1.023995e+12   1.888834e+05   2.376192e-20   0.000000e+00   0.000000e+00
     1312000   1.311999e-05   5.264096e-02   2.311626e+00   1.666508e+01  -4.345092e+04  -1.840137e+05   8.844463e+03   1.334288e+13  -3.129271e+12   6.574148e+11   1.892809e+05   2.403243e-20   0.000000e+00   0.000000e+00
     1320000   1.319999e-05   5.300210e-02   2.312510e+00   1.666698e+01  -1.168777e+05  -1.492821e+05   5.741732e+03   1.083868e+13  -8.492161e+12   1.687671e+11   1.896800e+05   2.430891e-20   0.000000e+00   0.000000e+00
     1328000   1.327999e-05   5.373812e-02   2.313098e+00   1.666885e+01  -1.687274e+05  -8.734664e+04   5.687953e+03   6.332985e+12  -1.227830e+13  -3.535011e+11   1.900808e+05   2.458761e-20   0.000000e+00   0.000000e+00
     1336000   1.335999e-05   5.468750e-02   2.313270e+00   1.667066e+01  -1.900279e+05  -1.000554e+04   8.552934e+03   6.811978e+11  -1.382752e+13  -8.163232e+11   1.904833e+05   2.486539e-20   0.000000e+00   0.000000e+00
     1344000   1.343999e-05   5.565760e-02   2.312984e+00   1.667240e+01  -1.775967e+05   6.862830e+04   1.369503e+04  -5.084622e+12  -1.290285e+13  -1.137254e+12   1.908874e+05   2.513972e-20   0.000000e+00   0.000000e+00
     1352000   1.351999e-05   5.646016e-02   2.312281e+00   1.667407e+01  -1.342971e+05   1.347368e+05   2.008358e+04  -9.947340e+12  -9.712725e+12  -1.259195e+12   1.912931e+05   2.540861e-20   0.000000e+00   0.000000e+00
     1360000   1.359999e-05   5.694362e-02   2.311273e+00   1.667565e+01  -6.822187e+04   1.771810e+05   2.649023e+04  -1.308244e+13  -4.852560e+12  -1.161423e+12   1.917005e+05   2.567069e-20   0.000000e+00   0.000000e+00
     1368000   1.367999e-05   5.701675e-02   2.310119e+00   1.667715e+01   8.969228e+03   1.892611e+05   3.171517e+04  -1.399060e+13   8.181601e+11  -8.636065e+11   1.921095e+05   2.592575e-20   0.000000e+00   0.000000e+00
     1376000   1.375999e-05   5.666054e-02   2.308996e+00   1.667858e+01   8.419983e+04   1.695973e+05   3.480181e+04  -1.256487e+13   6.336183e+12  -4.211691e+11   1.925202e+05   2.617513e-20   0.000000e+00   0.000000e+00
     1384000   1.383999e-05   5.592738e-02   2.308072e+00   1.667995e+01   1.452066e+05   1.220626e+05   3.519475e+04  -9.086256e+12   1.080034e+13   8.693395e+10   1.929324e+05   2.642189e-20   0.000000e+00   0.000000e+00
     1392000   1.391999e-05   5.492865e-02   2.307475e+00   1.668129e+01   1.824715e+05   5.486676e+04   3.281134e+04  -4.155792e+12   1.351393e+13   5.745071e+11   1.933463e+05   2.667019e-20   0.000000e+00   0.000000e+00
     1400000   1.399999e-05   5.381408e-02   2.307278e+00   1.668260e+01   1.905737e+05  -2.097870e+04   2.802125e+04   1.419075e+12   1.408284e+13   9.640519e+11   1.937618e+05   2.692440e-20   0.000000e+00   0.000000e+00
     1408000   1.407999e-05   5.274648e-02   2.307491e+00   1.668389e+01   1.688084e+05  -9.351304e+04   2.155096e+04   6.760677e+12   1.245890e+13   1.198752e+12   1.941788e+05   2.718804e-20   0.000000e+00   0.000000e+00
     1416000   1.415999e-05   5.187630e-02   2.308058e+00   1.668517e+01   1.210498e+05  -1.516884e+05   1.434312e+04   1.105710e+13   8.928411e+12   1.248849e+12   1.945974e+05   2.746295e-20   0.000000e+00   0.000000e+00
     1424000   1.423999e-05   5.131977e-02   2.308875e+00   1.668644e+01   5.494800e+04  -1.869700e+05   7.402284e+03   1.367865e+13   4.053077e+12   1.112734e+12   1.950175e+05   2.774909e-20   0.000000e+00   0.000000e+00
     1432000   1.431999e-05   5.114337e-02   2.309804e+00   1.668770e+01  -1.936742e+04  -1.944701e+05   1.651714e+03   1.426082e+13  -1.423926e+12   8.142428e+11   1.954392e+05   2.804486e-20   0.000000e+00   0.000000e+00
     1440000   1.439999e-05   5.135637e-02   2.310695e+00   1.668894e+01  -9.086042e+04  -1.734982e+05  -2.184251e+03   1.274556e+13  -6.691766e+12   3.977551e+11   1.958622e+05   2.834762e-20   0.000000e+00   0.000000e+00
     1448000   1.447999e-05   5.191202e-02   2.311408e+00   1.669014e+01  -1.492028e+05  -1.274896e+05  -3.665015e+03   9.378154e+12  -1.098952e+13  -7.792537e+10   1.962868e+05   2.865434e-20   0.000000e+00   0.000000e+00
     1456000   1.455999e-05   5.271640e-02   2.311834e+00   1.669130e+01  -1.862090e+05  -6.336332e+04  -2.682112e+03   4.662484e+12  -1.371189e+13  -5.466471e+11   1.967128e+05   2.896197e-20   0.000000e+00   0.000000e+00
     1464000   1.463999e-05   5.364347e-02   2.311904e+00   1.669240e+01  -1.969068e+05   9.573738e+03   5.320847e+02  -7.177738e+11  -1.448957e+13  -9.429429e+11   1.971402e+05   2.926775e-20   0.000000e+00   0.000000e+00
     1472000   1.471999e-05   5.455371e-02   2.311606e+00   1.669342e+01  -1.801171e+05   8.100473e+04   5.437900e+03  -6.000097e+12  -1.323392e+13  -1.210687e+12   1.975690e+05   2.956930e-20   0.000000e+00   0.000000e+00
     1480000   1.479999e-05   5.531379e-02   2.310976e+00   1.669437e+01  -1.384878e+05   1.410600e+05   1.126347e+04  -1.045154e+13  -1.014109e+13  -1.311346e+12   1.979992e+05   2.986477e-20   0.000000e+00   0.000000e+00
     1488000   1.487999e-05   5.581443e-02   2.310094e+00   1.669524e+01  -7.800464e+04   1.816512e+05   1.711424e+04  -1.346910e+13  -5.656161e+12  -1.230246e+12   1.984308e+05   3.015310e-20   0.000000e+00   0.000000e+00
     1496000   1.495999e-05   5.598422e-02   2.309077e+00   1.669604e+01  -7.070412e+03   1.975052e+05   2.210196e+04  -1.465813e+13  -4.042237e+11  -9.792307e+11   1.988638e+05   3.043430e-20   0.000000e+00   0.000000e+00
     1504000   1.503999e-05   5.579786e-02   2.308052e+00   1.669676e+01   6.469779e+04   1.867756e+05   2.547229e+04  -1.387881e+13   4.900265e+12  -5.948133e+11   1.992981e+05   3.070957e-20   0.000000e+00   0.000000e+00
     1512000   1.511999e-05   5.527799e-02   2.307149e+00   1.669743e+01   1.277781e+05   1.511720e+05   2.670944e+04  -1.125602e+13   9.551889e+12  -1.320126e+11   1.997339e+05   3.098133e-20   0.000000e+00   0.000000e+00
     1520000   1.519999e-05   5.449071e-02   2.306478e+00   1.669804e+01   1.739810e+05   9.562221e+04   2.560042e+04  -7.153688e+12   1.294646e+13   3.447588e+11   2.001709e+05   3.125282e-20   0.000000e+00   0.000000e+00
     1528000   1.527999e-05   5.353583e-02   2.306118e+00   1.669862e+01   1.974606e+05   2.753674e+04   2.225093e+04  -2.119571e+12   1.465529e+13   7.717211e+11   2.006093e+05   3.152764e-20   0.000000e+00   0.000000e+00
     1536000   1.535999e-05   5.253326e-02   2.306107e+00   1.669917e+01   1.953862e+05  -4.420437e+04   1.705477e+04   3.190262e+12   1.447353e+13   1.094631e+12   2.010489e+05   3.180908e-20   0.000000e+00   0.000000e+00
     1544000   1.543999e-05   5.160742e-02   2.306437e+00   1.669969e+01   1.682145e+05  -1.104043e+05   1.062716e+04   8.096545e+12   1.243873e+13   1.275135e+12   2.014899e+05   3.209962e-20   0.000000e+00   0.000000e+00
     1552000   1.551999e-05   5.087801e-02   2.307056e+00   1.670017e+01   1.199171e+05  -1.624377e+05   3.249701e+03   1.196614e+13   8.846593e+12   1.325366e+12   2.019324e+05   3.243047e-20   0.000000e+00   0.000000e+00
     1560000   1.559999e-05   5.042310e-02   2.307880e+00   1.670062e+01   5.657522e+04  -1.942757e+05  -3.509766e+03   1.434535e+13   4.144606e+12   1.182759e+12   2.023762e+05   3.274224e-20   0.000000e+00   0.000000e+00
     1568000   1.567999e-05   5.029516e-02   2.308803e+00   1.670104e+01  -1.395578e+04  -2.021297e+05  -9.234122e+03   1.495302e+13  -1.084518e+12   8.962995e+11   2.028212e+05   3.306327e-20   0.000000e+00   0.000000e+00
     1576000   1.575999e-05   5.050680e-02   2.309707e+00   1.670144e+01  -8.297635e+04  -1.850816e+05  -1.331843e+04   1.371679e+13  -6.197786e+12   4.999523e+11   2.032674e+05   3.339153e-20   0.000000e+00   0.000000e+00
     1584000   1.583999e-05   5.102971e-02   2.310478e+00   1.670179e+01  -1.420187e+05  -1.452402e+05  -1.535027e+04   1.078778e+13  -1.056838e+13   3.956166e+10   2.037147e+05   3.372430e-20   0.000000e+00   0.000000e+00
     1592000   1.591999e-05   5.179845e-02   2.311019e+00   1.670210e+01  -1.838530e+05  -8.746982e+04  -1.515415e+04   6.521956e+12  -1.366000e+13  -4.313292e+11   2.041631e+05   3.405847e-20   0.000000e+00   0.000000e+00
     1600000   1.599999e-05   5.271843e-02   2.311261e+00   1.670234e+01  -2.033437e+05  -1.879887e+04  -1.281458e+04   1.437786e+12  -1.509099e+13  -8.565777e+11   2.046125e+05   3.439076e-20   0.000000e+00   0.000000e+00
     1608000   1.607999e-05   5.367736e-02   2.311172e+00   1.670251e+01  -1.980594e+05   5.242230e+04  -8.673558e+03  -3.845550e+12  -1.468069e+13  -1.183502e+12   2.050630e+05   3.471805e-20   0.000000e+00   0.000000e+00
     1616000   1.615999e-05   5.455857e-02   2.310761e+00   1.670260e+01  -1.685651e+05   1.175210e+05  -3.298742e+03  -8.682490e+12  -1.247228e+13  -1.369513e+12   2.055146e+05   3.503774e-20   0.000000e+00   0.000000e+00
     1624000   1.623999e-05   5.525496e-02   2.310075e+00   1.670261e+01  -1.183609e+05   1.685423e+05   2.578222e+03  -1.247933e+13  -8.728647e+12  -1.388380e+12   2.059671e+05   3.534812e-20   0.000000e+00   0.000000e+00
     1632000   1.631999e-05   5.568176e-02   2.309195e+00   1.670253e+01  -5.347145e+04   1.992081e+05   8.149079e+03  -1.476678e+13  -3.901397e+12  -1.234873e+12   2.064206e+05   3.564864e-20   0.000000e+00   0.000000e+00
     1640000   1.639999e-05   5.578678e-02   2.308228e+00   1.670238e+01   1.826733e+04   2.056795e+05   1.263172e+04  -1.525777e+13   1.423473e+12  -9.265228e+11   2.068751e+05   3.594009e-20   0.000000e+00   0.000000e+00
     1648000   1.647999e-05   5.555683e-02   2.307290e+00   1.670215e+01   8.814066e+04   1.870316e+05   1.537346e+04  -1.388316e+13   6.596481e+12  -5.018117e+11   2.073305e+05   3.622457e-20   0.000000e+00   0.000000e+00
     1656000   1.655999e-05   5.501963e-02   2.306496e+00   1.670185e+01   1.475968e+05   1.453841e+05   1.593836e+04  -1.080095e+13   1.098329e+13  -1.488462e+10   2.077869e+05   3.650511e-20   0.000000e+00   0.000000e+00
     1664000   1.663999e-05   5.424093e-02   2.305947e+00   1.670150e+01   1.892761e+05   8.567109e+04   1.416454e+04  -6.378250e+12   1.404140e+13   4.722304e+11   2.082441e+05   3.678532e-20   0.000000e+00   0.000000e+00
     1672000   1.671999e-05   5.331711e-02   2.305712e+00   1.670110e+01   2.079076e+05   1.507783e+04   1.018311e+04  -1.148318e+12   1.538580e+13   8.983471e+11   2.087022e+05   3.706881e-20   0.000000e+00   0.000000e+00
     1680000   1.679999e-05   5.236405e-02   2.305825e+00   1.670067e+01   2.009702e+05  -5.779313e+04   4.397904e+03   4.251909e+12   1.483631e+13   1.211144e+12   2.091612e+05   3.735879e-20   0.000000e+00   0.000000e+00
     1688000   1.687999e-05   5.150351e-02   2.306279e+00   1.670021e+01   1.690406e+05  -1.239338e+05  -2.568197e+03   9.156681e+12   1.244147e+13   1.373234e+12   2.096209e+05   3.765773e-20   0.000000e+00   0.000000e+00
     1696000   1.695999e-05   5.084788e-02   2.307025e+00   1.669972e+01   1.157173e+05  -1.750358e+05  -1.030174e+04   1.295028e+13   8.469240e+12   1.333704e+12   2.100813e+05   3.793278e-20   0.000000e+00   0.000000e+00
     1704000   1.703999e-05   5.048812e-02   2.307984e+00   1.669918e+01   4.698291e+04  -2.045173e+05  -1.712385e+04   1.514859e+13   3.371133e+12   1.159081e+12   2.105420e+05   3.825277e-20   0.000000e+00   0.000000e+00
     1712000   1.711999e-05   5.048466e-02   2.309033e+00   1.669862e+01  -2.828852e+04  -2.078556e+05  -2.276535e+04   1.541635e+13  -2.201492e+12   8.369960e+11   2.110035e+05   3.858298e-20   0.000000e+00   0.000000e+00
     1720000   1.719999e-05   5.084992e-02   2.310043e+00   1.669803e+01  -1.004534e+05  -1.841752e+05  -2.657629e+04   1.368618e+13  -7.536406e+12   4.046231e+11   2.114656e+05   3.892132e-20   0.000000e+00   0.000000e+00
     1728000   1.727999e-05   5.154926e-02   2.310884e+00   1.669739e+01  -1.600143e+05  -1.360831e+05  -2.811428e+04   1.014742e+13  -1.193203e+13  -8.672146e+10   2.119283e+05   3.926443e-20   0.000000e+00   0.000000e+00
     1736000   1.735999e-05   5.250361e-02   2.311448e+00   1.669670e+01  -1.988574e+05  -6.946704e+04  -2.720764e+04   5.232586e+12  -1.478874e+13  -5.760390e+11   2.123916e+05   3.960786e-20   0.000000e+00   0.000000e+00
     1744000   1.743999e-05   5.359818e-02   2.311659e+00   1.669594e+01  -2.113780e+05   7.143395e+03  -2.399472e+04  -4.286531e+11  -1.569277e+13  -9.988148e+11   2.128554e+05   3.994666e-20   0.000000e+00   0.000000e+00
     1752000   1.751999e-05   5.469622e-02   2.311488e+00   1.669511e+01  -1.953397e+05   8.360277e+04  -1.892996e+04  -6.084870e+12  -1.448094e+13  -1.294987e+12   2.133199e+05   4.027611e-20   0.000000e+00   0.000000e+00
     1760000   1.759999e-05   5.565657e-02   2.310955e+00   1.669419e+01  -1.523294e+05   1.494563e+05  -1.274741e+04  -1.096017e+13  -1.127514e+13  -1.418084e+12   2.137848e+05   4.059265e-20   0.000000e+00   0.000000e+00
     1768000   1.767999e-05   5.635274e-02   2.310134e+00   1.669319e+01  -8.771418e+04   1.953681e+05  -6.377767e+03  -1.436132e+13  -6.478860e+12  -1.343994e+12   2.142502e+05   4.089461e-20   0.000000e+00   0.000000e+00
     1776000   1.775999e-05   5.669123e-02   2.309140e+00   1.669209e+01  -1.006577e+04   2.144785e+05  -8.239043e+02  -1.577977e+13  -7.330154e+11  -1.077190e+12   2.147161e+05   4.118262e-20   0.000000e+00   0.000000e+00
     1784000   1.783999e-05   5.662621e-02   2.308118e+00   1.669092e+01   6.990341e+04   2.034898e+05   2.988818e+03  -1.497278e+13   5.165425e+12  -6.523530e+11   2.151825e+05   4.145946e-20   0.000000e+00   0.000000e+00
     1792000   1.791999e-05   5.616840e-02   2.307223e+00   1.668967e+01   1.407737e+05   1.633046e+05   4.361728e+03  -1.201002e+13   1.037192e+13  -1.302642e+11   2.156494e+05   4.172947e-20   0.000000e+00   0.000000e+00
     1800000   1.799999e-05   5.538639e-02   2.306598e+00   1.668836e+01   1.920374e+05   9.909278e+04   2.942675e+03  -7.276703e+12   1.411517e+13   4.115889e+11   2.161166e+05   4.199764e-20   0.000000e+00   0.000000e+00
     1808000   1.807999e-05   5.439961e-02   2.306350e+00   1.668701e+01   2.156792e+05   1.974235e+04  -1.207687e+03  -1.430732e+12   1.581296e+13   8.917096e+11   2.165842e+05   4.226888e-20   0.000000e+00   0.000000e+00
     1816000   1.815999e-05   5.336339e-02   2.306539e+00   1.668562e+01   2.074870e+05  -6.326770e+04  -7.615672e+03   4.682123e+12   1.516602e+13   1.237730e+12   2.170522e+05   4.254751e-20   0.000000e+00   0.000000e+00
     1824000   1.823999e-05   5.244762e-02   2.307157e+00   1.668422e+01   1.678826e+05  -1.374468e+05  -1.545867e+04   1.014478e+13   1.221557e+13   1.397294e+12   2.175205e+05   4.283700e-20   0.000000e+00   0.000000e+00
     1832000   1.831999e-05   5.181168e-02   2.308135e+00   1.668280e+01   1.021171e+05  -1.911297e+05  -2.368011e+04   1.410262e+13   7.354790e+12   1.345075e+12   2.179891e+05   4.313978e-20   0.000000e+00   0.000000e+00
     1840000   1.839999e-05   5.157910e-02   2.309342e+00   1.668136e+01   1.974893e+04  -2.153238e+05  -3.113614e+04   1.589709e+13   1.289174e+12   1.085714e+12   2.184579e+05   4.345685e-20   0.000000e+00   0.000000e+00
     1848000   1.847999e-05   5.181565e-02   2.310606e+00   1.667990e+01  -6.658395e+04  -2.052914e+05  -3.675574e+04   1.518021e+13  -5.053008e+12   6.534141e+11   2.189268e+05   4.378718e-20   0.000000e+00   0.000000e+00
     1856000   1.855999e-05   5.251494e-02   2.311737e+00   1.667841e+01  -1.429849e+05  -1.615979e+05  -3.969912e+04   1.199127e+13  -1.065279e+13   1.089561e+11   2.193960e+05   4.412699e-20   0.000000e+00   0.000000e+00
     1864000   1.863999e-05   5.359438e-02   2.312559e+00   1.667686e+01  -1.964916e+05  -9.039611e+04  -3.950074e+04   6.779027e+12  -1.456036e+13  -4.659091e+11   2.198652e+05   4.446957e-20   0.000000e+00   0.000000e+00
     1872000   1.871999e-05   5.490361e-02   2.312940e+00   1.667525e+01  -2.173258e+05  -2.801546e+03  -3.617920e+04   3.578642e+11  -1.606049e+13  -9.776105e+11   2.203345e+05   4.480608e-20   0.000000e+00   0.000000e+00
     1880000   1.879999e-05   5.624537e-02   2.312815e+00   1.667355e+01  -2.008194e+05   8.665167e+04  -3.028904e+04  -6.204417e+12  -1.481547e+13  -1.334333e+12   2.208039e+05   4.512749e-20   0.000000e+00   0.000000e+00
     1888000   1.887999e-05   5.740666e-02   2.312207e+00   1.667175e+01  -1.486269e+05   1.623212e+05  -2.288605e+04  -1.175702e+13  -1.095541e+13  -1.463370e+12   2.212733e+05   4.542712e-20   0.000000e+00   0.000000e+00
     1896000   1.895999e-05   5.819588e-02   2.311228e+00   1.666984e+01  -6.890618e+04   2.102024e+05  -1.538632e+04  -1.527027e+13  -5.090600e+12  -1.329010e+12   2.217427e+05   4.570267e-20   0.000000e+00   0.000000e+00
     1904000   1.903999e-05   5.847958e-02   2.310062e+00   1.666783e+01   2.469919e+04   2.206383e+05  -9.323849e+03  -1.603712e+13   1.767149e+12  -9.454419e+11   2.222122e+05   4.595690e-20   0.000000e+00   0.000000e+00
     1912000   1.911999e-05   5.821191e-02   2.308942e+00   1.666573e+01   1.152218e+05   1.904586e+05  -6.046266e+03  -1.383051e+13   8.368745e+12  -3.790869e+11   2.226816e+05   4.619663e-20   0.000000e+00   0.000000e+00
     1920000   1.919999e-05   5.745014e-02   2.308104e+00   1.666356e+01   1.853765e+05   1.240593e+05  -6.418086e+03  -8.979764e+12   1.345275e+13   2.624383e+11   2.231509e+05   4.643041e-20   0.000000e+00   0.000000e+00
     1928000   1.927999e-05   5.635145e-02   2.307743e+00   1.666133e+01   2.209028e+05   3.309680e+04  -1.060968e+04  -2.342953e+12   1.599038e+13   8.526711e+11   2.236202e+05   4.666641e-20   0.000000e+00   0.000000e+00
     1936000   1.935999e-05   5.514963e-02   2.307974e+00   1.665908e+01   2.136091e+05  -6.528482e+04  -1.802983e+04   4.827395e+12   1.540315e+13   1.273553e+12   2.240894e+05   4.691146e-20   0.000000e+00   0.000000e+00
     1944000   1.943999e-05   5.411391e-02   2.308796e+00   1.665682e+01   1.634796e+05  -1.514896e+05  -2.741862e+04   1.110730e+13   1.170849e+13   1.439771e+12   2.245584e+05   4.717116e-20   0.000000e+00   0.000000e+00
     1952000   1.951999e-05   5.349620e-02   2.310091e+00   1.665455e+01   7.931646e+04  -2.072958e+05  -3.707533e+04   1.517731e+13   5.559389e+12   1.314685e+12   2.250272e+05   4.744989e-20   0.000000e+00   0.000000e+00
     1960000   1.959999e-05   5.347648e-02   2.311631e+00   1.665228e+01  -2.238308e+04  -2.197882e+05  -4.517153e+04   1.610348e+13  -1.840340e+12   9.165932e+11   2.254957e+05   4.774975e-20   0.000000e+00   0.000000e+00
     1968000   1.967999e-05   5.411751e-02   2.313122e+00   1.664998e+01  -1.203130e+05  -1.845930e+05  -5.009874e+04   1.356870e+13  -8.944115e+12   3.171280e+11   2.259639e+05   4.806808e-20   0.000000e+00   0.000000e+00
     1976000   1.975999e-05   5.534040e-02   2.314264e+00   1.664765e+01  -1.926366e+05  -1.076152e+05  -5.080765e+04   7.998976e+12  -1.417003e+13  -3.667435e+11   2.264317e+05   4.839531e-20   0.000000e+00   0.000000e+00
     1984000   1.983999e-05   5.692965e-02   2.314816e+00   1.664524e+01  -2.219096e+05  -4.650074e+03  -4.709265e+04   5.384888e+11  -1.625718e+13  -9.885705e+11   2.268992e+05   4.871548e-20   0.000000e+00   0.000000e+00
     1992000   1.991999e-05   5.857085e-02   2.314661e+00   1.664273e+01  -1.995872e+05   1.013901e+05  -3.975372e+04  -7.148885e+12  -1.459500e+13  -1.399202e+12   2.273662e+05   4.901108e-20   0.000000e+00   0.000000e+00
     2000000   1.999999e-05   5.991714e-02   2.313843e+00   1.664009e+01  -1.289282e+05   1.853431e+05  -3.054853e+04  -1.323425e+13  -9.436236e+12  -1.484113e+12   2.278327e+05   4.927010e-20   0.000000e+00   0.000000e+00
     2008000   2.007999e-05   6.067181e-02   2.312572e+00   1.663733e+01  -2.528403e+04   2.258381e+05  -2.186904e+04  -1.616738e+13  -1.914675e+12  -1.202372e+12   2.282989e+05   4.949148e-20   0.000000e+00   0.000000e+00
     2016000   2.015999e-05   6.066801e-02   2.311189e+00   1.663445e+01   8.670916e+04   2.110770e+05  -1.616308e+04  -1.510036e+13   6.168997e+12  -6.107246e+11   2.287645e+05   4.968506e-20   0.000000e+00   0.000000e+00
     2024000   2.023999e-05   5.992394e-02   2.310086e+00   1.663147e+01   1.787148e+05   1.427407e+05  -1.524384e+04  -1.016795e+13   1.276442e+13   1.426580e+11   2.292297e+05   4.986628e-20   0.000000e+00   0.000000e+00
     2032000   2.031999e-05   5.865491e-02   2.309608e+00   1.662844e+01   2.258847e+05   3.669923e+04  -1.971731e+04  -2.528583e+12   1.609681e+13   8.576201e+11   2.296944e+05   5.004959e-20   0.000000e+00   0.000000e+00
     2040000   2.039999e-05   5.723318e-02   2.309956e+00   1.662539e+01   2.138626e+05  -8.006108e+04  -2.873924e+04   5.869467e+12   1.516430e+13   1.340581e+12   2.301585e+05   5.024589e-20   0.000000e+00   0.000000e+00
     2048000   2.047999e-05   5.609946e-02   2.311119e+00   1.662235e+01   1.436404e+05  -1.758942e+05  -4.018885e+04   1.275762e+13   1.006972e+13   1.459146e+12   2.306220e+05   5.046394e-20   0.000000e+00   0.000000e+00
     2056000   2.055999e-05   5.564463e-02   2.312855e+00   1.661932e+01   3.265242e+04  -2.229645e+05  -5.119417e+04   1.614926e+13   2.083174e+12   1.175398e+12   2.310848e+05   5.071141e-20   0.000000e+00   0.000000e+00
     2064000   2.063999e-05   5.609135e-02   2.314740e+00   1.661630e+01  -8.870957e+04  -2.056222e+05  -5.885653e+04   1.492932e+13  -6.612598e+12   5.548016e+11   2.315469e+05   5.099070e-20   0.000000e+00   0.000000e+00
     2072000   2.071999e-05   5.741091e-02   2.316276e+00   1.661326e+01  -1.848390e+05  -1.262477e+05  -6.102333e+04   9.267256e+12  -1.347161e+13  -2.436022e+11   2.320082e+05   5.129125e-20   0.000000e+00   0.000000e+00
     2080000   2.079999e-05   5.930654e-02   2.317039e+00   1.661014e+01  -2.252882e+05  -6.369200e+03  -5.697636e+04   7.010684e+11  -1.632241e+13  -9.944609e+11   2.324686e+05   5.158665e-20   0.000000e+00   0.000000e+00
     2088000   2.087999e-05   6.127976e-02   2.316816e+00   1.660689e+01  -1.949435e+05   1.181601e+05  -4.786159e+04  -8.201595e+12  -1.409918e+13  -1.458257e+12   2.329281e+05   5.184448e-20   0.000000e+00   0.000000e+00
     2096000   2.095999e-05   6.277201e-02   2.315700e+00   1.660350e+01  -1.005537e+05   2.074069e+05  -3.661592e+04  -1.457903e+13  -7.312936e+12  -1.460008e+12   2.333868e+05   5.204481e-20   0.000000e+00   0.000000e+00
     2104000   2.103999e-05   6.334565e-02   2.314090e+00   1.659995e+01   2.933413e+04   2.304025e+05  -2.715741e+04  -1.622084e+13   1.965371e+12  -9.454728e+11   2.338446e+05   5.219333e-20   0.000000e+00   0.000000e+00
     2112000   2.111999e-05   6.283280e-02   2.312569e+00   1.659631e+01   1.524634e+05   1.763810e+05  -2.327941e+04  -1.237528e+13   1.069437e+13  -1.361102e+11   2.343017e+05   5.233170e-20   0.000000e+00   0.000000e+00
     2120000   2.119999e-05   6.145626e-02   2.311761e+00   1.659259e+01   2.250844e+05   6.115903e+04  -2.660620e+04  -4.191594e+12   1.578313e+13   7.196191e+11   2.347580e+05   5.246872e-20   0.000000e+00   0.000000e+00
     2128000   2.127999e-05   5.975862e-02   2.312059e+00   1.658887e+01   2.194668e+05  -7.638363e+04  -3.640401e+04   5.557752e+12   1.530779e+13   1.313259e+12   2.352135e+05   5.262278e-20   0.000000e+00   0.000000e+00
     2136000   2.135999e-05   5.843705e-02   2.313479e+00   1.658518e+01   1.347705e+05  -1.868713e+05  -4.955348e+04   1.338256e+13   9.257769e+12   1.430660e+12   2.356682e+05   5.280749e-20   0.000000e+00   0.000000e+00
     2144000   2.143999e-05   5.809535e-02   2.315617e+00   1.658153e+01  -3.591593e+02  -2.279438e+05  -6.160439e+04   1.630404e+13  -3.141115e+11   1.023861e+12   2.361220e+05   5.303547e-20   0.000000e+00   0.000000e+00
     2152000   2.151999e-05   5.900284e-02   2.317768e+00   1.657791e+01  -1.360908e+05  -1.810626e+05  -6.828804e+04   1.302044e+13  -9.885969e+12   2.247129e+11   2.365748e+05   5.330813e-20   0.000000e+00   0.000000e+00
     2160000   2.159999e-05   6.095581e-02   2.319174e+00   1.657425e+01  -2.189873e+05  -6.107016e+04  -6.705631e+04   4.574819e+12  -1.569556e+13  -6.856115e+11   2.370265e+05   5.359895e-20   0.000000e+00   0.000000e+00
     2168000   2.167999e-05   6.331411e-02   2.319328e+00   1.657047e+01  -2.133393e+05   8.652967e+04  -5.826109e+04  -5.824993e+12  -1.524019e+13  -1.350975e+12   2.374771e+05   5.385705e-20   0.000000e+00   0.000000e+00
     2176000   2.175999e-05   6.522608e-02   2.318211e+00   1.656652e+01  -1.178940e+05   2.016014e+05  -4.546373e+04  -1.393166e+13  -8.465485e+12  -1.470925e+12   2.379267e+05   5.404091e-20   0.000000e+00   0.000000e+00
     2184000   2.183999e-05   6.597403e-02   2.316347e+00   1.656239e+01   3.026853e+04   2.339375e+05  -3.434795e+04  -1.620705e+13   1.967875e+12  -9.572199e+11   2.383752e+05   5.415130e-20   0.000000e+00   0.000000e+00
     2192000   2.191999e-05   6.530317e-02   2.314625e+00   1.655811e+01   1.686235e+05   1.663862e+05  -3.029837e+04  -1.146655e+13   1.163365e+13  -1.715576e+10   2.388226e+05   5.422607e-20   0.000000e+00   0.000000e+00
     2200000   2.199999e-05   6.357888e-02   2.313930e+00   1.655376e+01   2.352152e+05   2.542599e+04  -3.573526e+04  -1.600489e+12   1.621111e+13   9.251909e+11   2.392691e+05   5.430531e-20   0.000000e+00   0.000000e+00
     2208000   2.207999e-05   6.167485e-02   2.314736e+00   1.654943e+01   1.971252e+05  -1.273852e+05  -4.876109e+04   9.072371e+12   1.346763e+13   1.438843e+12   2.397144e+05   5.441300e-20   0.000000e+00   0.000000e+00
     2216000   2.215999e-05   6.060892e-02   2.316850e+00   1.654518e+01   6.823585e+04  -2.212126e+05  -6.391399e+04   1.562667e+13   4.435519e+12   1.290035e+12   2.401585e+05   5.456879e-20   0.000000e+00   0.000000e+00
     2224000   2.223999e-05   6.106768e-02   2.319438e+00   1.654099e+01  -9.332371e+04  -2.088619e+05  -7.454162e+04   1.479522e+13  -6.814367e+12   5.347473e+11   2.406014e+05   5.478869e-20   0.000000e+00   0.000000e+00
     2232000   2.231999e-05   6.303648e-02   2.321377e+00   1.653680e+01  -2.095056e+05  -9.206976e+04  -7.571180e+04   6.698244e+12  -1.485952e+13  -5.001309e+11   2.410429e+05   5.505252e-20   0.000000e+00   0.000000e+00
     2240000   2.239999e-05   6.573796e-02   2.321798e+00   1.653249e+01  -2.197957e+05   7.453301e+04  -6.669874e+04  -4.871199e+12  -1.551178e+13  -1.321339e+12   2.414830e+05   5.528851e-20   0.000000e+00   0.000000e+00
     2248000   2.247999e-05   6.796172e-02   2.320559e+00   1.652799e+01  -1.145695e+05   2.066286e+05  -5.200572e+04  -1.404421e+13  -8.146386e+12  -1.478612e+12   2.419217e+05   5.542691e-20   0.000000e+00   0.000000e+00
     2256000   2.255999e-05   6.867112e-02   2.318398e+00   1.652326e+01   5.474726e+04   2.327276e+05  -3.973061e+04  -1.585502e+13   3.597678e+12  -8.404206e+11   2.423591e+05   5.546872e-20   0.000000e+00   0.000000e+00
     2264000   2.263999e-05   6.758965e-02   2.316608e+00   1.651837e+01   1.984616e+05   1.348102e+05  -3.726512e+04  -9.087707e+12   1.347058e+13   2.621425e+11   2.427952e+05   5.547534e-20   0.000000e+00   0.000000e+00
     2272000   2.271999e-05   6.542600e-02   2.316363e+00   1.651344e+01   2.358070e+05  -3.703110e+04  -4.673940e+04   2.754284e+12   1.594509e+13   1.206310e+12   2.432299e+05   5.550043e-20   0.000000e+00   0.000000e+00
     2280000   2.279999e-05   6.355609e-02   2.318031e+00   1.650859e+01   1.418043e+05  -1.877032e+05  -6.348897e+04   1.311979e+13   9.403611e+12   1.460511e+12   2.436633e+05   5.557205e-20   0.000000e+00   0.000000e+00
     2288000   2.287999e-05   6.327792e-02   2.320892e+00   1.650385e+01  -3.363011e+04  -2.286440e+05  -7.857076e+04   1.595626e+13  -2.660861e+12   8.801573e+11   2.440951e+05   5.571992e-20   0.000000e+00   0.000000e+00
     2296000   2.295999e-05   6.502539e-02   2.323462e+00   1.649917e+01  -1.889377e+05  -1.309299e+05  -8.338163e+04   9.277270e+12  -1.326413e+13  -2.251871e+11   2.445253e+05   5.583093e-20   0.000000e+00   0.000000e+00
     2304000   2.303999e-05   6.802424e-02   2.324324e+00   1.649436e+01  -2.273107e+05   5.151618e+04  -7.535163e+04  -3.197620e+12  -1.582855e+13  -1.210268e+12   2.449530e+05   5.606421e-20   0.000000e+00   0.000000e+00
     2312000   2.311999e-05   7.063604e-02   2.323053e+00   1.648933e+01  -1.194510e+05   2.059840e+05  -5.927041e+04  -1.376299e+13  -8.387072e+12  -1.454651e+12   2.453791e+05   5.618348e-20   0.000000e+00   0.000000e+00
     2320000   2.319999e-05   7.137141e-02   2.320592e+00   1.648405e+01   6.977961e+04   2.311838e+05  -4.587374e+04  -1.548622e+13   4.537928e+12  -7.441378e+11   2.458039e+05   5.618230e-20   0.000000e+00   0.000000e+00
     2328000   2.327999e-05   6.990199e-02   2.318740e+00   1.647859e+01   2.175666e+05   1.061990e+05  -4.488236e+04  -6.981804e+12   1.452411e+13   4.643136e+11   2.462273e+05   5.614734e-20   0.000000e+00   0.000000e+00
     2336000   2.335999e-05   6.738212e-02   2.318992e+00   1.647313e+01   2.226186e+05  -8.908513e+04  -5.779847e+04   6.267274e+12   1.476272e+13   1.340568e+12   2.466493e+05   5.614557e-20   0.000000e+00   0.000000e+00
     2344000   2.343999e-05   6.576730e-02   2.321476e+00   1.646781e+01   7.689473e+04  -2.219787e+05  -7.652539e+04   1.527721e+13   4.834784e+12   1.292815e+12   2.470698e+05   5.621236e-20   0.000000e+00   0.000000e+00
     2352000   2.351999e-05   6.649386e-02   2.324747e+00   1.646263e+01  -1.217063e+05  -1.963656e+05  -8.876242e+04   1.358224e+13  -8.587953e+12   3.464370e+11   2.474887e+05   5.638371e-20   0.000000e+00   0.000000e+00
     2360000   2.359999e-05   6.939153e-02   2.326701e+00   1.645745e+01  -2.311342e+05  -2.500881e+04  -8.607460e+04   2.038856e+12  -1.592475e+13  -8.780221e+11   2.479058e+05   5.661231e-20   0.000000e+00   0.000000e+00
     2368000   2.367999e-05   7.266571e-02   2.326083e+00   1.645207e+01  -1.667524e+05   1.700903e+05  -7.018772e+04  -1.112140e+13  -1.150432e+13  -1.493625e+12   2.483211e+05   5.674497e-20   0.000000e+00   0.000000e+00
     2376000   2.375999e-05   7.412416e-02   2.323525e+00   1.644638e+01   2.853906e+04   2.412859e+05  -5.325065e+04  -1.592171e+13   1.679543e+12  -9.711324e+11   2.487348e+05   5.671342e-20   0.000000e+00   0.000000e+00
     2384000   2.383999e-05   7.286149e-02   2.321215e+00   1.644046e+01   2.071654e+05   1.293216e+05  -4.932133e+04  -8.407552e+12   1.360860e+13   3.157451e+11   2.491469e+05   5.661746e-20   0.000000e+00   0.000000e+00
     2392000   2.391999e-05   7.009038e-02   2.321277e+00   1.643453e+01   2.270767e+05  -8.250841e+04  -6.250958e+04   5.765086e+12   1.482771e+13   1.330308e+12   2.495574e+05   5.655712e-20   0.000000e+00   0.000000e+00
     2400000   2.399999e-05   6.832333e-02   2.324034e+00   1.642878e+01   6.737989e+04  -2.259131e+05  -8.310467e+04   1.535257e+13   4.101043e+12   1.268692e+12   2.499663e+05   5.657852e-20   0.000000e+00   0.000000e+00
     2408000   2.407999e-05   6.939315e-02   2.327596e+00   1.642320e+01  -1.456839e+05  -1.799950e+05  -9.520925e+04   1.233477e+13  -1.008966e+13   1.740422e+11   2.503733e+05   5.672917e-20   0.000000e+00   0.000000e+00
     2416000   2.415999e-05   7.284003e-02   2.329278e+00   1.641759e+01  -2.333163e+05   2.302298e+04  -8.901256e+04  -1.154330e+12  -1.585874e+13  -1.104696e+12   2.507783e+05   5.692948e-20   0.000000e+00   0.000000e+00
     2424000   2.423999e-05   7.610987e-02   2.327866e+00   1.641171e+01  -1.149092e+05   2.122506e+05  -6.955296e+04  -1.374022e+13  -7.906370e+12  -1.463461e+12   2.511814e+05   5.697617e-20   0.000000e+00   0.000000e+00
     2432000   2.431999e-05   7.665390e-02   2.324836e+00   1.640548e+01   1.110676e+05   2.190634e+05  -5.448888e+04  -1.419938e+13   7.084304e+12  -5.083448e+11   2.515826e+05   5.684752e-20   0.000000e+00   0.000000e+00
     2440000   2.439999e-05   7.425996e-02   2.323228e+00   1.639907e+01   2.428482e+05   3.191832e+04  -5.916881e+04  -1.838754e+12   1.568863e+13   8.740075e+11   2.519821e+05   5.662324e-20   0.000000e+00   0.000000e+00
     2448000   2.447999e-05   7.141645e-02   2.324936e+00   1.639279e+01   1.555852e+05  -1.822327e+05  -7.924551e+04   1.226403e+13   9.842483e+12   1.413164e+12   2.523794e+05   5.657501e-20   0.000000e+00   0.000000e+00
     2456000   2.455999e-05   7.123020e-02   2.328833e+00   1.638676e+01  -7.514410e+04  -2.207439e+05  -9.757390e+04   1.483132e+13  -5.338777e+12   6.305755e+11   2.527749e+05   5.665933e-20   0.000000e+00   0.000000e+00
     2464000   2.463999e-05   7.438292e-02   2.331579e+00   1.638081e+01  -2.301125e+05  -4.079498e+04  -9.735655e+04   3.059222e+12  -1.546011e+13  -7.781732e+11   2.531685e+05   5.686131e-20   0.000000e+00   0.000000e+00
     2472000   2.471999e-05   7.828323e-02   2.330791e+00   1.637464e+01  -1.531481e+05   1.861699e+05  -7.860728e+04  -1.182097e+13  -1.032967e+13  -1.465511e+12   2.535600e+05   5.694687e-20   0.000000e+00   0.000000e+00
     2480000   2.479999e-05   7.943907e-02   2.327547e+00   1.636806e+01   8.477925e+04   2.316254e+05  -6.043715e+04  -1.480437e+13   5.256536e+12  -6.623139e+11   2.539498e+05   5.681267e-20   0.000000e+00   0.000000e+00
     2488000   2.487999e-05   7.701902e-02   2.325532e+00   1.636126e+01   2.425125e+05   4.394223e+04  -6.280549e+04  -2.575016e+12   1.544106e+13   8.213286e+11   2.543379e+05   5.663904e-20   0.000000e+00   0.000000e+00
     2496000   2.495999e-05   7.392407e-02   2.327329e+00   1.635459e+01   1.526190e+05  -1.856870e+05  -8.433399e+04   1.234769e+13   9.492783e+12   1.415341e+12   2.547242e+05   5.654545e-20   0.000000e+00   0.000000e+00
     2504000   2.503999e-05   7.393317e-02   2.331567e+00   1.634823e+01  -9.530572e+04  -2.128752e+05  -1.033510e+05   1.415318e+13  -6.598167e+12   5.153905e+11   2.551087e+05   5.660794e-20   0.000000e+00   0.000000e+00
     2512000   2.511999e-05   7.763497e-02   2.334136e+00   1.634194e+01  -2.350378e+05  -1.840934e+03  -1.001474e+05   5.249820e+11  -1.558721e+13  -9.699441e+11   2.554910e+05   5.679252e-20   0.000000e+00   0.000000e+00
     2520000   2.519999e-05   8.152353e-02   2.332572e+00   1.633534e+01  -1.070728e+05   2.189033e+05  -7.801797e+04  -1.375790e+13  -7.224182e+12  -1.419343e+12   2.558712e+05   5.679953e-20   0.000000e+00   0.000000e+00
     2528000   2.527999e-05   8.169441e-02   2.329008e+00   1.632829e+01   1.501965e+05   1.979479e+05  -6.262130e+04  -1.241731e+13   9.359415e+12  -2.360043e+11   2.562494e+05   5.658398e-20   0.000000e+00   0.000000e+00
     2536000   2.535999e-05   7.838013e-02   2.328022e+00   1.632112e+01   2.415842e+05  -4.615720e+04  -7.323593e+04   3.259895e+12   1.510646e+13   1.199745e+12   2.566260e+05   5.638146e-20   0.000000e+00   0.000000e+00
     2544000   2.543999e-05   7.595935e-02   2.331370e+00   1.631422e+01   5.551782e+04  -2.307706e+05  -9.854967e+04   1.510302e+13   3.108195e+12   1.205631e+12   2.570006e+05   5.629782e-20   0.000000e+00   0.000000e+00
     2552000   2.551999e-05   7.795891e-02   2.335675e+00   1.630761e+01  -1.915165e+05  -1.323377e+05  -1.097684e+05   8.865397e+12  -1.266430e+13  -2.213354e+11   2.573732e+05   5.641714e-20   0.000000e+00   0.000000e+00
     2560000   2.559999e-05   8.265662e-02   2.336210e+00   1.630089e+01  -1.976122e+05   1.364603e+05  -9.359272e+04  -8.287174e+12  -1.296453e+13  -1.430518e+12   2.577433e+05   5.652589e-20   0.000000e+00   0.000000e+00
     2568000   2.567999e-05   8.483513e-02   2.332726e+00   1.629363e+01   5.226695e+04   2.425781e+05  -7.102830e+04  -1.506660e+13   3.014636e+12  -8.245776e+11   2.581105e+05   5.620452e-20   0.000000e+00   0.000000e+00
     2576000   2.575999e-05   8.224788e-02   2.330155e+00   1.628606e+01   2.440410e+05   4.597277e+04  -7.169552e+04  -2.598183e+12   1.508902e+13   7.987986e+11   2.584759e+05   5.595832e-20   0.000000e+00   0.000000e+00
     2584000   2.583999e-05   7.878204e-02   2.332464e+00   1.627867e+01   1.271556e+05  -2.038574e+05  -9.628869e+04   1.320621e+13   7.588685e+12   1.349032e+12   2.588395e+05   5.581634e-20   0.000000e+00   0.000000e+00
     2592000   2.591999e-05   7.967134e-02   2.337324e+00   1.627168e+01  -1.505675e+05  -1.776208e+05  -1.138663e+05   1.160530e+13  -9.937184e+12   1.346697e+11   2.592012e+05   5.588559e-20   0.000000e+00   0.000000e+00
     2600000   2.599999e-05   8.451696e-02   2.338857e+00   1.626468e+01  -2.184526e+05   9.644484e+04  -1.017276e+05  -5.645373e+12  -1.413650e+13  -1.302305e+12   2.595605e+05   5.603053e-20   0.000000e+00   0.000000e+00
     2608000   2.607999e-05   8.745275e-02   2.335490e+00   1.625718e+01   2.237943e+04   2.474572e+05  -7.629738e+04  -1.516485e+13   1.081714e+12  -9.701980e+11   2.599177e+05   5.586625e-20   0.000000e+00   0.000000e+00
     2616000   2.615999e-05   8.502753e-02   2.332468e+00   1.624927e+01   2.417140e+05   6.150474e+04  -7.438823e+04  -3.518633e+12   1.474211e+13   7.246374e+11   2.602731e+05   5.557304e-20   0.000000e+00   0.000000e+00
     2624000   2.623999e-05   8.129161e-02   2.334775e+00   1.624157e+01   1.279525e+05  -2.037977e+05  -1.001048e+05   1.305587e+13   7.521662e+12   1.352041e+12   2.606268e+05   5.539109e-20   0.000000e+00   0.000000e+00
     2632000   2.631999e-05   8.237390e-02   2.339907e+00   1.623430e+01  -1.616474e+05  -1.674471e+05  -1.180732e+05   1.085059e+13  -1.052268e+13   4.859639e+10   2.609783e+05   5.544496e-20   0.000000e+00   0.000000e+00
     2640000   2.639999e-05   8.759200e-02   2.341090e+00   1.622701e+01  -2.053965e+05   1.245126e+05  -1.029604e+05  -7.300378e+12  -1.315867e+13  -1.371710e+12   2.613274e+05   5.555998e-20   0.000000e+00   0.000000e+00
     2648000   2.647999e-05   9.002780e-02   2.337171e+00   1.621913e+01   6.825621e+04   2.405258e+05  -7.721302e+04  -1.452724e+13   3.890936e+12  -7.507931e+11   2.616742e+05   5.532096e-20   0.000000e+00   0.000000e+00
     2656000   2.655999e-05   8.671502e-02   2.334754e+00   1.621089e+01   2.490101e+05   5.761158e+02  -8.153387e+04   3.041012e+11   1.495725e+13   1.006859e+12   2.620193e+05   5.499782e-20   0.000000e+00   0.000000e+00
     2664000   2.663999e-05   8.348806e-02   2.338393e+00   1.620299e+01   5.633995e+04  -2.310998e+05  -1.106924e+05   1.460223e+13   2.986270e+12   1.177381e+12   2.623625e+05   5.482407e-20   0.000000e+00   0.000000e+00
     2672000   2.671999e-05   8.628698e-02   2.343313e+00   1.619555e+01  -2.155278e+05  -9.068488e+04  -1.197381e+05   6.010889e+12  -1.368276e+13  -4.754504e+11   2.627036e+05   5.497806e-20   0.000000e+00   0.000000e+00
     2680000   2.679999e-05   9.167601e-02   2.342440e+00   1.618788e+01  -1.319588e+05   2.064132e+05  -9.576920e+04  -1.223415e+13  -8.455289e+12  -1.389907e+12   2.630423e+05   5.500222e-20   0.000000e+00   0.000000e+00
     2688000   2.687999e-05   9.179472e-02   2.337879e+00   1.617954e+01   1.780088e+05   1.780582e+05  -7.730935e+04  -1.051828e+13   1.051606e+13  -2.701641e+10   2.633792e+05   5.467957e-20   0.000000e+00   0.000000e+00
     2696000   2.695999e-05   8.723860e-02   2.337943e+00   1.617114e+01   2.056597e+05  -1.338759e+05  -9.657444e+04   8.495524e+12   1.206500e+13   1.343812e+12   2.637144e+05   5.440296e-20   0.000000e+00   0.000000e+00
     2704000   2.703999e-05   8.649261e-02   2.343481e+00   1.616328e+01  -9.956847e+04  -2.114722e+05  -1.228285e+05   1.326679e+13  -6.526631e+12   4.645362e+11   2.640477e+05   5.436096e-20   0.000000e+00   0.000000e+00
     2712000   2.711999e-05   9.187536e-02   2.346046e+00   1.615559e+01  -2.244446e+05   8.194478e+04  -1.131623e+05  -4.513458e+12  -1.403465e+13  -1.230384e+12   2.643786e+05   5.450619e-20   0.000000e+00   0.000000e+00
     2720000   2.719999e-05   9.517619e-02   2.342017e+00   1.614727e+01   5.102937e+04   2.457039e+05  -8.423484e+04  -1.446522e+13   2.731566e+12  -8.211375e+11   2.647072e+05   5.427257e-20   0.000000e+00   0.000000e+00
     2728000   2.727999e-05   9.154414e-02   2.339262e+00   1.613850e+01   2.496888e+05  -9.773193e+03  -8.833524e+04   9.429155e+11   1.461009e+13   1.024441e+12   2.650342e+05   5.390997e-20   0.000000e+00   0.000000e+00
     2736000   2.735999e-05   8.833979e-02   2.343665e+00   1.613017e+01   1.759659e+04  -2.361721e+05  -1.197024e+05   1.458790e+13   5.632276e+11   1.015328e+12   2.653593e+05   5.373169e-20   0.000000e+00   0.000000e+00
     2744000   2.743999e-05   9.242297e-02   2.348385e+00   1.612229e+01  -2.337206e+05  -2.470003e+04  -1.239013e+05   1.955993e+12  -1.447940e+13  -8.204575e+11   2.656820e+05   5.386186e-20   0.000000e+00   0.000000e+00
     2752000   2.751999e-05   9.753607e-02   2.345746e+00   1.611395e+01  -4.350679e+04   2.451467e+05  -9.363497e+04  -1.424205e+13  -2.977306e+12  -1.200213e+12   2.660023e+05   5.373664e-20   0.000000e+00   0.000000e+00
     2760000   2.759999e-05   9.527103e-02   2.341530e+00   1.610493e+01   2.414439e+05   7.207518e+04  -8.623659e+04  -3.924857e+12   1.396983e+13   6.625393e+11   2.663208e+05   5.332423e-20   0.000000e+00   0.000000e+00
     2768000   2.767999e-05   9.088141e-02   2.344716e+00   1.609619e+01   8.512456e+04  -2.236279e+05  -1.176421e+05   1.365842e+13   4.564015e+12   1.189522e+12   2.666370e+05   5.289323e-20   0.000000e+00   0.000000e+00
     2776000   2.775999e-05   9.389824e-02   2.350401e+00   1.608802e+01  -2.199266e+05  -7.820286e+04  -1.295343e+05   5.102544e+12  -1.350540e+13  -5.258181e+11   2.669504e+05   5.299504e-20   0.000000e+00   0.000000e+00
     2784000   2.783999e-05   9.976546e-02   2.348632e+00   1.607950e+01  -8.316920e+04   2.330547e+05  -1.009803e+05  -1.334979e+13  -5.304044e+12  -1.266789e+12   2.672614e+05   5.292652e-20   0.000000e+00   0.000000e+00
     2792000   2.791999e-05   9.813257e-02   2.343850e+00   1.607021e+01   2.322034e+05   9.873477e+04  -8.903344e+04  -5.440995e+12   1.326703e+13   4.991507e+11   2.675704e+05   5.251668e-20   0.000000e+00   0.000000e+00
     2800000   2.799999e-05   9.335395e-02   2.346691e+00   1.606112e+01   9.937803e+04  -2.179473e+05  -1.199218e+05   1.319025e+13   5.333142e+12   1.221115e+12   2.678773e+05   5.213835e-20   0.000000e+00   0.000000e+00
     2808000   2.807999e-05   9.630753e-02   2.352684e+00   1.605267e+01  -2.183517e+05  -7.953131e+04  -1.338604e+05   5.146225e+12  -1.328648e+13  -5.156778e+11   2.681815e+05   5.209391e-20   0.000000e+00   0.000000e+00
     2816000   2.815999e-05   1.023516e-01   2.350762e+00   1.604382e+01  -7.226302e+04   2.366936e+05  -1.041017e+05  -1.337966e+13  -4.631764e+12  -1.262945e+12   2.684827e+05   5.189834e-20   0.000000e+00   0.000000e+00
     2824000   2.823999e-05   1.002798e-01   2.346011e+00   1.603413e+01   2.398214e+05   7.629915e+04  -9.438044e+04  -4.044938e+12   1.351931e+13   6.299354e+11   2.687816e+05   5.136180e-20   0.000000e+00   0.000000e+00
     2832000   2.831999e-05   9.568073e-02   2.349646e+00   1.602474e+01   6.442929e+04  -2.279395e+05  -1.276540e+05   1.365076e+13   3.218172e+12   1.127898e+12   2.690782e+05   5.107340e-20   0.000000e+00   0.000000e+00
     2840000   2.839999e-05   9.970847e-02   2.355335e+00   1.601600e+01  -2.304563e+05  -3.057710e+04  -1.360748e+05   2.277361e+12  -1.385085e+13  -7.590636e+11   2.693722e+05   5.109115e-20   0.000000e+00   0.000000e+00
     2848000   2.847999e-05   1.052239e-01   2.352129e+00   1.600669e+01  -9.954004e+03   2.490792e+05  -1.028533e+05  -1.393216e+13  -9.841113e+11  -1.053955e+12   2.696634e+05   5.083246e-20   0.000000e+00   0.000000e+00
     2856000   2.855999e-05   1.016112e-01   2.348252e+00   1.599662e+01   2.493826e+05   5.501352e+02  -1.033548e+05   3.735085e+11   1.385906e+13   9.563142e+11   2.699522e+05   5.014773e-20   0.000000e+00   0.000000e+00
     2864000   2.863999e-05   9.823354e-02   2.353678e+00   1.598706e+01  -2.548169e+04  -2.304930e+05  -1.387526e+05   1.365767e+13  -1.982183e+12   7.707843e+11   2.702381e+05   4.971481e-20   0.000000e+00   0.000000e+00
     2872000   2.871999e-05   1.042030e-01   2.357751e+00   1.597794e+01  -2.232875e+05   7.374045e+04  -1.337402e+05  -3.699205e+12  -1.326956e+13  -1.154684e+12   2.705206e+05   4.983014e-20   0.000000e+00   0.000000e+00
     2880000   2.879999e-05   1.076159e-01   2.352619e+00   1.596793e+01   1.061907e+05   2.274499e+05  -1.016010e+05  -1.252480e+13   5.631782e+12  -5.015402e+11   2.708001e+05   4.934261e-20   0.000000e+00   0.000000e+00
     2888000   2.887999e-05   1.021756e-01   2.351454e+00   1.595750e+01   2.103363e+05  -1.229688e+05  -1.188299e+05   7.403508e+12   1.142021e+13   1.270968e+12   2.710779e+05   4.892278e-20   0.000000e+00   0.000000e+00
     2896000   2.895999e-05   1.020496e-01   2.358530e+00   1.594793e+01  -1.536430e+05  -1.679503e+05  -1.477139e+05   1.002731e+13  -9.249511e+12   7.427436e+10   2.713538e+05   4.882772e-20   0.000000e+00   0.000000e+00
     2904000   2.903999e-05   1.092809e-01   2.358843e+00   1.593836e+01  -1.349428e+05   2.014822e+05  -1.223787e+05  -1.088841e+13  -8.086480e+12  -1.322329e+12   2.716269e+05   4.881849e-20   0.000000e+00   0.000000e+00
     2912000   2.911999e-05   1.084170e-01   2.353116e+00   1.592777e+01   2.258051e+05   1.100667e+05  -1.040477e+05  -5.765493e+12   1.224917e+13   4.278172e+11   2.718981e+05   4.832826e-20   0.000000e+00   0.000000e+00
     2920000   2.919999e-05   1.031490e-01   2.356684e+00   1.591744e+01   6.367165e+04  -2.253856e+05  -1.386450e+05   1.309646e+13   3.018359e+12   1.094598e+12   2.721676e+05   4.799131e-20   0.000000e+00   0.000000e+00
     2928000   2.927999e-05   1.080151e-01   2.362605e+00   1.590791e+01  -2.309831e+05   8.810997e+03  -1.441868e+05   4.354119e+10  -1.344980e+13  -9.042477e+11   2.724347e+05   4.805672e-20   0.000000e+00   0.000000e+00
     2936000   2.935999e-05   1.129299e-01   2.357953e+00   1.589762e+01   6.635417e+04   2.413264e+05  -1.082755e+05  -1.299619e+13   3.270024e+12  -6.927604e+11   2.726992e+05   4.771459e-20   0.000000e+00   0.000000e+00
     2944000   2.943999e-05   1.074182e-01   2.355894e+00   1.588674e+01   2.195052e+05  -1.069932e+05  -1.219763e+05   6.369736e+12   1.166278e+13   1.218038e+12   2.729621e+05   4.727670e-20   0.000000e+00   0.000000e+00
     2952000   2.951999e-05   1.070971e-01   2.363379e+00   1.587680e+01  -1.575318e+05  -1.631008e+05  -1.524230e+05   9.556746e+12  -9.276366e+12   3.751264e+10   2.732232e+05   4.718280e-20   0.000000e+00   0.000000e+00
     2960000   2.959999e-05   1.147133e-01   2.363172e+00   1.586685e+01  -1.090974e+05   2.179044e+05  -1.241276e+05  -1.154315e+13  -6.489140e+12  -1.260434e+12   2.734817e+05   4.715419e-20   0.000000e+00   0.000000e+00
     2968000   2.967999e-05   1.126164e-01   2.357483e+00   1.585579e+01   2.431457e+05   5.908652e+04  -1.110031e+05  -2.817433e+12   1.289767e+13   6.782187e+11   2.737384e+05   4.665697e-20   0.000000e+00   0.000000e+00
     2976000   2.975999e-05   1.080799e-01   2.362860e+00   1.584526e+01  -1.331436e+04  -2.296096e+05  -1.489115e+05   1.307922e+13  -1.290444e+12   8.086887e+11   2.739936e+05   4.637964e-20   0.000000e+00   0.000000e+00
     2984000   2.983999e-05   1.149567e-01   2.367117e+00   1.583540e+01  -2.093110e+05   1.078003e+05  -1.406381e+05  -5.368753e+12  -1.196395e+13  -1.192505e+12   2.742464e+05   4.646424e-20   0.000000e+00   0.000000e+00
     2992000   2.991999e-05   1.170940e-01   2.360788e+00   1.582443e+01   1.748565e+05   1.811606e+05  -1.093372e+05  -9.428488e+12   9.083398e+12  -4.383499e+10   2.744969e+05   4.601877e-20   0.000000e+00   0.000000e+00
     3000000   2.999999e-05   1.107270e-01   2.362621e+00   1.581338e+01   1.144737e+05  -2.064548e+05  -1.405617e+05   1.167020e+13   5.660035e+12   1.178791e+12   2.747461e+05   4.562169e-20   0.000000e+00   0.000000e+00
     3008000   3.007999e-05   1.150536e-01   2.369650e+00   1.580336e+01  -2.288818e+05  -1.080976e+04  -1.520442e+05   1.133184e+12  -1.294456e+13  -7.966926e+11   2.749930e+05   4.566646e-20   0.000000e+00   0.000000e+00
     3016000   3.015999e-05   1.204339e-01   2.364645e+00   1.579255e+01   7.992560e+04   2.372779e+05  -1.143094e+05  -1.234579e+13   3.872316e+12  -6.089429e+11   2.752372e+05   4.528957e-20   0.000000e+00   0.000000e+00
     3024000   3.023999e-05   1.141256e-01   2.363282e+00   1.578111e+01   1.928062e+05  -1.449747e+05  -1.330312e+05   8.238633e+12   9.822769e+12   1.223379e+12   2.754800e+05   4.484884e-20   0.000000e+00   0.000000e+00
     3032000   3.031999e-05   1.157437e-01   2.371387e+00   1.577082e+01  -2.040083e+05  -9.713367e+04  -1.580117e+05   5.754735e+12  -1.149894e+13  -3.717108e+11   2.757209e+05   4.482513e-20   0.000000e+00   0.000000e+00
     3040000   3.039999e-05   1.229731e-01   2.368274e+00   1.576011e+01   6.284031e+02   2.480193e+05  -1.209943e+05  -1.278734e+13  -4.187187e+11  -9.383224e+11   2.759594e+05   4.465592e-20   0.000000e+00   0.000000e+00
     3048000   3.047999e-05   1.175528e-01   2.364730e+00   1.574844e+01   2.294488e+05  -8.474490e+04  -1.282811e+05   4.956107e+12   1.168982e+13   1.129515e+12   2.761965e+05   4.416703e-20   0.000000e+00   0.000000e+00
     3056000   3.055999e-05   1.171126e-01   2.372963e+00   1.573786e+01  -1.695121e+05  -1.476051e+05  -1.609130e+05   8.380959e+12  -9.570278e+12  -6.009607e+10   2.764319e+05   4.406378e-20   0.000000e+00   0.000000e+00
     3064000   3.063999e-05   1.252184e-01   2.371427e+00   1.572717e+01  -5.007647e+04   2.406655e+05  -1.269484e+05  -1.225994e+13  -3.118949e+12  -1.089428e+12   2.766649e+05   4.397058e-20   0.000000e+00   0.000000e+00
     3072000   3.071999e-05   1.206511e-01   2.366653e+00   1.571532e+01   2.421506e+05  -4.494297e+04  -1.265495e+05   2.815481e+12   1.225085e+13   1.024028e+12   2.768962e+05   4.345354e-20   0.000000e+00   0.000000e+00
     3080000   3.079999e-05   1.190357e-01   2.374777e+00   1.570450e+01  -1.464420e+05  -1.699003e+05  -1.627498e+05   9.474399e+12  -8.274109e+12   1.028677e+11   2.771261e+05   4.330061e-20   0.000000e+00   0.000000e+00
     3088000   3.087999e-05   1.275185e-01   2.374065e+00   1.569373e+01  -7.102300e+04   2.340157e+05  -1.308329e+05  -1.178095e+13  -4.197706e+12  -1.125003e+12   2.773533e+05   4.321837e-20   0.000000e+00   0.000000e+00
     3096000   3.095999e-05   1.232645e-01   2.368800e+00   1.568172e+01   2.443750e+05  -3.292808e+04  -1.274625e+05   2.164919e+12   1.224499e+13   9.751290e+11   2.775790e+05   4.271235e-20   0.000000e+00   0.000000e+00
     3104000   3.103999e-05   1.213802e-01   2.377008e+00   1.567074e+01  -1.443961e+05  -1.711377e+05  -1.644272e+05   9.450426e+12  -8.092000e+12   1.136879e+11   2.778033e+05   4.256880e-20   0.000000e+00   0.000000e+00
     3112000   3.111999e-05   1.300115e-01   2.376192e+00   1.565984e+01  -6.396446e+04   2.362027e+05  -1.319651e+05  -1.177888e+13  -3.797842e+12  -1.100099e+12   2.780251e+05   4.251876e-20   0.000000e+00   0.000000e+00
     3120000   3.119999e-05   1.253710e-01   2.371087e+00   1.564767e+01   2.407936e+05  -4.886687e+04  -1.305796e+05   2.976424e+12   1.193223e+13   1.011571e+12   2.782456e+05   4.200268e-20   0.000000e+00   0.000000e+00
     3128000   3.127999e-05   1.241331e-01   2.379662e+00   1.563661e+01  -1.628022e+05  -1.528540e+05  -1.663539e+05   8.430345e+12  -8.972041e+12  -1.552243e+10   2.784646e+05   4.187777e-20   0.000000e+00   0.000000e+00
     3136000   3.135999e-05   1.326604e-01   2.377817e+00   1.562549e+01  -2.942811e+04   2.443392e+05  -1.307497e+05  -1.208455e+13  -1.984528e+12  -1.000250e+12   2.786811e+05   4.177854e-20   0.000000e+00   0.000000e+00
     3144000   3.143999e-05   1.270022e-01   2.373632e+00   1.561316e+01   2.258330e+05  -9.063555e+04  -1.362637e+05   5.096332e+12   1.103172e+13   1.097617e+12   2.788963e+05   4.126140e-20   0.000000e+00   0.000000e+00
     3152000   3.151999e-05   1.274250e-01   2.382621e+00   1.560211e+01  -1.947847e+05  -1.090420e+05  -1.675444e+05   6.125807e+12  -1.052531e+13  -2.804976e+11   2.791099e+05   4.118882e-20   0.000000e+00   0.000000e+00
     3160000   3.159999e-05   1.352253e-01   2.378882e+00   1.559065e+01   3.466104e+04   2.458729e+05  -1.279268e+05  -1.204079e+13   1.304937e+12  -7.658317e+11   2.793209e+05   4.094054e-20   0.000000e+00   0.000000e+00
     3168000   3.167999e-05   1.282670e-01   2.376729e+00   1.557823e+01   1.847696e+05  -1.514272e+05  -1.451461e+05   8.140923e+12   8.817455e+12   1.154275e+12   2.795306e+05   4.046884e-20   0.000000e+00   0.000000e+00
     3176000   3.175999e-05   1.314472e-01   2.385552e+00   1.556721e+01  -2.231318e+05  -3.017873e+04  -1.659976e+05   2.085466e+12  -1.185057e+13  -6.575453e+11   2.797388e+05   4.049103e-20   0.000000e+00   0.000000e+00
     3184000   3.183999e-05   1.372269e-01   2.379477e+00   1.555531e+01   1.231418e+05   2.179432e+05  -1.253231e+05  -1.052155e+13   5.749646e+12  -3.509737e+11   2.799447e+05   4.017831e-20   0.000000e+00   0.000000e+00
     3192000   3.191999e-05   1.296015e-01   2.380711e+00   1.554293e+01   1.019773e+05  -2.087574e+05  -1.565399e+05   1.096778e+13   4.555266e+12   1.061057e+12   2.801495e+05   3.975734e-20   0.000000e+00   0.000000e+00
     3200000   3.199999e-05   1.361583e-01   2.387818e+00   1.553189e+01  -2.159571e+05   8.003921e+04  -1.598555e+05  -3.462589e+12  -1.136786e+13  -1.022963e+12   2.803525e+05   3.984179e-20   0.000000e+00   0.000000e+00
     3208000   3.207999e-05   1.381820e-01   2.380107e+00   1.551948e+01   2.100180e+05   1.363227e+05  -1.265656e+05  -6.344000e+12   1.000661e+13   2.399520e+11   2.805535e+05   3.938616e-20   0.000000e+00   0.000000e+00
     3216000   3.215999e-05   1.318003e-01   2.385630e+00   1.550733e+01  -2.438301e+04  -2.235179e+05  -1.681301e+05   1.163721e+13  -1.789258e+12   6.827458e+11   2.807535e+05   3.906496e-20   0.000000e+00   0.000000e+00
     3224000   3.223999e-05   1.410191e-01   2.388726e+00   1.549607e+01  -1.395079e+05   1.935123e+05  -1.484052e+05  -9.081958e+12  -7.425589e+12  -1.154457e+12   2.809512e+05   3.908107e-20   0.000000e+00   0.000000e+00
     3232000   3.231999e-05   1.379164e-01   2.381750e+00   1.548322e+01   2.463550e+05  -5.227132e+03  -1.353722e+05   7.140785e+11   1.165072e+13   8.395180e+11   2.811472e+05   3.857231e-20   0.000000e+00   0.000000e+00
     3240000   3.239999e-05   1.357923e-01   2.390831e+00   1.547149e+01  -1.615953e+05  -1.505303e+05  -1.743015e+05   7.964154e+12  -8.535385e+12  -2.006844e+10   2.813422e+05   3.843612e-20   0.000000e+00   0.000000e+00
     3248000   3.247999e-05   1.447283e-01   2.388007e+00   1.545968e+01   1.610688e+04   2.463051e+05  -1.354113e+05  -1.161456e+13   3.202722e+11  -8.089889e+11   2.815348e+05   3.831186e-20   0.000000e+00   0.000000e+00
     3256000   3.255999e-05   1.373320e-01   2.385627e+00   1.544670e+01   1.739435e+05  -1.606054e+05  -1.527067e+05   8.325972e+12   7.950520e+12   1.113336e+12   2.817264e+05   3.783156e-20   0.000000e+00   0.000000e+00
     3264000   3.263999e-05   1.418300e-01   2.394587e+00   1.543529e+01  -2.247476e+05   1.890676e+04  -1.691389e+05  -3.642761e+11  -1.153067e+13  -8.127939e+11   2.819165e+05   3.787638e-20   0.000000e+00   0.000000e+00
     3272000   3.271999e-05   1.457724e-01   2.386959e+00   1.542267e+01   1.870132e+05   1.660927e+05  -1.304691e+05  -7.609770e+12   8.617966e+12   5.313424e+10   2.821044e+05   3.748186e-20   0.000000e+00   0.000000e+00
     3280000   3.279999e-05   1.386133e-01   2.391887e+00   1.541007e+01  -1.097664e+04  -2.238214e+05  -1.716741e+05   1.136085e+13  -1.109847e+12   7.129515e+11   2.822915e+05   3.714221e-20   0.000000e+00   0.000000e+00
     3288000   3.287999e-05   1.482229e-01   2.395140e+00   1.539850e+01  -1.296944e+05   2.000105e+05  -1.515524e+05  -9.152723e+12  -6.768137e+12  -1.108193e+12   2.824765e+05   3.719056e-20   0.000000e+00   0.000000e+00
     3296000   3.295999e-05   1.441799e-01   2.388302e+00   1.538525e+01   2.407891e+05  -3.974102e+04  -1.426113e+05   2.371292e+12   1.106386e+13   9.115916e+11   2.826601e+05   3.668521e-20   0.000000e+00   0.000000e+00
     3304000   3.303999e-05   1.437233e-01   2.398201e+00   1.537334e+01  -1.952776e+05  -1.016947e+05  -1.775523e+05   5.436876e+12  -9.940610e+12  -2.933075e+11   2.828426e+05   3.661821e-20   0.000000e+00   0.000000e+00
     3312000   3.311999e-05   1.515218e-01   2.392918e+00   1.536094e+01   9.710948e+04   2.288774e+05  -1.352291e+05  -1.047930e+13   4.183978e+12  -4.532831e+11   2.830230e+05   3.639805e-20   0.000000e+00   0.000000e+00
     3320000   3.319999e-05   1.431674e-01   2.394073e+00   1.534780e+01   8.313563e+04  -2.131904e+05  -1.668592e+05   1.065047e+13   3.397937e+12   9.574972e+11   2.832025e+05   3.597807e-20   0.000000e+00   0.000000e+00
     3328000   3.327999e-05   1.514587e-01   2.400503e+00   1.533614e+01  -1.845440e+05   1.412899e+05  -1.621267e+05  -6.183126e+12  -9.309188e+12  -1.082460e+12   2.833803e+05   3.607143e-20   0.000000e+00   0.000000e+00
     3336000   3.335999e-05   1.500052e-01   2.392319e+00   1.532275e+01   2.448291e+05   2.697355e+04  -1.404826e+05  -8.153147e+11   1.108734e+13   6.990997e+11   2.835564e+05   3.554863e-20   0.000000e+00   0.000000e+00
     3344000   3.343999e-05   1.472509e-01   2.401816e+00   1.531043e+01  -1.639481e+05  -1.440385e+05  -1.813215e+05   7.357908e+12  -8.319714e+12  -5.068421e+10   2.837315e+05   3.538513e-20   0.000000e+00   0.000000e+00
     3352000   3.351999e-05   1.562964e-01   2.397891e+00   1.529797e+01   6.040997e+04   2.395385e+05  -1.399056e+05  -1.079763e+13   2.378978e+12  -5.979309e+11   2.839042e+05   3.521178e-20   0.000000e+00   0.000000e+00
     3360000   3.359999e-05   1.477778e-01   2.397821e+00   1.528452e+01   1.049117e+05  -2.040269e+05  -1.675285e+05   1.004536e+13   4.358351e+12   9.756341e+11   2.840761e+05   3.475143e-20   0.000000e+00   0.000000e+00
     3368000   3.367999e-05   1.558429e-01   2.404903e+00   1.527265e+01  -1.883011e+05   1.335175e+05  -1.658666e+05  -5.710971e+12  -9.341511e+12  -1.043504e+12   2.842463e+05   3.482520e-20   0.000000e+00   0.000000e+00
     3376000   3.375999e-05   1.544070e-01   2.396508e+00   1.525902e+01   2.444104e+05   2.131993e+04  -1.438777e+05  -5.325400e+11   1.087949e+13   6.992075e+11   2.844148e+05   3.433840e-20   0.000000e+00   0.000000e+00
     3384000   3.383999e-05   1.520791e-01   2.406403e+00   1.524652e+01  -1.757933e+05  -1.275754e+05  -1.838705e+05   6.482373e+12  -8.741296e+12  -1.390530e+11   2.845823e+05   3.418130e-20   0.000000e+00   0.000000e+00
     3392000   3.391999e-05   1.606926e-01   2.401449e+00   1.523372e+01   9.329330e+04   2.288851e+05  -1.413833e+05  -1.012337e+13   3.849999e+12  -4.555707e+11   2.847477e+05   3.394985e-20   0.000000e+00   0.000000e+00
     3400000   3.399999e-05   1.519852e-01   2.403085e+00   1.522011e+01   5.919346e+04  -2.171000e+05  -1.747531e+05   1.051464e+13   2.161128e+12   8.701271e+11   2.849122e+05   3.354741e-20   0.000000e+00   0.000000e+00
     3408000   3.407999e-05   1.615069e-01   2.408425e+00   1.520799e+01  -1.482160e+05   1.809747e+05  -1.629351e+05  -7.806778e+12  -7.344655e+12  -1.063414e+12   2.850748e+05   3.359591e-20   0.000000e+00   0.000000e+00
     3416000   3.415999e-05   1.573968e-01   2.400981e+00   1.519398e+01   2.348581e+05  -5.328193e+04  -1.528471e+05   2.905417e+12   1.023198e+13   8.900517e+11   2.852359e+05   3.302697e-20   0.000000e+00   0.000000e+00
     3424000   3.423999e-05   1.584374e-01   2.411639e+00   1.518151e+01  -2.132789e+05  -4.587035e+04  -1.840076e+05   2.653938e+12  -1.031516e+13  -5.108809e+11   2.853958e+05   3.300021e-20   0.000000e+00   0.000000e+00
     3432000   3.431999e-05   1.641531e-01   2.403910e+00   1.516809e+01   1.792839e+05   1.707018e+05  -1.423347e+05  -7.306234e+12   7.689424e+12   1.112601e+10   2.855538e+05   3.268842e-20   0.000000e+00   0.000000e+00
     3440000   3.439999e-05   1.567105e-01   2.410016e+00   1.515464e+01  -5.727781e+04  -2.099033e+05  -1.851776e+05   1.005525e+13  -3.172855e+12   4.802721e+11   2.857112e+05   3.240386e-20   0.000000e+00   0.000000e+00
     3448000   3.447999e-05   1.675391e-01   2.410296e+00   1.514204e+01  -3.122028e+04   2.391889e+05  -1.534070e+05  -1.033665e+13  -1.902250e+12  -8.695570e+11   2.858666e+05   3.238524e-20   0.000000e+00   0.000000e+00
     3456000   3.455999e-05   1.594486e-01   2.407098e+00   1.512783e+01   1.549290e+05  -1.711692e+05  -1.688378e+05   8.198114e+12   6.426717e+12   1.000808e+12   2.860212e+05   3.192253e-20   0.000000e+00   0.000000e+00
     3464000   3.463999e-05   1.665861e-01   2.415797e+00   1.511546e+01  -1.979317e+05   1.098220e+05  -1.750942e+05  -4.399226e+12  -9.452750e+12  -9.621689e+11   2.861744e+05   3.199180e-20   0.000000e+00   0.000000e+00
     3472000   3.471999e-05   1.654877e-01   2.406898e+00   1.510128e+01   2.428685e+05   1.479075e+04  -1.509263e+05  -1.943474e+11   1.036388e+13   6.957662e+11   2.863260e+05   3.152860e-20   0.000000e+00   0.000000e+00
     3480000   3.479999e-05   1.640090e-01   2.417561e+00   1.508837e+01  -1.945143e+05  -9.203614e+04  -1.891102e+05   4.665351e+12  -9.264074e+12  -2.957242e+11   2.864771e+05   3.148717e-20   0.000000e+00   0.000000e+00
     3488000   3.487999e-05   1.713414e-01   2.410588e+00   1.507485e+01   1.559906e+05   1.912262e+05  -1.457878e+05  -8.049442e+12   6.473199e+12  -1.293608e+11   2.866263e+05   3.123781e-20   0.000000e+00   0.000000e+00
     3496000   3.495999e-05   1.632259e-01   2.416023e+00   1.506105e+01  -4.475452e+04  -2.121785e+05  -1.876624e+05   9.938231e+12  -2.558380e+12   5.168678e+11   2.867749e+05   3.093871e-20   0.000000e+00   0.000000e+00
     3504000   3.503999e-05   1.743555e-01   2.416439e+00   1.504822e+01  -2.473284e+04   2.394060e+05  -1.561958e+05  -1.011114e+13  -1.584375e+12  -8.341208e+11   2.869217e+05   3.092928e-20   0.000000e+00   0.000000e+00
     3512000   3.511999e-05   1.657805e-01   2.413771e+00   1.503376e+01   1.345928e+05  -1.841958e+05  -1.742544e+05   8.602595e+12   5.373761e+12   9.582816e+11   2.870678e+05   3.047902e-20   0.000000e+00   0.000000e+00
     3520000   3.519999e-05   1.742095e-01   2.421678e+00   1.502118e+01  -1.751520e+05   1.465036e+05  -1.742109e+05  -5.917865e+12  -8.244213e+12  -9.891512e+11   2.872124e+05   3.055864e-20   0.000000e+00   0.000000e+00
     3528000   3.527999e-05   1.708798e-01   2.413270e+00   1.500661e+01   2.352148e+05  -4.540357e+04  -1.587004e+05   2.455918e+12   9.773351e+12   8.374318e+11   2.873557e+05   3.008441e-20   0.000000e+00   0.000000e+00
     3536000   3.535999e-05   1.724860e-01   2.424490e+00   1.499371e+01  -2.164319e+05  -1.529416e+04  -1.886227e+05   1.215838e+12  -1.001614e+13  -5.883659e+11   2.874982e+05   3.008379e-20   0.000000e+00   0.000000e+00
     3544000   3.543999e-05   1.764850e-01   2.415465e+00   1.497956e+01   2.169084e+05   1.148485e+05  -1.499892e+05  -4.537749e+12   8.957065e+12   2.894893e+11   2.876390e+05   2.974658e-20   0.000000e+00   0.000000e+00
     3552000   3.551999e-05   1.712141e-01   2.424716e+00   1.496597e+01  -1.451624e+05  -1.553649e+05  -1.939242e+05   7.284102e+12  -6.868937e+12   4.543799e+10   2.877793e+05   2.958053e-20   0.000000e+00   0.000000e+00
     3560000   3.559999e-05   1.808679e-01   2.419792e+00   1.495242e+01   1.069693e+05   2.203341e+05  -1.513510e+05  -9.067405e+12   4.159487e+12  -3.597855e+11   2.879178e+05   2.943346e-20   0.000000e+00   0.000000e+00
     3568000   3.567999e-05   1.717458e-01   2.423469e+00   1.493811e+01  -1.101273e+04  -2.165717e+05  -1.896090e+05   9.848164e+12  -1.039341e+12   6.099510e+11   2.880559e+05   2.910404e-20   0.000000e+00   0.000000e+00
     3576000   3.575999e-05   1.832179e-01   2.424905e+00   1.492505e+01  -3.478978e+04   2.363703e+05  -1.611630e+05  -9.683477e+12  -1.985906e+12  -8.283977e+11   2.881922e+05   2.912002e-20   0.000000e+00   0.000000e+00
     3584000   3.583999e-05   1.743455e-01   2.422175e+00   1.491025e+01   1.236207e+05  -1.889358e+05  -1.793158e+05   8.574751e+12   4.741024e+12   9.106822e+11   2.883279e+05   2.868339e-20   0.000000e+00   0.000000e+00
     3592000   3.591999e-05   1.837332e-01   2.429488e+00   1.489737e+01  -1.513595e+05   1.727933e+05  -1.744799e+05  -6.876224e+12  -6.982874e+12  -9.558789e+11   2.884622e+05   2.874678e-20   0.000000e+00   0.000000e+00
     3600000   3.599999e-05   1.783998e-01   2.421898e+00   1.488243e+01   2.128307e+05  -9.902835e+04  -1.678803e+05   4.674787e+12   8.527797e+12   8.904606e+11   2.885954e+05   2.830241e-20   0.000000e+00   0.000000e+00
     3608000   3.607999e-05   1.831972e-01   2.432749e+00   1.486940e+01  -2.102868e+05   6.550044e+04  -1.866891e+05  -2.248973e+12  -9.475327e+12  -7.963151e+11   2.887277e+05   2.835930e-20   0.000000e+00   0.000000e+00
     3616000   3.615999e-05   1.830598e-01   2.423055e+00   1.485461e+01   2.406237e+05   1.529261e+04  -1.590775e+05  -1.885435e+11   9.674996e+12   6.389803e+11   2.888586e+05   2.796147e-20   0.000000e+00   0.000000e+00
     3624000   3.623999e-05   1.825090e-01   2.434591e+00   1.484119e+01  -2.078374e+05  -4.786002e+04  -1.950068e+05   2.564652e+12  -9.330909e+12  -4.481463e+11   2.889890e+05   2.792573e-20   0.000000e+00   0.000000e+00
     3632000   3.631999e-05   1.875382e-01   2.425547e+00   1.482673e+01   2.125741e+05   1.202908e+05  -1.546979e+05  -4.598599e+12   8.458655e+12   2.522868e+11   2.891177e+05   2.762749e-20   0.000000e+00   0.000000e+00
     3640000   3.639999e-05   1.823303e-01   2.435312e+00   1.481279e+01  -1.576997e+05  -1.392082e+05  -1.985326e+05   6.377639e+12  -7.176180e+12  -3.873860e+10   2.892461e+05   2.747737e-20   0.000000e+00   0.000000e+00
     3648000   3.647999e-05   1.913372e-01   2.428958e+00   1.479873e+01   1.470278e+05   1.951818e+05  -1.549950e+05  -7.699138e+12   5.679773e+12  -1.568731e+11   2.893727e+05   2.731866e-20   0.000000e+00   0.000000e+00
     3656000   3.655999e-05   1.829678e-01   2.435395e+00   1.478429e+01  -8.170814e+04  -1.953736e+05  -1.973896e+05   8.653140e+12  -3.957797e+12   3.308719e+11   2.894991e+05   2.707067e-20   0.000000e+00   0.000000e+00
     3664000   3.663999e-05   1.942586e-01   2.432753e+00   1.477059e+01   6.585680e+04   2.330419e+05  -1.588593e+05  -9.217771e+12   2.270098e+12  -4.968457e+11   2.896238e+05   2.700933e-20   0.000000e+00   0.000000e+00
     3672000   3.671999e-05   1.844710e-01   2.435294e+00   1.475573e+01   8.297338e+02  -2.152750e+05  -1.939329e+05   9.409397e+12  -5.174471e+11   6.100511e+11   2.897482e+05   2.667638e-20   0.000000e+00   0.000000e+00
     3680000   3.679999e-05   1.964107e-01   2.436568e+00   1.474226e+01  -1.437390e+04   2.379411e+05  -1.649322e+05  -9.352209e+12  -1.071907e+12  -7.367552e+11   2.898710e+05   2.669262e-20   0.000000e+00   0.000000e+00
     3688000   3.687999e-05   1.866825e-01   2.435363e+00   1.472708e+01   7.601088e+04  -2.063407e+05  -1.890554e+05   8.972248e+12   2.578776e+12   7.881509e+11   2.899933e+05   2.630076e-20   0.000000e+00   0.000000e+00
     3696000   3.695999e-05   1.979921e-01   2.440141e+00   1.471374e+01  -8.284777e+04   2.185457e+05  -1.718729e+05  -8.483155e+12  -3.896513e+12  -8.706125e+11   2.901143e+05   2.636231e-20   0.000000e+00   0.000000e+00
     3704000   3.703999e-05   1.893750e-01   2.435788e+00   1.469836e+01   1.362747e+05  -1.783470e+05  -1.840043e+05   7.753598e+12   5.032732e+12   8.596808e+11   2.902345e+05   2.586825e-20   0.000000e+00   0.000000e+00
     3712000   3.711999e-05   1.992301e-01   2.443335e+00   1.468501e+01  -1.345851e+05   1.847802e+05  -1.790199e+05  -7.039606e+12  -5.993028e+12  -8.983921e+11   2.903532e+05   2.591760e-20   0.000000e+00   0.000000e+00
     3720000   3.719999e-05   1.922820e-01   2.436620e+00   1.466950e+01   1.790389e+05  -1.415721e+05  -1.796547e+05   6.212232e+12   6.742806e+12   8.727265e+11   2.904710e+05   2.549951e-20   0.000000e+00   0.000000e+00
     3728000   3.727999e-05   2.003427e-01   2.446137e+00   1.465608e+01  -1.694997e+05   1.463684e+05  -1.851686e+05  -5.419160e+12  -7.398181e+12  -8.919595e+11   2.905878e+05   2.554322e-20   0.000000e+00   0.000000e+00
     3736000   3.735999e-05   1.952642e-01   2.437830e+00   1.464049e+01   2.069462e+05  -1.029271e+05  -1.763172e+05   4.616459e+12   7.832724e+12   8.412398e+11   2.907034e+05   2.510432e-20   0.000000e+00   0.000000e+00
     3744000   3.743999e-05   2.014882e-01   2.448639e+00   1.462694e+01  -1.910445e+05   1.089867e+05  -1.902605e+05  -3.867923e+12  -8.232605e+12  -8.363972e+11   2.908181e+05   2.514383e-20   0.000000e+00   0.000000e+00
     3752000   3.751999e-05   1.981905e-01   2.439341e+00   1.461132e+01   2.232377e+05  -6.757748e+04  -1.738949e+05   3.173067e+12   8.442841e+12   7.877315e+11   2.909316e+05   2.472137e-20   0.000000e+00   0.000000e+00
     3760000   3.759999e-05   2.027641e-01   2.450921e+00   1.459763e+01  -2.027279e+05   7.669209e+04  -1.942332e+05  -2.540562e+12  -8.653965e+12  -7.695241e+11   2.910444e+05   2.473071e-20   0.000000e+00   0.000000e+00
     3768000   3.767999e-05   2.009527e-01   2.441061e+00   1.458199e+01   2.311472e+05  -3.921734e+04  -1.726400e+05   2.026184e+12   8.705371e+12   7.306590e+11   2.911556e+05   2.429197e-20   0.000000e+00   0.000000e+00
     3776000   3.775999e-05   2.042320e-01   2.453041e+00   1.456814e+01  -2.077396e+05   5.229947e+04  -1.973451e+05  -1.548976e+12  -8.808464e+12  -7.078942e+11   2.912663e+05   2.433066e-20   0.000000e+00   0.000000e+00
     3784000   3.783999e-05   2.035449e-01   2.442915e+00   1.455247e+01   2.344405e+05  -1.858658e+04  -1.720229e+05   1.197720e+12   8.787612e+12   6.782315e+11   2.913755e+05   2.393357e-20   0.000000e+00   0.000000e+00
     3792000   3.791999e-05   2.059036e-01   2.455094e+00   1.453849e+01  -2.094547e+05   3.574477e+04  -1.995348e+05  -8.811524e+11  -8.827684e+12  -6.604034e+11   2.914843e+05   2.395874e-20   0.000000e+00   0.000000e+00
     3800000   3.799999e-05   2.059493e-01   2.444838e+00   1.452279e+01   2.354430e+05  -6.036836e+03  -1.719182e+05   6.970695e+11   8.776510e+12   6.419247e+11   2.915918e+05   2.360811e-20   0.000000e+00   0.000000e+00
     3808000   3.807999e-05   2.077887e-01   2.457121e+00   1.450872e+01  -2.097391e+05   2.741803e+04  -2.008631e+05  -5.466002e+11  -8.787768e+12  -6.326655e+11   2.916988e+05   2.362515e-20   0.000000e+00   0.000000e+00
     3816000   3.815999e-05   2.081453e-01   2.446791e+00   1.449298e+01   2.353827e+05  -1.979862e+03  -1.724556e+05   5.349107e+11   8.720148e+12   6.255340e+11   2.918045e+05   2.327646e-20   0.000000e+00   0.000000e+00
     3824000   3.823999e-05   2.098958e-01   2.459132e+00   1.447883e+01  -2.092990e+05   2.766150e+04  -2.015940e+05  -5.515528e+11  -8.719335e+12  -6.275865e+11   2.919099e+05   2.329529e-20   0.000000e+00   0.000000e+00
     3832000   3.831999e-05   2.101351e-01   2.448766e+00   1.446302e+01   2.347619e+05  -6.284964e+03  -1.735496e+05   7.015456e+11   8.641409e+12   6.316903e+11   2.920139e+05   2.295947e-20   0.000000e+00   0.000000e+00
     3840000   3.839999e-05   2.122235e-01   2.461133e+00   1.444884e+01  -2.081848e+05   3.620237e+04  -2.016957e+05  -8.791634e+11  -8.625372e+12  -6.444675e+11   2.921176e+05   2.298197e-20   0.000000e+00   0.000000e+00
     3848000   3.847999e-05   2.119208e-01   2.450777e+00   1.443293e+01   2.330647e+05  -1.875666e+04  -1.752756e+05   1.182311e+12   8.519316e+12   6.562060e+11   2.922200e+05   2.263957e-20   0.000000e+00   0.000000e+00
     3856000   3.855999e-05   2.147718e-01   2.463099e+00   1.441874e+01  -2.054270e+05   5.286724e+04  -2.011391e+05  -1.517866e+12  -8.467126e+12  -6.789707e+11   2.923220e+05   2.267063e-20   0.000000e+00   0.000000e+00
     3864000   3.863999e-05   2.135046e-01   2.452861e+00   1.440271e+01   2.289022e+05  -3.915685e+04  -1.777122e+05   1.962374e+12   8.301368e+12   6.944020e+11   2.924228e+05   2.231715e-20   0.000000e+00   0.000000e+00
     3872000   3.871999e-05   2.175390e-01   2.464984e+00   1.438853e+01  -1.991352e+05   7.742850e+04  -1.997992e+05  -2.453777e+12  -8.170030e+12  -7.241898e+11   2.925230e+05   2.234745e-20   0.000000e+00   0.000000e+00
     3880000   3.879999e-05   2.148900e-01   2.455080e+00   1.437237e+01   2.199532e+05  -6.715489e+04  -1.809380e+05   3.022543e+12   7.900262e+12   7.381305e+11   2.926222e+05   2.199640e-20   0.000000e+00   0.000000e+00
     3888000   3.887999e-05   2.204951e-01   2.466705e+00   1.435821e+01  -1.866974e+05   1.085886e+05  -1.975807e+05  -3.633272e+12  -7.645469e+12  -7.723950e+11   2.927209e+05   2.205881e-20   0.000000e+00   0.000000e+00
     3896000   3.895999e-05   2.161388e-01   2.457505e+00   1.434192e+01   2.035244e+05  -1.003976e+05  -1.850430e+05   4.272109e+12   7.221889e+12   7.766180e+11   2.928186e+05   2.169446e-20   0.000000e+00   0.000000e+00
     3904000   3.903999e-05   2.235775e-01   2.468193e+00   1.432776e+01  -1.652508e+05   1.437998e+05  -1.944567e+05  -4.954893e+12  -6.781771e+12  -8.080426e+11   2.929157e+05   2.176591e-20   0.000000e+00   0.000000e+00
     3912000   3.911999e-05   2.173196e-01   2.460218e+00   1.431136e+01   1.766775e+05  -1.361297e+05  -1.900258e+05   5.602539e+12   6.157068e+12   7.945439e+11   2.930120e+05   2.139258e-20   0.000000e+00   0.000000e+00
     3920000   3.919999e-05   2.266966e-01   2.469369e+00   1.429717e+01  -1.318874e+05   1.796774e+05  -1.903516e+05  -6.285551e+12  -5.466102e+12  -8.082441e+11   2.931075e+05   2.144033e-20   0.000000e+00   0.000000e+00
     3928000   3.927999e-05   2.185169e-01   2.463302e+00   1.428072e+01   1.363060e+05  -1.704011e+05  -1.958358e+05   6.862070e+12   4.599362e+12   7.706290e+11   2.932022e+05   2.108551e-20   0.000000e+00   0.000000e+00
     3936000   3.935999e-05   2.296965e-01   2.470151e+00   1.426644e+01  -8.411371e+04   2.109138e+05  -1.856418e+05  -7.431357e+12  -3.634103e+12  -7.654194e+11   2.932962e+05   2.115467e-20   0.000000e+00   0.000000e+00
     3944000   3.943999e-05   2.199329e-01   2.466779e+00   1.425001e+01   8.197697e+04  -1.964119e+05  -2.019396e+05   7.806341e+12   2.538113e+12   6.969697e+11   2.933896e+05   2.081519e-20   0.000000e+00   0.000000e+00
     3952000   3.951999e-05   2.323965e-01   2.470563e+00   1.423555e+01  -2.275377e+04   2.300589e+05  -1.807951e+05  -8.111912e+12  -1.315293e+12  -6.565334e+11   2.934821e+05   2.085816e-20   0.000000e+00   0.000000e+00
     3960000   3.959999e-05   2.217721e-01   2.470606e+00   1.421923e+01   1.532732e+04  -2.067601e+05  -2.078488e+05   8.162071e+12   4.276353e+10   5.561327e+11   2.935742e+05   2.055390e-20   0.000000e+00   0.000000e+00
     3968000   3.967999e-05   2.345875e-01   2.470690e+00   1.420450e+01   4.872339e+04   2.295396e+05  -1.765696e+05  -8.052402e+12   1.349421e+12  -4.715630e+11   2.936652e+05   2.055243e-20   0.000000e+00   0.000000e+00
     3976000   3.975999e-05   2.242366e-01   2.474643e+00   1.418841e+01  -5.846229e+04  -1.941583e+05  -2.125496e+05   7.664312e+12  -2.687360e+12   3.436337e+11   2.937560e+05   2.031838e-20   0.000000e+00   0.000000e+00
     3984000   3.983999e-05   2.360687e-01   2.470720e+00   1.417330e+01   1.227164e+05   2.025267e+05  -1.739795e+05  -7.017137e+12   4.070827e+12  -2.145383e+11   2.938456e+05   2.026186e-20   0.000000e+00   0.000000e+00
     3992000   3.991999e-05   2.274941e-01   2.478612e+00   1.415754e+01  -1.292564e+05  -1.527335e+05  -2.153211e+05   6.117173e+12  -5.278098e+12   6.876025e+10   2.939352e+05   2.009727e-20   0.000000e+00   0.000000e+00
     4000000   3.999999e-05   2.367375e-01   2.471000e+00   1.414195e+01   1.868457e+05   1.457755e+05  -1.740345e+05  -4.897619e+12   6.388653e+12   8.941847e+10   2.940235e+05   1.996348e-20   0.000000e+00   0.000000e+00
     4008000   4.007999e-05   2.315766e-01   2.482144e+00   1.412659e+01  -1.832379e+05  -8.181993e+04  -2.150142e+05   3.502225e+12  -7.224872e+12  -2.383417e+11   2.941117e+05   1.988665e-20   0.000000e+00   0.000000e+00
     4016000   4.015999e-05   2.366542e-01   2.471948e+00   1.411049e+01   2.261520e+05   6.211614e+04  -1.776225e+05  -1.821149e+12   7.765721e+12   3.934328e+11   2.941987e+05   1.966909e-20   0.000000e+00   0.000000e+00
     4024000   4.023999e-05   2.363127e-01   2.484809e+00   1.409553e+01  -2.048852e+05   1.197565e+04  -2.109090e+05   7.011739e+10  -7.961597e+12  -5.232018e+11   2.942855e+05   1.964617e-20   0.000000e+00   0.000000e+00
     4032000   4.031999e-05   2.360931e-01   2.473976e+00   1.407897e+01   2.258242e+05  -3.747838e+04  -1.850762e+05   1.795282e+12   7.686888e+12   6.305456e+11   2.943712e+05   1.936213e-20   0.000000e+00   0.000000e+00
     4040000   4.039999e-05   2.412686e-01   2.486217e+00   1.406429e+01  -1.808956e+05   1.125777e+05  -2.032430e+05  -3.580180e+12  -7.039555e+12  -7.158272e+11   2.944566e+05   1.942793e-20   0.000000e+00   0.000000e+00
     4048000   4.047999e-05   2.356502e-01   2.477360e+00   1.404745e+01   1.769479e+05  -1.315729e+05  -1.952754e+05   5.177859e+12   5.867857e+12   7.350745e+11   2.945411e+05   1.909808e-20   0.000000e+00   0.000000e+00
     4056000   4.055999e-05   2.457469e-01   2.486259e+00   1.403283e+01  -1.076568e+05   1.944437e+05  -1.934053e+05  -6.523108e+12  -4.346714e+12  -7.422467e+11   2.946251e+05   1.917499e-20   0.000000e+00   0.000000e+00
     4064000   4.063999e-05   2.360797e-01   2.482018e+00   1.401596e+01   8.300979e+04  -1.933660e+05  -2.063302e+05   7.376592e+12   2.462742e+12   6.567615e+11   2.947086e+05   1.885003e-20   0.000000e+00   0.000000e+00
     4072000   4.071999e-05   2.489788e-01   2.485240e+00   1.400111e+01   3.054032e+03   2.302615e+05  -1.840439e+05  -7.782377e+12  -3.434152e+11  -5.621100e+11   2.947912e+05   1.888804e-20   0.000000e+00   0.000000e+00
     4080000   4.079999e-05   2.380801e-01   2.487422e+00   1.398454e+01  -3.650838e+04  -1.981088e+05  -2.153379e+05   7.526800e+12  -1.808654e+12   3.850621e+11   2.948735e+05   1.861142e-20   0.000000e+00   0.000000e+00
     4088000   4.087999e-05   2.503649e-01   2.483939e+00   1.396914e+01   1.228326e+05   2.000918e+05  -1.785321e+05  -6.669456e+12   3.922813e+12  -1.955008e+11   2.949547e+05   1.857081e-20   0.000000e+00   0.000000e+00
     4096000   4.095999e-05   2.420332e-01   2.492556e+00   1.395312e+01  -1.453478e+05  -1.338429e+05  -2.191033e+05   5.235787e+12  -5.659499e+12  -1.880850e+10   2.950359e+05   1.843702e-20   0.000000e+00   0.000000e+00
     4104000   4.103999e-05   2.498809e-01   2.483539e+00   1.393700e+01   2.097372e+05   1.040102e+05  -1.796820e+05  -3.239428e+12   6.955174e+12   2.414902e+11   2.951159e+05   1.828649e-20   0.000000e+00   0.000000e+00
     4112000   4.111999e-05   2.476026e-01   2.496216e+00   1.392161e+01  -2.011469e+05  -1.346446e+04  -2.156370e+05   9.719039e+11  -7.597339e+12  -4.349436e+11   2.951959e+05   1.827370e-20   0.000000e+00   0.000000e+00
     4120000   4.119999e-05   2.482758e-01   2.485143e+00   1.390483e+01   2.255190e+05  -3.023066e+04  -1.881875e+05   1.493657e+12   7.443820e+12   5.910938e+11   2.952749e+05   1.801549e-20   0.000000e+00   0.000000e+00
     4128000   4.127999e-05   2.536690e-01   2.497518e+00   1.388988e+01  -1.730748e+05   1.224641e+05  -2.056242e+05  -3.815323e+12  -6.556136e+12  -6.961024e+11   2.953535e+05   1.803545e-20   0.000000e+00   0.000000e+00
     4136000   4.135999e-05   2.469886e-01   2.489253e+00   1.387273e+01   1.534709e+05  -1.519457e+05  -2.015908e+05   5.736678e+12   4.858280e+12   7.026540e+11   2.954313e+05   1.772833e-20   0.000000e+00   0.000000e+00
     4144000   4.143999e-05   2.585881e-01   2.496414e+00   1.385782e+01  -6.157002e+04   2.156707e+05  -1.924073e+05  -7.067449e+12  -2.606837e+12  -6.634228e+11   2.955085e+05   1.779312e-20   0.000000e+00   0.000000e+00
     4152000   4.151999e-05   2.477223e-01   2.495301e+00   1.384080e+01   1.496417e+04  -2.023733e+05  -2.149229e+05   7.483265e+12   1.519587e+10   5.041019e+11   2.955854e+05   1.751260e-20   0.000000e+00   0.000000e+00
     4160000   4.159999e-05   2.608358e-01   2.494154e+00   1.382539e+01   8.949916e+04   2.145196e+05  -1.827208e+05  -7.001499e+12   2.661798e+12  -3.074772e+11   2.956614e+05   1.750507e-20   0.000000e+00   0.000000e+00
     4168000   4.167999e-05   2.514868e-01   2.501527e+00   1.380898e+01  -1.285426e+05  -1.475510e+05  -2.217342e+05   5.583786e+12  -4.948090e+12   5.314617e+10   2.957373e+05   1.734722e-20   0.000000e+00   0.000000e+00
     4176000   4.175999e-05   2.600658e-01   2.492875e+00   1.379271e+01   2.053857e+05   1.093760e+05  -1.826427e+05  -3.343234e+12   6.634174e+12   2.103271e+11   2.958121e+05   1.722143e-20   0.000000e+00   0.000000e+00
     4184000   4.183999e-05   2.577984e-01   2.505695e+00   1.377710e+01  -2.002222e+05  -5.148356e+03  -2.177926e+05   6.630155e+11  -7.384556e+12  -4.374974e+11   2.958869e+05   1.720804e-20   0.000000e+00   0.000000e+00
     4192000   4.191999e-05   2.575957e-01   2.494560e+00   1.376003e+01   2.182675e+05  -5.186843e+04  -1.930330e+05   2.199976e+12   7.008272e+12   6.016175e+11   2.959607e+05   1.695287e-20   0.000000e+00   0.000000e+00
     4200000   4.199999e-05   2.645953e-01   2.506333e+00   1.374492e+01  -1.501637e+05   1.520825e+05  -2.048366e+05  -4.740342e+12  -5.612503e+12  -6.946055e+11   2.960342e+05   1.700370e-20   0.000000e+00   0.000000e+00
     4208000   4.207999e-05   2.560787e-01   2.499809e+00   1.372754e+01   1.098475e+05  -1.785058e+05  -2.091618e+05   6.516535e+12   3.257237e+12   6.399569e+11   2.961071e+05   1.670931e-20   0.000000e+00   0.000000e+00
     4216000   4.215999e-05   2.690551e-01   2.503957e+00   1.371228e+01   2.804742e+03   2.270469e+05  -1.901685e+05  -7.288268e+12  -3.453256e+11  -5.225993e+11   2.961793e+05   1.672582e-20   0.000000e+00   0.000000e+00
     4224000   4.223999e-05   2.580268e-01   2.506974e+00   1.369530e+01  -6.261679e+04  -1.859904e+05  -2.219268e+05   6.765815e+12  -2.613511e+12   2.789547e+11   2.962513e+05   1.647547e-20   0.000000e+00   0.000000e+00
     4232000   4.231999e-05   2.694078e-01   2.501223e+00   1.367921e+01   1.664318e+05   1.616033e+05  -1.843682e+05  -5.039125e+12   5.194639e+12   1.498933e+09   2.963221e+05   1.638711e-20   0.000000e+00   0.000000e+00
     4240000   4.239999e-05   2.640073e-01   2.512752e+00   1.366310e+01  -1.870741e+05  -5.726428e+04  -2.226495e+05   2.413502e+12  -6.801652e+12  -2.808617e+11   2.963929e+05   1.632904e-20   0.000000e+00   0.000000e+00
     4248000   4.247999e-05   2.665698e-01   2.501562e+00   1.364602e+01   2.253721e+05  -9.927498e+03  -1.923511e+05   7.545262e+11   7.116943e+12   5.140647e+11   2.964626e+05   1.612313e-20   0.000000e+00   0.000000e+00
     4256000   4.255999e-05   2.716656e-01   2.514278e+00   1.363065e+01  -1.672306e+05   1.259947e+05  -2.099776e+05  -3.766607e+12  -6.084033e+12  -6.533099e+11   2.965322e+05   1.617620e-20   0.000000e+00   0.000000e+00
     4264000   4.263999e-05   2.640771e-01   2.506607e+00   1.361307e+01   1.265201e+05  -1.671935e+05  -2.097886e+05   6.017496e+12   3.751173e+12   6.370984e+11   2.966012e+05   1.588839e-20   0.000000e+00   0.000000e+00
     4272000   4.271999e-05   2.768873e-01   2.511590e+00   1.359766e+01  -5.989185e+03   2.250919e+05  -1.931594e+05  -7.081774e+12  -6.280222e+11  -5.148948e+11   2.966695e+05   1.593445e-20   0.000000e+00   0.000000e+00
     4280000   4.279999e-05   2.657324e-01   2.514438e+00   1.358050e+01  -6.439751e+04  -1.839182e+05  -2.237864e+05   6.573724e+12  -2.620545e+12   2.597702e+11   2.967378e+05   1.573399e-20   0.000000e+00   0.000000e+00
     4288000   4.287999e-05   2.769334e-01   2.508275e+00   1.356422e+01   1.744854e+05   1.511591e+05  -1.865449e+05  -4.596227e+12   5.365175e+12   4.568081e+10   2.968050e+05   1.566697e-20   0.000000e+00   0.000000e+00
