     timestep     time              x             y              z              vx             vy             vz             ax             ay             az         v_magnitude      ELoss        Electronic      Nuclear
           0   0.000000e+00   1.000000e-01   6.175826e+00   1.373805e+01  -1.226692e+05  -7.112297e+04   4.036718e+04   0.000000e+00   0.000000e+00   0.000000e+00   1.474304e+05   0.000000e+00   0.000000e+00   0.000000e+00
        8000   7.999000e-08   1.018560e-01   6.175806e+00   1.374178e+01  -1.279626e+05   5.954613e+04   4.341582e+04  -4.035197e+12  -8.403656e+12  -3.473125e+11   1.476655e+05   6.761358e-21   0.000000e+00   0.000000e+00
       16000   1.599900e-07   1.029235e-01   6.174134e+00   1.374542e+01  -2.330876e+04   1.377634e+05   4.850583e+04  -9.236929e+12  -1.441607e+12  -3.262603e+11   1.479016e+05   6.820456e-21   0.000000e+00   0.000000e+00
       24000   2.399900e-07   1.021885e-01   6.172175e+00   1.374899e+01   1.005237e+05   9.611543e+04   5.100834e+04  -6.470956e+12   6.788113e+12  -2.113894e+10   1.481386e+05   6.877258e-21   0.000000e+00   0.000000e+00
       32000   3.199900e-07   1.001956e-01   6.171531e+00   1.375253e+01   1.371234e+05  -2.920229e+04   4.857991e+04   1.862061e+12   9.211207e+12   2.993058e+11   1.483766e+05   6.934752e-21   0.000000e+00   0.000000e+00
       40000   3.999900e-07   9.855763e-02   6.172664e+00   1.375612e+01   5.553757e+04  -1.308968e+05   4.322243e+04   8.632753e+12   3.773897e+12   3.571746e+11   1.486155e+05   6.995759e-21   0.000000e+00   0.000000e+00
       48000   4.799900e-07   9.857148e-02   6.174523e+00   1.375975e+01  -7.459993e+04  -1.226862e+05   3.925401e+04   8.094230e+12  -4.891313e+12   1.178648e+11   1.488554e+05   7.062663e-21   0.000000e+00   0.000000e+00
       56000   5.599900e-07   1.001279e-01   6.175457e+00   1.376339e+01  -1.432096e+05  -1.175267e+04   3.978153e+04   7.068161e+11  -9.456860e+12  -2.267548e+11   1.490963e+05   7.127339e-21   0.000000e+00   0.000000e+00
       64000   6.399900e-07   1.018232e-01   6.174604e+00   1.376697e+01  -9.272642e+04   1.083815e+05   4.423921e+04  -7.304729e+12  -6.082700e+12  -3.884308e+11   1.493381e+05   7.192270e-21   0.000000e+00   0.000000e+00
       72000   7.199900e-07   1.021506e-01   6.172606e+00   1.377046e+01   3.430029e+04   1.372173e+05   4.867571e+04  -9.231548e+12   2.393762e+12  -2.241513e+11   1.495808e+05   7.254944e-21   0.000000e+00   0.000000e+00
       80000   7.999900e-07   1.007552e-01   6.171050e+00   1.377389e+01   1.320018e+05   5.106960e+04   4.914096e+04  -3.485655e+12   8.905159e+12   1.270709e+11   1.498246e+05   7.315879e-21   0.000000e+00   0.000000e+00
       88000   8.799900e-07   9.870985e-02   6.171144e+00   1.377732e+01   1.197162e+05  -7.844633e+04   4.511118e+04   5.160331e+12   8.072443e+12   3.634929e+11   1.500694e+05   7.376533e-21   0.000000e+00   0.000000e+00
       96000   9.599900e-07   9.761165e-02   6.172728e+00   1.378080e+01   7.896529e+03  -1.447480e+05   3.975273e+04   9.593541e+12   6.001999e+11   3.030474e+11   1.503151e+05   7.446012e-21   0.000000e+00   0.000000e+00
      104000   1.039990e-06   9.826958e-02   6.174427e+00   1.378432e+01  -1.117750e+05  -9.377422e+04   3.717005e+04   6.195166e+12  -7.395737e+12  -3.607870e+09   1.505618e+05   7.518043e-21   0.000000e+00   0.000000e+00
      112000   1.119990e-06   1.000583e-01   6.174785e+00   1.378781e+01  -1.418843e+05   3.276674e+04   3.922620e+04  -2.265687e+12  -9.401830e+12  -3.176912e+11   1.508095e+05   7.587502e-21   0.000000e+00   0.000000e+00
      120000   1.199990e-06   1.014431e-01   6.173443e+00   1.379123e+01  -5.822149e+04   1.322131e+05   4.414236e+04  -8.922818e+12  -3.795717e+12  -3.786552e+11   1.510582e+05   7.656356e-21   0.000000e+00   0.000000e+00
      128000   1.279990e-06   1.012284e-01   6.171416e+00   1.379456e+01   7.150629e+04   1.245344e+05   4.766660e+04  -8.411717e+12   4.888182e+12  -1.323684e+11   1.513079e+05   7.722578e-21   0.000000e+00   0.000000e+00
      136000   1.359990e-06   9.951109e-02   6.170258e+00   1.379784e+01   1.432593e+05   1.622595e+04   4.672801e+04  -1.159925e+12   9.680364e+12   2.150293e+11   1.515586e+05   7.783571e-21   0.000000e+00   0.000000e+00
      144000   1.439990e-06   9.758416e-02   6.170816e+00   1.380114e+01   1.001154e+05  -1.060852e+05   4.206214e+04   7.034011e+12   6.783757e+12   3.898884e+11   1.518103e+05   7.854419e-21   0.000000e+00   0.000000e+00
      152000   1.519990e-06   9.689270e-02   6.172571e+00   1.380450e+01  -2.331023e+04  -1.456168e+05   3.708799e+04   9.690695e+12  -1.492801e+12   2.555393e+11   1.520630e+05   7.926286e-21   0.000000e+00   0.000000e+00
      160000   1.599990e-06   9.789616e-02   6.174068e+00   1.380789e+01  -1.296961e+05  -7.151599e+04   3.556280e+04   4.727506e+12  -8.626527e+12  -7.952071e+10   1.523165e+05   7.999798e-21   0.000000e+00   0.000000e+00
      168000   1.679990e-06   9.972442e-02   6.174070e+00   1.381125e+01  -1.357886e+05   5.791777e+04   3.853423e+04  -3.959619e+12  -9.028366e+12  -3.580010e+11   1.525710e+05   8.071794e-21   0.000000e+00   0.000000e+00
      176000   1.759990e-06   1.008737e-01   6.172513e+00   1.381454e+01  -3.713322e+04   1.416922e+05   4.359275e+04  -9.587804e+12  -2.394053e+12  -3.631213e+11   1.528264e+05   8.138049e-21   0.000000e+00   0.000000e+00
      184000   1.839990e-06   1.003808e-01   6.170543e+00   1.381775e+01   8.950713e+04   1.151071e+05   4.661707e+04  -7.804999e+12   6.110841e+12  -8.184231e+10   1.530827e+05   8.205262e-21   0.000000e+00   0.000000e+00
      192000   1.919990e-06   9.855619e-02   6.169610e+00   1.382093e+01   1.465519e+05  -9.599875e+02   4.510833e+04  -7.717643e+09   9.933751e+12   2.583730e+11   1.533400e+05   8.273010e-21   0.000000e+00   0.000000e+00
      200000   1.999990e-06   9.672676e-02   6.170359e+00   1.382413e+01   9.059248e+04  -1.173583e+05   4.015537e+04   7.818869e+12   6.162660e+12   3.959910e+11   1.535982e+05   8.344926e-21   0.000000e+00   0.000000e+00
      208000   2.079990e-06   9.621048e-02   6.172148e+00   1.382739e+01  -3.541417e+04  -1.454848e+05   3.538508e+04   9.717939e+12  -2.315468e+12   2.341621e+11   1.538574e+05   8.422430e-21   0.000000e+00   0.000000e+00
      216000   2.159990e-06   9.731972e-02   6.173555e+00   1.383067e+01  -1.358401e+05  -6.426159e+04   3.420719e+04   4.257884e+12  -9.072254e+12  -1.052917e+11   1.541175e+05   8.501023e-21   0.000000e+00   0.000000e+00
      224000   2.239990e-06   9.914012e-02   6.173457e+00   1.383392e+01  -1.350369e+05   6.482391e+04   3.735820e+04  -4.435803e+12  -9.010875e+12  -3.711835e+11   1.543785e+05   8.577696e-21   0.000000e+00   0.000000e+00
      232000   2.319990e-06   1.002328e-01   6.171871e+00   1.383709e+01  -3.388045e+04   1.448145e+05   4.236233e+04  -9.828386e+12  -2.185347e+12  -3.660120e+11   1.546405e+05   8.649167e-21   0.000000e+00   0.000000e+00
      240000   2.399990e-06   9.971533e-02   6.169923e+00   1.384019e+01   9.184451e+04   1.162197e+05   4.530599e+04  -7.904296e+12   6.285845e+12  -7.842525e+10   1.549034e+05   8.720411e-21   0.000000e+00   0.000000e+00
      248000   2.479990e-06   9.790795e-02   6.168997e+00   1.384326e+01   1.488500e+05   6.584388e+02   4.381942e+04  -1.141977e+11   1.011890e+13   2.592544e+11   1.551673e+05   8.791025e-21   0.000000e+00   0.000000e+00
      256000   2.559990e-06   9.607870e-02   6.169709e+00   1.384636e+01   9.536955e+04  -1.163824e+05   3.897348e+04   7.781528e+12   6.502448e+12   4.023194e+11   1.554321e+05   8.866126e-21   0.000000e+00   0.000000e+00
      264000   2.639990e-06   9.549995e-02   6.171471e+00   1.384951e+01  -2.902479e+04  -1.490891e+05   3.423182e+04   9.995527e+12  -1.894951e+12   2.523142e+11   1.556978e+05   8.945633e-21   0.000000e+00   0.000000e+00
      272000   2.719990e-06   9.652053e-02   6.172933e+00   1.385269e+01  -1.333863e+05  -7.384223e+04   3.286826e+04   4.921159e+12  -8.939847e+12  -8.159135e+10   1.559644e+05   9.026582e-21   0.000000e+00   0.000000e+00
      280000   2.799990e-06   9.832652e-02   6.172977e+00   1.385585e+01  -1.419972e+05   5.445227e+04   3.577911e+04  -3.747152e+12  -9.514598e+12  -3.618456e+11   1.562318e+05   9.105772e-21   0.000000e+00   0.000000e+00
      288000   2.879990e-06   9.954445e-02   6.171518e+00   1.385894e+01  -4.890700e+04   1.429578e+05   4.078575e+04  -9.733778e+12  -3.213383e+12  -3.829684e+11   1.565001e+05   9.182389e-21   0.000000e+00   0.000000e+00
      296000   2.959990e-06   9.923630e-02   6.169551e+00   1.386196e+01   7.865354e+04   1.282195e+05   4.415892e+04  -8.739685e+12   5.412974e+12  -1.264704e+11   1.567694e+05   9.255989e-21   0.000000e+00   0.000000e+00
      304000   3.039990e-06   9.756348e-02   6.168425e+00   1.386495e+01   1.494385e+05   2.116693e+04   4.337616e+04  -1.499932e+12   1.019152e+13   2.186967e+11   1.570395e+05   9.328885e-21   0.000000e+00   0.000000e+00
      312000   3.119990e-06   9.565494e-02   6.168879e+00   1.386796e+01   1.134070e+05  -1.018235e+05   3.895430e+04   6.822980e+12   7.743430e+12   4.044858e+11   1.573105e+05   9.406333e-21   0.000000e+00   0.000000e+00
      320000   3.199990e-06   9.479525e-02   6.170529e+00   1.387102e+01  -3.623408e+03  -1.538395e+05   3.394874e+04   1.035034e+13  -1.832933e+11   3.057056e+11   1.575824e+05   9.490129e-21   0.000000e+00   0.000000e+00
      328000   3.279990e-06   9.552062e-02   6.172154e+00   1.387412e+01  -1.191741e+05  -9.853055e+04   3.174187e+04   6.611172e+12  -8.009396e+12  -6.653207e+09   1.578552e+05   9.576421e-21   0.000000e+00   0.000000e+00
      336000   3.359990e-06   9.725489e-02   6.172564e+00   1.387721e+01  -1.524210e+05   2.514069e+04   3.377202e+04  -1.769652e+12  -1.025694e+13  -3.192314e+11   1.581289e+05   9.661360e-21   0.000000e+00   0.000000e+00
      344000   3.439990e-06   9.872542e-02   6.171422e+00   1.388024e+01  -8.044427e+04   1.308960e+05   3.855669e+04  -8.944750e+12  -5.367053e+12  -4.133738e+11   1.584035e+05   9.743775e-21   0.000000e+00   0.000000e+00
      352000   3.519990e-06   9.885403e-02   6.169471e+00   1.388320e+01   4.657528e+04   1.455659e+05   4.266505e+04  -9.942841e+12   3.253085e+12  -2.192181e+11   1.586790e+05   9.823089e-21   0.000000e+00   0.000000e+00
      360000   3.599990e-06   9.749690e-02   6.168002e+00   1.388611e+01   1.409877e+05   5.939808e+04   4.314093e+04  -4.097255e+12   9.652370e+12   1.258644e+11   1.589553e+05   9.900632e-21   0.000000e+00   0.000000e+00
      368000   3.679990e-06   9.552864e-02   6.167965e+00   1.388903e+01   1.383107e+05  -6.823990e+04   3.960438e+04   4.566296e+12   9.459721e+12   3.804547e+11   1.592327e+05   9.981336e-21   0.000000e+00   0.000000e+00
      376000   3.759990e-06   9.423123e-02   6.169326e+00   1.389200e+01   4.071923e+04  -1.503370e+05   3.441577e+04   1.014549e+13   2.826496e+12   3.754390e+11   1.595109e+05   1.006873e-20   0.000000e+00   0.000000e+00
      384000   3.839990e-06   9.442084e-02   6.171105e+00   1.389501e+01  -8.541685e+04  -1.314448e+05   3.096875e+04   8.869615e+12  -5.744299e+12   1.186014e+11   1.597900e+05   1.016042e-20   0.000000e+00   0.000000e+00
      392000   3.919990e-06   9.590518e-02   6.172049e+00   1.389803e+01  -1.550142e+05  -2.455811e+04   3.146265e+04   1.606906e+12  -1.047192e+13  -2.210313e+11   1.600700e+05   1.025183e-20   0.000000e+00   0.000000e+00
      400000   3.999990e-06   9.762483e-02   6.171479e+00   1.390100e+01  -1.216231e+05   9.838003e+04   3.523675e+04  -6.759624e+12  -8.191552e+12  -4.288587e+11   1.603510e+05   1.035069e-20   0.000000e+00   0.000000e+00
      408000   4.079990e-06   9.837367e-02   6.169730e+00   1.390389e+01  -7.901869e+03   1.553319e+05   4.015630e+04  -1.063999e+13  -4.440390e+11  -3.478176e+11   1.606331e+05   1.043766e-20   0.000000e+00   0.000000e+00
      416000   4.159990e-06   9.760605e-02   6.167915e+00   1.390672e+01   1.104975e+05   1.089903e+05   4.249003e+04  -7.487100e+12   7.614564e+12  -3.452276e+10   1.609161e+05   1.052171e-20   0.000000e+00   0.000000e+00
      424000   4.239990e-06   9.577579e-02   6.167176e+00   1.390953e+01   1.556973e+05  -9.722535e+03   4.061136e+04   5.966236e+11   1.068218e+13   2.982112e+11   1.612001e+05   1.060652e-20   0.000000e+00   0.000000e+00
      432000   4.319990e-06   9.402660e-02   6.167941e+00   1.391237e+01   9.846346e+04  -1.229108e+05   3.571142e+04   8.310145e+12   6.773583e+12   4.326847e+11   1.614850e+05   1.069731e-20   0.000000e+00   0.000000e+00
      440000   4.399990e-06   9.343792e-02   6.169657e+00   1.391526e+01  -2.362280e+04  -1.570281e+05   3.088622e+04   1.064295e+13  -1.551817e+12   2.879956e+11   1.617709e+05   1.079456e-20   0.000000e+00   0.000000e+00
      448000   4.479990e-06   9.432892e-02   6.171160e+00   1.391818e+01  -1.314076e+05  -9.026117e+04   2.911438e+04   6.096398e+12  -8.902087e+12  -4.243369e+10   1.620577e+05   1.089383e-20   0.000000e+00   0.000000e+00
      456000   4.559990e-06   9.606457e-02   6.171437e+00   1.392108e+01  -1.555723e+05   3.413315e+04   3.143589e+04  -2.392093e+12  -1.054502e+13  -3.511356e+11   1.623454e+05   1.099151e-20   0.000000e+00   0.000000e+00
      464000   4.639990e-06   9.747568e-02   6.170267e+00   1.392392e+01  -8.090555e+04   1.363342e+05   3.629185e+04  -9.374184e+12  -5.437571e+12  -4.386688e+11   1.626340e+05   1.108642e-20   0.000000e+00   0.000000e+00
      472000   4.719990e-06   9.761130e-02   6.168353e+00   1.392669e+01   4.469758e+04   1.513558e+05   4.046802e+04  -1.040343e+13   3.145515e+12  -2.446859e+11   1.629236e+05   1.117801e-20   0.000000e+00   0.000000e+00
      480000   4.799990e-06   9.633753e-02   6.166862e+00   1.392941e+01   1.415437e+05   7.005425e+04   4.119035e+04  -4.850351e+12   9.755653e+12   1.043663e+11   1.632142e+05   1.126766e-20   0.000000e+00   0.000000e+00
      488000   4.879990e-06   9.440848e-02   6.166683e+00   1.393213e+01   1.488482e+05  -5.602306e+04   3.794395e+04   3.765756e+12   1.024363e+13   3.833500e+11   1.635057e+05   1.136036e-20   0.000000e+00   0.000000e+00
      496000   4.959990e-06   9.298027e-02   6.167875e+00   1.393490e+01   6.240434e+04  -1.478694e+05   3.271358e+04   1.004917e+13   4.326078e+12   4.212803e+11   1.637982e+05   1.146017e-20   0.000000e+00   0.000000e+00
      504000   5.039990e-06   9.288630e-02   6.169645e+00   1.393771e+01  -6.370332e+04  -1.484851e+05   2.863759e+04   1.009933e+13  -4.302396e+12   1.999019e+11   1.640916e+05   1.156544e-20   0.000000e+00   0.000000e+00
      512000   5.119990e-06   9.412723e-02   6.170851e+00   1.394053e+01  -1.513166e+05  -5.775990e+04   2.810407e+04   3.895152e+12  -1.029673e+13  -1.467633e+11   1.643860e+05   1.167140e-20   0.000000e+00   0.000000e+00
      520000   5.199990e-06   9.588252e-02   6.170707e+00   1.394332e+01  -1.465908e+05   6.817355e+04   3.135937e+04  -4.730413e+12  -9.965553e+12  -4.091098e+11   1.646812e+05   1.177522e-20   0.000000e+00   0.000000e+00
      528000   5.279990e-06   9.702463e-02   6.169264e+00   1.394604e+01  -5.271458e+04   1.520492e+05   3.632869e+04  -1.048121e+13  -3.524744e+12  -4.226253e+11   1.649775e+05   1.187598e-20   0.000000e+00   0.000000e+00
      536000   5.359990e-06   9.681070e-02   6.167361e+00   1.394870e+01   7.279368e+04   1.429284e+05   3.985291e+04  -9.858701e+12   5.078745e+12  -1.760432e+11   1.652747e+05   1.197335e-20   0.000000e+00   0.000000e+00
      544000   5.439990e-06   9.532676e-02   6.166109e+00   1.395132e+01   1.538077e+05   4.672182e+04   3.968156e+04  -3.264671e+12   1.062418e+13   1.760591e+11   1.655728e+05   1.206969e-20   0.000000e+00   0.000000e+00
      552000   5.519990e-06   9.342245e-02   6.166215e+00   1.395395e+01   1.417585e+05  -7.830347e+04   3.586946e+04   5.309060e+12   9.786881e+12   4.177302e+11   1.658720e+05   1.217035e-20   0.000000e+00   0.000000e+00
      560000   5.599990e-06   9.219046e-02   6.167567e+00   1.395663e+01   4.421587e+04  -1.572232e+05   3.064285e+04   1.072785e+13   3.088797e+12   4.091420e+11   1.661721e+05   1.227851e-20   0.000000e+00   0.000000e+00
      568000   5.679990e-06   9.231299e-02   6.169313e+00   1.395934e+01  -8.047179e+04  -1.432101e+05   2.699017e+04   9.774113e+12  -5.470901e+12   1.595711e+11   1.664732e+05   1.239163e-20   0.000000e+00   0.000000e+00
      576000   5.759990e-06   9.366433e-02   6.170375e+00   1.396206e+01  -1.583602e+05  -4.483070e+04   2.694864e+04   3.022451e+12  -1.081708e+13  -1.870068e+11   1.667752e+05   1.250500e-20   0.000000e+00   0.000000e+00
      584000   5.839990e-06   9.539621e-02   6.170089e+00   1.396474e+01  -1.436606e+05   7.967751e+04   3.046677e+04  -5.534662e+12  -9.799057e+12  -4.293175e+11   1.670781e+05   1.261601e-20   0.000000e+00   0.000000e+00
      592000   5.919990e-06   9.644538e-02   6.168588e+00   1.396736e+01  -4.528610e+04   1.572035e+05   3.539753e+04  -1.086795e+13  -3.027858e+12  -4.210110e+11   1.673820e+05   1.272376e-20   0.000000e+00   0.000000e+00
      600000   5.999990e-06   9.615713e-02   6.166710e+00   1.396991e+01   7.908141e+04   1.427052e+05   3.873326e+04  -9.873333e+12   5.525023e+12  -1.645066e+11   1.676869e+05   1.282807e-20   0.000000e+00   0.000000e+00
      608000   6.079990e-06   9.465889e-02   6.165507e+00   1.397243e+01   1.572353e+05   4.496522e+04   3.842858e+04  -3.152042e+12   1.089171e+13   1.860633e+11   1.679928e+05   1.293160e-20   0.000000e+00   0.000000e+00
      616000   6.159990e-06   9.277429e-02   6.165628e+00   1.397496e+01   1.443282e+05  -7.934841e+04   3.461187e+04   5.400781e+12   9.992665e+12   4.249774e+11   1.682997e+05   1.303975e-20   0.000000e+00   0.000000e+00
      624000   6.239990e-06   9.154028e-02   6.166959e+00   1.397752e+01   4.809926e+04  -1.589016e+05   2.941457e+04   1.088062e+13   3.363133e+12   4.200735e+11   1.686075e+05   1.315564e-20   0.000000e+00   0.000000e+00
      632000   6.319990e-06   9.161338e-02   6.168698e+00   1.398013e+01  -7.632362e+04  -1.484857e+05   2.567907e+04   1.017136e+13  -5.206174e+12   1.782948e+11   1.689163e+05   1.327682e-20   0.000000e+00   0.000000e+00
      640000   6.399990e-06   9.290330e-02   6.169818e+00   1.398274e+01  -1.582665e+05  -5.425908e+04   2.539882e+04   3.684407e+12  -1.084920e+13  -1.667957e+11   1.692260e+05   1.339855e-20   0.000000e+00   0.000000e+00
      648000   6.479990e-06   9.463415e-02   6.169652e+00   1.398532e+01  -1.515704e+05   7.034193e+04   2.865521e+04  -4.906041e+12  -1.038000e+13  -4.237009e+11   1.695367e+05   1.351797e-20   0.000000e+00   0.000000e+00
      656000   6.559990e-06   9.578965e-02   6.168260e+00   1.398784e+01  -6.026370e+04   1.552154e+05   3.353996e+04  -1.076297e+13  -4.074256e+12  -4.443250e+11   1.698484e+05   1.363404e-20   0.000000e+00   0.000000e+00
      664000   6.639990e-06   9.568467e-02   6.166388e+00   1.399029e+01   6.433593e+04   1.530753e+05   3.719713e+04  -1.061773e+13   4.523232e+12  -2.140259e+11   1.701610e+05   1.374649e-20   0.000000e+00   0.000000e+00
      672000   6.719990e-06   9.434119e-02   6.165040e+00   1.399270e+01   1.528815e+05   6.545436e+04   3.747787e+04  -4.573253e+12   1.062506e+13   1.346702e+11   1.704747e+05   1.385761e-20   0.000000e+00   0.000000e+00
      680000   6.799990e-06   9.246513e-02   6.164922e+00   1.399512e+01   1.566209e+05  -5.891614e+04   3.417255e+04   4.009950e+12   1.087178e+13   4.045794e+11   1.707893e+05   1.397265e-20   0.000000e+00   0.000000e+00
      688000   6.879990e-06   9.104810e-02   6.166058e+00   1.399757e+01   7.381720e+04  -1.516051e+05   2.904839e+04   1.041258e+13   5.147431e+12   4.510020e+11   1.711049e+05   1.409552e-20   0.000000e+00   0.000000e+00
      696000   6.959990e-06   9.082191e-02   6.167786e+00   1.400005e+01  -5.002771e+04  -1.620735e+05   2.479424e+04   1.113772e+13  -3.407542e+12   2.532693e+11   1.714215e+05   1.421088e-20   0.000000e+00   0.000000e+00
      704000   7.039990e-06   9.186913e-02   6.169131e+00   1.400257e+01  -1.476035e+05  -8.455320e+04   2.362590e+04   5.788902e+12  -1.014648e+13  -8.849324e+10   1.717388e+05   1.434192e-20   0.000000e+00   0.000000e+00
      712000   7.119990e-06   9.357830e-02   6.169324e+00   1.400505e+01  -1.655999e+05   3.869591e+04   2.613223e+04  -2.729552e+12  -1.138375e+13  -3.879214e+11   1.720570e+05   1.447111e-20   0.000000e+00   0.000000e+00
      720000   7.199990e-06   9.498256e-02   6.168229e+00   1.400748e+01  -9.450349e+04   1.408150e+05   3.088329e+04  -9.794625e+12  -6.458109e+12  -4.808039e+11   1.723762e+05   1.459709e-20   0.000000e+00   0.000000e+00
      728000   7.279990e-06   9.528831e-02   6.166405e+00   1.400985e+01   2.710282e+04   1.668837e+05   3.520365e+04  -1.160086e+13   1.958299e+12  -3.126710e+11   1.726964e+05   1.471934e-20   0.000000e+00   0.000000e+00
      736000   7.359990e-06   9.429790e-02   6.164798e+00   1.401216e+01   1.339191e+05   1.032356e+05   3.664934e+04  -7.198806e+12   9.343399e+12   2.393436e+10   1.730176e+05   1.483919e-20   0.000000e+00   0.000000e+00
      744000   7.439990e-06   9.250577e-02   6.164226e+00   1.401446e+01   1.691520e+05  -1.589323e+04   3.437598e+04   1.044287e+12   1.177018e+13   3.438593e+11   1.733398e+05   1.496125e-20   0.000000e+00   0.000000e+00
      752000   7.519990e-06   9.082595e-02   6.164955e+00   1.401678e+01   1.144291e+05  -1.272474e+05   2.954559e+04   8.754334e+12   7.972555e+12   4.785935e+11   1.736631e+05   1.509052e-20   0.000000e+00   0.000000e+00
      760000   7.599990e-06   9.010496e-02   6.166561e+00   1.401915e+01  -1.140112e+03  -1.722337e+05   2.461353e+04   1.187618e+13  -3.490107e+10   3.632474e+11   1.739873e+05   1.522757e-20   0.000000e+00   0.000000e+00
      768000   7.679990e-06   9.067991e-02   6.168167e+00   1.402154e+01  -1.168363e+05  -1.274709e+05   2.202886e+04   8.782533e+12  -8.050742e+12   5.912853e+10   1.743125e+05   1.536836e-20   0.000000e+00   0.000000e+00
      776000   7.759990e-06   9.220993e-02   6.168903e+00   1.402392e+01  -1.723226e+05  -1.652867e+04   2.303006e+04   1.094987e+12  -1.189256e+13  -2.800720e+11   1.746386e+05   1.550846e-20   0.000000e+00   0.000000e+00
      784000   7.839990e-06   9.386188e-02   6.168358e+00   1.402625e+01  -1.389522e+05   1.028340e+05   2.702762e+04  -7.185553e+12  -9.569384e+12  -4.793774e+11   1.749658e+05   1.564567e-20   0.000000e+00   0.000000e+00
      792000   7.919990e-06   9.474713e-02   6.166786e+00   1.402852e+01  -3.422191e+04   1.689423e+05   3.186430e+04  -1.177549e+13  -2.295460e+12  -4.311556e+11   1.752939e+05   1.577910e-20   0.000000e+00   0.000000e+00
      800000   7.999990e-06   9.437911e-02   6.164966e+00   1.403073e+01   8.782693e+04   1.480211e+05   3.492367e+04  -1.032560e+13   6.173853e+12  -1.588427e+11   1.756231e+05   1.590901e-20   0.000000e+00   0.000000e+00
      808000   8.079990e-06   9.291614e-02   6.163798e+00   1.403291e+01   1.647943e+05   5.108416e+04   3.453690e+04  -3.598563e+12   1.150671e+13   1.930160e+11   1.759533e+05   1.603856e-20   0.000000e+00   0.000000e+00
      816000   8.159990e-06   9.107133e-02   6.163841e+00   1.403509e+01   1.577633e+05  -7.235477e+04   3.085067e+04   4.970927e+12   1.100707e+13   4.422860e+11   1.762845e+05   1.617320e-20   0.000000e+00   0.000000e+00
      824000   8.239990e-06   8.974419e-02   6.165037e+00   1.403731e+01   7.057313e+04  -1.598558e+05   2.567128e+04   1.105128e+13   4.944778e+12   4.673153e+11   1.766167e+05   1.631631e-20   0.000000e+00   0.000000e+00
      832000   8.319990e-06   8.956643e-02   6.166752e+00   1.403956e+01  -5.271744e+04  -1.675423e+05   2.148802e+04   1.159290e+13  -3.623160e+12   2.602102e+11   1.769499e+05   1.646612e-20   0.000000e+00   0.000000e+00
      840000   8.399990e-06   9.058996e-02   6.168096e+00   1.404182e+01  -1.503284e+05  -9.176288e+04   2.026367e+04   6.331828e+12  -1.040631e+13  -7.776905e+10   1.772841e+05   1.661787e-20   0.000000e+00   0.000000e+00
      848000   8.479990e-06   9.226851e-02   6.168372e+00   1.404405e+01  -1.736916e+05   2.954108e+04   2.252043e+04  -2.103344e+12  -1.202470e+13  -3.827182e+11   1.776193e+05   1.676781e-20   0.000000e+00   0.000000e+00
      856000   8.559990e-06   9.373588e-02   6.167416e+00   1.404624e+01  -1.114049e+05   1.361041e+05   2.707005e+04  -9.520327e+12  -7.681827e+12  -5.018082e+11   1.779555e+05   1.691428e-20   0.000000e+00   0.000000e+00
      864000   8.639990e-06   9.423751e-02   6.165677e+00   1.404835e+01   5.552015e+03   1.753893e+05   3.155988e+04  -1.225710e+13   4.634652e+11  -3.716533e+11   1.782926e+05   1.705665e-20   0.000000e+00   0.000000e+00
      872000   8.719990e-06   9.349957e-02   6.163982e+00   1.405042e+01   1.196007e+05   1.283429e+05   3.365637e+04  -8.983701e+12   8.398569e+12  -5.726386e+10   1.786308e+05   1.719608e-20   0.000000e+00   0.000000e+00
      880000   8.799990e-06   9.185587e-02   6.163129e+00   1.405246e+01   1.750938e+05   1.823309e+04   3.224890e+04  -1.319011e+12   1.225099e+13   2.820642e+11   1.789701e+05   1.733679e-20   0.000000e+00   0.000000e+00
      888000   8.879990e-06   9.007705e-02   6.163502e+00   1.405452e+01   1.452997e+05  -1.012794e+05   2.797655e+04   7.003660e+12   1.016537e+13   4.803897e+11   1.793103e+05   1.748419e-20   0.000000e+00   0.000000e+00
      896000   8.959990e-06   8.899245e-02   6.164889e+00   1.405661e+01   4.486676e+04  -1.724539e+05   2.283269e+04   1.196614e+13   3.163508e+12   4.472263e+11   1.796516e+05   1.764044e-20   0.000000e+00   0.000000e+00
      904000   9.039990e-06   8.909128e-02   6.166592e+00   1.405873e+01  -7.774886e+04  -1.612003e+05   1.916657e+04   1.118962e+13  -5.382473e+12   2.016958e+11   1.799938e+05   1.780273e-20   0.000000e+00   0.000000e+00
      912000   9.119990e-06   9.029311e-02   6.167770e+00   1.406085e+01  -1.638122e+05  -7.307992e+04   1.861068e+04   5.051283e+12  -1.138015e+13  -1.422903e+11   1.803371e+05   1.796619e-20   0.000000e+00   0.000000e+00
      920000   9.199990e-06   9.199306e-02   6.167836e+00   1.406294e+01  -1.723791e+05   4.975223e+04   2.135182e+04  -3.516552e+12  -1.197049e+13  -4.244599e+11   1.806813e+05   1.812738e-20   0.000000e+00   0.000000e+00
      928000   9.279990e-06   9.335489e-02   6.166736e+00   1.406498e+01  -9.955978e+04   1.489346e+05   2.601807e+04  -1.044038e+13  -6.879873e+12  -5.082833e+11   1.810265e+05   1.828470e-20   0.000000e+00   0.000000e+00
      936000   9.359990e-06   9.370881e-02   6.164968e+00   1.406695e+01   2.004337e+04   1.776982e+05   3.029366e+04  -1.245026e+13   1.472835e+12  -3.499666e+11   1.813728e+05   1.843773e-20   0.000000e+00   0.000000e+00
      944000   9.439990e-06   9.286423e-02   6.163339e+00   1.406887e+01   1.301056e+05   1.227515e+05   3.204355e+04  -8.615632e+12   9.151410e+12  -2.582049e+10   1.817201e+05   1.858809e-20   0.000000e+00   0.000000e+00
      952000   9.519990e-06   9.119234e-02   6.162583e+00   1.407078e+01   1.792368e+05   1.004193e+04   3.036842e+04  -7.474324e+11   1.257024e+13   3.070475e+11   1.820684e+05   1.874042e-20   0.000000e+00   0.000000e+00
      960000   9.599990e-06   8.944591e-02   6.163025e+00   1.407270e+01   1.447938e+05  -1.078651e+05   2.600198e+04   7.486823e+12   1.015416e+13   4.933285e+11   1.824177e+05   1.890004e-20   0.000000e+00   0.000000e+00
      968000   9.679990e-06   8.840627e-02   6.164432e+00   1.407464e+01   4.293645e+04  -1.764206e+05   2.089024e+04   1.228031e+13   3.033185e+12   4.521592e+11   1.827681e+05   1.906885e-20   0.000000e+00   0.000000e+00
      976000   9.759990e-06   8.852363e-02   6.166128e+00   1.407662e+01  -7.927873e+04  -1.641633e+05   1.726386e+04   1.143127e+13  -5.508678e+12   2.053326e+11   1.831194e+05   1.924393e-20   0.000000e+00   0.000000e+00
      984000   9.839990e-06   8.971489e-02   6.167313e+00   1.407860e+01  -1.657603e+05  -7.686126e+04   1.666612e+04   5.333048e+12  -1.155225e+13  -1.376091e+11   1.834718e+05   1.942037e-20   0.000000e+00   0.000000e+00
      992000   9.919990e-06   9.140757e-02   6.167421e+00   1.408055e+01  -1.770634e+05   4.547518e+04   1.929302e+04  -3.223524e+12  -1.233567e+13  -4.236911e+11   1.838251e+05   1.959452e-20   0.000000e+00   0.000000e+00
     1000000   9.999990e-06   9.280547e-02   6.166385e+00   1.408244e+01  -1.081914e+05   1.471272e+05   2.388050e+04  -1.033885e+13  -7.507203e+12  -5.203451e+11   1.841795e+05   1.976458e-20   0.000000e+00   0.000000e+00
     1008000   1.007999e-05   9.325188e-02   6.164653e+00   1.408427e+01   9.482897e+03   1.821140e+05   2.824284e+04  -1.278957e+13   7.338333e+11  -3.794458e+11   1.845348e+05   1.993008e-20   0.000000e+00   0.000000e+00
     1016000   1.015999e-05   9.252401e-02   6.162985e+00   1.408605e+01   1.228061e+05   1.348558e+05   3.028776e+04  -9.482529e+12   8.662244e+12  -6.577839e+10   1.848912e+05   2.009259e-20   0.000000e+00   0.000000e+00
     1024000   1.023999e-05   9.092746e-02   6.162106e+00   1.408780e+01   1.809924e+05   2.678001e+04   2.901085e+04  -1.917575e+12   1.272440e+13   2.745111e+11   1.852486e+05   2.025663e-20   0.000000e+00   0.000000e+00
     1032000   1.031999e-05   8.915308e-02   6.162383e+00   1.408957e+01   1.582459e+05  -9.373649e+04   2.493390e+04   6.520645e+12   1.112026e+13   4.881855e+11   1.856071e+05   2.042772e-20   0.000000e+00   0.000000e+00
     1040000   1.039999e-05   8.796564e-02   6.163669e+00   1.409136e+01   6.486391e+04  -1.731595e+05   1.979951e+04   1.208676e+13   4.573398e+12   4.851363e+11   1.859666e+05   2.060845e-20   0.000000e+00   0.000000e+00
     1048000   1.047999e-05   8.786533e-02   6.165371e+00   1.409318e+01  -5.773084e+04  -1.764555e+05   1.576055e+04   1.232480e+13  -4.017676e+12   2.703635e+11   1.863271e+05   2.079659e-20   0.000000e+00   0.000000e+00
     1056000   1.055999e-05   8.887077e-02   6.166717e+00   1.409501e+01  -1.555008e+05  -1.022872e+05   1.447198e+04   7.132393e+12  -1.086855e+13  -6.429602e+10   1.866885e+05   2.098727e-20   0.000000e+00   0.000000e+00
     1064000   1.063999e-05   9.051589e-02   6.167097e+00   1.409681e+01  -1.855796e+05   1.669757e+04   1.641546e+04  -1.209552e+12  -1.297140e+13  -3.764016e+11   1.870510e+05   2.117624e-20   0.000000e+00   0.000000e+00
     1072000   1.071999e-05   9.205836e-02   6.166327e+00   1.409857e+01  -1.349209e+05   1.284250e+05   2.067740e+04  -9.049031e+12  -9.408354e+12  -5.285153e+11   1.874145e+05   2.136116e-20   0.000000e+00   0.000000e+00
     1080000   1.079999e-05   9.280543e-02   6.164724e+00   1.410026e+01  -2.575792e+04   1.842794e+05   2.527014e+04  -1.297364e+13  -1.741696e+12  -4.550700e+11   1.877790e+05   2.155420e-20   0.000000e+00   0.000000e+00
     1088000   1.087999e-05   9.241622e-02   6.162967e+00   1.410189e+01   9.432117e+04   1.603399e+05   2.816176e+04  -1.129430e+13   6.685674e+12  -1.763257e+11   1.881447e+05   2.173090e-20   0.000000e+00   0.000000e+00
     1096000   1.095999e-05   9.104248e-02   6.161790e+00   1.410348e+01   1.738720e+05   6.726905e+04   2.792870e+04  -4.761731e+12   1.226013e+13   1.766749e+11   1.885115e+05   2.190759e-20   0.000000e+00   0.000000e+00
     1104000   1.103999e-05   8.925300e-02   6.161673e+00   1.410508e+01   1.790165e+05  -5.497912e+04   2.461307e+04   3.820272e+12   1.260879e+13   4.496016e+11   1.888794e+05   2.209004e-20   0.000000e+00   0.000000e+00
     1112000   1.111999e-05   8.778940e-02   6.162644e+00   1.410669e+01   1.077468e+05  -1.543456e+05   1.956896e+04   1.080003e+13   7.595194e+12   5.295361e+11   1.892482e+05   2.228231e-20   0.000000e+00   0.000000e+00
     1120000   1.119999e-05   8.725045e-02   6.164271e+00   1.410833e+01  -9.607109e+03  -1.887930e+05   1.482976e+04   1.322594e+13  -6.518706e+11   3.876984e+11   1.896181e+05   2.248389e-20   0.000000e+00   0.000000e+00
     1128000   1.127999e-05   8.784146e-02   6.165847e+00   1.410999e+01  -1.234665e+05  -1.438799e+05   1.226448e+04   1.007713e+13  -8.652548e+12   8.355832e+10   1.899890e+05   2.269042e-20   0.000000e+00   0.000000e+00
     1136000   1.135999e-05   8.929205e-02   6.166691e+00   1.411164e+01  -1.859676e+05  -3.857743e+04   1.284880e+04   2.677961e+12  -1.304199e+13  -2.598778e+11   1.903609e+05   2.289688e-20   0.000000e+00   0.000000e+00
     1144000   1.143999e-05   9.097386e-02   6.166434e+00   1.411325e+01  -1.709871e+05   8.293371e+04   1.627164e+04  -5.868585e+12  -1.197976e+13  -5.005186e+11   1.907338e+05   2.309984e-20   0.000000e+00   0.000000e+00
     1152000   1.151999e-05   9.216605e-02   6.165167e+00   1.411479e+01  -8.488547e+04   1.699249e+05   2.102700e+04  -1.199069e+13  -5.913301e+12  -5.339904e+11   1.911077e+05   2.329764e-20   0.000000e+00   0.000000e+00
     1160000   1.159999e-05   9.235589e-02   6.163400e+00   1.411628e+01   3.643176e+04   1.863123e+05   2.502063e+04  -1.314496e+13   2.626082e+12  -3.428909e+11   1.914826e+05   2.349038e-20   0.000000e+00   0.000000e+00
     1168000   1.167999e-05   9.144883e-02   6.161849e+00   1.411772e+01   1.427078e+05   1.254718e+05   2.647693e+04  -8.864313e+12   1.009827e+13  -8.870296e+09   1.918586e+05   2.368072e-20   0.000000e+00   0.000000e+00
     1176000   1.175999e-05   8.980279e-02   6.161134e+00   1.411914e+01   1.902215e+05   1.263010e+04   2.471477e+04  -9.244059e+11   1.342948e+13   3.252798e+11   1.922356e+05   2.387400e-20   0.000000e+00   0.000000e+00
     1184000   1.183999e-05   8.807645e-02   6.161530e+00   1.412056e+01   1.596221e+05  -1.058511e+05   2.040551e+04   7.414332e+12   1.126417e+13   5.221415e+11   1.926137e+05   2.407576e-20   0.000000e+00   0.000000e+00
     1192000   1.191999e-05   8.695736e-02   6.162856e+00   1.412202e+01   6.353410e+04  -1.815974e+05   1.523249e+04   1.275019e+13   4.493201e+12   5.062743e+11   1.929928e+05   2.428821e-20   0.000000e+00   0.000000e+00
     1200000   1.199999e-05   8.688247e-02   6.164555e+00   1.412349e+01  -5.888179e+04  -1.838506e+05   1.117890e+04   1.291583e+13  -4.129084e+12   2.873222e+11   1.933729e+05   2.450895e-20   0.000000e+00   0.000000e+00
     1208000   1.207999e-05   8.786366e-02   6.165922e+00   1.412498e+01  -1.579772e+05  -1.117518e+05   9.764349e+03   7.842968e+12  -1.110797e+13  -4.891141e+10   1.937540e+05   2.473288e-20   0.000000e+00   0.000000e+00
     1216000   1.215999e-05   8.948651e-02   6.166390e+00   1.412644e+01  -1.937179e+05   5.519751e+03   1.147626e+04  -4.196757e+11  -1.362044e+13  -3.711134e+11   1.941361e+05   2.495521e-20   0.000000e+00   0.000000e+00
     1224000   1.223999e-05   9.108056e-02   6.165755e+00   1.412785e+01  -1.517502e+05   1.206954e+05   1.556258e+04  -8.540804e+12  -1.065209e+13  -5.489475e+11   1.945192e+05   2.517292e-20   0.000000e+00   0.000000e+00
     1232000   1.231999e-05   9.199056e-02   6.164259e+00   1.412920e+01  -4.899552e+04   1.875498e+05   2.029285e+04  -1.325665e+13  -3.398391e+12  -5.062609e+11   1.949033e+05   2.538482e-20   0.000000e+00   0.000000e+00
     1240000   1.239999e-05   9.183835e-02   6.162487e+00   1.413048e+01   7.338354e+04   1.794243e+05   2.365035e+04  -1.268408e+13   5.232255e+12  -2.582597e+11   1.952884e+05   2.559190e-20   0.000000e+00   0.000000e+00
     1248000   1.247999e-05   9.067100e-02   6.161129e+00   1.413173e+01   1.666358e+05   9.968052e+04   2.418364e+04  -7.060634e+12   1.179983e+13   9.228869e+10   1.956746e+05   2.579801e-20   0.000000e+00   0.000000e+00
     1256000   1.255999e-05   8.893798e-02   6.160709e+00   1.413297e+01   1.938436e+05  -1.994664e+04   2.161063e+04   1.375277e+12   1.370543e+13   4.020017e+11   1.960618e+05   2.600908e-20   0.000000e+00   0.000000e+00
     1264000   1.263999e-05   8.730983e-02   6.161376e+00   1.413422e+01   1.443599e+05  -1.321647e+05   1.689244e+04   9.290990e+12   1.020415e+13   5.499195e+11   1.964501e+05   2.623013e-20   0.000000e+00   0.000000e+00
     1272000   1.271999e-05   8.641267e-02   6.162853e+00   1.413550e+01   3.773066e+04  -1.928289e+05   1.179586e+04   1.357512e+13   2.675836e+12   4.829659e+11   1.968394e+05   2.646227e-20   0.000000e+00   0.000000e+00
     1280000   1.279999e-05   8.658345e-02   6.164546e+00   1.413679e+01  -8.419217e+04  -1.781687e+05   8.193030e+03   1.254747e+13  -5.929486e+12   2.291001e+11   1.972296e+05   2.670219e-20   0.000000e+00   0.000000e+00
     1288000   1.287999e-05   8.774054e-02   6.165780e+00   1.413809e+01  -1.737178e+05  -9.392396e+04   7.376782e+03   6.605401e+12  -1.224683e+13  -1.164047e+11   1.976209e+05   2.694451e-20   0.000000e+00   0.000000e+00
     1296000   1.295999e-05   8.941844e-02   6.166059e+00   1.413935e+01  -1.959227e+05   2.704635e+04   9.590275e+03  -1.936715e+12  -1.380764e+13  -4.227638e+11   1.980131e+05   2.718441e-20   0.000000e+00   0.000000e+00
     1304000   1.303999e-05   9.095119e-02   6.165264e+00   1.414057e+01  -1.421769e+05   1.376856e+05   1.390978e+04  -9.754194e+12  -1.000067e+13  -5.691557e+11   1.984063e+05   2.741888e-20   0.000000e+00   0.000000e+00
     1312000   1.311999e-05   9.173197e-02   6.163691e+00   1.414172e+01  -3.335095e+04   1.951019e+05   1.856426e+04  -1.381212e+13  -2.303999e+12  -4.939299e+11   1.988006e+05   2.764700e-20   0.000000e+00   0.000000e+00
     1320000   1.319999e-05   9.144724e-02   6.161935e+00   1.414281e+01   8.846753e+04   1.771574e+05   2.162777e+04  -1.254405e+13   6.302753e+12  -2.250204e+11   1.991959e+05   2.787035e-20   0.000000e+00   0.000000e+00
     1328000   1.327999e-05   9.019517e-02   6.160660e+00   1.414386e+01   1.763791e+05   9.083950e+04   2.180956e+04  -6.444966e+12   1.250455e+13   1.297050e+11   1.995922e+05   2.809347e-20   0.000000e+00   0.000000e+00
     1336000   1.335999e-05   8.844467e-02   6.160343e+00   1.414491e+01   1.967094e+05  -3.068112e+04   1.897044e+04   2.140880e+12   1.392736e+13   4.303028e+11   1.999895e+05   2.832254e-20   0.000000e+00   0.000000e+00
     1344000   1.343999e-05   8.685329e-02   6.161091e+00   1.414597e+01   1.417417e+05  -1.409424e+05   1.413609e+04   9.933243e+12   1.003195e+13   5.637616e+11   2.003879e+05   2.856244e-20   0.000000e+00   0.000000e+00
     1352000   1.351999e-05   8.601569e-02   6.162609e+00   1.414705e+01   3.243887e+04  -1.979426e+05   9.052960e+03   1.396627e+13   2.300808e+12   4.842313e+11   2.007872e+05   2.881397e-20   0.000000e+00   0.000000e+00
     1360000   1.359999e-05   8.623851e-02   6.164307e+00   1.414815e+01  -8.967807e+04  -1.800105e+05   5.523913e+03   1.270514e+13  -6.333829e+12   2.231283e+11   2.011876e+05   2.907363e-20   0.000000e+00   0.000000e+00
     1368000   1.367999e-05   8.742607e-02   6.165530e+00   1.414925e+01  -1.783214e+05  -9.389773e+04   4.772374e+03   6.619951e+12  -1.259989e+13  -1.248560e+11   2.015889e+05   2.933580e-20   0.000000e+00   0.000000e+00
     1376000   1.375999e-05   8.911852e-02   6.165806e+00   1.415031e+01  -1.999360e+05   2.787287e+04   7.009483e+03  -1.993973e+12  -1.412136e+13  -4.320424e+11   2.019912e+05   2.959532e-20   0.000000e+00   0.000000e+00
     1384000   1.383999e-05   9.066700e-02   6.165020e+00   1.415133e+01  -1.463253e+05   1.393703e+05   1.132943e+04  -9.885561e+12  -1.031700e+13  -5.807639e+11   2.023945e+05   2.984885e-20   0.000000e+00   0.000000e+00
     1392000   1.391999e-05   9.147882e-02   6.163456e+00   1.415228e+01  -3.764455e+04   1.986300e+05   1.601095e+04  -1.408050e+13  -2.617097e+12  -5.100370e+11   2.027988e+05   3.009537e-20   0.000000e+00   0.000000e+00
     1400000   1.399999e-05   9.123962e-02   6.161692e+00   1.415317e+01   8.532443e+04   1.834235e+05   1.916923e+04  -1.300362e+13   6.085830e+12  -2.449780e+11   2.032041e+05   3.033668e-20   0.000000e+00   0.000000e+00
     1408000   1.407999e-05   9.002935e-02   6.160377e+00   1.415403e+01   1.765886e+05   9.946416e+04   1.950771e+04  -7.061022e+12   1.253514e+13   1.111745e+11   2.036104e+05   3.057758e-20   0.000000e+00   0.000000e+00
     1416000   1.415999e-05   8.828993e-02   6.159992e+00   1.415487e+01   2.021371e+05  -2.192639e+04   1.682555e+04   1.529506e+12   1.432907e+13   4.215795e+11   2.040178e+05   3.082451e-20   0.000000e+00   0.000000e+00
     1424000   1.423999e-05   8.665883e-02   6.160669e+00   1.415572e+01   1.524779e+05  -1.356287e+05   1.205790e+04   9.577197e+12   1.080247e+13   5.722963e+11   2.044261e+05   3.108268e-20   0.000000e+00   0.000000e+00
     1432000   1.431999e-05   8.573198e-02   6.162150e+00   1.415660e+01   4.599092e+04  -1.994871e+05   6.877857e+03   1.410115e+13   3.258114e+12   5.123542e+11   2.048355e+05   3.135333e-20   0.000000e+00   0.000000e+00
     1440000   1.439999e-05   8.584394e-02   6.163877e+00   1.415749e+01  -7.798082e+04  -1.898299e+05   3.072943e+03   1.342364e+13  -5.521145e+12   2.655467e+11   2.052458e+05   3.163328e-20   0.000000e+00   0.000000e+00
     1448000   1.447999e-05   8.694565e-02   6.165204e+00   1.415838e+01  -1.736775e+05  -1.101237e+05   1.929828e+03   7.783564e+12  -1.229620e+13  -8.103117e+10   2.056570e+05   3.191680e-20   0.000000e+00   0.000000e+00
     1456000   1.455999e-05   8.862372e-02   6.165633e+00   1.415924e+01  -2.057742e+05   1.035093e+04   3.793260e+03  -7.503310e+11  -1.456274e+13  -4.040940e+11   2.060693e+05   3.219811e-20   0.000000e+00   0.000000e+00
     1464000   1.463999e-05   9.025350e-02   6.164997e+00   1.416006e+01  -1.623689e+05   1.273133e+05   7.918606e+03  -9.039939e+12  -1.147598e+13  -5.837946e+11   2.064825e+05   3.247313e-20   0.000000e+00   0.000000e+00
     1472000   1.471999e-05   9.122911e-02   6.163520e+00   1.416081e+01  -5.931813e+04   1.978036e+05   1.270220e+04  -1.403647e+13  -4.163205e+12  -5.490236e+11   2.068967e+05   3.274033e-20   0.000000e+00   0.000000e+00
     1480000   1.479999e-05   9.118543e-02   6.161735e+00   1.416150e+01   6.566890e+04   1.959624e+05   1.626464e+04  -1.390500e+13   4.696423e+12  -3.099752e+11   2.073119e+05   3.300128e-20   0.000000e+00   0.000000e+00
     1488000   1.487999e-05   9.013066e-02   6.160286e+00   1.416214e+01   1.669339e+05   1.224290e+05   1.718022e+04  -8.692692e+12   1.186430e+13   4.274113e+10   2.077281e+05   3.326075e-20   0.000000e+00   0.000000e+00
     1496000   1.495999e-05   8.844168e-02   6.159694e+00   1.416277e+01   2.075640e+05   3.968778e+03   1.502966e+04  -2.983924e+11   1.472902e+13   3.759919e+11   2.081453e+05   3.352544e-20   0.000000e+00   0.000000e+00
     1504000   1.503999e-05   8.672552e-02   6.160166e+00   1.416340e+01   1.727484e+05  -1.163865e+05   1.053042e+04   8.230162e+12   1.224847e+13   5.688448e+11   2.085635e+05   3.380126e-20   0.000000e+00   0.000000e+00
     1512000   1.511999e-05   8.559859e-02   6.161527e+00   1.416406e+01   7.503295e+04  -1.949782e+05   5.225628e+03   1.380246e+13   5.315232e+12   5.559862e+11   2.089826e+05   3.409052e-20   0.000000e+00   0.000000e+00
     1520000   1.519999e-05   8.546381e-02   6.163277e+00   1.416473e+01  -5.029359e+04  -2.032713e+05   9.096759e+02   1.439588e+13  -3.571129e+12   3.447732e+11   2.094027e+05   3.439092e-20   0.000000e+00   0.000000e+00
     1528000   1.527999e-05   8.636562e-02   6.164777e+00   1.416540e+01  -1.579520e+05  -1.381167e+05  -9.828066e+02   9.781755e+12  -1.120261e+13   8.437386e+09   2.098238e+05   3.469689e-20   0.000000e+00   0.000000e+00
     1536000   1.535999e-05   8.797444e-02   6.165478e+00   1.416606e+01  -2.089964e+05  -2.288601e+04   1.455624e+02   1.611573e+12  -1.481623e+13  -3.367310e+11   2.102458e+05   3.500197e-20   0.000000e+00   0.000000e+00
     1544000   1.543999e-05   8.970578e-02   6.165120e+00   1.416667e+01  -1.848707e+05   1.009429e+05   3.830027e+03  -7.173373e+12  -1.309396e+13  -5.668138e+11   2.106688e+05   3.530095e-20   0.000000e+00   0.000000e+00
     1552000   1.551999e-05   9.093106e-02   6.163824e+00   1.416721e+01  -9.411564e+04   1.887519e+05   8.665449e+03  -1.340387e+13  -6.644297e+12  -5.941208e+11   2.110927e+05   3.559127e-20   0.000000e+00   0.000000e+00
     1560000   1.559999e-05   9.120394e-02   6.162048e+00   1.416769e+01   3.072617e+04   2.088827e+05   1.279128e+04  -1.483093e+13   2.217152e+12  -4.047059e+11   2.115176e+05   3.587378e-20   0.000000e+00   0.000000e+00
     1568000   1.567999e-05   9.042039e-02   6.160424e+00   1.416813e+01   1.448701e+05   1.540121e+05   1.459230e+04  -1.093652e+13   1.030847e+13  -6.820355e+10   2.119435e+05   3.615293e-20   0.000000e+00   0.000000e+00
     1576000   1.575999e-05   8.885527e-02   6.159529e+00   1.416853e+01   2.073965e+05   4.370807e+04   1.332075e+04  -3.111892e+12   1.472958e+13   2.898678e+11   2.123703e+05   3.643561e-20   0.000000e+00   0.000000e+00
     1584000   1.583999e-05   8.706318e-02   6.159679e+00   1.416893e+01   1.958655e+05  -8.265660e+04   9.360685e+03   5.850294e+12   1.389662e+13   5.398194e+11   2.127981e+05   3.672860e-20   0.000000e+00   0.000000e+00
     1592000   1.591999e-05   8.568015e-02   6.160817e+00   1.416935e+01   1.142581e+05  -1.799846e+05   4.044400e+03   1.275483e+13   8.097736e+12   5.961679e+11   2.132269e+05   3.703570e-20   0.000000e+00   0.000000e+00
     1600000   1.599999e-05   8.519705e-02   6.162535e+00   1.416979e+01  -8.480277e+03  -2.134866e+05  -8.528075e+02   1.513581e+13  -6.137629e+11   4.427822e+11   2.136567e+05   3.735611e-20   0.000000e+00   0.000000e+00
     1608000   1.607999e-05   8.578506e-02   6.164217e+00   1.417023e+01  -1.287126e+05  -1.710339e+05  -3.720523e+03   1.212927e+13  -9.144340e+12   1.328368e+11   2.140873e+05   3.768491e-20   0.000000e+00   0.000000e+00
     1616000   1.615999e-05   8.723453e-02   6.165259e+00   1.417067e+01  -2.035871e+05  -6.750845e+04  -3.639426e+03   4.785270e+12  -1.445308e+13  -2.288317e+11   2.145189e+05   3.801519e-20   0.000000e+00   0.000000e+00
     1624000   1.623999e-05   8.902901e-02   6.165285e+00   1.417106e+01  -2.062851e+05   6.041587e+04  -7.002268e+02  -4.295611e+12  -1.463445e+13  -5.162776e+11   2.149514e+05   3.834038e-20   0.000000e+00   0.000000e+00
     1632000   1.631999e-05   9.052851e-02   6.164279e+00   1.417140e+01  -1.356216e+05   1.672767e+05   3.986590e+03  -1.188305e+13  -9.605481e+12  -6.237339e+11   2.153848e+05   3.865634e-20   0.000000e+00   0.000000e+00
     1640000   1.639999e-05   9.119699e-02   6.162591e+00   1.417167e+01  -1.652346e+04   2.150119e+05   8.646793e+03  -1.527103e+13  -1.142236e+12  -5.074958e+11   2.158192e+05   3.896266e-20   0.000000e+00   0.000000e+00
     1648000   1.647999e-05   9.079294e-02   6.160816e+00   1.417188e+01   1.088254e+05   1.865237e+05   1.148635e+04  -1.324616e+13   7.753779e+12  -2.080036e+11   2.162545e+05   3.926307e-20   0.000000e+00   0.000000e+00
     1656000   1.655999e-05   8.945517e-02   6.159580e+00   1.417206e+01   1.959795e+05   9.174705e+04   1.137562e+04  -6.517534e+12   1.392743e+13   1.641269e+11   2.166908e+05   3.956445e-20   0.000000e+00   0.000000e+00
     1664000   1.663999e-05   8.765369e-02   6.159319e+00   1.417222e+01   2.139799e+05  -3.589962e+04   8.269314e+03   2.540990e+12   1.518854e+13   4.735343e+11   2.171280e+05   3.987448e-20   0.000000e+00   0.000000e+00
     1672000   1.671999e-05   8.602369e-02   6.160126e+00   1.417239e+01   1.562757e+05  -1.513367e+05   3.189044e+03   1.073279e+13   1.108022e+13   6.127495e+11   2.175662e+05   4.019865e-20   0.000000e+00   0.000000e+00
     1680000   1.679999e-05   8.514139e-02   6.161715e+00   1.417258e+01   4.303588e+04  -2.137041e+05  -2.180067e+03   1.516164e+13   3.036578e+12   5.372889e+11   2.180053e+05   4.053810e-20   0.000000e+00   0.000000e+00
     1688000   1.687999e-05   8.532068e-02   6.163525e+00   1.417279e+01  -8.590312e+04  -2.007536e+05  -6.079932e+03   1.424763e+13  -6.116901e+12   2.746091e+11   2.184453e+05   4.088926e-20   0.000000e+00   0.000000e+00
     1696000   1.695999e-05   8.650161e-02   6.164915e+00   1.417299e+01  -1.850050e+05  -1.167548e+05  -7.253632e+03   8.288570e+12  -1.314900e+13  -8.737535e+10   2.188861e+05   4.124527e-20   0.000000e+00   0.000000e+00
     1704000   1.703999e-05   8.827018e-02   6.165389e+00   1.417316e+01  -2.190824e+05   8.881304e+03  -5.361014e+03  -6.314413e+11  -1.555995e+13  -4.256361e+11   2.193279e+05   4.159832e-20   0.000000e+00   0.000000e+00
     1712000   1.711999e-05   9.000326e-02   6.164774e+00   1.417328e+01  -1.758042e+05   1.318739e+05  -1.127480e+03  -9.366695e+12  -1.247378e+13  -6.194373e+11   2.197706e+05   4.194227e-20   0.000000e+00   0.000000e+00
     1720000   1.719999e-05   9.108822e-02   6.163283e+00   1.417333e+01  -7.017942e+04   2.086965e+05   3.860277e+03  -1.482187e+13  -4.961508e+12  -5.943334e+11   2.202142e+05   4.227482e-20   0.000000e+00   0.000000e+00
     1728000   1.727999e-05   9.113974e-02   6.161437e+00   1.417332e+01   6.065955e+04   2.120173e+05   7.703176e+03  -1.505482e+13   4.331783e+12  -3.555777e+11   2.206587e+05   4.259844e-20   0.000000e+00   0.000000e+00
     1736000   1.735999e-05   9.013674e-02   6.159887e+00   1.417326e+01   1.705555e+05   1.404229e+05   8.902064e+03  -9.968901e+12   1.212500e+13   9.839451e+09   2.211041e+05   4.291977e-20   0.000000e+00   0.000000e+00
     1744000   1.743999e-05   8.843078e-02   6.159180e+00   1.417317e+01   2.206292e+05   1.895665e+04   6.927695e+03  -1.346122e+12   1.566294e+13   3.680339e+11   2.215505e+05   4.324725e-20   0.000000e+00   0.000000e+00
     1752000   1.751999e-05   8.662304e-02   6.159569e+00   1.417309e+01   1.929977e+05  -1.096774e+05   2.396287e+03   7.782842e+12   1.368566e+13   5.921157e+11   2.219977e+05   4.358804e-20   0.000000e+00   0.000000e+00
     1760000   1.759999e-05   8.535319e-02   6.160920e+00   1.417302e+01   9.710995e+04  -2.001040e+05  -3.193567e+03   1.420158e+13   6.869837e+12   6.074332e+11   2.224459e+05   4.394545e-20   0.000000e+00   0.000000e+00
     1768000   1.767999e-05   8.507412e-02   6.162760e+00   1.417297e+01  -3.347959e+04  -2.202207e+05  -8.007036e+03   1.563345e+13  -2.403047e+12   4.116194e+11   2.228949e+05   4.431784e-20   0.000000e+00   0.000000e+00
     1776000   1.775999e-05   8.589134e-02   6.164441e+00   1.417293e+01  -1.527916e+05  -1.625660e+05  -1.048383e+04   1.154542e+13  -1.087128e+13   7.064773e+10   2.233448e+05   4.469914e-20   0.000000e+00   0.000000e+00
     1784000   1.783999e-05   8.752364e-02   6.165368e+00   1.417286e+01  -2.185562e+05  -4.712474e+04  -9.844215e+03   3.351326e+12  -1.553353e+13  -3.012115e+11   2.237955e+05   4.508075e-20   0.000000e+00   0.000000e+00
     1792000   1.791999e-05   8.940002e-02   6.165209e+00   1.417275e+01  -2.071986e+05   8.552746e+04  -6.371350e+03  -6.068558e+12  -1.471479e+13  -5.742486e+11   2.242471e+05   4.545445e-20   0.000000e+00   0.000000e+00
     1800000   1.799999e-05   9.086008e-02   6.164016e+00   1.417258e+01  -1.223511e+05   1.884629e+05  -1.366226e+03  -1.337804e+13  -8.676272e+12  -6.468499e+11   2.246996e+05   4.581544e-20   0.000000e+00   0.000000e+00
     1808000   1.807999e-05   9.138767e-02   6.162208e+00   1.417234e+01   6.250098e+03   2.250424e+05   3.274336e+03  -1.597261e+13   4.620551e+11  -4.873868e+11   2.251530e+05   4.616435e-20   0.000000e+00   0.000000e+00
     1816000   1.815999e-05   9.079489e-02   6.160424e+00   1.417203e+01   1.331932e+05   1.820031e+05   5.752320e+03  -1.291323e+13   9.469041e+12  -1.522415e+11   2.256072e+05   4.650717e-20   0.000000e+00   0.000000e+00
     1824000   1.823999e-05   8.929056e-02   6.159298e+00   1.417169e+01   2.134536e+05   7.427094e+04   5.058207e+03  -5.265017e+12   1.515023e+13   2.348874e+11   2.260624e+05   4.685296e-20   0.000000e+00   0.000000e+00
     1832000   1.831999e-05   8.740818e-02   6.159234e+00   1.417135e+01   2.183611e+05  -6.022628e+04   1.344431e+03   4.278151e+12   1.548024e+13   5.337907e+11   2.265184e+05   4.721044e-20   0.000000e+00   0.000000e+00
     1840000   1.839999e-05   8.581860e-02   6.160263e+00   1.417101e+01   1.458165e+05  -1.738906e+05  -4.165904e+03   1.234215e+13   1.031928e+13   6.413903e+11   2.269752e+05   4.758511e-20   0.000000e+00   0.000000e+00
     1848000   1.847999e-05   8.509306e-02   6.162027e+00   1.417069e+01   2.117719e+04  -2.262392e+05  -9.648570e+03   1.605866e+13   1.469321e+12   5.240290e+11   2.274330e+05   4.797750e-20   0.000000e+00   0.000000e+00
     1856000   1.855999e-05   8.549969e-02   6.163904e+00   1.417039e+01  -1.115269e+05  -1.982907e+05  -1.330743e+04   1.408009e+13  -7.947350e+12   2.226401e+11   2.278915e+05   4.838297e-20   0.000000e+00   0.000000e+00
     1864000   1.863999e-05   8.690570e-02   6.165229e+00   1.417008e+01  -2.050591e+05  -9.949873e+04  -1.396030e+04   7.072556e+12  -1.457967e+13  -1.618330e+11   2.283509e+05   4.879286e-20   0.000000e+00   0.000000e+00
     1872000   1.871999e-05   8.882105e-02   6.165529e+00   1.416973e+01  -2.257781e+05   3.532430e+04  -1.144222e+04  -2.495890e+12  -1.603900e+13  -4.969519e+11   2.288110e+05   4.919709e-20   0.000000e+00   0.000000e+00
     1880000   1.879999e-05   9.057022e-02   6.164693e+00   1.416931e+01  -1.658176e+05   1.581934e+05  -6.710995e+03  -1.121679e+13  -1.176866e+13  -6.602470e+11   2.292720e+05   4.958805e-20   0.000000e+00   0.000000e+00
     1888000   1.887999e-05   9.153242e-02   6.163016e+00   1.416883e+01  -4.616665e+04   2.250419e+05  -1.564784e+03  -1.595863e+13  -3.266134e+12  -5.862530e+11   2.297339e+05   4.996392e-20   0.000000e+00   0.000000e+00
     1896000   1.895999e-05   9.136475e-02   6.161099e+00   1.416828e+01   9.062306e+04   2.115985e+05   1.997498e+03  -1.500005e+13   6.439612e+12  -2.983140e+11   2.301966e+05   5.032962e-20   0.000000e+00   0.000000e+00
     1904000   1.903999e-05   9.012753e-02   6.159631e+00   1.416768e+01   1.955768e+05   1.222592e+05   2.544435e+03  -8.659104e+12   1.387174e+13   9.668827e+10   2.306601e+05   5.069471e-20   0.000000e+00   0.000000e+00
     1912000   1.911999e-05   8.826583e-02   6.159145e+00   1.416706e+01   2.308475e+05  -1.130862e+04  -2.345760e+02   8.132084e+11   1.635372e+13   4.523216e+11   2.311244e+05   5.106944e-20   0.000000e+00   0.000000e+00
     1920000   1.919999e-05   8.645270e-02   6.159828e+00   1.416645e+01   1.833669e+05  -1.413534e+05  -5.437391e+03   1.003218e+13   1.297024e+13   6.416989e+11   2.315896e+05   5.146131e-20   0.000000e+00   0.000000e+00
     1928000   1.927999e-05   8.534922e-02   6.161445e+00   1.416586e+01   6.971575e+04  -2.210462e+05  -1.131830e+04   1.568267e+13   4.903116e+12   6.016816e+11   2.320556e+05   5.187298e-20   0.000000e+00   0.000000e+00
     1936000   1.935999e-05   8.536647e-02   6.163423e+00   1.416528e+01  -6.956013e+04  -2.213023e+05  -1.591795e+04   1.570449e+13  -4.973578e+12   3.481950e+11   2.325224e+05   5.230156e-20   0.000000e+00   0.000000e+00
     1944000   1.943999e-05   8.651451e-02   6.165056e+00   1.416470e+01  -1.842877e+05  -1.414513e+05  -1.771842e+04   1.004668e+13  -1.310435e+13  -3.269048e+10   2.329900e+05   5.273882e-20   0.000000e+00   0.000000e+00
     1952000   1.951999e-05   8.839416e-02   6.165753e+00   1.416409e+01  -2.326909e+05  -9.839484e+03  -1.615326e+04   7.155118e+11  -1.652652e+13  -4.097450e+11   2.334583e+05   5.317334e-20   0.000000e+00   0.000000e+00
     1960000   1.959999e-05   9.033694e-02   6.165261e+00   1.416343e+01  -1.966838e+05   1.260843e+05  -1.184446e+04  -8.923011e+12  -1.395823e+13  -6.458853e+11   2.339274e+05   5.359465e-20   0.000000e+00   0.000000e+00
     1968000   1.967999e-05   9.164535e-02   6.163755e+00   1.416270e+01  -8.877805e+04   2.168386e+05  -6.448987e+03  -1.535581e+13  -6.293532e+12  -6.480979e+11   2.343973e+05   5.399812e-20   0.000000e+00   0.000000e+00
     1976000   1.975999e-05   9.184725e-02   6.161785e+00   1.416189e+01   5.213401e+04   2.289993e+05  -2.086363e+03  -1.621272e+13   3.699340e+12  -4.099047e+11   2.348680e+05   5.438733e-20   0.000000e+00   0.000000e+00
     1984000   1.983999e-05   9.087110e-02   6.160072e+00   1.416102e+01   1.747603e+05   1.576173e+05  -5.225490e+02  -1.114910e+13   1.237926e+13  -2.009777e+10   2.353395e+05   5.477235e-20   0.000000e+00   0.000000e+00
     1992000   1.991999e-05   8.907640e-02   6.159254e+00   1.416012e+01   2.340951e+05   2.829394e+04  -2.467136e+03  -1.986075e+12   1.656310e+13   3.732103e+11   2.358117e+05   5.516503e-20   0.000000e+00   0.000000e+00
     2000000   1.999999e-05   8.712645e-02   6.159643e+00   1.415923e+01   2.079639e+05  -1.119287e+05  -7.312875e+03   7.943272e+12   1.469284e+13   6.247990e+11   2.362848e+05   5.557471e-20   0.000000e+00   0.000000e+00
     2008000   2.007999e-05   8.574827e-02   6.161112e+00   1.415835e+01   1.053666e+05  -2.115959e+05  -1.340456e+04   1.500010e+13   7.415234e+12   6.469750e+11   2.367586e+05   5.600590e-20   0.000000e+00   0.000000e+00
     2016000   2.015999e-05   8.546590e-02   6.163137e+00   1.415749e+01  -3.647549e+04  -2.336680e+05  -1.866513e+04   1.656555e+13  -2.632648e+12   4.346991e+11   2.372332e+05   5.645723e-20   0.000000e+00   0.000000e+00
     2024000   2.023999e-05   8.640449e-02   6.164980e+00   1.415664e+01  -1.654491e+05  -1.693446e+05  -2.131472e+04   1.201461e+13  -1.176272e+13   6.191767e+10   2.377085e+05   5.692110e-20   0.000000e+00   0.000000e+00
     2032000   2.031999e-05   8.823830e-02   6.165964e+00   1.415576e+01  -2.336022e+05  -4.174483e+04  -2.047540e+04   2.980531e+12  -1.657957e+13  -3.411876e+11   2.381845e+05   5.738494e-20   0.000000e+00   0.000000e+00
     2040000   2.039999e-05   9.030510e-02   6.165725e+00   1.415483e+01  -2.150471e+05   1.021821e+05  -1.651433e+04  -7.211480e+12  -1.525030e+13  -6.266777e+11   2.386612e+05   5.783557e-20   0.000000e+00   0.000000e+00
     2048000   2.047999e-05   9.184845e-02   6.164349e+00   1.415383e+01  -1.159906e+05   2.088366e+05  -1.098740e+04  -1.476135e+13  -8.220807e+12  -6.813670e+11   2.391386e+05   5.826559e-20   0.000000e+00   0.000000e+00
     2056000   2.055999e-05   9.229970e-02   6.162352e+00   1.415275e+01   2.712158e+04   2.379985e+05  -6.111250e+03  -1.682009e+13   1.916559e+12  -4.774004e+11   2.396168e+05   5.867747e-20   0.000000e+00   0.000000e+00
     2064000   2.063999e-05   9.149420e-02   6.160487e+00   1.415160e+01   1.609207e+05   1.781439e+05  -3.901193e+03  -1.257830e+13   1.137636e+13  -9.144350e+10   2.400957e+05   5.908214e-20   0.000000e+00   0.000000e+00
     2072000   2.071999e-05   8.973866e-02   6.159465e+00   1.415042e+01   2.350189e+05   5.112807e+04  -5.346189e+03  -3.591162e+12   1.659787e+13   3.256938e+11   2.405754e+05   5.949333e-20   0.000000e+00   0.000000e+00
     2080000   2.079999e-05   8.770179e-02   6.159690e+00   1.414923e+01   2.210304e+05  -9.567167e+04  -1.002012e+04   6.787792e+12   1.558723e+13   6.145559e+11   2.410558e+05   5.992207e-20   0.000000e+00   0.000000e+00
     2088000   2.087999e-05   8.616658e-02   6.161097e+00   1.414807e+01   1.235379e+05  -2.069135e+05  -1.628715e+04   1.465056e+13   8.680320e+12   6.704330e+11   2.415369e+05   6.037413e-20   0.000000e+00   0.000000e+00
     2096000   2.095999e-05   8.573547e-02   6.163173e+00   1.414692e+01  -2.119452e+04  -2.400879e+05  -2.194704e+04   1.699731e+13  -1.556157e+12   4.761008e+11   2.420187e+05   6.084912e-20   0.000000e+00   0.000000e+00
     2104000   2.103999e-05   8.659854e-02   6.165145e+00   1.414578e+01  -1.584806e+05  -1.818364e+05  -2.502519e+04   1.288315e+13  -1.125844e+13   1.014172e+11   2.425012e+05   6.133956e-20   0.000000e+00   0.000000e+00
     2112000   2.111999e-05   8.845401e-02   6.166267e+00   1.414462e+01  -2.357428e+05  -5.355681e+04  -2.446204e+04   3.817020e+12  -1.671053e+13  -3.193341e+11   2.429843e+05   6.183137e-20   0.000000e+00   0.000000e+00
     2120000   2.119999e-05   9.061541e-02   6.166113e+00   1.414341e+01  -2.227291e+05   9.616106e+04  -2.053063e+04  -6.765870e+12  -1.577451e+13  -6.277122e+11   2.434681e+05   6.230863e-20   0.000000e+00   0.000000e+00
     2128000   2.127999e-05   9.226954e-02   6.164742e+00   1.414212e+01  -1.236096e+05   2.097948e+05  -1.482183e+04  -1.479476e+13  -8.752179e+12  -6.980379e+11   2.439526e+05   6.276180e-20   0.000000e+00   0.000000e+00
     2136000   2.135999e-05   9.278909e-02   6.162684e+00   1.414075e+01   2.403954e+04   2.430593e+05  -9.697987e+03  -1.713867e+13   1.687558e+12  -4.946704e+11   2.444377e+05   6.319339e-20   0.000000e+00   0.000000e+00
     2144000   2.143999e-05   9.197954e-02   6.160745e+00   1.413931e+01   1.633339e+05   1.823611e+05  -7.348378e+03  -1.284455e+13   1.151682e+13  -9.615594e+10   2.449235e+05   6.361633e-20   0.000000e+00   0.000000e+00
     2152000   2.151999e-05   9.016184e-02   6.159693e+00   1.413783e+01   2.399857e+05   5.054128e+04  -8.860904e+03  -3.535737e+12   1.690681e+13   3.364082e+11   2.454100e+05   6.404657e-20   0.000000e+00   0.000000e+00
     2160000   2.159999e-05   8.805522e-02   6.159961e+00   1.413635e+01   2.235305e+05  -1.015373e+05  -1.377575e+04   7.194279e+12   1.572274e+13   6.317846e+11   2.458972e+05   6.449641e-20   0.000000e+00   0.000000e+00
     2168000   2.167999e-05   8.650202e-02   6.161470e+00   1.413489e+01   1.195758e+05  -2.144636e+05  -2.031215e+04   1.515902e+13   8.373701e+12   6.791359e+11   2.463851e+05   6.497210e-20   0.000000e+00   0.000000e+00
     2176000   2.175999e-05   8.613887e-02   6.163652e+00   1.413345e+01  -3.181771e+04  -2.434201e+05  -2.609271e+04   1.720294e+13  -2.310711e+12   4.637449e+11   2.468735e+05   6.547316e-20   0.000000e+00   0.000000e+00
     2184000   2.183999e-05   8.714168e-02   6.165667e+00   1.413202e+01  -1.712825e+05  -1.760911e+05  -2.902525e+04   1.245704e+13  -1.214485e+13   6.550211e+10   2.473626e+05   6.599092e-20   0.000000e+00   0.000000e+00
     2192000   2.191999e-05   8.914692e-02   6.166725e+00   1.413056e+01  -2.432776e+05  -3.820010e+04  -2.806259e+04   2.732529e+12  -1.721186e+13  -3.672775e+11   2.478522e+05   6.650856e-20   0.000000e+00   0.000000e+00
     2200000   2.199999e-05   9.138573e-02   6.166409e+00   1.412905e+01  -2.183371e+05   1.159476e+05  -2.364374e+04  -8.138787e+12  -1.543502e+13  -6.641832e+11   2.483425e+05   6.700730e-20   0.000000e+00   0.000000e+00
     2208000   2.207999e-05   9.298426e-02   6.164848e+00   1.412745e+01  -1.054625e+05   2.246886e+05  -1.762704e+04  -1.580290e+13  -7.458566e+12  -6.977453e+11   2.488333e+05   6.747711e-20   0.000000e+00   0.000000e+00
     2216000   2.215999e-05   9.331393e-02   6.162672e+00   1.412577e+01   5.075187e+04   2.437786e+05  -1.261245e+04  -1.714062e+13   3.557991e+12  -4.458090e+11   2.493248e+05   6.792330e-20   0.000000e+00   0.000000e+00
     2224000   2.223999e-05   9.225060e-02   6.160771e+00   1.412402e+01   1.875616e+05   1.646557e+05  -1.084637e+04  -1.155851e+13   1.318440e+13  -1.123116e+10   2.498169e+05   6.836268e-20   0.000000e+00   0.000000e+00
     2232000   2.231999e-05   9.023430e-02   6.159936e+00   1.412223e+01   2.492735e+05   1.851239e+04  -1.322580e+04  -1.265269e+12   1.750593e+13   4.231192e+11   2.503096e+05   6.881345e-20   0.000000e+00   0.000000e+00
     2240000   2.239999e-05   8.810029e-02   6.160536e+00   1.412045e+01   2.100317e+05  -1.357598e+05  -1.892302e+04   9.590988e+12   1.472056e+13   6.795040e+11   2.508029e+05   6.928808e-20   0.000000e+00   0.000000e+00
     2248000   2.247999e-05   8.674501e-02   6.162358e+00   1.411870e+01   8.487161e+04  -2.351220e+05  -2.577874e+04   1.658094e+13   5.899734e+12   6.591504e+11   2.512968e+05   6.979197e-20   0.000000e+00   0.000000e+00
     2256000   2.255999e-05   8.675926e-02   6.164684e+00   1.411697e+01  -7.566536e+04  -2.381187e+05  -3.119467e+04   1.679352e+13  -5.398239e+12   3.725174e+11   2.517913e+05   7.032287e-20   0.000000e+00   0.000000e+00
     2264000   2.263999e-05   8.817785e-02   6.166576e+00   1.411524e+01  -2.055986e+05  -1.424091e+05  -3.312454e+04   1.006282e+13  -1.453347e+13  -7.031579e+10   2.522863e+05   7.086835e-20   0.000000e+00   0.000000e+00
     2272000   2.271999e-05   9.045278e-02   6.167261e+00   1.411347e+01  -2.505347e+05   1.335722e+04  -3.086390e+04  -8.941355e+11  -1.768002e+13  -4.950859e+11   2.527818e+05   7.140671e-20   0.000000e+00   0.000000e+00
     2280000   2.279999e-05   9.266905e-02   6.166457e+00   1.411163e+01  -1.907004e+05   1.647339e+05  -2.541144e+04  -1.154001e+13  -1.345139e+13  -7.226446e+11   2.532778e+05   7.191716e-20   0.000000e+00   0.000000e+00
     2288000   2.287999e-05   9.392127e-02   6.164505e+00   1.410970e+01  -5.008056e+04   2.480432e+05  -1.918115e+04  -1.739165e+13  -3.548672e+12  -6.462122e+11   2.537743e+05   7.239360e-20   0.000000e+00   0.000000e+00
     2296000   2.295999e-05   9.369680e-02   6.162235e+00   1.410768e+01   1.128001e+05   2.273860e+05  -1.502384e+04  -1.593025e+13   7.897212e+12  -2.916209e+11   2.542715e+05   7.284882e-20   0.000000e+00   0.000000e+00
     2304000   2.303999e-05   9.210182e-02   6.160629e+00   1.410560e+01   2.290901e+05   1.104628e+05  -1.493453e+04  -7.711008e+12   1.604581e+13   1.860796e+11   2.547691e+05   7.330501e-20   0.000000e+00   0.000000e+00
     2312000   2.311999e-05   8.982887e-02   6.160398e+00   1.410351e+01   2.487769e+05  -5.390444e+04  -1.912626e+04   3.827575e+12   1.740091e+13   5.776313e+11   2.552674e+05   7.378093e-20   0.000000e+00   0.000000e+00
     2320000   2.319999e-05   8.787262e-02   6.161680e+00   1.410144e+01   1.624075e+05  -1.958720e+05  -2.596667e+04   1.378634e+13   1.131940e+13   7.187294e+11   2.557661e+05   7.428698e-20   0.000000e+00   0.000000e+00
     2328000   2.327999e-05   8.710820e-02   6.163962e+00   1.409939e+01   5.861953e+03  -2.540940e+05  -3.276847e+04   1.786567e+13   3.288284e+11   5.486510e+11   2.562653e+05   7.478383e-20   0.000000e+00   0.000000e+00
     2336000   2.335999e-05   8.791589e-02   6.166295e+00   1.409736e+01  -1.540484e+05  -2.021107e+05  -3.672213e+04   1.422246e+13  -1.088361e+13   1.508629e+11   2.567648e+05   7.534876e-20   0.000000e+00   0.000000e+00
     2344000   2.343999e-05   8.999502e-02   6.167678e+00   1.409530e+01  -2.472393e+05  -6.112180e+04  -3.635835e+04   4.337502e+12  -1.740708e+13  -3.209192e+11   2.572646e+05   7.591823e-20   0.000000e+00   0.000000e+00
     2352000   2.351999e-05   9.247808e-02   6.167513e+00   1.409319e+01  -2.318945e+05   1.079362e+05  -3.189842e+04  -7.514878e+12  -1.631165e+13  -6.642519e+11   2.577650e+05   7.646493e-20   0.000000e+00   0.000000e+00
     2360000   2.359999e-05   9.430349e-02   6.165879e+00   1.409098e+01  -1.135110e+05   2.305891e+05  -2.539941e+04  -1.610734e+13  -7.994142e+12  -7.181428e+11   2.582658e+05   7.697245e-20   0.000000e+00   0.000000e+00
     2368000   2.367999e-05   9.468392e-02   6.163509e+00   1.408868e+01   5.642145e+04   2.517519e+05  -1.995043e+04  -1.758012e+13   3.917388e+12  -4.477062e+11   2.587671e+05   7.744773e-20   0.000000e+00   0.000000e+00
     2376000   2.375999e-05   9.346513e-02   6.161479e+00   1.408631e+01   2.025077e+05   1.608668e+05  -1.824484e+04  -1.120731e+13   1.413145e+13   2.529054e+10   2.592690e+05   7.791498e-20   0.000000e+00   0.000000e+00
     2384000   2.383999e-05   9.120945e-02   6.160730e+00   1.408390e+01   2.588884e+05  -2.446249e+03  -2.125926e+04   2.226339e+11   1.804925e+13   4.809113e+11   2.597713e+05   7.839845e-20   0.000000e+00   0.000000e+00
     2392000   2.391999e-05   8.895773e-02   6.161643e+00   1.408151e+01   1.991339e+05  -1.652736e+05  -2.780182e+04   1.160714e+13   1.384531e+13   7.137608e+11   2.602741e+05   7.891265e-20   0.000000e+00   0.000000e+00
     2400000   2.399999e-05   8.776805e-02   6.163849e+00   1.407915e+01   4.901849e+04  -2.537098e+05  -3.511906e+04   1.778793e+13   3.337226e+12   6.256140e+11   2.607774e+05   7.946314e-20   0.000000e+00   0.000000e+00
     2408000   2.407999e-05   8.823360e-02   6.166385e+00   1.407681e+01  -1.240143e+05  -2.264453e+05  -4.013377e+04   1.588360e+13  -8.758726e+12   2.563182e+11   2.612810e+05   8.004553e-20   0.000000e+00   0.000000e+00
     2416000   2.415999e-05   9.019856e-02   6.168116e+00   1.407447e+01  -2.407032e+05  -9.451871e+04  -4.073800e+04   6.664432e+12  -1.690462e+13  -2.368758e+11   2.617851e+05   8.063962e-20   0.000000e+00   0.000000e+00
     2424000   2.423999e-05   9.281057e-02   6.168258e+00   1.407207e+01  -2.462970e+05   8.236807e+04  -3.672951e+04  -5.696350e+12  -1.727588e+13  -6.343715e+11   2.622895e+05   8.121294e-20   0.000000e+00   0.000000e+00
     2432000   2.431999e-05   9.489954e-02   6.166753e+00   1.406958e+01  -1.367735e+05   2.223758e+05  -3.004758e+04  -1.547334e+13  -9.602464e+12  -7.432871e+11   2.627943e+05   8.174166e-20   0.000000e+00   0.000000e+00
     2440000   2.439999e-05   9.551857e-02   6.164315e+00   1.406699e+01   3.793937e+04   2.594423e+05  -2.401960e+04  -1.805118e+13   2.606296e+12  -4.994222e+11   2.632995e+05   8.222998e-20   0.000000e+00   0.000000e+00
     2448000   2.447999e-05   9.439659e-02   6.162110e+00   1.406431e+01   1.962770e+05   1.749134e+05  -2.176804e+04  -1.214198e+13   1.364195e+13  -1.674646e+10   2.638052e+05   8.270567e-20   0.000000e+00   0.000000e+00
     2456000   2.455999e-05   9.208341e-02   6.161217e+00   1.406160e+01   2.630587e+05   7.448822e+03  -2.459880e+04  -4.608895e+11   1.827022e+13   4.678404e+11   2.643114e+05   8.319800e-20   0.000000e+00   0.000000e+00
     2464000   2.463999e-05   8.970734e-02   6.162111e+00   1.405890e+01   2.054199e+05  -1.641596e+05  -3.134971e+04   1.149555e+13   1.422638e+13   7.230076e+11   2.648179e+05   8.372407e-20   0.000000e+00   0.000000e+00
     2472000   2.471999e-05   8.844894e-02   6.164417e+00   1.405624e+01   4.945587e+04  -2.577377e+05  -3.902113e+04   1.801204e+13   3.347102e+12   6.346960e+11   2.653248e+05   8.429061e-20   0.000000e+00   0.000000e+00
     2480000   2.479999e-05   8.897353e-02   6.167074e+00   1.405361e+01  -1.308739e+05  -2.271226e+05  -4.420393e+04   1.588090e+13  -9.213535e+12   2.451424e+11   2.658320e+05   8.489337e-20   0.000000e+00   0.000000e+00
     2488000   2.487999e-05   9.109438e-02   6.168830e+00   1.405097e+01  -2.482712e+05  -8.549628e+04  -4.459333e+04   6.019375e+12  -1.737805e+13  -2.704880e+11   2.663395e+05   8.550860e-20   0.000000e+00   0.000000e+00
     2496000   2.495999e-05   9.384002e-02   6.168845e+00   1.404827e+01  -2.444033e+05   9.934033e+04  -4.007569e+04  -6.849503e+12  -1.708722e+13  -6.688108e+11   2.668474e+05   8.609721e-20   0.000000e+00   0.000000e+00
     2504000   2.503999e-05   9.591116e-02   6.167122e+00   1.404546e+01  -1.195543e+05   2.368532e+05  -3.295943e+04  -1.641516e+13  -8.374874e+12  -7.437697e+11   2.673555e+05   8.663247e-20   0.000000e+00   0.000000e+00
     2512000   2.511999e-05   9.631719e-02   6.164528e+00   1.404255e+01   6.588392e+04   2.582271e+05  -2.700363e+04  -1.788997e+13   4.531178e+12  -4.442512e+11   2.678640e+05   8.712356e-20   0.000000e+00   0.000000e+00
     2520000   2.519999e-05   9.487984e-02   6.162382e+00   1.403956e+01   2.201233e+05   1.513934e+05  -2.549151e+04  -1.045317e+13   1.523461e+13   7.921343e+10   2.683729e+05   8.760588e-20   0.000000e+00   0.000000e+00
     2528000   2.527999e-05   9.234381e-02   6.161803e+00   1.403653e+01   2.653958e+05  -3.156658e+04  -2.943133e+04   2.256748e+12   1.834773e+13   5.550528e+11   2.688821e+05   8.811177e-20   0.000000e+00   0.000000e+00
     2536000   2.535999e-05   9.002430e-02   6.163144e+00   1.403354e+01   1.775100e+05  -1.992237e+05  -3.704058e+04   1.389069e+13   1.222096e+13   7.452072e+11   2.693917e+05   8.865771e-20   0.000000e+00   0.000000e+00
     2544000   2.543999e-05   8.915394e-02   6.165786e+00   1.403058e+01  -5.986768e+02  -2.661682e+05  -4.473228e+04   1.853391e+13  -1.490192e+11   5.617847e+11   2.699015e+05   8.924929e-20   0.000000e+00   0.000000e+00
     2552000   2.551999e-05   9.025005e-02   6.168435e+00   1.402765e+01  -1.789759e+05  -1.967243e+05  -4.888377e+04   1.371773e+13  -1.252092e+13   9.361917e+10   2.704116e+05   8.987742e-20   0.000000e+00   0.000000e+00
     2560000   2.559999e-05   9.282711e-02   6.169761e+00   1.402470e+01  -2.655655e+05  -2.477257e+04  -4.753919e+04   1.791542e+12  -1.851134e+13  -4.345704e+11   2.709219e+05   9.050718e-20   0.000000e+00   0.000000e+00
     2568000   2.567999e-05   9.561910e-02   6.169097e+00   1.402166e+01  -2.140196e+05   1.617176e+05  -4.145604e+04  -1.113838e+13  -1.491196e+13  -7.517660e+11   2.714325e+05   9.109196e-20   0.000000e+00   0.000000e+00
     2576000   2.575999e-05   9.722009e-02   6.166803e+00   1.401851e+01  -4.944273e+04   2.652462e+05  -3.395583e+04  -1.830478e+13  -3.485539e+12  -6.763036e+11   2.719432e+05   9.161318e-20   0.000000e+00   0.000000e+00
     2584000   2.583999e-05   9.682317e-02   6.164106e+00   1.401525e+01   1.428518e+05   2.301440e+05  -2.929935e+04  -1.585976e+13   9.829146e+12  -2.375020e+11   2.724543e+05   9.209784e-20   0.000000e+00   0.000000e+00
     2592000   2.591999e-05   9.466632e-02   6.162477e+00   1.401193e+01   2.611877e+05   7.330786e+04  -3.028498e+04  -4.998478e+12   1.799063e+13   3.244401e+11   2.729657e+05   9.259049e-20   0.000000e+00   0.000000e+00
     2600000   2.599999e-05   9.193368e-02   6.162844e+00   1.400860e+01   2.414656e+05  -1.230562e+05  -3.662453e+04   8.577855e+12   1.659404e+13   7.034793e+11   2.734773e+05   9.312017e-20   0.000000e+00   0.000000e+00
     2608000   2.607999e-05   9.014481e-02   6.165084e+00   1.400532e+01   9.247866e+04  -2.539247e+05  -4.516614e+04   1.761801e+13   6.277335e+12   7.044251e+11   2.739892e+05   9.369886e-20   0.000000e+00   0.000000e+00
     2616000   2.615999e-05   9.034198e-02   6.168054e+00   1.400209e+01  -1.068907e+05  -2.475059e+05  -5.163420e+04   1.717451e+13  -7.500385e+12   3.308244e+11   2.745012e+05   9.432693e-20   0.000000e+00   0.000000e+00
     2624000   2.623999e-05   9.250635e-02   6.170189e+00   1.399886e+01  -2.484906e+05  -1.054821e+05  -5.252024e+04   7.365799e+12  -1.727651e+13  -2.189039e+11   2.750135e+05   9.507061e-20   0.000000e+00   0.000000e+00
     2632000   2.631999e-05   9.552863e-02   6.170351e+00   1.399557e+01  -2.538713e+05   9.572918e+04  -4.795875e+04  -6.534074e+12  -1.762523e+13  -6.666768e+11   2.755263e+05   9.569772e-20   0.000000e+00   0.000000e+00
     2640000   2.639999e-05   9.782022e-02   6.168477e+00   1.399218e+01  -1.185079e+05   2.460374e+05  -4.023885e+04  -1.690696e+13  -8.252462e+12  -7.542520e+11   2.760393e+05   9.625256e-20   0.000000e+00   0.000000e+00
     2648000   2.647999e-05   9.815876e-02   6.165624e+00   1.398866e+01   8.427581e+04   2.612063e+05  -3.391423e+04  -1.793922e+13   5.747462e+12  -4.163280e+11   2.765525e+05   9.674832e-20   0.000000e+00   0.000000e+00
     2656000   2.655999e-05   9.638976e-02   6.163424e+00   1.398506e+01   2.419079e+05   1.310140e+05  -3.288590e+04  -8.951012e+12   1.659361e+13   1.556585e+11   2.770660e+05   9.723660e-20   0.000000e+00   0.000000e+00
     2664000   2.663999e-05   9.354401e-02   6.163174e+00   1.398143e+01   2.650743e+05  -7.308454e+04  -3.800960e+04   5.109154e+12   1.815443e+13   6.297604e+11   2.775797e+05   9.775966e-20   0.000000e+00   0.000000e+00
     2672000   2.671999e-05   9.128612e-02   6.165096e+00   1.397785e+01   1.388806e+05  -2.363770e+05  -4.662720e+04   1.634510e+13   9.441724e+12   7.429564e+11   2.780935e+05   9.833615e-20   0.000000e+00   0.000000e+00
     2680000   2.679999e-05   9.098262e-02   6.168173e+00   1.397432e+01  -6.669022e+04  -2.650282e+05  -5.417185e+04   1.831516e+13  -4.712011e+12   4.392567e+11   2.786075e+05   9.897127e-20   0.000000e+00   0.000000e+00
     2688000   2.687999e-05   9.290663e-02   6.170703e+00   1.397081e+01  -2.344186e+05  -1.405284e+05  -5.664402e+04   9.751006e+12  -1.624347e+13  -1.189348e+11   2.791216e+05   9.964378e-20   0.000000e+00   0.000000e+00
     2696000   2.695999e-05   9.604432e-02   6.171259e+00   1.396725e+01  -2.662838e+05   6.713018e+04  -5.275043e+04  -4.531512e+12  -1.841285e+13  -6.253881e+11   2.796357e+05   1.002931e-19   0.000000e+00   0.000000e+00
     2704000   2.703999e-05   9.864716e-02   6.169539e+00   1.396358e+01  -1.415933e+05   2.375390e+05  -4.483881e+04  -1.624142e+13  -9.812650e+12  -7.764836e+11   2.801499e+05   1.008625e-19   0.000000e+00   0.000000e+00
     2712000   2.711999e-05   9.924239e-02   6.166578e+00   1.395977e+01   6.826459e+04   2.695937e+05  -3.783675e+04  -1.842857e+13   4.614695e+12  -4.634961e+11   2.806643e+05   1.013588e-19   0.000000e+00   0.000000e+00
     2720000   2.719999e-05   9.751900e-02   6.164174e+00   1.395587e+01   2.397123e+05   1.424132e+05  -3.630426e+04  -9.685789e+12   1.636109e+13   1.272089e+11   2.811788e+05   1.018417e-19   0.000000e+00   0.000000e+00
     2728000   2.727999e-05   9.454866e-02   6.163831e+00   1.395195e+01   2.696911e+05  -6.998758e+04  -4.146930e+04   4.880211e+12   1.837997e+13   6.308179e+11   2.816935e+05   1.023624e-19   0.000000e+00   0.000000e+00
     2736000   2.735999e-05   9.217977e-02   6.165846e+00   1.394807e+01   1.382417e+05  -2.407941e+05  -5.048725e+04   1.657879e+13   9.345756e+12   7.496923e+11   2.822083e+05   1.029423e-19   0.000000e+00   0.000000e+00
     2744000   2.743999e-05   9.193870e-02   6.169088e+00   1.394425e+01  -7.712828e+04  -2.656838e+05  -5.827290e+04   1.828188e+13  -5.413352e+12   4.213461e+11   2.827232e+05   1.035882e-19   0.000000e+00   0.000000e+00
     2752000   2.751999e-05   9.408547e-02   6.171650e+00   1.394044e+01  -2.457605e+05  -1.271744e+05  -6.043344e+04   8.798282e+12  -1.695143e+13  -1.676068e+11   2.832380e+05   1.042745e-19   0.000000e+00   0.000000e+00
     2760000   2.759999e-05   9.741199e-02   6.171999e+00   1.393659e+01  -2.626624e+05   9.173497e+04  -5.575631e+04  -6.186975e+12  -1.808372e+13  -6.722314e+11   2.837528e+05   1.049299e-19   0.000000e+00   0.000000e+00
     2768000   2.767999e-05   9.994310e-02   6.169943e+00   1.393260e+01  -1.148863e+05   2.556918e+05  -4.723178e+04  -1.739759e+13  -7.944381e+12  -7.670969e+11   2.842675e+05   1.054913e-19   0.000000e+00   0.000000e+00
     2776000   2.775999e-05   1.001573e-01   6.166800e+00   1.392848e+01   1.069274e+05   2.608122e+05  -4.055318e+04  -1.772309e+13   7.222869e+12  -3.683205e+11   2.847825e+05   1.058841e-19   0.000000e+00   0.000000e+00
     2784000   2.783999e-05   9.796694e-02   6.164611e+00   1.392427e+01   2.634789e+05   1.017211e+05  -4.032732e+04  -6.853296e+12   1.788963e+13   2.574816e+11   2.852974e+05   1.064586e-19   0.000000e+00   0.000000e+00
     2792000   2.791999e-05   9.481821e-02   6.164855e+00   1.392006e+01   2.539729e+05  -1.223799e+05  -4.700779e+04   8.435352e+12   1.720281e+13   7.104537e+11   2.858125e+05   1.069959e-19   0.000000e+00   0.000000e+00
     2800000   2.799999e-05   9.280901e-02   6.167481e+00   1.391592e+01   8.217444e+04  -2.683810e+05  -5.659043e+04   1.838421e+13   5.466384e+12   7.060323e+11   2.863276e+05   1.076046e-19   0.000000e+00   0.000000e+00
     2808000   2.807999e-05   9.334973e-02   6.170893e+00   1.391184e+01  -1.430028e+05  -2.404671e+05  -6.328094e+04   1.648120e+13  -9.882930e+12   2.523372e+11   2.868427e+05   1.082874e-19   0.000000e+00   0.000000e+00
     2816000   2.815999e-05   9.621836e-02   6.172941e+00   1.390776e+01  -2.750910e+05  -5.413141e+04  -6.300159e+04   3.785393e+12  -1.886756e+13  -3.762483e+11   2.873577e+05   1.089972e-19   0.000000e+00   0.000000e+00
     2824000   2.823999e-05   9.965040e-02   6.172322e+00   1.390360e+01  -2.253862e+05   1.701165e+05  -5.596525e+04  -1.148642e+13  -1.545206e+13  -7.770023e+11   2.878727e+05   1.096397e-19   0.000000e+00   0.000000e+00
     2832000   2.831999e-05   1.014625e-01   6.169478e+00   1.389930e+01  -2.430565e+04   2.834856e+05  -4.703877e+04  -1.918435e+13  -1.741476e+12  -6.613737e+11   2.883877e+05   1.100921e-19   0.000000e+00   0.000000e+00
     2840000   2.839999e-05   1.005009e-01   6.166352e+00   1.389486e+01   1.955613e+05   2.082528e+05  -4.302644e+04  -1.405217e+13   1.319444e+13  -9.292388e+10   2.889026e+05   1.105021e-19   0.000000e+00   0.000000e+00
     2848000   2.847999e-05   9.747220e-02   6.165137e+00   1.389033e+01   2.855032e+05  -7.262416e+03  -4.687734e+04   5.882140e+11   1.926912e+13   5.178934e+11   2.894172e+05   1.110001e-19   0.000000e+00   0.000000e+00
     2856000   2.855999e-05   9.450778e-02   6.166766e+00   1.388582e+01   1.826039e+05  -2.180265e+05  -5.639670e+04   1.488469e+13   1.225298e+13   7.590203e+11   2.899316e+05   1.115006e-19   0.000000e+00   0.000000e+00
     2864000   2.863999e-05   9.374454e-02   6.170238e+00   1.388134e+01  -4.509564e+04  -2.792874e+05  -6.575379e+04   1.903656e+13  -3.201614e+12   4.863002e+11   2.904456e+05   1.120802e-19   0.000000e+00   0.000000e+00
     2872000   2.871999e-05   9.584652e-02   6.173256e+00   1.387688e+01  -2.417093e+05  -1.464246e+05  -6.923665e+04   1.003001e+13  -1.652453e+13  -1.225647e+11   2.909592e+05   1.127179e-19   0.000000e+00   0.000000e+00
     2880000   2.879999e-05   9.949253e-02   6.173783e+00   1.387233e+01  -2.693121e+05   9.063409e+04  -6.490457e+04  -6.035857e+12  -1.837060e+13  -6.658504e+11   2.914724e+05   1.133210e-19   0.000000e+00   0.000000e+00
     2888000   2.887999e-05   1.022412e-01   6.171493e+00   1.386762e+01  -1.059622e+05   2.662538e+05  -5.600278e+04  -1.791804e+13  -7.278290e+12  -7.675365e+11   2.919852e+05   1.138005e-19   0.000000e+00   0.000000e+00
     2896000   2.895999e-05   1.022327e-01   6.168055e+00   1.386272e+01   1.348875e+05   2.547590e+05  -4.957969e+04  -1.712074e+13   9.020796e+12  -3.023592e+11   2.924977e+05   1.141903e-19   0.000000e+00   0.000000e+00
     2904000   2.903999e-05   9.954179e-02   6.166004e+00   1.385771e+01   2.818040e+05   6.195831e+04  -5.101467e+04  -4.079754e+12   1.892121e+13   3.702369e+11   2.930099e+05   1.146542e-19   0.000000e+00   0.000000e+00
     2912000   2.911999e-05   9.618408e-02   6.166932e+00   1.385269e+01   2.275840e+05  -1.754714e+05  -5.975232e+04   1.194924e+13   1.522015e+13   7.531632e+11   2.935218e+05   1.151199e-19   0.000000e+00   0.000000e+00
     2920000   2.919999e-05   9.471002e-02   6.170301e+00   1.384773e+01   8.850233e+03  -2.854262e+05  -7.006498e+04   1.936370e+13   4.419181e+11   5.920688e+11   2.940332e+05   1.156737e-19   0.000000e+00   0.000000e+00
     2928000   2.927999e-05   9.635136e-02   6.173769e+00   1.384281e+01  -2.162941e+05  -1.852651e+05  -7.516663e+04   1.260807e+13  -1.474068e+13   1.584414e+09   2.945442e+05   1.163088e-19   0.000000e+00   0.000000e+00
     2936000   2.935999e-05   1.000631e-01   6.174862e+00   1.383783e+01  -2.810301e+05   5.408844e+04  -7.179006e+04  -3.528427e+12  -1.908140e+13  -6.164963e+11   2.950547e+05   1.169227e-19   0.000000e+00   0.000000e+00
     2944000   2.943999e-05   1.032246e-01   6.172820e+00   1.383269e+01  -1.344403e+05   2.556613e+05  -6.262270e+04  -1.710171e+13  -9.171706e+12  -7.898665e+11   2.955648e+05   1.174152e-19   0.000000e+00   0.000000e+00
     2952000   2.951999e-05   1.035659e-01   6.169235e+00   1.382737e+01   1.159273e+05   2.667867e+05  -5.518902e+04  -1.783027e+13   7.687589e+12  -3.594807e+11   2.960745e+05   1.178000e-19   0.000000e+00   0.000000e+00
     2960000   2.959999e-05   1.009107e-01   6.166913e+00   1.382193e+01   2.810696e+05   7.642602e+04  -5.586561e+04  -5.018909e+12   1.875648e+13   3.409927e+11   2.965839e+05   1.181946e-19   0.000000e+00   0.000000e+00
     2968000   2.967999e-05   9.737972e-02   6.167760e+00   1.381649e+01   2.332619e+05  -1.722745e+05  -6.461109e+04   1.167929e+13   1.550816e+13   7.568051e+11   2.970929e+05   1.187172e-19   0.000000e+00   0.000000e+00
     2976000   2.975999e-05   9.582553e-02   6.171280e+00   1.381113e+01   6.367622e+03  -2.878683e+05  -7.521983e+04   1.943099e+13   2.616777e+11   5.932033e+11   2.976016e+05   1.192826e-19   0.000000e+00   0.000000e+00
     2984000   2.983999e-05   9.763178e-02   6.174875e+00   1.380582e+01  -2.252884e+05  -1.780223e+05  -8.014146e+04   1.206227e+13  -1.527349e+13  -2.815008e+10   2.981098e+05   1.199421e-19   0.000000e+00   0.000000e+00
     2992000   2.991999e-05   1.015697e-01   6.175821e+00   1.380046e+01  -2.790884e+05   7.431988e+04  -7.588548e+04  -4.856564e+12  -1.885194e+13  -6.517379e+11   2.986175e+05   1.205504e-19   0.000000e+00   0.000000e+00
     3000000   2.999999e-05   1.046797e-01   6.173426e+00   1.379493e+01  -1.091439e+05   2.705156e+05  -6.621487e+04  -1.799111e+13  -7.433180e+12  -7.697304e+11   2.991245e+05   1.209976e-19   0.000000e+00   0.000000e+00
     3008000   3.007999e-05   1.045877e-01   6.169678e+00   1.378920e+01   1.511691e+05   2.517929e+05  -5.938871e+04  -1.671611e+13   9.989702e+12  -2.595916e+11   2.996311e+05   1.213327e-19   0.000000e+00   0.000000e+00
     3016000   3.015999e-05   1.014641e-01   6.167712e+00   1.378336e+01   2.921243e+05   3.050268e+04  -6.176844e+04  -1.913752e+12   1.937174e+13   4.540391e+11   3.001372e+05   1.216926e-19   0.000000e+00   0.000000e+00
     3024000   3.023999e-05   9.796411e-02   6.169280e+00   1.377754e+01   1.970712e+05  -2.153450e+05  -7.194157e+04   1.449180e+13   1.298758e+13   7.688334e+11   3.006428e+05   1.221506e-19   0.000000e+00   0.000000e+00
     3032000   3.031999e-05   9.712014e-02   6.173267e+00   1.377181e+01  -5.906114e+04  -2.836149e+05  -8.224625e+04   1.904159e+13  -4.113369e+12   4.644304e+11   3.011479e+05   1.227026e-19   0.000000e+00   0.000000e+00
     3040000   3.039999e-05   9.983419e-02   6.176517e+00   1.376611e+01  -2.657165e+05  -1.147426e+05  -8.498837e+04   7.780811e+12  -1.788335e+13  -2.272249e+11   3.016523e+05   1.233375e-19   0.000000e+00   0.000000e+00
     3048000   3.047999e-05   1.040431e-01   6.176411e+00   1.376030e+01  -2.484194e+05   1.532070e+05  -7.819036e+04  -1.007483e+13  -1.670075e+13  -7.634900e+11   3.021561e+05   1.239428e-19   0.000000e+00   0.000000e+00
     3056000   3.055999e-05   1.063607e-01   6.173110e+00   1.375430e+01  -1.835149e+04   2.943613e+05  -6.795038e+04  -1.945916e+13  -1.351162e+12  -6.539229e+11   3.026593e+05   1.243271e-19   0.000000e+00   0.000000e+00
     3064000   3.063999e-05   1.049357e-01   6.169520e+00   1.374812e+01   2.306202e+05   1.861482e+05  -6.379960e+04  -1.223979e+13   1.519219e+13   2.271263e+10   3.031620e+05   1.246434e-19   0.000000e+00   0.000000e+00
     3072000   3.071999e-05   1.011057e-01   6.168870e+00   1.374188e+01   2.840355e+05  -8.142724e+04  -7.003854e+04   5.536065e+12   1.869330e+13   6.637791e+11   3.036642e+05   1.250279e-19   0.000000e+00   0.000000e+00
     3080000   3.079999e-05   9.833729e-02   6.171909e+00   1.373572e+01   9.275420e+04  -2.779084e+05  -8.173452e+04   1.856366e+13   5.972610e+12   7.121969e+11   3.041660e+05   1.255275e-19   0.000000e+00   0.000000e+00
     3088000   3.087999e-05   9.925526e-02   6.176168e+00   1.372966e+01  -1.790176e+05  -2.297241e+05  -8.945137e+04   1.536678e+13  -1.205096e+13   1.526856e+11   3.046671e+05   1.261393e-19   0.000000e+00   0.000000e+00
     3096000   3.095999e-05   1.032854e-01   6.178028e+00   1.372358e+01  -2.914925e+05   2.439360e+04  -8.697281e+04  -1.475400e+12  -1.948401e+13  -5.638351e+11   3.051675e+05   1.267976e-19   0.000000e+00   0.000000e+00
     3104000   3.103999e-05   1.070483e-01   6.175924e+00   1.371733e+01  -1.412626e+05   2.599991e+05  -7.666665e+04  -1.707237e+13  -9.496196e+12  -7.974530e+11   3.056672e+05   1.272658e-19   0.000000e+00   0.000000e+00
     3112000   3.111999e-05   1.073175e-01   6.171840e+00   1.371087e+01   1.397273e+05   2.637029e+05  -6.837379e+04  -1.729395e+13   9.099795e+12  -3.015038e+11   3.061665e+05   1.275811e-19   0.000000e+00   0.000000e+00
     3120000   3.119999e-05   1.039759e-01   6.169621e+00   1.370430e+01   2.970627e+05   2.894411e+04  -7.042446e+04  -1.772768e+12   1.945256e+13   4.628524e+11   3.066653e+05   1.279239e-19   0.000000e+00   0.000000e+00
     3128000   3.127999e-05   1.002297e-01   6.171493e+00   1.369778e+01   1.843954e+05  -2.317298e+05  -8.154232e+04   1.541796e+13   1.197747e+13   7.805489e+11   3.071636e+05   1.283480e-19   0.000000e+00   0.000000e+00
     3136000   3.135999e-05   9.974535e-02   6.175937e+00   1.369137e+01  -9.764259e+04  -2.769094e+05  -9.188346e+04   1.839249e+13  -6.625495e+12   3.803581e+11   3.076613e+05   1.289474e-19   0.000000e+00   0.000000e+00
     3144000   3.143999e-05   1.032274e-01   6.178988e+00   1.368500e+01  -2.875002e+05  -6.084988e+04  -9.274912e+04   4.154455e+12  -1.912284e+13  -3.732109e+11   3.081582e+05   1.296202e-19   0.000000e+00   0.000000e+00
     3152000   3.151999e-05   1.076453e-01   6.177890e+00   1.367851e+01  -2.039629e+05   2.161032e+05  -8.346349e+04  -1.408090e+13  -1.358356e+13  -8.063760e+11   3.086545e+05   1.301579e-19   0.000000e+00   0.000000e+00
     3160000   3.159999e-05   1.089940e-01   6.173786e+00   1.367180e+01   7.728539e+04   2.902465e+05  -7.319764e+04  -1.893710e+13   4.938140e+12  -4.660765e+11   3.091504e+05   1.305018e-19   0.000000e+00   0.000000e+00
     3168000   3.167999e-05   1.061280e-01   6.170746e+00   1.366495e+01   2.880608e+05   8.737272e+04  -7.257774e+04  -5.592445e+12   1.875054e+13   3.236727e+11   3.096458e+05   1.308339e-19   0.000000e+00   0.000000e+00
     3176000   3.175999e-05   1.019740e-01   6.171911e+00   1.365813e+01   2.228050e+05  -1.992588e+05  -8.271155e+04   1.320545e+13   1.442335e+13   7.789728e+11   3.101408e+05   1.312735e-19   0.000000e+00   0.000000e+00
     3184000   3.183999e-05   1.007963e-01   6.176376e+00   1.365144e+01  -5.850705e+04  -2.901613e+05  -9.422143e+04   1.915745e+13  -4.030994e+12   4.771500e+11   3.106353e+05   1.318509e-19   0.000000e+00   0.000000e+00
     3192000   3.191999e-05   1.040266e-01   6.179948e+00   1.364483e+01  -2.810128e+05  -9.235224e+04  -9.645840e+04   6.198976e+12  -1.859416e+13  -2.967258e+11   3.111292e+05   1.325374e-19   0.000000e+00   0.000000e+00
     3200000   3.199999e-05   1.087292e-01   6.179216e+00   1.363811e+01  -2.213809e+05   2.011421e+05  -8.741175e+04  -1.301353e+13  -1.465212e+13  -8.014642e+11   3.116223e+05   1.331032e-19   0.000000e+00   0.000000e+00
     3208000   3.207999e-05   1.104038e-01   6.175021e+00   1.363117e+01   6.451475e+04   2.956526e+05  -7.644035e+04  -1.917338e+13   4.068372e+12  -4.969228e+11   3.121150e+05   1.334334e-19   0.000000e+00   0.000000e+00
     3216000   3.215999e-05   1.075208e-01   6.171760e+00   1.362407e+01   2.889772e+05   9.233559e+04  -7.542899e+04  -5.877486e+12   1.869298e+13   3.145653e+11   3.126072e+05   1.337344e-19   0.000000e+00   0.000000e+00
     3224000   3.223999e-05   1.031945e-01   6.172976e+00   1.361700e+01   2.211387e+05  -2.043119e+05  -8.593758e+04   1.346083e+13   1.422176e+13   7.819086e+11   3.130989e+05   1.341529e-19   0.000000e+00   0.000000e+00
     3232000   3.231999e-05   1.021124e-01   6.177670e+00   1.361008e+01  -7.296228e+04  -2.889158e+05  -9.768749e+04   1.896689e+13  -4.954315e+12   4.470128e+11   3.135900e+05   1.347227e-19   0.000000e+00   0.000000e+00
     3240000   3.239999e-05   1.056954e-01   6.181182e+00   1.360324e+01  -2.897078e+05  -6.983048e+04  -9.919468e+04   4.701203e+12  -1.905264e+13  -3.565966e+11   3.140804e+05   1.354058e-19   0.000000e+00   0.000000e+00
     3248000   3.247999e-05   1.104820e-01   6.179975e+00   1.359627e+01  -1.990539e+05   2.267226e+05  -8.904313e+04  -1.458996e+13  -1.311092e+13  -8.109233e+11   3.145700e+05   1.358948e-19   0.000000e+00   0.000000e+00
     3256000   3.255999e-05   1.116272e-01   6.175447e+00   1.358906e+01   1.071414e+05   2.857228e+05  -7.839241e+04  -1.840176e+13   6.804982e+12  -3.967700e+11   3.150590e+05   1.362006e-19   0.000000e+00   0.000000e+00
     3264000   3.263999e-05   1.080872e-01   6.172615e+00   1.358171e+01   3.026721e+05   4.064566e+04  -7.942168e+04  -2.484156e+12   1.945259e+13   4.398183e+11   3.155476e+05   1.365091e-19   0.000000e+00   0.000000e+00
     3272000   3.271999e-05   1.038760e-01   6.174775e+00   1.357443e+01   1.745798e+05  -2.470370e+05  -9.150479e+04   1.614990e+13   1.110848e+13   7.802036e+11   3.160357e+05   1.369526e-19   0.000000e+00   0.000000e+00
     3280000   3.279999e-05   1.038376e-01   6.179846e+00   1.356731e+01  -1.417033e+05  -2.639588e+05  -1.021412e+05   1.724259e+13  -9.379468e+12   2.800827e+11   3.165232e+05   1.375660e-19   0.000000e+00   0.000000e+00
     3288000   3.287999e-05   1.083374e-01   6.182489e+00   1.356023e+01  -3.004458e+05   1.256918e+04  -1.003474e+05  -6.537768e+11  -1.963100e+13  -5.399451e+11   3.170099e+05   1.382528e-19   0.000000e+00   0.000000e+00
     3296000   3.295999e-05   1.126994e-01   6.179930e+00   1.355298e+01  -1.226457e+05   2.792366e+05  -8.825342e+04  -1.789098e+13  -8.091652e+12  -7.829091e+11   3.174960e+05   1.387055e-19   0.000000e+00   0.000000e+00
     3304000   3.303999e-05   1.122866e-01   6.175173e+00   1.354547e+01   1.967536e+05   2.366681e+05  -7.992804e+04  -1.511626e+13   1.253647e+13  -1.382828e+11   3.179815e+05   1.389530e-19   0.000000e+00   0.000000e+00
     3312000   3.311999e-05   1.077607e-01   6.173783e+00   1.353788e+01   2.984854e+05  -7.078070e+04  -8.554273e+04   4.714789e+12   1.904604e+13   6.470343e+11   3.184666e+05   1.392748e-19   0.000000e+00   0.000000e+00
     3320000   3.319999e-05   1.044919e-01   6.177613e+00   1.353044e+01   6.403016e+04  -2.962943e+05  -9.919505e+04   1.922954e+13   3.913472e+12   6.842663e+11   3.189511e+05   1.397567e-19   0.000000e+00   0.000000e+00
     3328000   3.327999e-05   1.065345e-01   6.182560e+00   1.352314e+01  -2.418931e+05  -1.796518e+05  -1.060735e+05   1.172226e+13  -1.577349e+13  -5.335723e+10   3.194349e+05   1.404205e-19   0.000000e+00   0.000000e+00
     3336000   3.335999e-05   1.118808e-01   6.183121e+00   1.351579e+01  -2.653731e+05   1.489218e+05  -9.872614e+04  -9.413637e+12  -1.724957e+13  -7.554013e+11   3.199179e+05   1.410340e-19   0.000000e+00   0.000000e+00
     3344000   3.343999e-05   1.146013e-01   6.178797e+00   1.350819e+01   2.513760e+04   3.076385e+05  -8.592400e+04  -1.959471e+13   1.451418e+12  -5.809330e+11   3.204002e+05   1.413357e-19   0.000000e+00   0.000000e+00
     3352000   3.351999e-05   1.117283e-01   6.174850e+00   1.350039e+01   2.907323e+05   1.070338e+05  -8.356855e+04  -6.702233e+12   1.846215e+13   2.831220e+11   3.208819e+05   1.415609e-19   0.000000e+00   0.000000e+00
     3360000   3.359999e-05   1.068882e-01   6.176221e+00   1.349262e+01   2.154246e+05  -2.186681e+05  -9.513572e+04   1.415815e+13   1.358832e+13   7.864988e+11   3.213632e+05   1.419356e-19   0.000000e+00   0.000000e+00
     3368000   3.367999e-05   1.061534e-01   6.181579e+00   1.348505e+01  -1.148353e+05  -2.808289e+05  -1.073841e+05   1.813283e+13  -7.563008e+12   3.516542e+11   3.218437e+05   1.425111e-19   0.000000e+00   0.000000e+00
     3376000   3.375999e-05   1.107744e-01   6.184742e+00   1.347754e+01  -3.042547e+05  -5.509874e+02  -1.064008e+05   2.034548e+11  -1.966043e+13  -5.163292e+11   3.223234e+05   1.432021e-19   0.000000e+00   0.000000e+00
     3384000   3.383999e-05   1.154917e-01   6.182056e+00   1.346983e+01  -1.195250e+05   2.848799e+05  -9.358700e+04  -1.803479e+13  -7.809226e+12  -7.795040e+11   3.228023e+05   1.436296e-19   0.000000e+00   0.000000e+00
     3392000   3.391999e-05   1.148010e-01   6.176988e+00   1.346186e+01   2.167855e+05   2.241472e+05  -8.527855e+04  -1.413154e+13   1.365647e+13  -7.405124e+10   3.232807e+05   1.438171e-19   0.000000e+00   0.000000e+00
     3400000   3.399999e-05   1.097905e-01   6.176046e+00   1.345382e+01   2.895371e+05  -1.114132e+05  -9.260091e+04   7.256733e+12   1.823928e+13   7.034355e+11   3.237584e+05   1.441011e-19   0.000000e+00   0.000000e+00
     3408000   3.407999e-05   1.069774e-01   6.180722e+00   1.344596e+01   4.814444e+03  -3.060436e+05  -1.069713e+05   1.963700e+13   8.837323e+10   5.948833e+11   3.242356e+05   1.445814e-19   0.000000e+00   0.000000e+00
     3416000   3.415999e-05   1.102610e-01   6.185461e+00   1.343824e+01  -2.834758e+05  -1.126728e+05  -1.112839e+05   7.337446e+12  -1.824145e+13  -2.564630e+11   3.247118e+05   1.452624e-19   0.000000e+00   0.000000e+00
     3424000   3.423999e-05   1.158789e-01   6.184493e+00   1.343040e+01  -2.086584e+05   2.282771e+05  -1.004885e+05  -1.433557e+13  -1.344415e+13  -8.122647e+11   3.251872e+05   1.457855e-19   0.000000e+00   0.000000e+00
     3432000   3.431999e-05   1.169800e-01   6.179240e+00   1.342227e+01   1.380812e+05   2.812559e+05  -8.879394e+04  -1.767469e+13   8.589082e+12  -3.229225e+11   3.256619e+05   1.459685e-19   0.000000e+00   0.000000e+00
     3440000   3.439999e-05   1.124050e-01   6.176704e+00   1.341399e+01   3.117771e+05  -2.549424e+04  -9.224829e+04   1.780734e+12   1.955003e+13   5.736894e+11   3.261360e+05   1.461789e-19   0.000000e+00   0.000000e+00
     3448000   3.447999e-05   1.083714e-01   6.180503e+00   1.340586e+01   8.446758e+04  -2.968235e+05  -1.069333e+05   1.894475e+13   5.124268e+12   7.047130e+11   3.266094e+05   1.465865e-19   0.000000e+00   0.000000e+00
     3456000   3.455999e-05   1.105279e-01   6.186012e+00   1.339792e+01  -2.506081e+05  -1.762428e+05  -1.145283e+05   1.131883e+13  -1.606925e+13  -7.304605e+10   3.270820e+05   1.472717e-19   0.000000e+00   0.000000e+00
     3464000   3.463999e-05   1.164547e-01   6.186232e+00   1.338992e+01  -2.510330e+05   1.819510e+05  -1.056773e+05  -1.132408e+13  -1.605936e+13  -7.869844e+11   3.275537e+05   1.478554e-19   0.000000e+00   0.000000e+00
     3472000   3.471999e-05   1.186325e-01   6.181074e+00   1.338162e+01   8.813291e+04   3.021635e+05  -9.235800e+04  -1.889312e+13   5.384944e+12  -4.529478e+11   3.280247e+05   1.480489e-19   0.000000e+00   0.000000e+00
     3480000   3.479999e-05   1.144302e-01   6.177696e+00   1.337312e+01   3.142814e+05   1.997826e+04  -9.347251e+04  -1.088694e+12   1.959728e+13   4.868651e+11   3.284951e+05   1.482135e-19   0.000000e+00   0.000000e+00
     3488000   3.487999e-05   1.098215e-01   6.180997e+00   1.336475e+01   1.198899e+05  -2.866177e+05  -1.081412e+05   1.819925e+13   7.319072e+12   7.423464e+11   3.289648e+05   1.485827e-19   0.000000e+00   0.000000e+00
     3496000   3.495999e-05   1.114672e-01   6.186851e+00   1.335659e+01  -2.346457e+05  -1.992745e+05  -1.172926e+05   1.270713e+13  -1.497967e+13  -3.985045e+09   3.294336e+05   1.492112e-19   0.000000e+00   0.000000e+00
     3504000   3.503999e-05   1.175590e-01   6.187518e+00   1.334840e+01  -2.628006e+05   1.669411e+05  -1.090939e+05  -1.031185e+13  -1.671419e+13  -7.717151e+11   3.299014e+05   1.498028e-19   0.000000e+00   0.000000e+00
     3512000   3.511999e-05   1.200598e-01   6.182296e+00   1.333989e+01   7.879461e+04   3.063777e+05  -9.522284e+04  -1.904534e+13   4.763795e+12  -4.726356e+11   3.303684e+05   1.499735e-19   0.000000e+00   0.000000e+00
     3520000   3.519999e-05   1.157919e-01   6.178730e+00   1.333117e+01   3.158460e+05   2.129021e+04  -9.612332e+04  -1.159834e+12   1.957810e+13   4.852524e+11   3.308348e+05   1.501011e-19   0.000000e+00   0.000000e+00
     3528000   3.527999e-05   1.110721e-01   6.182187e+00   1.332258e+01   1.131455e+05  -2.908501e+05  -1.111948e+05   1.836365e+13   6.850268e+12   7.331041e+11   3.313005e+05   1.504477e-19   0.000000e+00   0.000000e+00
     3536000   3.535999e-05   1.129979e-01   6.188161e+00   1.331422e+01  -2.464638e+05  -1.868563e+05  -1.200353e+05   1.186251e+13  -1.563583e+13  -4.895806e+10   3.317652e+05   1.510715e-19   0.000000e+00   0.000000e+00
     3544000   3.543999e-05   1.192950e-01   6.188432e+00   1.330580e+01  -2.492843e+05   1.896450e+05  -1.107614e+05  -1.166531e+13  -1.577473e+13  -7.897657e+11   3.322288e+05   1.516294e-19   0.000000e+00   0.000000e+00
     3552000   3.551999e-05   1.213082e-01   6.182847e+00   1.329705e+01   1.133218e+05   2.973200e+05  -9.717320e+04  -1.835977e+13   6.883542e+12  -3.889327e+11   3.326915e+05   1.516854e-19   0.000000e+00   0.000000e+00
     3560000   3.559999e-05   1.164369e-01   6.179800e+00   1.328811e+01   3.168717e+05  -2.383345e+04  -1.000779e+05   1.658899e+12   1.951450e+13   5.667705e+11   3.331535e+05   1.518195e-19   0.000000e+00   0.000000e+00
     3568000   3.567999e-05   1.121578e-01   6.184139e+00   1.327934e+01   6.085818e+04  -3.068660e+05  -1.158809e+05   1.925369e+13   3.553014e+12   6.697190e+11   3.336148e+05   1.521961e-19   0.000000e+00   0.000000e+00
     3576000   3.575999e-05   1.152303e-01   6.189871e+00   1.327079e+01  -2.812055e+05  -1.325547e+05  -1.223066e+05   8.421801e+12  -1.770288e+13  -2.084996e+11   3.340751e+05   1.528491e-19   0.000000e+00   0.000000e+00
     3584000   3.583999e-05   1.215838e-01   6.188788e+00   1.326213e+01  -1.996424e+05   2.446797e+05  -1.103991e+05  -1.500773e+13  -1.259436e+13  -8.084385e+11   3.345343e+05   1.533258e-19   0.000000e+00   0.000000e+00
     3592000   3.591999e-05   1.221144e-01   6.182771e+00   1.325310e+01   1.877485e+05   2.593522e+05  -9.852482e+04  -1.589072e+13   1.144692e+13  -1.878654e+11   3.349928e+05   1.533779e-19   0.000000e+00   0.000000e+00
     3600000   3.599999e-05   1.163680e-01   6.181232e+00   1.324397e+01   2.971079e+05  -1.143211e+05  -1.057576e+05   7.250211e+12   1.816188e+13   6.995288e+11   3.354506e+05   1.535275e-19   0.000000e+00   0.000000e+00
     3608000   3.607999e-05   1.134734e-01   6.186932e+00   1.323506e+01  -4.106913e+04  -3.103547e+05  -1.217669e+05   1.936404e+13  -2.774751e+12   5.096882e+11   3.359076e+05   1.539527e-19   0.000000e+00   0.000000e+00
     3616000   3.615999e-05   1.183644e-01   6.191551e+00   1.322633e+01  -3.119869e+05  -2.521045e+04  -1.231623e+05   1.746460e+12  -1.950067e+13  -4.635135e+11   3.363635e+05   1.546192e-19   0.000000e+00   0.000000e+00
     3624000   3.623999e-05   1.239995e-01   6.188264e+00   1.321737e+01  -9.442574e+04   3.046698e+05  -1.081973e+05  -1.861284e+13  -6.022020e+12  -7.488971e+11   3.368183e+05   1.549252e-19   0.000000e+00   0.000000e+00
     3632000   3.631999e-05   1.220205e-01   6.182475e+00   1.320806e+01   2.768220e+05   1.640601e+05  -1.010273e+05  -9.917903e+12   1.684728e+13   1.450154e+11   3.372724e+05   1.549190e-19   0.000000e+00   0.000000e+00
     3640000   3.639999e-05   1.159031e-01   6.183644e+00   1.319876e+01   2.192382e+05  -2.302020e+05  -1.140189e+05   1.433452e+13   1.325213e+13   7.734897e+11   3.377257e+05   1.551241e-19   0.000000e+00   0.000000e+00
     3648000   3.647999e-05   1.157543e-01   6.190381e+00   1.318976e+01  -1.802783e+05  -2.562935e+05  -1.271922e+05   1.593705e+13  -1.131353e+13   1.781641e+11   3.381782e+05   1.556712e-19   0.000000e+00   0.000000e+00
     3656000   3.655999e-05   1.223569e-01   6.192369e+00   1.318079e+01  -2.875503e+05   1.319046e+05  -1.207723e+05  -7.909161e+12  -1.787294e+13  -7.209247e+11   3.386295e+05   1.562909e-19   0.000000e+00   0.000000e+00
     3664000   3.663999e-05   1.256210e-01   6.186722e+00   1.317148e+01   7.368941e+04   3.137563e+05  -1.053663e+05  -1.904746e+13   4.327023e+12  -4.724781e+11   3.390799e+05   1.563936e-19   0.000000e+00   0.000000e+00
     3672000   3.671999e-05   1.206744e-01   6.182903e+00   1.316193e+01   3.221373e+05  -7.660076e+03  -1.070013e+05   6.542988e+11   1.949636e+13   5.385188e+11   3.395297e+05   1.564285e-19   0.000000e+00   0.000000e+00
     3680000   3.679999e-05   1.159766e-01   6.187569e+00   1.315257e+01   5.144325e+04  -3.124457e+05  -1.237609e+05   1.928097e+13   2.905593e+12   6.482598e+11   3.399787e+05   1.567570e-19   0.000000e+00   0.000000e+00
     3688000   3.687999e-05   1.197476e-01   6.193547e+00   1.314346e+01  -2.988402e+05  -9.934972e+04  -1.292843e+05   6.263751e+12  -1.848998e+13  -2.993303e+11   3.404266e+05   1.574120e-19   0.000000e+00   0.000000e+00
     3696000   3.695999e-05   1.263300e-01   6.191334e+00   1.313417e+01  -1.486921e+05   2.843389e+05  -1.150509e+05  -1.715912e+13  -9.276957e+12  -7.838820e+11   3.408734e+05   1.577872e-19   0.000000e+00   0.000000e+00
     3704000   3.703999e-05   1.252458e-01   6.184935e+00   1.312450e+01   2.562739e+05   1.992597e+05  -1.054426e+05  -1.194379e+13   1.540529e+13   4.715664e+10   3.413194e+05   1.577303e-19   0.000000e+00   0.000000e+00
     3712000   3.711999e-05   1.187274e-01   6.185484e+00   1.311481e+01   2.375872e+05  -2.156577e+05  -1.176741e+05   1.329689e+13   1.421026e+13   7.718492e+11   3.417647e+05   1.578739e-19   0.000000e+00   0.000000e+00
     3720000   3.719999e-05   1.182632e-01   6.192555e+00   1.310543e+01  -1.770661e+05  -2.614374e+05  -1.319283e+05   1.607777e+13  -1.100138e+13   1.936568e+11   3.422090e+05   1.583800e-19   0.000000e+00   0.000000e+00
     3728000   3.727999e-05   1.252404e-01   6.194576e+00   1.309611e+01  -2.844774e+05   1.442558e+05  -1.251930e+05  -8.561409e+12  -1.749288e+13  -7.326388e+11   3.426520e+05   1.589043e-19   0.000000e+00   0.000000e+00
     3736000   3.735999e-05   1.282606e-01   6.188423e+00   1.308640e+01   1.037957e+05   3.082147e+05  -1.092869e+05  -1.848528e+13   6.090089e+12  -4.156801e+11   3.430940e+05   1.589504e-19   0.000000e+00   0.000000e+00
     3744000   3.743999e-05   1.225631e-01   6.185104e+00   1.307646e+01   3.195986e+05  -5.583516e+04  -1.129411e+05   3.565808e+12   1.910350e+13   6.127062e+11   3.435353e+05   1.589672e-19   0.000000e+00   0.000000e+00
     3752000   3.751999e-05   1.185273e-01   6.190878e+00   1.306677e+01  -1.441947e+04  -3.179197e+05  -1.305317e+05   1.939969e+13  -1.118952e+12   5.533111e+11   3.439759e+05   1.593213e-19   0.000000e+00   0.000000e+00
     3760000   3.759999e-05   1.238062e-01   6.196147e+00   1.305731e+01  -3.174548e+05  -1.708379e+04  -1.324858e+05   1.230681e+12  -1.941133e+13  -4.744043e+11   3.444153e+05   1.599963e-19   0.000000e+00   0.000000e+00
     3768000   3.767999e-05   1.297146e-01   6.192020e+00   1.304759e+01  -5.299689e+04   3.204415e+05  -1.158988e+05  -1.913236e+13  -3.402671e+12  -6.918331e+11   3.448536e+05   1.602190e-19   0.000000e+00   0.000000e+00
     3776000   3.775999e-05   1.262787e-01   6.186194e+00   1.303748e+01   3.131251e+05   9.385127e+04  -1.112233e+05  -5.455289e+12   1.862973e+13   3.278700e+11   3.452912e+05   1.601291e-19   0.000000e+00   0.000000e+00
     3784000   3.783999e-05   1.201151e-01   6.189555e+00   1.302750e+01   1.261264e+05  -2.954558e+05  -1.277728e+05   1.794860e+13   7.334395e+12   7.281641e+11   3.457280e+05   1.603394e-19   0.000000e+00   0.000000e+00
     3792000   3.791999e-05   1.228838e-01   6.196600e+00   1.301784e+01  -2.818410e+05  -1.472037e+05  -1.368433e+05   9.044403e+12  -1.717961e+13  -1.750327e+11   3.461638e+05   1.609553e-19   0.000000e+00   0.000000e+00
     3800000   3.799999e-05   1.302276e-01   6.195026e+00   1.300806e+01  -1.717273e+05   2.748419e+05  -1.228906e+05  -1.629714e+13  -1.052312e+13  -7.917604e+11   3.465984e+05   1.613546e-19   0.000000e+00   0.000000e+00
     3808000   3.807999e-05   1.293245e-01   6.188084e+00   1.299784e+01   2.598647e+05   2.008643e+05  -1.120498e+05  -1.183234e+13   1.535243e+13   4.632356e+10   3.470321e+05   1.612196e-19   0.000000e+00   0.000000e+00
     3816000   3.815999e-05   1.223307e-01   6.188986e+00   1.298759e+01   2.212066e+05  -2.367527e+05  -1.254906e+05   1.434869e+13   1.298178e+13   7.714041e+11   3.474652e+05   1.613226e-19   0.000000e+00   0.000000e+00
     3824000   3.823999e-05   1.227366e-01   6.196627e+00   1.297771e+01  -2.198949e+05  -2.308330e+05  -1.392655e+05   1.399707e+13  -1.339330e+13   7.163816e+10   3.478972e+05   1.618523e-19   0.000000e+00   0.000000e+00
     3832000   3.831999e-05   1.304655e-01   6.197304e+00   1.296783e+01  -2.445257e+05   2.119485e+05  -1.289085e+05  -1.245347e+13  -1.482858e+13  -7.870558e+11   3.483280e+05   1.623792e-19   0.000000e+00   0.000000e+00
     3840000   3.839999e-05   1.316685e-01   6.190158e+00   1.295750e+01   1.975185e+05   2.636932e+05  -1.143870e+05  -1.551457e+13   1.156121e+13  -1.708838e+11   3.487579e+05   1.622590e-19   0.000000e+00   0.000000e+00
     3848000   3.847999e-05   1.246082e-01   6.189124e+00   1.294703e+01   2.745896e+05  -1.762250e+05  -1.244061e+05   1.067817e+13   1.609085e+13   7.457033e+11   3.491871e+05   1.622687e-19   0.000000e+00   0.000000e+00
     3856000   3.855999e-05   1.232481e-01   6.196739e+00   1.293693e+01  -1.624315e+05  -2.757050e+05  -1.408317e+05   1.659221e+13  -9.911352e+12   2.398316e+11   3.496153e+05   1.627101e-19   0.000000e+00   0.000000e+00
     3864000   3.863999e-05   1.308804e-01   6.199018e+00   1.292691e+01  -2.818543e+05   1.588488e+05  -1.336217e+05  -9.230209e+12  -1.697874e+13  -7.425334e+11   3.500422e+05   1.632962e-19   0.000000e+00   0.000000e+00
     3872000   3.871999e-05   1.335060e-01   6.192018e+00   1.291645e+01   1.495762e+05   2.944900e+05  -1.171770e+05  -1.725798e+13   8.657061e+12  -3.046163e+11   3.504681e+05   1.631900e-19   0.000000e+00   0.000000e+00
     3880000   3.879999e-05   1.266086e-01   6.189753e+00   1.290579e+01   2.993883e+05  -1.339661e+05  -1.246827e+05   8.125639e+12   1.747316e+13   7.073337e+11   3.508932e+05   1.631312e-19   0.000000e+00   0.000000e+00
     3888000   3.887999e-05   1.242005e-01   6.197224e+00   1.289547e+01  -1.265148e+05  -2.951852e+05  -1.424207e+05   1.765636e+13  -7.736026e+12   3.233571e+11   3.513174e+05   1.634645e-19   0.000000e+00   0.000000e+00
     3896000   3.895999e-05   1.317152e-01   6.200379e+00   1.288530e+01  -2.967795e+05   1.299471e+05  -1.369558e+05  -7.470008e+12  -1.777684e+13  -7.069952e+11   3.517402e+05   1.641310e-19   0.000000e+00   0.000000e+00
     3904000   3.903999e-05   1.350332e-01   6.193459e+00   1.287469e+01   1.278997e+05   3.055146e+05  -1.196687e+05  -1.781189e+13   7.330026e+12  -3.544440e+11   3.521620e+05   1.639950e-19   0.000000e+00   0.000000e+00
     3912000   3.911999e-05   1.281589e-01   6.190694e+00   1.286385e+01   3.067250e+05  -1.196115e+05  -1.262051e+05   7.241193e+12   1.780846e+13   6.913995e+11   3.525832e+05   1.639162e-19   0.000000e+00   0.000000e+00
     3920000   3.919999e-05   1.254321e-01   6.198218e+00   1.285336e+01  -1.196845e+05  -2.990746e+05  -1.443655e+05   1.779455e+13  -7.297918e+12   3.407341e+11   3.530034e+05   1.642930e-19   0.000000e+00   0.000000e+00
     3928000   3.927999e-05   1.330733e-01   6.201521e+00   1.284304e+01  -2.974366e+05   1.308413e+05  -1.389940e+05  -7.477844e+12  -1.772417e+13  -7.092009e+11   3.534223e+05   1.649258e-19   0.000000e+00   0.000000e+00
     3936000   3.935999e-05   1.363570e-01   6.194411e+00   1.283227e+01   1.364418e+05   3.030531e+05  -1.214301e+05  -1.756752e+13   7.786741e+12  -3.363395e+11   3.538401e+05   1.647791e-19   0.000000e+00   0.000000e+00
     3944000   3.943999e-05   1.292188e-01   6.191880e+00   1.282125e+01   3.008650e+05  -1.356014e+05  -1.288049e+05   8.141448e+12   1.736306e+13   7.091238e+11   3.542572e+05   1.646751e-19   0.000000e+00   0.000000e+00
     3952000   3.951999e-05   1.269213e-01   6.199751e+00   1.281063e+01  -1.432041e+05  -2.893098e+05  -1.469205e+05   1.713244e+13  -8.639165e+12   2.877542e+11   3.546734e+05   1.650519e-19   0.000000e+00   0.000000e+00
     3960000   3.959999e-05   1.349736e-01   6.202435e+00   1.280014e+01  -2.834331e+05   1.618789e+05  -1.398160e+05  -9.246788e+12  -1.681047e+13  -7.445606e+11   3.550882e+05   1.656227e-19   0.000000e+00   0.000000e+00
     3968000   3.967999e-05   1.374272e-01   6.194874e+00   1.278916e+01   1.745340e+05   2.842569e+05  -1.229532e+05  -1.637269e+13   9.959966e+12  -2.446037e+11   3.555019e+05   1.654126e-19   0.000000e+00   0.000000e+00
     3976000   3.975999e-05   1.298091e-01   6.193401e+00   1.277798e+01   2.766450e+05  -1.801723e+05  -1.329692e+05   1.069289e+13   1.585020e+13   7.423194e+11   3.559148e+05   1.652520e-19   0.000000e+00   0.000000e+00
     3984000   3.983999e-05   1.287962e-01   6.201771e+00   1.276722e+01  -1.938627e+05  -2.585868e+05  -1.500624e+05   1.525808e+13  -1.154386e+13   1.563102e+11   3.563265e+05   1.656240e-19   0.000000e+00   0.000000e+00
     3992000   3.991999e-05   1.373368e-01   6.202946e+00   1.275651e+01  -2.454030e+05   2.180271e+05  -1.396519e+05  -1.245730e+13  -1.450671e+13  -7.838084e+11   3.567368e+05   1.660731e-19   0.000000e+00   0.000000e+00
     4000000   3.999999e-05   1.380496e-01   6.194958e+00   1.274527e+01   2.351022e+05   2.381356e+05  -1.247863e+05  -1.360039e+13   1.340930e+13  -6.327231e+10   3.571459e+05   1.657908e-19   0.000000e+00   0.000000e+00
     4008000   4.007999e-05   1.300852e-01   6.195478e+00   1.273393e+01   2.214898e+05  -2.439618e+05  -1.388163e+05   1.433054e+13   1.256045e+13   7.647629e+11   3.575543e+05   1.656830e-19   0.000000e+00   0.000000e+00
     4016000   4.015999e-05   1.313067e-01   6.204087e+00   1.272305e+01  -2.598799e+05  -1.929834e+05  -1.528274e+05   1.138597e+13  -1.530525e+13  -5.865425e+10   3.579614e+05   1.661430e-19   0.000000e+00   0.000000e+00
     4024000   4.023999e-05   1.399211e-01   6.202802e+00   1.271209e+01  -1.685140e+05   2.846392e+05  -1.378785e+05  -1.623430e+13  -9.978288e+12  -7.843383e+11   3.583670e+05   1.664460e-19   0.000000e+00   0.000000e+00
     4032000   4.031999e-05   1.379523e-01   6.194974e+00   1.270057e+01   3.002381e+05   1.493532e+05  -1.275454e+05  -8.397694e+12   1.707611e+13   1.994810e+11   3.587717e+05   1.660977e-19   0.000000e+00   0.000000e+00
     4040000   4.039999e-05   1.304134e-01   6.198388e+00   1.268915e+01   1.202514e+05  -3.054710e+05  -1.457197e+05   1.779852e+13   6.656117e+12   7.097850e+11   3.591756e+05   1.662149e-19   0.000000e+00   0.000000e+00
     4048000   4.047999e-05   1.347006e-01   6.206256e+00   1.267817e+01  -3.155397e+05  -7.854279e+04  -1.535005e+05   4.741768e+12  -1.842531e+13  -3.430743e+11   3.595785e+05   1.668181e-19   0.000000e+00   0.000000e+00
     4056000   4.055999e-05   1.421932e-01   6.201783e+00   1.266693e+01  -4.113187e+04   3.313757e+05  -1.344766e+05  -1.882633e+13  -2.595534e+12  -6.644328e+11   3.599800e+05   1.669665e-19   0.000000e+00   0.000000e+00
     4064000   4.063999e-05   1.369662e-01   6.195519e+00   1.265522e+01   3.351766e+05   9.786377e+03  -1.320426e+05  -3.465572e+11   1.896891e+13   4.989079e+11   3.603809e+05   1.666813e-19   0.000000e+00   0.000000e+00
     4072000   4.071999e-05   1.314684e-01   6.202198e+00   1.264380e+01  -3.058157e+04  -3.254794e+05  -1.526133e+05   1.885191e+13  -2.023659e+12   5.146393e+11   3.607810e+05   1.668507e-19   0.000000e+00   0.000000e+00
     4080000   4.079999e-05   1.389455e-01   6.207511e+00   1.263271e+01  -3.175059e+05   8.240597e+04  -1.511624e+05  -4.493846e+12  -1.843285e+13  -6.334760e+11   3.611797e+05   1.675037e-19   0.000000e+00   0.000000e+00
     4088000   4.087999e-05   1.433353e-01   6.200036e+00   1.262115e+01   1.270733e+05   3.118610e+05  -1.316557e+05  -1.759687e+13   7.028608e+12  -3.625779e+11   3.615773e+05   1.673213e-19   0.000000e+00   0.000000e+00
     4096000   4.095999e-05   1.354015e-01   6.197446e+00   1.260929e+01   2.917559e+05  -1.622474e+05  -1.399270e+05   9.460685e+12   1.636843e+13   7.210634e+11   3.619742e+05   1.671135e-19   0.000000e+00   0.000000e+00
     4104000   4.103999e-05   1.341220e-01   6.206429e+00   1.259792e+01  -2.028916e+05  -2.553085e+05  -1.580020e+05   1.476241e+13  -1.182962e+13   1.357919e+11   3.623700e+05   1.674499e-19   0.000000e+00   0.000000e+00
     4112000   4.111999e-05   1.433649e-01   6.207007e+00   1.258659e+01  -2.185514e+05   2.501828e+05  -1.457457e+05  -1.401631e+13  -1.268533e+13  -7.818315e+11   3.627643e+05   1.678606e-19   0.000000e+00   0.000000e+00
     4120000   4.119999e-05   1.425730e-01   6.198464e+00   1.257466e+01   2.841931e+05   1.831819e+05  -1.325221e+05  -1.018306e+13   1.589611e+13   1.083494e+11   3.631576e+05   1.674760e-19   0.000000e+00   0.000000e+00
     4128000   4.127999e-05   1.343818e-01   6.201411e+00   1.256277e+01   1.340397e+05  -3.024874e+05  -1.506766e+05   1.735776e+13   7.324056e+12   7.143689e+11   3.635501e+05   1.673916e-19   0.000000e+00   0.000000e+00
     4136000   4.135999e-05   1.388580e-01   6.209729e+00   1.255137e+01  -3.199523e+05  -6.920936e+04  -1.590404e+05   4.148000e+12  -1.839960e+13  -3.602633e+11   3.639413e+05   1.679585e-19   0.000000e+00   0.000000e+00
     4144000   4.143999e-05   1.464087e-01   6.204518e+00   1.253966e+01  -7.455442e+03   3.366591e+05  -1.390764e+05  -1.882272e+13  -6.595463e+11  -6.130560e+11   3.643311e+05   1.679513e-19   0.000000e+00   0.000000e+00
     4152000   4.151999e-05   1.399984e-01   6.198784e+00   1.252746e+01   3.336405e+05  -4.761470e+04  -1.394188e+05   2.904307e+12   1.856964e+13   5.829245e+11   3.647201e+05   1.675997e-19   0.000000e+00   0.000000e+00
     4160000   4.159999e-05   1.357331e-01   6.206958e+00   1.251565e+01  -1.100149e+05  -3.089287e+05  -1.605108e+05   1.763723e+13  -6.481838e+12   3.646846e+11   3.651082e+05   1.677728e-19   0.000000e+00   0.000000e+00
     4168000   4.167999e-05   1.447858e-01   6.210260e+00   1.250408e+01  -2.784818e+05   1.802900e+05  -1.533943e+05  -9.930521e+12  -1.595067e+13  -7.419589e+11   3.654947e+05   1.683044e-19   0.000000e+00   0.000000e+00
     4176000   4.175999e-05   1.463122e-01   6.201420e+00   1.249191e+01   2.364678e+05   2.437205e+05  -1.362040e+05  -1.347717e+13   1.305118e+13  -7.045526e+10   3.658801e+05   1.678879e-19   0.000000e+00   0.000000e+00
     4184000   4.183999e-05   1.374767e-01   6.202567e+00   1.247964e+01   1.893334e+05  -2.741582e+05  -1.521184e+05   1.559762e+13   1.034541e+13   7.452192e+11   3.662647e+05   1.677138e-19   0.000000e+00   0.000000e+00
     4192000   4.191999e-05   1.406985e-01   6.211741e+00   1.246791e+01  -3.074756e+05  -1.142906e+05  -1.637903e+05   6.640571e+12  -1.752283e+13  -2.602742e+11   3.666481e+05   1.682308e-19   0.000000e+00   0.000000e+00
     4200000   4.199999e-05   1.491159e-01   6.207264e+00   1.245593e+01  -3.878417e+04   3.354031e+05  -1.439150e+05  -1.855528e+13  -2.417010e+12  -6.568281e+11   3.670300e+05   1.682725e-19   0.000000e+00   0.000000e+00
     4208000   4.207999e-05   1.429572e-01   6.200856e+00   1.244341e+01   3.370859e+05  -3.168077e+04  -1.426896e+05   1.991670e+12   1.856326e+13   5.590925e+11   3.674110e+05   1.678057e-19   0.000000e+00   0.000000e+00
     4216000   4.215999e-05   1.383495e-01   6.209177e+00   1.243129e+01  -1.096244e+05  -3.101538e+05  -1.644915e+05   1.753193e+13  -6.402053e+12   3.660314e+11   3.677911e+05   1.679677e-19   0.000000e+00   0.000000e+00
     4224000   4.223999e-05   1.477647e-01   6.212397e+00   1.241942e+01  -2.711906e+05   1.935156e+05  -1.567044e+05  -1.055782e+13  -1.538795e+13  -7.537515e+11   3.681697e+05   1.684756e-19   0.000000e+00   0.000000e+00
     4232000   4.231999e-05   1.486994e-01   6.203210e+00   1.240691e+01   2.583607e+05   2.225719e+05  -1.397800e+05  -1.215151e+13   1.412169e+13   1.058553e+09   3.685471e+05   1.679773e-19   0.000000e+00   0.000000e+00
     4240000   4.239999e-05   1.397319e-01   6.205479e+00   1.239436e+01   1.499962e+05  -2.978043e+05  -1.578556e+05   1.675424e+13   8.044264e+12   7.221539e+11   3.689236e+05   1.677657e-19   0.000000e+00   0.000000e+00
     4248000   4.247999e-05   1.444923e-01   6.214362e+00   1.238236e+01  -3.249653e+05  -5.480788e+04  -1.666593e+05   3.277859e+12  -1.831655e+13  -3.885972e+11   3.692989e+05   1.683283e-19   0.000000e+00   0.000000e+00
     4256000   4.255999e-05   1.519780e-01   6.208127e+00   1.237000e+01   3.890885e+04   3.377286e+05  -1.452010e+05  -1.848017e+13   1.908825e+12  -5.360275e+11   3.696726e+05   1.682093e-19   0.000000e+00   0.000000e+00
     4264000   4.263999e-05   1.440787e-01   6.203448e+00   1.235716e+01   3.156163e+05  -1.221575e+05  -1.496586e+05   6.975242e+12   1.716792e+13   6.740040e+11   3.700457e+05   1.677676e-19   0.000000e+00   0.000000e+00
     4272000   4.271999e-05   1.420139e-01   6.213200e+00   1.234485e+01  -2.049027e+05  -2.576070e+05  -1.698905e+05   1.445975e+13  -1.160327e+13   1.342351e+11   3.704177e+05   1.680528e-19   0.000000e+00   0.000000e+00
     4280000   4.279999e-05   1.521925e-01   6.213147e+00   1.233262e+01  -1.836431e+05   2.822069e+05  -1.553004e+05  -1.533488e+13  -1.039192e+13  -7.724612e+11   3.707880e+05   1.683931e-19   0.000000e+00   0.000000e+00
     4288000   4.287999e-05   1.493175e-01   6.204215e+00   1.231969e+01   3.265973e+05   1.005584e+05  -1.448450e+05  -5.302088e+12   1.771047e+13   3.166851e+11   3.711575e+05   1.678090e-19   0.000000e+00   0.000000e+00
