     timestep     time              x             y              z              vx             vy             vz             ax             ay             az         v_magnitude      ELoss        Electronic      Nuclear
           0   0.000000e+00   1.000000e-01   4.581548e+00   7.074084e+00  -9.711471e+04  -9.462748e+04  -5.787993e+04   0.000000e+00   0.000000e+00   0.000000e+00   1.474304e+05   0.000000e+00   0.000000e+00   0.000000e+00
        8000   7.999000e-08   1.007034e-01   4.571964e+00   7.069638e+00   1.108601e+05  -8.231137e+04  -5.174522e+04   1.793035e+12   2.344675e+12   1.100676e+11   1.474541e+05   6.759140e-22   0.000000e+00   0.000000e+00
       16000   1.599900e-07   1.103293e-01   4.574049e+00   7.065746e+00   6.835021e+04   1.217097e+05  -4.758865e+04  -2.584360e+12   1.438153e+12  -3.555025e+10   1.474777e+05   6.779807e-22   0.000000e+00   0.000000e+00
       24000   2.399900e-07   1.070980e-01   4.583273e+00   7.061675e+00  -1.274241e+05   4.978385e+04  -5.514850e+04  -1.038489e+12  -2.770521e+12  -1.031090e+11   1.475015e+05   6.794723e-22   0.000000e+00   0.000000e+00
       32000   3.199900e-07   9.869851e-02   4.578730e+00   7.057089e+00  -2.753349e+04  -1.331869e+05  -5.715628e+04   2.882615e+12  -6.242097e+11   6.440382e+10   1.475252e+05   6.749122e-22   0.000000e+00   0.000000e+00
       40000   3.999900e-07   1.046508e-01   4.571064e+00   7.052822e+00   1.388298e+05  -8.467503e+03  -4.924673e+04   2.095637e+11   2.939543e+12   8.358269e+10   1.475488e+05   6.742398e-22   0.000000e+00   0.000000e+00
       48000   4.799900e-07   1.116393e-01   4.578043e+00   7.048969e+00  -8.407208e+03   1.387522e+05  -4.954555e+04  -2.945186e+12  -2.103866e+11  -9.119038e+10   1.475724e+05   6.771620e-22   0.000000e+00   0.000000e+00
       56000   5.599900e-07   1.039741e-01   4.583966e+00   7.044664e+00  -1.329379e+05  -2.817495e+04  -5.760443e+04   6.353225e+11  -2.882165e+12  -5.799426e+10   1.475960e+05   6.763847e-22   0.000000e+00   0.000000e+00
       64000   6.399900e-07   9.945708e-02   4.575539e+00   7.040065e+00   4.970639e+04  -1.276146e+05  -5.509371e+04   2.754540e+12   1.027173e+12   1.043570e+11   1.476196e+05   6.719095e-22   0.000000e+00   0.000000e+00
       72000   7.199900e-07   1.086810e-01   4.572230e+00   7.035985e+00   1.226346e+05   6.679995e+04  -4.792676e+04  -1.398404e+12   2.589868e+12   2.970437e+10   1.476430e+05   6.729277e-22   0.000000e+00   0.000000e+00
       80000   7.999900e-07   1.109221e-01   4.581828e+00   7.032047e+00  -8.027421e+04   1.122295e+05  -5.259261e+04  -2.371077e+12  -1.749708e+12  -1.163579e+11   1.476665e+05   6.757214e-22   0.000000e+00   0.000000e+00
       88000   8.799900e-07   1.013558e-01   4.582710e+00   7.027532e+00  -9.666101e+04  -9.504110e+04  -5.861899e+04   2.061367e+12  -2.098985e+12   2.550688e+09   1.476900e+05   6.726693e-22   0.000000e+00   0.000000e+00
       96000   9.599900e-07   1.020554e-01   4.573113e+00   7.023026e+00   1.103921e+05  -8.291733e+04  -5.251238e+04   1.795568e+12   2.319122e+12   1.111151e+11   1.477134e+05   6.697532e-22   0.000000e+00   0.000000e+00
      104000   1.039990e-06   1.117211e-01   4.575096e+00   7.019077e+00   7.038893e+04   1.206036e+05  -4.823198e+04  -2.543741e+12   1.471780e+12  -3.391262e+10   1.477368e+05   6.717659e-22   0.000000e+00   0.000000e+00
      112000   1.119990e-06   1.086905e-01   4.584409e+00   7.014956e+00  -1.259947e+05   5.334141e+04  -5.579523e+04  -1.107075e+12  -2.723649e+12  -1.054617e+11   1.477602e+05   6.733098e-22   0.000000e+00   0.000000e+00
      120000   1.199990e-06   1.001336e-01   4.580144e+00   7.010307e+00  -3.257686e+04  -1.319177e+05  -5.810714e+04   2.839327e+12  -7.281662e+11   5.981520e+10   1.477835e+05   6.688991e-22   0.000000e+00   0.000000e+00
      128000   1.279990e-06   1.057548e-01   4.572227e+00   7.005958e+00   1.381876e+05  -1.507201e+04  -5.023803e+04   3.495386e+11   2.906195e+12   8.786045e+10   1.478068e+05   6.675739e-22   0.000000e+00   0.000000e+00
      136000   1.359990e-06   1.131168e-01   4.578837e+00   7.002044e+00  -1.851485e+02   1.390849e+05  -5.009063e+04  -2.932722e+12  -3.472939e+10  -8.731055e+10   1.478300e+05   6.704171e-22   0.000000e+00   0.000000e+00
      144000   1.439990e-06   1.058400e-01   4.585265e+00   6.997692e+00  -1.345505e+05  -1.854974e+04  -5.841809e+04   4.281051e+11  -2.898535e+12  -6.711214e+10   1.478533e+05   6.690400e-22   0.000000e+00   0.000000e+00
      152000   1.519990e-06   1.006866e-01   4.577213e+00   6.993002e+00   3.906753e+04  -1.309549e+05  -5.649771e+04   2.808976e+12   7.936314e+11   1.013241e+11   1.478764e+05   6.646664e-22   0.000000e+00   0.000000e+00
      160000   1.599990e-06   1.095925e-01   4.573122e+00   6.988821e+00   1.282024e+05   5.523869e+04  -4.885795e+04  -1.141907e+12   2.688121e+12   4.109266e+10   1.478995e+05   6.649642e-22   0.000000e+00   0.000000e+00
      168000   1.679990e-06   1.127745e-01   4.582477e+00   6.984839e+00  -6.803064e+04   1.202102e+05  -5.293806e+04  -2.522634e+12  -1.478763e+12  -1.177147e+11   1.479226e+05   6.677175e-22   0.000000e+00   0.000000e+00
      176000   1.759990e-06   1.033503e-01   4.584439e+00   6.980271e+00  -1.070899e+05  -8.276403e+04  -5.974791e+04   1.789113e+12  -2.308098e+12  -1.094156e+10   1.479457e+05   6.651257e-22   0.000000e+00   0.000000e+00
      184000   1.839990e-06   1.028639e-01   4.574844e+00   6.975642e+00   9.870867e+04  -9.596972e+04  -5.423242e+04   2.061204e+12   2.054429e+12   1.145237e+11   1.479687e+05   6.617429e-22   0.000000e+00   0.000000e+00
      192000   1.919990e-06   1.127075e-01   4.575540e+00   6.971588e+00   8.632552e+04   1.097819e+05  -4.896289e+04  -2.295323e+12   1.797582e+12  -1.813571e+10   1.479917e+05   6.633351e-22   0.000000e+00   0.000000e+00
      200000   1.999990e-06   1.110516e-01   4.585226e+00   6.967439e+00  -1.164968e+05   7.202031e+04  -5.612418e+04  -1.494276e+12  -2.505155e+12  -1.145485e+11   1.480147e+05   6.652320e-22   0.000000e+00   0.000000e+00
      208000   2.079990e-06   1.019157e-01   4.582381e+00   6.962716e+00  -5.360945e+04  -1.244003e+05  -5.971376e+04   2.663826e+12  -1.170029e+12   4.456349e+10   1.480376e+05   6.611550e-22   0.000000e+00   0.000000e+00
      216000   2.159990e-06   1.061218e-01   4.573657e+00   6.958214e+00   1.331914e+05  -3.836419e+04  -5.205900e+04   8.403211e+11   2.779205e+12   1.002175e+11   1.480605e+05   6.592677e-22   0.000000e+00   0.000000e+00
      224000   2.239990e-06   1.145390e-01   4.578874e+00   6.954211e+00   2.529834e+04   1.369192e+05  -5.041616e+04  -2.865378e+12   5.035123e+11  -7.206986e+10   1.480833e+05   6.617325e-22   0.000000e+00   0.000000e+00
      232000   2.319990e-06   1.085996e-01   4.586604e+00   6.949848e+00  -1.356525e+05   8.512519e+03  -5.883359e+04  -1.463375e+11  -2.905400e+12  -8.440630e+10   1.481062e+05   6.619988e-22   0.000000e+00   0.000000e+00
      240000   2.399990e-06   1.019160e-01   4.579778e+00   6.945057e+00   1.111278e+04  -1.356110e+05  -5.855225e+04   2.891779e+12   1.986277e+11   8.736659e+10   1.481290e+05   6.574791e-22   0.000000e+00   0.000000e+00
      248000   2.479990e-06   1.097463e-01   4.573937e+00   6.940706e+00   1.366765e+05   2.669156e+04  -5.055706e+04  -5.323452e+11   2.848663e+12   6.313977e+10   1.481517e+05   6.571156e-22   0.000000e+00   0.000000e+00
      256000   2.559990e-06   1.148952e-01   4.582394e+00   6.936665e+00  -3.933984e+04   1.327143e+05  -5.286717e+04  -2.770877e+12  -8.636641e+11  -1.078003e+11   1.481744e+05   6.599017e-22   0.000000e+00   0.000000e+00
      264000   2.639990e-06   1.061537e-01   4.586515e+00   6.932087e+00  -1.237084e+05  -5.465320e+04  -6.059419e+04   1.186720e+12  -2.646000e+12  -3.760971e+10   1.481972e+05   6.582069e-22   0.000000e+00   0.000000e+00
      272000   2.719990e-06   1.033521e-01   4.577355e+00   6.927312e+00   7.180244e+04  -1.166120e+05  -5.670227e+04   2.483876e+12   1.475126e+12   1.101781e+11   1.482198e+05   6.542381e-22   0.000000e+00   0.000000e+00
      280000   2.799990e-06   1.130370e-01   4.575602e+00   6.923095e+00   1.110786e+05   8.442538e+04  -5.009680e+04  -1.746245e+12   2.306013e+12   1.261358e+10   1.482423e+05   6.551772e-22   0.000000e+00   0.000000e+00
      288000   2.879990e-06   1.139403e-01   4.585425e+00   6.918934e+00  -9.334516e+04   1.007908e+05  -5.577086e+04  -2.091463e+12  -2.001795e+12  -1.186752e+11   1.482650e+05   6.575904e-22   0.000000e+00   0.000000e+00
      296000   2.959990e-06   1.043472e-01   4.585203e+00   6.914179e+00  -8.601584e+04  -1.041231e+05  -6.122796e+04   2.223294e+12  -1.845628e+12   1.388897e+10   1.482876e+05   6.541946e-22   0.000000e+00   0.000000e+00
      304000   3.039990e-06   1.059155e-01   4.575694e+00   6.909489e+00   1.162617e+05  -7.409282e+04  -5.467487e+04   1.585521e+12   2.405277e+12   1.104418e+11   1.483100e+05   6.514026e-22   0.000000e+00   0.000000e+00
      312000   3.119990e-06   1.154616e-01   4.578286e+00   6.905355e+00   6.422344e+04   1.236891e+05  -5.078255e+04  -2.568145e+12   1.317808e+12  -3.977569e+10   1.483324e+05   6.533350e-22   0.000000e+00   0.000000e+00
      320000   3.199990e-06   1.120932e-01   4.587492e+00   6.901018e+00  -1.267509e+05   5.013975e+04  -5.856112e+04  -1.020551e+12  -2.700995e+12  -1.051026e+11   1.483550e+05   6.546611e-22   0.000000e+00   0.000000e+00
      328000   3.279990e-06   1.035904e-01   4.583130e+00   6.896150e+00  -3.249633e+04  -1.313786e+05  -6.082344e+04   2.787434e+12  -7.178435e+11   5.992808e+10   1.483774e+05   6.502103e-22   0.000000e+00   0.000000e+00
      336000   3.359990e-06   1.091132e-01   4.575139e+00   6.891583e+00   1.373987e+05  -1.854307e+04  -5.291720e+04   4.191297e+11   2.843309e+12   9.035796e+10   1.483997e+05   6.488015e-22   0.000000e+00   0.000000e+00
      344000   3.439990e-06   1.167416e-01   4.581471e+00   6.887467e+00   7.145985e+03   1.386689e+05  -5.243045e+04  -2.876967e+12   1.172140e+11  -8.368807e+10   1.484220e+05   6.513073e-22   0.000000e+00   0.000000e+00
      352000   3.519990e-06   1.098970e-01   4.588382e+00   6.882931e+00  -1.351891e+05  -7.741388e+03  -6.082529e+04   1.969586e+11  -2.871702e+12  -7.363051e+10   1.484444e+05   6.509711e-22   0.000000e+00   0.000000e+00
      360000   3.599990e-06   1.040307e-01   4.580844e+00   6.878018e+00   2.529464e+04  -1.335813e+05  -5.965372e+04   2.824869e+12   4.923724e+11   9.387531e+10   1.484666e+05   6.464725e-22   0.000000e+00   0.000000e+00
      368000   3.679990e-06   1.124058e-01   4.575777e+00   6.873582e+00   1.336880e+05   3.862508e+04  -5.181253e+04  -7.760130e+11   2.760801e+12   5.423904e+10   1.484888e+05   6.463533e-22   0.000000e+00   0.000000e+00
      376000   3.759990e-06   1.168596e-01   4.584624e+00   6.869411e+00  -4.887504e+04   1.290960e+05  -5.478114e+04  -2.669826e+12  -1.057393e+12  -1.113503e+11   1.485110e+05   6.490054e-22   0.000000e+00   0.000000e+00
      384000   3.839990e-06   1.078723e-01   4.588143e+00   6.864683e+00  -1.197930e+05  -6.189958e+04  -6.229125e+04   1.329058e+12  -2.542134e+12  -3.109651e+10   1.485332e+05   6.469488e-22   0.000000e+00   0.000000e+00
      392000   3.919990e-06   1.055682e-01   4.578844e+00   6.859791e+00   7.698101e+04  -1.130311e+05  -5.802208e+04   2.388484e+12   1.568714e+12   1.115530e+11   1.485553e+05   6.430800e-22   0.000000e+00   0.000000e+00
      400000   3.999990e-06   1.153239e-01   4.577457e+00   6.855465e+00   1.083645e+05   8.760365e+04  -5.155530e+04  -1.795831e+12   2.227738e+12   9.150728e+09   1.485773e+05   6.440368e-22   0.000000e+00   0.000000e+00
      408000   4.079990e-06   1.160102e-01   4.587303e+00   6.851178e+00  -9.460212e+04   9.917364e+04  -5.741784e+04  -2.037599e+12  -2.011984e+12  -1.194188e+11   1.485994e+05   6.462930e-22   0.000000e+00   0.000000e+00
      416000   4.159990e-06   1.064252e-01   4.587008e+00   6.846291e+00  -8.569321e+04  -1.038813e+05  -6.287831e+04   2.199990e+12  -1.824059e+12   1.399178e+10   1.486215e+05   6.428017e-22   0.000000e+00   0.000000e+00
      424000   4.239990e-06   1.079332e-01   4.577494e+00   6.841470e+00   1.149999e+05  -7.550983e+04  -5.628621e+04   1.602251e+12   2.355721e+12   1.118807e+11   1.486434e+05   6.399834e-22   0.000000e+00   0.000000e+00
      432000   4.319990e-06   1.175393e-01   4.579884e+00   6.837214e+00   6.775803e+04   1.216024e+05  -5.218290e+04  -2.499924e+12   1.377844e+12  -3.683581e+10   1.486653e+05   6.417693e-22   0.000000e+00   0.000000e+00
      440000   4.399990e-06   1.145175e-01   4.589221e+00   6.832769e+00  -1.240926e+05   5.580517e+04  -5.995571e+04  -1.127648e+12  -2.623064e+12  -1.089027e+11   1.486872e+05   6.431002e-22   0.000000e+00   0.000000e+00
      448000   4.479990e-06   1.057986e-01   4.585323e+00   6.827773e+00  -4.019578e+04  -1.287317e+05  -6.266463e+04   2.709344e+12  -8.733073e+11   5.484829e+10   1.487091e+05   6.387437e-22   0.000000e+00   0.000000e+00
      456000   4.559990e-06   1.107709e-01   4.576995e+00   6.823052e+00   1.353131e+05  -2.849673e+04  -5.476479e+04   6.233968e+11   2.772211e+12   9.630214e+10   1.487309e+05   6.371039e-22   0.000000e+00   0.000000e+00
      464000   4.639990e-06   1.188929e-01   4.582693e+00   6.818815e+00   1.952138e+04   1.373875e+05  -5.358126e+04  -2.822466e+12   3.718024e+11  -7.649230e+10   1.487526e+05   6.394468e-22   0.000000e+00   0.000000e+00
      472000   4.719990e-06   1.127511e-01   4.590260e+00   6.814192e+00  -1.350247e+05   6.784238e+03  -6.209781e+04  -1.049430e+11  -2.844331e+12  -8.386436e+10   1.487745e+05   6.394664e-22   0.000000e+00   0.000000e+00
      480000   4.799990e-06   1.060672e-01   4.583454e+00   6.809140e+00   8.982609e+03  -1.350437e+05  -6.182901e+04   2.831707e+12   1.480275e+11   8.677901e+10   1.487962e+05   6.348995e-22   0.000000e+00   0.000000e+00
      488000   4.879990e-06   1.137203e-01   4.577385e+00   6.804529e+00   1.372743e+05   2.047074e+04  -5.369787e+04  -3.913659e+11   2.807340e+12   6.822411e+10   1.488178e+05   6.343711e-22   0.000000e+00   0.000000e+00
      496000   4.959990e-06   1.193831e-01   4.585530e+00   6.800257e+00  -2.894317e+04   1.350241e+05  -5.553336e+04  -2.766676e+12  -6.355246e+11  -1.047206e+11   1.488394e+05   6.369529e-22   0.000000e+00   0.000000e+00
      504000   5.039990e-06   1.110514e-01   4.590461e+00   6.795465e+00  -1.283690e+05  -4.060381e+04  -6.350078e+04   8.767056e+11  -2.696685e+12  -4.923707e+10   1.488611e+05   6.350699e-22   0.000000e+00   0.000000e+00
      512000   5.119990e-06   1.071438e-01   4.581736e+00   6.790417e+00   5.479363e+04  -1.244932e+05  -6.054046e+04   2.603874e+12   1.094477e+12   1.047375e+11   1.488826e+05   6.309775e-22   0.000000e+00   0.000000e+00
      520000   5.199990e-06   1.164434e-01   4.578552e+00   6.785904e+00   1.230819e+05   6.467283e+04  -5.329818e+04  -1.303385e+12   2.508416e+12   3.233430e+10   1.489041e+05   6.313957e-22   0.000000e+00   0.000000e+00
      528000   5.279990e-06   1.191258e-01   4.588081e+00   6.781548e+00  -7.127796e+04   1.173477e+05  -5.768711e+04  -2.393146e+12  -1.509950e+12  -1.159827e+11   1.489256e+05   6.338339e-22   0.000000e+00   0.000000e+00
      536000   5.359990e-06   1.096891e-01   4.589961e+00   6.776607e+00  -1.073385e+05  -8.073676e+04  -6.438364e+04   1.702929e+12  -2.254828e+12  -1.277192e+10   1.489471e+05   6.311585e-22   0.000000e+00   0.000000e+00
      544000   5.439990e-06   1.088728e-01   4.580400e+00   6.771595e+00   9.252748e+04  -1.006511e+05  -5.915755e+04   2.105741e+12   1.868734e+12   1.127377e+11   1.489685e+05   6.277528e-22   0.000000e+00   0.000000e+00
      552000   5.519990e-06   1.187513e-01   4.580324e+00   6.767158e+00   9.665391e+04   1.000138e+05  -5.341548e+04  -2.028715e+12   1.958600e+12  -5.161945e+09   1.489898e+05   6.289446e-22   0.000000e+00   0.000000e+00
      560000   5.599990e-06   1.183275e-01   4.590178e+00   6.762690e+00  -1.039144e+05   8.844205e+04  -5.986760e+04  -1.789777e+12  -2.181111e+12  -1.168921e+11   1.490112e+05   6.308964e-22   0.000000e+00   0.000000e+00
      568000   5.679990e-06   1.088268e-01   4.588975e+00   6.757629e+00  -7.627886e+04  -1.104883e+05  -6.468814e+04   2.310105e+12  -1.608900e+12   2.277478e+10   1.490325e+05   6.272360e-22   0.000000e+00   0.000000e+00
      576000   5.759990e-06   1.110462e-01   4.579589e+00   6.752681e+00   1.194147e+05  -6.792805e+04  -5.781802e+04   1.428263e+12   2.416473e+12   1.094879e+11   1.490537e+05   6.246910e-22   0.000000e+00   0.000000e+00
      584000   5.839990e-06   1.205263e-01   4.582487e+00   6.748288e+00   6.242278e+04   1.240979e+05  -5.409658e+04  -2.519381e+12   1.250087e+12  -4.090316e+10   1.490749e+05   6.264839e-22   0.000000e+00   0.000000e+00
      592000   5.919990e-06   1.172060e-01   4.591724e+00   6.743685e+00  -1.249138e+05   5.287097e+04  -6.189404e+04  -1.052032e+12  -2.608820e+12  -1.065824e+11   1.490962e+05   6.276456e-22   0.000000e+00   0.000000e+00
      600000   5.999990e-06   1.085382e-01   4.587719e+00   6.738539e+00  -3.975424e+04  -1.284311e+05  -6.450612e+04   2.671109e+12  -8.546512e+11   5.421507e+10   1.491174e+05   6.233968e-22   0.000000e+00   0.000000e+00
      608000   6.079990e-06   1.134488e-01   4.579354e+00   6.733668e+00   1.344671e+05  -3.079896e+04  -5.667708e+04   6.641823e+11   2.719305e+12   9.669622e+10   1.491384e+05   6.217431e-22   0.000000e+00   0.000000e+00
      616000   6.159990e-06   1.217358e-01   4.584829e+00   6.729286e+00   2.479966e+04   1.363177e+05  -5.523609e+04  -2.764160e+12   4.744660e+11  -7.152641e+10   1.491595e+05   6.239564e-22   0.000000e+00   0.000000e+00
      624000   6.239990e-06   1.159693e-01   4.592706e+00   6.724540e+00  -1.340951e+05   1.496538e+04  -6.363484e+04  -2.703548e+11  -2.791043e+12  -8.791506e+10   1.491806e+05   6.241278e-22   0.000000e+00   0.000000e+00
      632000   6.319990e-06   1.088178e-01   4.586396e+00   6.719343e+00  -1.918342e+03  -1.347834e+05  -6.396009e+04   2.792869e+12  -7.809210e+10   7.957640e+10   1.492017e+05   6.196879e-22   0.000000e+00   0.000000e+00
      640000   6.399990e-06   1.158889e-01   4.579674e+00   6.714552e+00   1.382155e+05   6.780787e+03  -5.583793e+04  -1.053135e+11   2.789812e+12   7.670705e+10   1.492226e+05   6.188675e-22   0.000000e+00   0.000000e+00
      648000   6.479990e-06   1.224164e-01   4.587165e+00   6.710147e+00  -1.242362e+04   1.374936e+05  -5.669912e+04  -2.781283e+12  -2.899015e+11  -9.496218e+10   1.492435e+05   6.213087e-22   0.000000e+00   0.000000e+00
      656000   6.559990e-06   1.147915e-01   4.593174e+00   6.705260e+00  -1.325969e+05  -2.168329e+04  -6.502136e+04   4.810007e+11  -2.753122e+12  -6.398873e+10   1.492645e+05   6.204157e-22   0.000000e+00   0.000000e+00
      664000   6.639990e-06   1.096019e-01   4.585166e+00   6.700042e+00   3.390383e+04  -1.309386e+05  -6.318011e+04   2.706111e+12   6.528376e+11   9.794678e+10   1.492853e+05   6.161173e-22   0.000000e+00   0.000000e+00
      672000   6.719990e-06   1.182155e-01   4.580472e+00   6.695328e+00   1.322962e+05   4.162370e+04  -5.529472e+04  -8.147259e+11   2.661302e+12   5.263807e+10   1.493061e+05   6.155136e-22   0.000000e+00   0.000000e+00
      680000   6.799990e-06   1.226643e-01   4.589350e+00   6.690877e+00  -4.614850e+04   1.295048e+05  -5.828675e+04  -2.608943e+12  -9.790121e+11  -1.109299e+11   1.493269e+05   6.179319e-22   0.000000e+00   0.000000e+00
      688000   6.879990e-06   1.138209e-01   4.593236e+00   6.685863e+00  -1.225293e+05  -5.413119e+04  -6.603884e+04   1.141752e+12  -2.539162e+12  -3.827704e+10   1.493477e+05   6.161225e-22   0.000000e+00   0.000000e+00
      696000   6.959990e-06   1.107858e-01   4.584169e+00   6.680647e+00   6.500424e+04  -1.191835e+05  -6.229498e+04   2.458515e+12   1.282938e+12   1.096691e+11   1.493684e+05   6.123057e-22   0.000000e+00   0.000000e+00
      704000   7.039990e-06   1.203111e-01   4.581647e+00   6.675995e+00   1.189842e+05   7.151753e+04  -5.518232e+04  -1.420725e+12   2.384882e+12   2.609423e+10   1.493890e+05   6.128360e-22   0.000000e+00   0.000000e+00
      712000   7.119990e-06   1.225733e-01   4.591297e+00   6.671469e+00  -7.471029e+04   1.146416e+05  -5.999112e+04  -2.299230e+12  -1.559705e+12  -1.184892e+11   1.494097e+05   6.151036e-22   0.000000e+00   0.000000e+00
      720000   7.199990e-06   1.131079e-01   4.592990e+00   6.666341e+00  -1.062031e+05  -8.124384e+04  -6.670662e+04   1.689963e+12  -2.200318e+12  -1.190367e+10   1.494304e+05   6.124372e-22   0.000000e+00   0.000000e+00
      728000   7.279990e-06   1.122592e-01   4.583437e+00   6.661147e+00   9.064793e+04  -1.017273e+05  -6.140100e+04   2.097979e+12   1.799755e+12   1.142763e+11   1.494509e+05   6.091173e-22   0.000000e+00   0.000000e+00
      736000   7.359990e-06   1.221420e-01   4.583085e+00   6.656538e+00   1.004941e+05   9.578093e+04  -5.539528e+04  -1.909760e+12   2.004326e+12  -3.637756e+08   1.494714e+05   6.101447e-22   0.000000e+00   0.000000e+00
      744000   7.439990e-06   1.222564e-01   4.592969e+00   6.651923e+00  -9.745285e+04   9.512815e+04  -6.165563e+04  -1.896243e+12  -2.019151e+12  -1.193840e+11   1.494919e+05   6.121008e-22   0.000000e+00   0.000000e+00
      752000   7.519990e-06   1.126860e-01   4.592543e+00   6.646699e+00  -8.580678e+04  -1.024261e+05  -6.708255e+04   2.114628e+12  -1.780727e+12   1.292479e+10   1.495125e+05   6.087528e-22   0.000000e+00   0.000000e+00
      760000   7.599990e-06   1.139177e-01   4.582999e+00   6.641537e+00   1.103365e+05  -8.072597e+04  -6.057438e+04   1.667802e+12   2.193541e+12   1.133740e+11   1.495328e+05   6.059889e-22   0.000000e+00   0.000000e+00
      768000   7.679990e-06   1.236894e-01   4.584684e+00   6.636956e+00   7.893726e+04   1.140706e+05  -5.588352e+04  -2.275558e+12   1.563049e+12  -2.513392e+10   1.495532e+05   6.074188e-22   0.000000e+00   0.000000e+00
      776000   7.759990e-06   1.218140e-01   4.594356e+00   6.632243e+00  -1.142020e+05   7.303715e+04  -6.321197e+04  -1.442871e+12  -2.354525e+12  -1.149375e+11   1.495736e+05   6.089369e-22   0.000000e+00   0.000000e+00
      784000   7.839990e-06   1.125576e-01   4.591993e+00   6.626941e+00  -6.334164e+04  -1.176721e+05  -6.722705e+04   2.416755e+12  -1.321642e+12   3.515420e+10   1.495940e+05   6.051005e-22   0.000000e+00   0.000000e+00
      792000   7.919990e-06   1.156679e-01   4.582848e+00   6.621817e+00   1.242003e+05  -5.809152e+04  -5.986705e+04   1.206999e+12   2.467884e+12   1.080898e+11   1.496142e+05   6.028951e-22   0.000000e+00   0.000000e+00
      800000   7.999990e-06   1.249639e-01   4.586353e+00   6.617245e+00   5.615133e+04   1.266316e+05  -5.658565e+04  -2.523800e+12   1.098645e+12  -4.713838e+10   1.496344e+05   6.046398e-22   0.000000e+00   0.000000e+00
      808000   8.079990e-06   1.213322e-01   4.595474e+00   6.612430e+00  -1.253305e+05   5.013182e+04  -6.461895e+04  -9.753239e+11  -2.574220e+12  -1.066006e+11   1.496547e+05   6.056360e-22   0.000000e+00   0.000000e+00
      816000   8.159990e-06   1.127011e-01   4.591421e+00   6.607068e+00  -4.046877e+04  -1.274698e+05  -6.720357e+04   2.607301e+12  -8.569380e+11   5.422476e+10   1.496750e+05   6.014950e-22   0.000000e+00   0.000000e+00
      824000   8.239990e-06   1.174332e-01   4.582960e+00   6.601982e+00   1.328125e+05  -3.538229e+04  -5.930886e+04   7.470838e+11   2.635181e+12   9.961740e+10   1.496950e+05   5.998143e-22   0.000000e+00   0.000000e+00
      832000   8.319990e-06   1.259968e-01   4.588020e+00   6.597404e+00   3.366051e+04   1.340909e+05  -5.745629e+04  -2.666746e+12   6.414934e+11  -6.650066e+10   1.497151e+05   6.011916e-22   0.000000e+00   0.000000e+00
      840000   8.399990e-06   1.208867e-01   4.596361e+00   6.592484e+00  -1.315010e+05   2.791416e+04  -6.594648e+04  -5.236441e+11  -2.691943e+12  -9.642525e+10   1.497353e+05   6.015609e-22   0.000000e+00   0.000000e+00
      848000   8.479990e-06   1.130832e-01   4.590904e+00   6.587067e+00  -1.862507e+04  -1.325514e+05  -6.715559e+04   2.701239e+12  -4.159727e+11   7.076491e+10   1.497553e+05   5.973010e-22   0.000000e+00   0.000000e+00
      856000   8.559990e-06   1.191477e-01   4.583298e+00   6.582014e+00   1.369895e+05  -1.403515e+04  -5.890244e+04   3.170668e+11   2.710911e+12   9.018703e+10   1.497752e+05   5.960982e-22   0.000000e+00   0.000000e+00
      864000   8.639990e-06   1.268365e-01   4.589620e+00   6.577419e+00   1.280085e+04   1.373610e+05  -5.836672e+04  -2.725058e+12   2.195945e+11  -8.213805e+10   1.497952e+05   5.981121e-22   0.000000e+00   0.000000e+00
      872000   8.719990e-06   1.205393e-01   4.597061e+00   6.572404e+00  -1.337600e+05   7.508641e+03  -6.705572e+04  -1.111639e+11  -2.730775e+12  -8.515152e+10   1.498152e+05   5.979390e-22   0.000000e+00   0.000000e+00
      880000   8.799990e-06   1.136602e-01   4.590486e+00   6.566947e+00   1.278699e+03  -1.340044e+05  -6.702027e+04   2.722860e+12  -1.651849e+10   8.387099e+10   1.498350e+05   5.936607e-22   0.000000e+00   0.000000e+00
      888000   8.879990e-06   1.207810e-01   4.583813e+00   6.561923e+00   1.378030e+05   5.308113e+03  -5.863973e+04  -7.040788e+10   2.719904e+12   7.948616e+10   1.498548e+05   5.928472e-22   0.000000e+00   0.000000e+00
      896000   8.959990e-06   1.275334e-01   4.591130e+00   6.557302e+00  -5.947203e+03   1.375079e+05  -5.931789e+04  -2.720226e+12  -1.579286e+11  -9.462638e+10   1.498746e+05   5.949542e-22   0.000000e+00   0.000000e+00
      904000   9.039990e-06   1.203100e-01   4.597629e+00   6.552196e+00  -1.331477e+05  -1.064863e+04  -6.801950e+04   2.538716e+11  -2.711671e+12  -7.352409e+10   1.498945e+05   5.942714e-22   0.000000e+00   0.000000e+00
      912000   9.119990e-06   1.143790e-01   4.590190e+00   6.546707e+00   1.883481e+04  -1.328454e+05  -6.687007e+04   2.692243e+12   3.337129e+11   9.424199e+10   1.499142e+05   5.900557e-22   0.000000e+00   0.000000e+00
      920000   9.199990e-06   1.223100e-01   4.584458e+00   6.541706e+00   1.362434e+05   2.223239e+04  -5.851162e+04  -4.075577e+11   2.681345e+12   6.856845e+10   1.499338e+05   5.895686e-22   0.000000e+00   0.000000e+00
      928000   9.279990e-06   1.281350e-01   4.592531e+00   6.537052e+00  -2.219652e+04   1.355036e+05  -6.026733e+04  -2.672192e+12  -4.835609e+11  -1.042805e+11   1.499535e+05   5.917182e-22   0.000000e+00   0.000000e+00
      936000   9.359990e-06   1.202160e-01   4.598112e+00   6.531863e+00  -1.306229e+05  -2.624026e+04  -6.885549e+04   5.655003e+11  -2.654333e+12  -6.231262e+10   1.499732e+05   5.905796e-22   0.000000e+00   0.000000e+00
      944000   9.439990e-06   1.151940e-01   4.590031e+00   6.526348e+00   3.379085e+04  -1.300068e+05  -6.674010e+04   2.628408e+12   6.301194e+11   1.022347e+11   1.499928e+05   5.864745e-22   0.000000e+00   0.000000e+00
      952000   9.519990e-06   1.237238e-01   4.585187e+00   6.521362e+00   1.332159e+05   3.653567e+04  -5.850076e+04  -6.907229e+11   2.613601e+12   5.814025e+10   1.500123e+05   5.862543e-22   0.000000e+00   0.000000e+00
      960000   9.599990e-06   1.286848e-01   4.593815e+00   6.516670e+00  -3.579489e+04   1.322312e+05  -6.118148e+04  -2.598943e+12  -7.545812e+11  -1.115320e+11   1.500318e+05   5.884078e-22   0.000000e+00   0.000000e+00
      968000   9.679990e-06   1.202634e-01   4.598553e+00   6.511406e+00  -1.270410e+05  -3.916512e+04  -6.958507e+04   8.221618e+11  -2.576180e+12  -5.209474e+10   1.500513e+05   5.868798e-22   0.000000e+00   0.000000e+00
      976000   9.759990e-06   1.160649e-01   4.590012e+00   6.505867e+00   4.608966e+04  -1.263081e+05  -6.665765e+04   2.547905e+12   8.720215e+11   1.082551e+11   1.500708e+05   5.829061e-22   0.000000e+00   0.000000e+00
      984000   9.839990e-06   1.250205e-01   4.585962e+00   6.500890e+00   1.295069e+05   4.819333e+04  -5.858687e+04  -9.198043e+11   2.532504e+12   4.875186e+10   1.500901e+05   5.828981e-22   0.000000e+00   0.000000e+00
      992000   9.919990e-06   1.292236e-01   4.594980e+00   6.496156e+00  -4.665541e+04   1.284502e+05  -6.210221e+04  -2.514506e+12  -9.698954e+11  -1.182030e+11   1.501095e+05   5.842866e-22   0.000000e+00   0.000000e+00
     1000000   9.999990e-06   1.204612e-01   4.598993e+00   6.490816e+00  -1.231165e+05  -4.930269e+04  -7.035793e+04   1.021699e+12  -2.491143e+12  -4.321567e+10   1.501289e+05   5.823596e-22   0.000000e+00   0.000000e+00
     1008000   1.007999e-05   1.169574e-01   4.590145e+00   6.485245e+00   5.558344e+04  -1.224835e+05  -6.672873e+04   2.464392e+12   1.055973e+12   1.134160e+11   1.501481e+05   5.784630e-22   0.000000e+00   0.000000e+00
     1016000   1.015999e-05   1.261957e-01   4.586747e+00   6.480264e+00   1.258926e+05   5.696170e+04  -5.879299e+04  -1.089629e+12   2.451740e+12   4.094154e+10   1.501673e+05   5.785164e-22   0.000000e+00   0.000000e+00
     1024000   1.023999e-05   1.297946e-01   4.596017e+00   6.475488e+00  -5.469352e+04   1.249352e+05  -6.289518e+04  -2.436598e+12  -1.127361e+12  -1.216814e+11   1.501865e+05   5.804940e-22   0.000000e+00   0.000000e+00
     1032000   1.031999e-05   1.208136e-01   4.599464e+00   6.470086e+00  -1.196361e+05  -5.669361e+04  -7.095619e+04   1.165582e+12  -2.415355e+12  -3.639639e+10   1.502057e+05   5.783186e-22   0.000000e+00   0.000000e+00
     1040000   1.039999e-05   1.178419e-01   4.590422e+00   6.464489e+00   6.239250e+04  -1.191885e+05  -6.684888e+04   2.392398e+12   1.186536e+12   1.163054e+11   1.502248e+05   5.745346e-22   0.000000e+00   0.000000e+00
     1048000   1.047999e-05   1.272568e-01   4.587514e+00   6.459497e+00   1.228633e+05   6.315971e+04  -5.906481e+04  -1.208141e+12   2.384168e+12   3.514173e+10   1.502438e+05   5.746901e-22   0.000000e+00   0.000000e+00
     1056000   1.055999e-05   1.304118e-01   4.596940e+00   6.454680e+00  -6.021372e+04   1.221054e+05  -6.358847e+04  -2.372594e+12  -1.234018e+12  -1.240663e+11   1.502628e+05   5.766302e-22   0.000000e+00   0.000000e+00
     1064000   1.063999e-05   1.213015e-01   4.599984e+00   6.449225e+00  -1.169416e+05  -6.160668e+04  -7.151179e+04   1.259685e+12  -2.355525e+12  -3.167114e+10   1.502819e+05   5.742756e-22   0.000000e+00   0.000000e+00
     1072000   1.071999e-05   1.186955e-01   4.590832e+00   6.443598e+00   6.676777e+04  -1.167608e+05  -6.707700e+04   2.337920e+12   1.268337e+12   1.182935e+11   1.503008e+05   5.705746e-22   0.000000e+00   0.000000e+00
     1080000   1.079999e-05   1.282102e-01   4.588245e+00   6.438587e+00   1.207767e+05   6.695124e+04  -5.938446e+04  -1.278505e+12   2.335351e+12   3.149188e+10   1.503197e+05   5.707893e-22   0.000000e+00   0.000000e+00
     1088000   1.087999e-05   1.310925e-01   4.597756e+00   6.433733e+00  -6.335249e+04   1.202906e+05  -6.417423e+04  -2.328888e+12  -1.292987e+12  -1.256648e+11   1.503386e+05   5.726962e-22   0.000000e+00   0.000000e+00
     1096000   1.095999e-05   1.219196e-01   4.600571e+00   6.428231e+00  -1.153355e+05  -6.415910e+04  -7.203256e+04   1.307030e+12  -2.317685e+12  -2.939257e+10   1.503575e+05   5.703860e-22   0.000000e+00   0.000000e+00
     1104000   1.103999e-05   1.195040e-01   4.591370e+00   6.422570e+00   6.881614e+04  -1.154650e+05  -6.741804e+04   2.305977e+12   1.303906e+12   1.195914e+11   1.503762e+05   5.665920e-22   0.000000e+00   0.000000e+00
     1112000   1.111999e-05   1.290594e-01   4.588929e+00   6.417533e+00   1.198636e+05   6.842942e+04  -5.973907e+04  -1.302965e+12   2.309660e+12   3.013590e+10   1.503949e+05   5.668253e-22   0.000000e+00   0.000000e+00
     1120000   1.119999e-05   1.318469e-01   4.598466e+00   6.412646e+00  -6.419041e+04   1.196881e+05  -6.464229e+04  -2.309194e+12  -1.306270e+12  -1.266576e+11   1.504137e+05   5.687084e-22   0.000000e+00   0.000000e+00
     1128000   1.127999e-05   1.226654e-01   4.601232e+00   6.407104e+00  -1.149748e+05  -6.442462e+04  -7.252702e+04   1.308908e+12  -2.304207e+12  -2.914822e+10   1.504324e+05   5.663271e-22   0.000000e+00   0.000000e+00
     1136000   1.135999e-05   1.202604e-01   4.592035e+00   6.401405e+00   6.859168e+04  -1.154273e+05  -6.787653e+04   2.298834e+12   1.294718e+12   1.202967e+11   1.504510e+05   5.625904e-22   0.000000e+00   0.000000e+00
     1144000   1.143999e-05   1.298042e-01   4.589559e+00   6.396332e+00   1.201829e+05   6.763016e+04  -6.019390e+04  -1.283136e+12   2.308373e+12   3.048231e+10   1.504695e+05   5.627730e-22   0.000000e+00   0.000000e+00
     1152000   1.151999e-05   1.326740e-01   4.599072e+00   6.391411e+00  -6.279612e+04   1.203208e+05  -6.500947e+04  -2.314417e+12  -1.275051e+12  -1.253452e+11   1.504881e+05   5.646905e-22   0.000000e+00   0.000000e+00
     1160000   1.159999e-05   1.235333e-01   4.601965e+00   6.385839e+00  -1.158828e+05  -6.244940e+04  -7.296246e+04   1.266588e+12  -2.315245e+12  -3.097096e+10   1.505067e+05   5.622132e-22   0.000000e+00   0.000000e+00
     1168000   1.167999e-05   1.209580e-01   4.592822e+00   6.380099e+00   6.605257e+04  -1.166396e+05  -6.848413e+04   2.315288e+12   1.240999e+12   1.184499e+11   1.505251e+05   5.582417e-22   0.000000e+00   0.000000e+00
     1176000   1.175999e-05   1.304340e-01   4.590130e+00   6.374977e+00   1.217310e+05   6.448470e+04  -6.071754e+04  -1.217274e+12   2.330699e+12   3.368347e+10   1.505435e+05   5.584082e-22   0.000000e+00   0.000000e+00
     1184000   1.183999e-05   1.335697e-01   4.599559e+00   6.370025e+00  -5.900243e+04   1.221573e+05  -6.530844e+04  -2.342590e+12  -1.197417e+12  -1.243956e+11   1.505619e+05   5.603187e-22   0.000000e+00   0.000000e+00
     1192000   1.191999e-05   1.245323e-01   4.602762e+00   6.364425e+00  -1.179524e+05  -5.806422e+04  -7.341794e+04   1.177676e+12  -2.348965e+12  -3.524964e+10   1.505803e+05   5.579350e-22   0.000000e+00   0.000000e+00
     1200000   1.199999e-05   1.216067e-01   4.593740e+00   6.358635e+00   6.113012e+04  -1.189547e+05  -6.923010e+04   2.353652e+12   1.140826e+12   1.170564e+11   1.505986e+05   5.539539e-22   0.000000e+00   0.000000e+00
     1208000   1.207999e-05   1.309481e-01   4.590654e+00   6.353458e+00   1.243308e+05   5.892801e+04  -6.127595e+04  -1.104886e+12   2.373118e+12   3.921952e+10   1.506167e+05   5.540174e-22   0.000000e+00   0.000000e+00
     1216000   1.215999e-05   1.345261e-01   4.599927e+00   6.348478e+00  -5.275912e+04   1.249811e+05  -6.547601e+04  -2.389720e+12  -1.072448e+12  -1.225629e+11   1.506350e+05   5.559246e-22   0.000000e+00   0.000000e+00
     1224000   1.223999e-05   1.256692e-01   4.603616e+00   6.342861e+00  -1.209417e+05  -5.119576e+04  -7.381389e+04   1.041041e+12  -2.400312e+12  -4.183432e+10   1.506532e+05   5.537215e-22   0.000000e+00   0.000000e+00
     1232000   1.231999e-05   1.222204e-01   4.594798e+00   6.337018e+00   5.369027e+04  -1.220981e+05  -7.008036e+04   2.407819e+12   9.924377e+11   1.146362e+11   1.506713e+05   5.497006e-22   0.000000e+00   0.000000e+00
     1240000   1.239999e-05   1.313372e-01   4.591148e+00   6.331777e+00   1.276577e+05   5.080673e+04  -6.188263e+04  -9.434713e+11   2.429137e+12   4.697913e+10   1.506893e+05   5.496203e-22   0.000000e+00   0.000000e+00
     1248000   1.247999e-05   1.355247e-01   4.600167e+00   6.326774e+00  -4.390255e+04   1.284261e+05  -6.551363e+04  -2.448196e+12  -8.976185e+11  -1.200313e+11   1.507074e+05   5.514303e-22   0.000000e+00   0.000000e+00
     1256000   1.255999e-05   1.269538e-01   4.604506e+00   6.321149e+00  -1.244459e+05  -4.167288e+04  -7.412664e+04   8.537964e+11  -2.461265e+12  -5.060722e+10   1.507255e+05   5.495853e-22   0.000000e+00   0.000000e+00
     1264000   1.263999e-05   1.228216e-01   4.596004e+00   6.315254e+00   4.355882e+04  -1.256248e+05  -7.102537e+04   2.469065e+12   7.929395e+11   1.107952e+11   1.507434e+05   5.455019e-22   0.000000e+00   0.000000e+00
     1272000   1.271999e-05   1.315908e-01   4.591635e+00   6.309940e+00   1.312231e+05   3.994839e+04  -6.255875e+04  -7.302143e+11   2.489173e+12   5.674980e+10   1.507613e+05   5.452345e-22   0.000000e+00   0.000000e+00
     1280000   1.279999e-05   1.365382e-01   4.600267e+00   6.304917e+00  -3.226160e+04   1.319578e+05  -6.542694e+04  -2.508257e+12  -6.696957e+11  -1.149175e+11   1.507792e+05   5.470355e-22   0.000000e+00   0.000000e+00
     1288000   1.287999e-05   1.283961e-01   4.605401e+00   6.299296e+00  -1.278924e+05  -2.932350e+04  -7.431966e+04   6.125955e+11  -2.520271e+12  -6.069013e+10   1.507971e+05   5.453569e-22   0.000000e+00   0.000000e+00
     1296000   1.295999e-05   1.234401e-01   4.597370e+00   6.293351e+00   3.053365e+04  -1.289499e+05  -7.200517e+04   2.525275e+12   5.376758e+11   1.070184e+11   1.508148e+05   5.411769e-22   0.000000e+00   0.000000e+00
     1304000   1.303999e-05   1.316991e-01   4.592141e+00   6.287967e+00   1.345032e+05   2.603618e+04  -6.309876e+04  -4.584610e+11   2.540752e+12   7.005309e+10   1.508325e+05   5.407319e-22   0.000000e+00   0.000000e+00
     1312000   1.311999e-05   1.375528e-01   4.600206e+00   6.282943e+00  -1.731981e+04   1.350287e+05  -6.498513e+04  -2.559349e+12  -3.791070e+11  -1.066392e+11   1.508502e+05   5.436844e-22   0.000000e+00   0.000000e+00
     1320000   1.319999e-05   1.300365e-01   4.606277e+00   6.277361e+00  -1.307105e+05  -1.365301e+04  -7.409130e+04   3.093936e+11  -2.566988e+12  -7.370339e+10   1.508680e+05   5.426148e-22   0.000000e+00   0.000000e+00
     1328000   1.327999e-05   1.241249e-01   4.598925e+00   6.271389e+00   1.422317e+04  -1.313621e+05  -7.285731e+04   2.564613e+12   2.227121e+11   9.820045e+10   1.508857e+05   5.383532e-22   0.000000e+00   0.000000e+00
     1336000   1.335999e-05   1.316493e-01   4.592728e+00   6.265931e+00   1.364655e+05   9.005720e+03  -6.377975e+04  -1.303013e+11   2.569454e+12   8.297139e+10   1.509033e+05   5.376240e-22   0.000000e+00   0.000000e+00
     1344000   1.343999e-05   1.384855e-01   4.599995e+00   6.260903e+00   4.699457e+02   1.364694e+05  -6.444359e+04  -2.575654e+12  -3.696562e+10  -9.809424e+10   1.509208e+05   5.392931e-22   0.000000e+00   0.000000e+00
     1352000   1.351999e-05   1.318324e-01   4.607059e+00   6.255371e+00  -1.316138e+05   4.851668e+03  -7.373402e+04  -4.637854e+10  -2.576551e+12  -8.765292e+10   1.509385e+05   5.397015e-22   0.000000e+00   0.000000e+00
     1360000   1.359999e-05   1.249248e-01   4.600636e+00   6.249375e+00  -4.864851e+03  -1.316115e+05  -7.377310e+04   2.562697e+12  -1.428543e+11   8.496567e+10   1.509560e+05   5.354902e-22   0.000000e+00   0.000000e+00
     1368000   1.367999e-05   1.314558e-01   4.593447e+00   6.243831e+00   1.359935e+05  -1.071955e+04  -6.468263e+04   2.472486e+11   2.551280e+12   9.600484e+10   1.509735e+05   5.343414e-22   0.000000e+00   0.000000e+00
     1376000   1.375999e-05   1.392801e-01   4.599646e+00   6.238786e+00   2.087546e+04   1.351858e+05  -6.393169e+04  -2.542582e+12   3.537161e+11  -8.330944e+10   1.509909e+05   5.358783e-22   0.000000e+00   0.000000e+00
     1384000   1.383999e-05   1.337702e-01   4.607690e+00   6.233311e+00  -1.295097e+05   2.588693e+04  -7.321652e+04  -4.484174e+11  -2.528334e+12  -1.016501e+11   1.510084e+05   5.365808e-22   0.000000e+00   0.000000e+00
     1392000   1.391999e-05   1.258999e-01   4.602484e+00   6.227299e+00  -2.635479e+04  -1.285819e+05  -7.470560e+04   2.497992e+12  -5.530410e+11   6.976057e+10   1.510259e+05   5.323808e-22   0.000000e+00   0.000000e+00
     1400000   1.399999e-05   1.311419e-01   4.594359e+00   6.221656e+00   1.319547e+05  -3.267693e+04  -6.583484e+04   6.648856e+11   2.465161e+12   1.080820e+11   1.510432e+05   5.308839e-22   0.000000e+00   0.000000e+00
     1408000   1.407999e-05   1.398754e-01   4.599188e+00   6.216578e+00   4.334620e+04   1.300226e+05  -6.351767e+04  -2.435507e+12   7.810244e+11  -6.430657e+10   1.510605e+05   5.322295e-22   0.000000e+00   0.000000e+00
     1416000   1.415999e-05   1.358179e-01   4.608108e+00   6.211164e+00  -1.232258e+05   4.880267e+04  -7.251362e+04  -8.838497e+11  -2.400445e+12  -1.144703e+11   1.510778e+05   5.332148e-22   0.000000e+00   0.000000e+00
     1424000   1.423999e-05   1.271142e-01   4.604433e+00   6.205148e+00  -4.950011e+04  -1.210927e+05  -7.560451e+04   2.349024e+12  -9.922476e+11   5.041915e+10   1.510951e+05   5.291544e-22   0.000000e+00   0.000000e+00
     1432000   1.431999e-05   1.307522e-01   4.595528e+00   6.199396e+00   1.231904e+05  -5.599856e+04  -6.725494e+04   1.106217e+12   2.291477e+12   1.173292e+11   1.511123e+05   5.279181e-22   0.000000e+00   0.000000e+00
     1440000   1.439999e-05   1.402055e-01   4.598676e+00   6.194261e+00   6.676477e+04   1.198944e+05  -6.330825e+04  -2.236141e+12   1.224174e+12  -4.089407e+10   1.511295e+05   5.290351e-22   0.000000e+00   0.000000e+00
     1448000   1.447999e-05   1.379046e-01   4.608254e+00   6.188911e+00  -1.117033e+05   7.239392e+04  -7.160188e+04  -1.329178e+12  -2.172752e+12  -1.240967e+11   1.511467e+05   5.293485e-22   0.000000e+00   0.000000e+00
     1456000   1.455999e-05   1.286138e-01   4.606415e+00   6.182909e+00  -7.302667e+04  -1.080959e+05  -7.637343e+04   2.096519e+12  -1.435672e+12   2.650039e+10   1.511639e+05   5.257469e-22   0.000000e+00   0.000000e+00
     1464000   1.463999e-05   1.303478e-01   4.597009e+00   6.177043e+00   1.087044e+05  -7.929359e+04  -6.893153e+04   1.544168e+12   2.008548e+12   1.237230e+11   1.511809e+05   5.239740e-22   0.000000e+00   0.000000e+00
     1472000   1.471999e-05   1.402155e-01   4.598182e+00   6.171828e+00   8.991086e+04   1.037545e+05  -6.333927e+04  -1.922004e+12   1.657710e+12  -1.387180e+10   1.511979e+05   5.247650e-22   0.000000e+00   0.000000e+00
     1480000   1.479999e-05   1.399624e-01   4.608076e+00   6.166538e+00  -9.395724e+04   9.521057e+04  -7.051920e+04  -1.757396e+12  -1.829313e+12  -1.292467e+11   1.512150e+05   5.256363e-22   0.000000e+00   0.000000e+00
     1488000   1.487999e-05   1.304599e-01   4.608346e+00   6.160569e+00  -9.526859e+04  -8.876126e+04  -7.691849e+04   1.726077e+12  -1.852754e+12  -6.797558e+08   1.512320e+05   5.225371e-22   0.000000e+00   0.000000e+00
     1496000   1.495999e-05   1.300392e-01   4.598845e+00   6.154591e+00   8.776910e+04  -1.008074e+05  -7.078618e+04   1.945837e+12   1.605896e+12   1.248027e+11   1.512489e+05   5.201036e-22   0.000000e+00   0.000000e+00
     1504000   1.503999e-05   1.398819e-01   4.597811e+00   6.149272e+00   1.107157e+05   8.104216e+04  -6.368304e+04  -1.485932e+12   2.043523e+12   1.619964e+10   1.512658e+05   5.205033e-22   0.000000e+00   0.000000e+00
     1512000   1.511999e-05   1.418854e-01   4.607547e+00   6.144035e+00  -6.953845e+04   1.151253e+05  -6.926045e+04  -2.127946e+12  -1.361687e+12  -1.278458e+11   1.512827e+05   5.217978e-22   0.000000e+00   0.000000e+00
     1520000   1.519999e-05   1.326768e-01   4.610109e+00   6.138126e+00  -1.140630e+05  -6.273641e+04  -7.710601e+04   1.231456e+12  -2.202385e+12  -3.057596e+10   1.512996e+05   5.194051e-22   0.000000e+00   0.000000e+00
     1528000   1.527999e-05   1.299496e-01   4.601048e+00   6.132050e+00   6.021571e+04  -1.182339e+05  -7.274237e+04   2.267272e+12   1.081562e+12   1.180171e+11   1.513163e+05   5.159555e-22   0.000000e+00   0.000000e+00
     1536000   1.535999e-05   1.392016e-01   4.597694e+00   6.126602e+00   1.267622e+05   5.178012e+04  -6.443484e+04  -9.298050e+11   2.336632e+12   4.754628e+10   1.513331e+05   5.162663e-22   0.000000e+00   0.000000e+00
     1544000   1.543999e-05   1.435379e-01   4.606676e+00   6.121399e+00  -3.865796e+04   1.296102e+05  -6.792299e+04  -2.393569e+12  -7.752900e+11  -1.180517e+11   1.513498e+05   5.178119e-22   0.000000e+00   0.000000e+00
     1552000   1.551999e-05   1.352462e-01   4.611564e+00   6.115577e+00  -1.268083e+05  -3.043039e+04  -7.684721e+04   6.212939e+11  -2.436074e+12  -6.139127e+10   1.513666e+05   5.162987e-22   0.000000e+00   0.000000e+00
     1560000   1.559999e-05   1.302215e-01   4.603589e+00   6.109424e+00   2.668784e+04  -1.289455e+05  -7.468387e+04   2.462386e+12   4.490285e+11   1.038081e+11   1.513832e+05   5.124530e-22   0.000000e+00   0.000000e+00
     1568000   1.567999e-05   1.382196e-01   4.597977e+00   6.103824e+00   1.353670e+05   1.689383e+04  -6.566790e+04  -2.723749e+11   2.487859e+12   7.760583e+10   1.513998e+05   5.120670e-22   0.000000e+00   0.000000e+00
     1576000   1.575999e-05   1.447719e-01   4.605521e+00   6.098629e+00  -2.465086e+03   1.359138e+05  -6.669529e+04  -2.501637e+12  -9.446280e+10  -1.009790e+11   1.514163e+05   5.128041e-22   0.000000e+00   0.000000e+00
     1584000   1.583999e-05   1.381038e-01   4.612564e+00   6.092902e+00  -1.306064e+05   6.797751e+03  -7.633925e+04  -7.671893e+10  -2.500925e+12  -9.226408e+10   1.514329e+05   5.122405e-22   0.000000e+00   0.000000e+00
     1592000   1.591999e-05   1.310190e-01   4.606389e+00   6.086683e+00  -1.111711e+04  -1.300989e+05  -7.673075e+04   2.478395e+12  -2.606577e+11   8.206003e+10   1.514494e+05   5.081097e-22   0.000000e+00   0.000000e+00
     1600000   1.599999e-05   1.370522e-01   4.598821e+00   6.080897e+00   1.337644e+05  -2.155425e+04  -6.770812e+04   4.450484e+11   2.448930e+12   9.872863e+10   1.514658e+05   5.072348e-22   0.000000e+00   0.000000e+00
     1608000   1.607999e-05   1.454436e-01   4.604218e+00   6.075639e+00   3.651525e+04   1.313304e+05  -6.607430e+04  -2.406858e+12   6.341623e+11  -7.059088e+10   1.514822e+05   5.069385e-22   0.000000e+00   0.000000e+00
     1616000   1.615999e-05   1.410945e-01   4.612968e+00   6.070005e+00  -1.230859e+05   4.600212e+04  -7.540211e+04  -8.086905e+11  -2.352764e+12  -1.161208e+11   1.514986e+05   5.072819e-22   0.000000e+00   0.000000e+00
     1624000   1.623999e-05   1.324585e-01   4.609271e+00   6.063755e+00  -5.008574e+04  -1.194798e+05  -7.856696e+04   2.275212e+12  -9.869348e+11   4.965817e+10   1.515149e+05   5.033125e-22   0.000000e+00   0.000000e+00
     1632000   1.631999e-05   1.358733e-01   4.600330e+00   6.057765e+00   1.200512e+05  -6.017861e+04  -7.019909e+04   1.164360e+12   2.181086e+12   1.206125e+11   1.515311e+05   5.013187e-22   0.000000e+00   0.000000e+00
     1640000   1.639999e-05   1.454595e-01   4.602960e+00   6.052406e+00   7.468183e+04   1.142691e+05  -6.581620e+04  -2.080183e+12   1.341808e+12  -3.169416e+10   1.515473e+05   5.015234e-22   0.000000e+00   0.000000e+00
     1648000   1.647999e-05   1.440145e-01   4.612698e+00   6.046873e+00  -1.027909e+05   8.334279e+04  -7.388836e+04  -1.501651e+12  -1.966763e+12  -1.302070e+11   1.515635e+05   5.025681e-22   0.000000e+00   0.000000e+00
     1656000   1.655999e-05   1.346104e-01   4.612020e+00   6.040650e+00  -8.610393e+04  -9.594991e+04  -7.972522e+04   1.833278e+12  -1.654188e+12   1.010702e+10   1.515796e+05   4.991785e-22   0.000000e+00   0.000000e+00
     1664000   1.663999e-05   1.349203e-01   4.602555e+00   6.034476e+00   9.333691e+04  -9.452897e+04  -7.303244e+04   1.797945e+12   1.677355e+12   1.259079e+11   1.515957e+05   4.963878e-22   0.000000e+00   0.000000e+00
     1672000   1.671999e-05   1.447825e-01   4.601995e+00   6.028973e+00   1.073556e+05   8.419755e+04  -6.611837e+04  -1.514577e+12   1.941644e+12   1.244279e+10   1.516117e+05   4.966639e-22   0.000000e+00   0.000000e+00
     1680000   1.679999e-05   1.465980e-01   4.611739e+00   6.023529e+00  -6.958486e+04   1.138901e+05  -7.195796e+04  -2.063937e+12  -1.342897e+12  -1.304185e+11   1.516277e+05   4.980909e-22   0.000000e+00   0.000000e+00
     1688000   1.687999e-05   1.374643e-01   4.614359e+00   6.017396e+00  -1.140904e+05  -5.981625e+04  -8.000746e+04   1.159956e+12  -2.168634e+12  -3.350674e+10   1.516437e+05   4.956878e-22   0.000000e+00   0.000000e+00
     1696000   1.695999e-05   1.344764e-01   4.605457e+00   6.011079e+00   5.451772e+04  -1.194782e+05  -7.585120e+04   2.254280e+12   9.537747e+11   1.171094e+11   1.516596e+05   4.921515e-22   0.000000e+00   0.000000e+00
     1704000   1.703999e-05   1.434789e-01   4.601619e+00   6.005387e+00   1.290869e+05   4.262301e+04  -6.727014e+04  -7.407770e+11   2.334177e+12   5.656289e+10   1.516754e+05   4.918562e-22   0.000000e+00   0.000000e+00
     1712000   1.711999e-05   1.485365e-01   4.610190e+00   5.999990e+00  -2.554414e+04   1.321098e+05  -7.003373e+04  -2.394863e+12  -5.228158e+11  -1.135827e+11   1.516912e+05   4.937033e-22   0.000000e+00   0.000000e+00
     1720000   1.719999e-05   1.408761e-01   4.615979e+00   5.993991e+00  -1.285304e+05  -1.379507e+04  -7.940204e+04   3.072431e+11  -2.430043e+12  -7.591151e+10   1.517071e+05   4.924675e-22   0.000000e+00   0.000000e+00
     1728000   1.727999e-05   1.348357e-01   4.608853e+00   5.987584e+00   6.985050e+03  -1.296765e+05  -7.845411e+04   2.437253e+12   7.432246e+10   9.339109e+10   1.517229e+05   4.884013e-22   0.000000e+00   0.000000e+00
     1736000   1.735999e-05   1.417690e-01   4.602109e+00   5.981675e+00   1.348684e+05  -6.329964e+03  -6.924622e+04   1.629877e+11   2.430068e+12   9.444897e+10   1.517385e+05   4.873754e-22   0.000000e+00   0.000000e+00
     1744000   1.743999e-05   1.495670e-01   4.608307e+00   5.976264e+00   2.452863e+04   1.332028e+05  -6.844492e+04  -2.405273e+12   4.020064e+11  -8.049113e+10   1.517542e+05   4.885188e-22   0.000000e+00   0.000000e+00
     1752000   1.751999e-05   1.445670e-01   4.616637e+00   5.970425e+00  -1.248900e+05   3.687135e+04  -7.795583e+04  -6.263167e+11  -2.355313e+12  -1.113765e+11   1.517699e+05   4.885179e-22   0.000000e+00   0.000000e+00
     1760000   1.759999e-05   1.362258e-01   4.612438e+00   5.963991e+00  -4.351521e+04  -1.210344e+05  -8.059747e+04   2.273359e+12  -8.546503e+11   5.530408e+10   1.517855e+05   4.844705e-22   0.000000e+00   0.000000e+00
     1768000   1.767999e-05   1.399929e-01   4.603671e+00   5.957850e+00   1.211623e+05  -5.633841e+04  -7.203635e+04   1.079652e+12   2.167284e+12   1.201206e+11   1.518011e+05   4.825618e-22   0.000000e+00   0.000000e+00
     1776000   1.775999e-05   1.495193e-01   4.606463e+00   5.952348e+00   7.375019e+04   1.141827e+05  -6.761277e+04  -2.045992e+12   1.302745e+12  -3.254144e+10   1.518165e+05   4.832421e-22   0.000000e+00   0.000000e+00
     1784000   1.783999e-05   1.481372e-01   4.616192e+00   5.946669e+00  -1.007573e+05   8.464488e+04  -7.573758e+04  -1.500919e+12  -1.903759e+12  -1.316885e+11   1.518321e+05   4.841715e-22   0.000000e+00   0.000000e+00
     1792000   1.791999e-05   1.387559e-01   4.615782e+00   5.940289e+00  -8.899354e+04  -9.185998e+04  -8.185092e+04   1.734768e+12  -1.686043e+12   5.352714e+09   1.518475e+05   4.808032e-22   0.000000e+00   0.000000e+00
     1800000   1.799999e-05   1.386164e-01   4.606367e+00   5.933933e+00   8.714018e+04  -9.893345e+04  -7.537310e+04   1.854690e+12   1.536123e+12   1.271786e+11   1.518629e+05   4.779033e-22   0.000000e+00   0.000000e+00
     1808000   1.807999e-05   1.483864e-01   4.605152e+00   5.928259e+00   1.131409e+05   7.518689e+04  -6.791945e+04  -1.324580e+12   2.015117e+12   2.337985e+10   1.518782e+05   4.780021e-22   0.000000e+00   0.000000e+00
     1816000   1.815999e-05   1.510783e-01   4.614692e+00   5.922702e+00  -5.721399e+04   1.202193e+05  -7.311309e+04  -2.145965e+12  -1.099548e+12  -1.294710e+11   1.518936e+05   4.793465e-22   0.000000e+00   0.000000e+00
     1824000   1.823999e-05   1.423221e-01   4.618366e+00   5.916458e+00  -1.200512e+05  -4.426357e+04  -8.188264e+04   8.626616e+11  -2.248920e+12  -4.978294e+10   1.519089e+05   4.772543e-22   0.000000e+00   0.000000e+00
     1832000   1.831999e-05   1.381581e-01   4.610028e+00   5.909942e+00   3.608769e+04  -1.247745e+05  -7.880314e+04   2.320519e+12   6.001696e+11   1.116545e+11   1.519241e+05   4.734986e-22   0.000000e+00   0.000000e+00
     1840000   1.839999e-05   1.464055e-01   4.604889e+00   5.904025e+00   1.334578e+05   2.080149e+04  -6.958339e+04  -3.294713e+11   2.373679e+12   7.685799e+10   1.519392e+05   4.728795e-22   0.000000e+00   0.000000e+00
     1848000   1.847999e-05   1.528859e-01   4.612444e+00   5.898514e+00  -6.942878e+01   1.345459e+05  -7.062249e+04  -2.398718e+12  -5.234119e+10  -9.817574e+10   1.519544e+05   4.744068e-22   0.000000e+00   0.000000e+00
     1856000   1.855999e-05   1.465477e-01   4.619714e+00   5.892479e+00  -1.281930e+05   1.488555e+04  -8.024798e+04  -2.166506e+11  -2.387952e+12  -9.757852e+10   1.519696e+05   4.738890e-22   0.000000e+00   0.000000e+00
     1864000   1.863999e-05   1.390410e-01   4.614220e+00   5.885918e+00  -2.418169e+04  -1.260236e+05  -8.144107e+04   2.336781e+12  -4.949049e+11   7.128171e+10   1.519847e+05   4.700144e-22   0.000000e+00   0.000000e+00
     1872000   1.871999e-05   1.440413e-01   4.606063e+00   5.879739e+00   1.275303e+05  -3.989802e+04  -7.244358e+04   7.705694e+11   2.254836e+12   1.138893e+11   1.519997e+05   4.684996e-22   0.000000e+00   0.000000e+00
     1880000   1.879999e-05   1.531694e-01   4.609987e+00   5.874168e+00   6.033423e+04   1.212409e+05  -6.905699e+04  -2.147411e+12   1.042466e+12  -4.677072e+10   1.520146e+05   4.693546e-22   0.000000e+00   0.000000e+00
     1888000   1.887999e-05   1.507986e-01   4.619485e+00   5.868344e+00  -1.077185e+05   7.401459e+04  -7.766327e+04  -1.287962e+12  -2.008168e+12  -1.281625e+11   1.520297e+05   4.700830e-22   0.000000e+00   0.000000e+00
     1896000   1.895999e-05   1.415306e-01   4.618239e+00   5.861834e+00  -8.083743e+04  -9.837753e+04  -8.309478e+04   1.832516e+12  -1.519121e+12   1.510110e+10   1.520446e+05   4.667211e-22   0.000000e+00   0.000000e+00
     1904000   1.903999e-05   1.420723e-01   4.608841e+00   5.855402e+00   9.293607e+04  -9.318637e+04  -7.616610e+04   1.729773e+12   1.620220e+12   1.276101e+11   1.520595e+05   4.641294e-22   0.000000e+00   0.000000e+00
     1912000   1.911999e-05   1.518975e-01   4.608132e+00   5.849656e+00   1.096167e+05   7.968383e+04  -6.900196e+04  -1.388014e+12   1.925562e+12   1.783039e+10   1.520743e+05   4.643170e-22   0.000000e+00   0.000000e+00
     1920000   1.919999e-05   1.542730e-01   4.617746e+00   5.843999e+00  -5.986101e+04   1.183468e+05  -7.444334e+04  -2.084355e+12  -1.135158e+12  -1.293218e+11   1.520891e+05   4.656563e-22   0.000000e+00   0.000000e+00
     1928000   1.927999e-05   1.454786e-01   4.621276e+00   5.837653e+00  -1.192182e+05  -4.490595e+04  -8.310290e+04   8.650416e+11  -2.207572e+12  -4.875695e+10   1.521040e+05   4.636215e-22   0.000000e+00   0.000000e+00
     1936000   1.935999e-05   1.413106e-01   4.612962e+00   5.831039e+00   3.469258e+04  -1.246179e+05  -8.004321e+04   2.290708e+12   5.660993e+11   1.107992e+11   1.521187e+05   4.600866e-22   0.000000e+00   0.000000e+00
     1944000   1.943999e-05   1.494492e-01   4.607678e+00   5.825023e+00   1.335762e+05   1.708254e+04  -7.078231e+04  -2.572982e+11   2.344943e+12   7.958128e+10   1.521334e+05   4.594495e-22   0.000000e+00   0.000000e+00
     1952000   1.951999e-05   1.562011e-01   4.614991e+00   5.819429e+00   6.151442e+03   1.341648e+05  -7.149113e+04  -2.360673e+12   5.764974e+10  -9.571575e+10   1.521480e+05   4.606900e-22   0.000000e+00   0.000000e+00
     1960000   1.959999e-05   1.502816e-01   4.622610e+00   5.813323e+00  -1.265103e+05   2.326470e+04  -8.128589e+04  -3.621191e+11  -2.331891e+12  -1.045048e+11   1.521627e+05   4.603263e-22   0.000000e+00   0.000000e+00
     1968000   1.967999e-05   1.424082e-01   4.617711e+00   5.806652e+00  -3.420110e+04  -1.227718e+05  -8.315829e+04   2.253294e+12  -6.715468e+11   6.405358e+10   1.521773e+05   4.565070e-22   0.000000e+00   0.000000e+00
     1976000   1.975999e-05   1.466459e-01   4.609188e+00   5.800325e+00   1.224392e+05  -5.158422e+04  -7.422984e+04   9.723979e+11   2.133240e+12   1.207465e+11   1.521918e+05   4.548142e-22   0.000000e+00   0.000000e+00
     1984000   1.983999e-05   1.561197e-01   4.612140e+00   5.794648e+00   7.367156e+04   1.134180e+05  -6.982555e+04  -1.977436e+12   1.264563e+12  -3.310741e+10   1.522063e+05   4.548692e-22   0.000000e+00   0.000000e+00
     1992000   1.991999e-05   1.549546e-01   4.621887e+00   5.788790e+00  -9.650537e+04   8.813730e+04  -7.803654e+04  -1.521791e+12  -1.785033e+12  -1.348360e+11   1.522208e+05   4.557735e-22   0.000000e+00   0.000000e+00
     2000000   1.999999e-05   1.456055e-01   4.622041e+00   5.782208e+00  -9.474319e+04  -8.381488e+04  -8.470164e+04   1.553195e+12  -1.752252e+12  -4.069858e+09   1.522353e+05   4.527595e-22   0.000000e+00   0.000000e+00
     2008000   2.007999e-05   1.446043e-01   4.612755e+00   5.775599e+00   7.513590e+04  -1.064802e+05  -7.871790e+04   1.947575e+12   1.279484e+12   1.275272e+11   1.522496e+05   4.498359e-22   0.000000e+00   0.000000e+00
     2016000   2.015999e-05   1.541023e-01   4.610358e+00   5.769679e+00   1.218532e+05   5.808660e+04  -7.044171e+04  -9.834462e+11   2.115307e+12   4.231133e+10   1.522639e+05   4.496799e-22   0.000000e+00   0.000000e+00
     2024000   2.023999e-05   1.582959e-01   4.619356e+00   5.763982e+00  -3.430962e+04   1.284339e+05  -7.427135e+04  -2.235541e+12  -6.672530e+11  -1.218766e+11   1.522782e+05   4.509411e-22   0.000000e+00   0.000000e+00
     2032000   2.031999e-05   1.504545e-01   4.624759e+00   5.757631e+00  -1.261167e+05  -1.597842e+04  -8.385880e+04   3.420271e+11  -2.306112e+12  -7.562358e+10   1.522926e+05   4.496325e-22   0.000000e+00   0.000000e+00
     2040000   2.039999e-05   1.444433e-01   4.617739e+00   5.750867e+00   3.133853e+03  -1.277249e+05  -8.290882e+04   2.320675e+12  -4.211375e+09   9.355589e+10   1.523068e+05   4.458686e-22   0.000000e+00   0.000000e+00
     2048000   2.047999e-05   1.509510e-01   4.610684e+00   5.744609e+00   1.323838e+05  -1.700281e+04  -7.339692e+04   3.520653e+11   2.290186e+12   1.037419e+11   1.523209e+05   4.447408e-22   0.000000e+00   0.000000e+00
     2056000   2.055999e-05   1.593571e-01   4.615990e+00   5.738907e+00   4.235748e+04   1.276723e+05  -7.149539e+04  -2.213183e+12   6.974357e+11  -6.651497e+10   1.523351e+05   4.455969e-22   0.000000e+00   0.000000e+00
     2064000   2.063999e-05   1.558256e-01   4.625051e+00   5.732846e+00  -1.141080e+05   6.044311e+04  -8.084727e+04  -1.015800e+12  -2.084514e+12  -1.253910e+11   1.523492e+05   4.459904e-22   0.000000e+00   0.000000e+00
     2072000   2.071999e-05   1.468109e-01   4.622875e+00   5.726108e+00  -7.100260e+04  -1.042212e+05  -8.550528e+04   1.900750e+12  -1.317582e+12   2.699555e+10   1.523633e+05   4.425024e-22   0.000000e+00   0.000000e+00
     2080000   2.079999e-05   1.480498e-01   4.613574e+00   5.719511e+00   9.766907e+04  -8.715521e+04  -7.799724e+04   1.590041e+12   1.665748e+12   1.290556e+11   1.523773e+05   4.401015e-22   0.000000e+00   0.000000e+00
     2088000   2.087999e-05   1.578864e-01   4.613273e+00   5.713614e+00   1.070462e+05   8.197663e+04  -7.102149e+04  -1.396230e+12   1.835869e+12   1.385692e+10   1.523913e+05   4.402202e-22   0.000000e+00   0.000000e+00
     2096000   2.095999e-05   1.601738e-01   4.622887e+00   5.707786e+00  -5.861430e+04   1.179498e+05  -7.667842e+04  -2.030004e+12  -1.093388e+12  -1.308182e+11   1.524053e+05   4.414153e-22   0.000000e+00   0.000000e+00
     2104000   2.103999e-05   1.515005e-01   4.626598e+00   5.701254e+00  -1.196306e+05  -4.007070e+04  -8.552471e+04   7.650530e+11  -2.172811e+12  -5.274278e+10   1.524192e+05   4.394824e-22   0.000000e+00   0.000000e+00
     2112000   2.111999e-05   1.469500e-01   4.618563e+00   5.694432e+00   2.643403e+04  -1.252147e+05  -8.281525e+04   2.257034e+12   4.046383e+11   1.079888e+11   1.524331e+05   4.362838e-22   0.000000e+00   0.000000e+00
     2120000   2.119999e-05   1.546139e-01   4.612707e+00   5.688197e+00   1.335693e+05   4.827563e+03  -7.332129e+04  -3.340223e+10   2.291227e+12   8.929116e+10   1.524469e+05   4.354692e-22   0.000000e+00   0.000000e+00
     2128000   2.127999e-05   1.620938e-01   4.619253e+00   5.682440e+00   2.259464e+04   1.319222e+05  -7.300884e+04  -2.268201e+12   3.419763e+11  -8.475170e+10   1.524607e+05   4.363812e-22   0.000000e+00   0.000000e+00
     2136000   2.135999e-05   1.573068e-01   4.627642e+00   5.676225e+00  -1.205943e+05   4.297051e+04  -8.281935e+04  -6.977400e+11  -2.183284e+12  -1.174370e+11   1.524746e+05   4.363360e-22   0.000000e+00   0.000000e+00
     2144000   2.143999e-05   1.487382e-01   4.624227e+00   5.669372e+00  -5.596560e+04  -1.125985e+05  -8.626775e+04   2.032216e+12  -1.044068e+12   4.374834e+10   1.524883e+05   4.326478e-22   0.000000e+00   0.000000e+00
     2152000   2.151999e-05   1.511685e-01   4.615145e+00   5.662755e+00   1.074920e+05  -7.494615e+04  -7.800892e+04   1.364040e+12   1.821669e+12   1.287594e+11   1.525020e+05   4.305511e-22   0.000000e+00   0.000000e+00
     2160000   2.159999e-05   1.609961e-01   4.615937e+00   5.656835e+00   9.779578e+04   9.245790e+04  -7.175327e+04  -1.566132e+12   1.656625e+12  -6.269664e+08   1.525156e+05   4.307533e-22   0.000000e+00   0.000000e+00
     2168000   2.167999e-05   1.623329e-01   4.625700e+00   5.650907e+00  -6.889759e+04   1.112955e+05  -7.830463e+04  -1.893608e+12  -1.266830e+12  -1.351062e+11   1.525293e+05   4.317995e-22   0.000000e+00   0.000000e+00
     2176000   2.175999e-05   1.534148e-01   4.628604e+00   5.644250e+00  -1.150790e+05  -4.984043e+04  -8.684525e+04   9.313290e+11  -2.076427e+12  -4.304405e+10   1.525429e+05   4.295483e-22   0.000000e+00   0.000000e+00
     2184000   2.183999e-05   1.495314e-01   4.620249e+00   5.637354e+00   3.539308e+04  -1.227373e+05  -8.340463e+04   2.194845e+12   5.551661e+11   1.137985e+11   1.525564e+05   4.261188e-22   0.000000e+00   0.000000e+00
     2192000   2.191999e-05   1.575635e-01   4.614897e+00   5.631078e+00   1.329047e+05   1.239495e+04  -7.389364e+04  -1.632009e+11   2.257262e+12   8.440763e+10   1.525699e+05   4.254047e-22   0.000000e+00   0.000000e+00
     2200000   2.199999e-05   1.647061e-01   4.621800e+00   5.625255e+00   1.684685e+04   1.323175e+05  -7.409402e+04  -2.252762e+12   2.366002e+11  -9.038482e+10   1.525833e+05   4.263168e-22   0.000000e+00   0.000000e+00
     2208000   2.207999e-05   1.596284e-01   4.629981e+00   5.618943e+00  -1.212497e+05   3.892683e+04  -8.407732e+04  -6.187864e+11  -2.177120e+12  -1.162272e+11   1.525968e+05   4.261579e-22   0.000000e+00   0.000000e+00
     2216000   2.215999e-05   1.511855e-01   4.626355e+00   5.611997e+00  -5.336511e+04  -1.132147e+05  -8.731821e+04   2.026262e+12  -9.915016e+11   4.661048e+10   1.526102e+05   4.224764e-22   0.000000e+00   0.000000e+00
     2224000   2.223999e-05   1.537435e-01   4.617329e+00   5.605302e+00   1.077645e+05  -7.386084e+04  -7.890066e+04   1.334515e+12   1.807671e+12   1.298668e+11   1.526235e+05   4.204318e-22   0.000000e+00   0.000000e+00
     2232000   2.231999e-05   1.635609e-01   4.618132e+00   5.599314e+00   9.811329e+04   9.167269e+04  -7.258020e+04  -1.536063e+12   1.644727e+12   2.434679e+08   1.526368e+05   4.204337e-22   0.000000e+00   0.000000e+00
     2240000   2.239999e-05   1.650247e-01   4.627872e+00   5.593325e+00  -6.645130e+04   1.124382e+05  -7.901845e+04  -1.893635e+12  -1.213014e+12  -1.342144e+11   1.526501e+05   4.213917e-22   0.000000e+00   0.000000e+00
     2248000   2.247999e-05   1.561994e-01   4.631022e+00   5.586608e+00  -1.163498e+05  -4.560201e+04  -8.768848e+04   8.502115e+11  -2.079518e+12  -4.723829e+10   1.526633e+05   4.193243e-22   0.000000e+00   0.000000e+00
     2256000   2.255999e-05   1.519850e-01   4.622861e+00   5.579630e+00   2.943833e+04  -1.236381e+05  -8.459982e+04   2.190723e+12   4.452023e+11   1.110780e+11   1.526765e+05   4.161013e-22   0.000000e+00   0.000000e+00
     2264000   2.263999e-05   1.597017e-01   4.617113e+00   5.573259e+00   1.329523e+05   4.583854e+03  -7.494533e+04  -2.534329e+10   2.233982e+12   9.101036e+10   1.526896e+05   4.153240e-22   0.000000e+00   0.000000e+00
     2272000   2.271999e-05   1.672777e-01   4.623534e+00   5.567379e+00   2.647633e+04   1.306655e+05  -7.445567e+04  -2.200372e+12   3.991368e+11  -8.265890e+10   1.527027e+05   4.160748e-22   0.000000e+00   0.000000e+00
     2280000   2.279999e-05   1.628771e-01   4.632123e+00   5.561049e+00  -1.171670e+05   4.978919e+04  -8.435078e+04  -7.986143e+11  -2.086669e+12  -1.229669e+11   1.527158e+05   4.160896e-22   0.000000e+00   0.000000e+00
     2288000   2.287999e-05   1.541231e-01   4.629358e+00   5.554048e+00  -6.462833e+04  -1.063766e+05  -8.850603e+04   1.891308e+12  -1.177995e+12   3.422760e+10   1.527289e+05   4.127366e-22   0.000000e+00   0.000000e+00
     2296000   2.295999e-05   1.556685e-01   4.620161e+00   5.547231e+00   9.806263e+04  -8.500443e+04  -8.054843e+04   1.514942e+12   1.620800e+12   1.332698e+11   1.527419e+05   4.106376e-22   0.000000e+00   0.000000e+00
     2304000   2.303999e-05   1.654818e-01   4.619803e+00   5.541143e+00   1.085776e+05   7.861667e+04  -7.324178e+04  -1.294902e+12   1.805958e+12   1.818277e+10   1.527548e+05   4.106059e-22   0.000000e+00   0.000000e+00
     2312000   2.311999e-05   1.682286e-01   4.629291e+00   5.535148e+00  -4.991862e+04   1.210353e+05  -7.871836e+04  -2.021378e+12  -9.197352e+11  -1.329487e+11   1.527678e+05   4.115878e-22   0.000000e+00   0.000000e+00
     2320000   2.319999e-05   1.599593e-01   4.633767e+00   5.528431e+00  -1.218915e+05  -2.621326e+04  -8.830215e+04   5.130436e+11  -2.158990e+12  -6.784397e+10   1.527807e+05   4.099529e-22   0.000000e+00   0.000000e+00
     2328000   2.327999e-05   1.544757e-01   4.626466e+00   5.521339e+00   8.116391e+03  -1.255652e+05  -8.667965e+04   2.207331e+12   7.274337e+10   1.007462e+11   1.527935e+05   4.065857e-22   0.000000e+00   0.000000e+00
     2336000   2.335999e-05   1.610475e-01   4.619550e+00   5.514799e+00   1.308834e+05  -1.840464e+04  -7.668488e+04   3.702940e+11   2.173802e+12   1.096507e+11   1.528063e+05   4.055558e-22   0.000000e+00   0.000000e+00
     2344000   2.343999e-05   1.696413e-01   4.624513e+00   5.508855e+00   5.054647e+04   1.236217e+05  -7.427256e+04  -2.056543e+12   8.045325e+11  -6.115531e+10   1.528191e+05   4.061081e-22   0.000000e+00   0.000000e+00
     2352000   2.351999e-05   1.670047e-01   4.633863e+00   5.502575e+00  -1.045867e+05   7.350582e+04  -8.376219e+04  -1.194348e+12  -1.854543e+12  -1.367639e+11   1.528319e+05   4.065193e-22   0.000000e+00   0.000000e+00
     2360000   2.359999e-05   1.578443e-01   4.633094e+00   5.495548e+00  -8.634100e+04  -8.838796e+04  -8.996817e+04   1.571007e+12  -1.541161e+12   5.883290e+09   1.528446e+05   4.031554e-22   0.000000e+00   0.000000e+00
     2368000   2.367999e-05   1.572612e-01   4.623890e+00   5.488548e+00   7.521874e+04  -1.038291e+05  -8.322857e+04   1.823489e+12   1.211526e+12   1.360202e+11   1.528572e+05   4.005689e-22   0.000000e+00   0.000000e+00
     2376000   2.375999e-05   1.666620e-01   4.621311e+00   5.482296e+00   1.236408e+05   5.072955e+04  -7.422019e+04  -8.044660e+11   2.038690e+12   5.266631e+10   1.528698e+05   4.002005e-22   0.000000e+00   0.000000e+00
     2384000   2.383999e-05   1.716563e-01   4.629887e+00   5.476326e+00  -1.746329e+04   1.306650e+05  -7.742548e+04  -2.161231e+12  -3.601447e+11  -1.209456e+11   1.528824e+05   4.010204e-22   0.000000e+00   0.000000e+00
     2392000   2.391999e-05   1.648315e-01   4.636492e+00   5.469697e+00  -1.246658e+05   9.305763e+03  -8.802681e+04  -9.215607e+10  -2.187449e+12  -1.012783e+11   1.528950e+05   4.001234e-22   0.000000e+00   0.000000e+00
     2400000   2.399999e-05   1.574919e-01   4.631130e+00   5.462509e+00  -2.853777e+04  -1.208238e+05  -8.926309e+04   2.109295e+12  -5.527043e+11   7.324075e+10   1.529075e+05   3.965473e-22   0.000000e+00   0.000000e+00
     2408000   2.407999e-05   1.617045e-01   4.622728e+00   5.455723e+00   1.184106e+05  -5.500242e+04  -7.961262e+04   9.877612e+11   1.935876e+12   1.310857e+11   1.529199e+05   3.949869e-22   0.000000e+00   0.000000e+00
     2416000   2.415999e-05   1.713343e-01   4.624939e+00   5.449654e+00   8.565440e+04   1.027214e+05  -7.416150e+04  -1.678470e+12   1.386914e+12  -1.820294e+10   1.529323e+05   3.951049e-22   0.000000e+00   0.000000e+00
     2424000   2.423999e-05   1.717629e-01   4.634746e+00   5.443481e+00  -7.538937e+04   1.048921e+05  -8.189125e+04  -1.711167e+12  -1.341794e+12  -1.439383e+11   1.529447e+05   3.958443e-22   0.000000e+00   0.000000e+00
     2432000   2.431999e-05   1.628172e-01   4.637205e+00   5.436522e+00  -1.117313e+05  -5.186886e+04  -9.067319e+04   9.423118e+11  -1.957337e+12  -4.199772e+10   1.529571e+05   3.935464e-22   0.000000e+00   0.000000e+00
     2440000   2.439999e-05   1.590254e-01   4.628928e+00   5.429327e+00   3.291273e+04  -1.214375e+05  -8.700190e+04   2.105370e+12   4.852503e+11   1.186075e+11   1.529694e+05   3.903773e-22   0.000000e+00   0.000000e+00
     2448000   2.447999e-05   1.667931e-01   4.623306e+00   5.422785e+00   1.322278e+05   3.880060e+03  -7.683835e+04  -7.042963e+09   2.159258e+12   9.630684e+10   1.529816e+05   3.895726e-22   0.000000e+00   0.000000e+00
     2456000   2.455999e-05   1.745201e-01   4.629540e+00   5.416768e+00   3.204896e+04   1.288342e+05  -7.603766e+04  -2.107937e+12   4.767835e+11  -8.124830e+10   1.529938e+05   3.901018e-22   0.000000e+00   0.000000e+00
     2464000   2.463999e-05   1.706795e-01   4.638386e+00   5.410305e+00  -1.117940e+05   5.892858e+04  -8.625772e+04  -9.255751e+11  -1.950125e+12  -1.332187e+11   1.530061e+05   3.901729e-22   0.000000e+00   0.000000e+00
     2472000   2.471999e-05   1.617538e-01   4.636535e+00   5.403110e+00  -7.538633e+04  -9.673394e+04  -9.150976e+04   1.688967e+12  -1.335932e+12   2.030957e+10   1.530183e+05   3.869242e-22   0.000000e+00   0.000000e+00
     2480000   2.479999e-05   1.620985e-01   4.627333e+00   5.396023e+00   8.381832e+04  -9.659046e+04  -8.404201e+04   1.676695e+12   1.334409e+12   1.380319e+11   1.530303e+05   3.847546e-22   0.000000e+00   0.000000e+00
     2488000   2.487999e-05   1.716676e-01   4.625466e+00   5.389697e+00   1.197722e+05   5.824590e+04  -7.539238e+04  -9.157188e+11   1.940763e+12   4.400663e+10   1.530424e+05   3.844838e-22   0.000000e+00   0.000000e+00
     2496000   2.495999e-05   1.761975e-01   4.634269e+00   5.383607e+00  -2.278458e+04   1.289880e+05  -7.917456e+04  -2.097811e+12  -4.467216e+11  -1.246631e+11   1.530544e+05   3.852852e-22   0.000000e+00   0.000000e+00
     2504000   2.503999e-05   1.692003e-01   4.640615e+00   5.376835e+00  -1.238177e+05   6.349516e+03  -8.976761e+04  -3.864350e+10  -2.142850e+12  -9.878108e+10   1.530665e+05   3.842729e-22   0.000000e+00   0.000000e+00
     2512000   2.511999e-05   1.619798e-01   4.635183e+00   5.369515e+00  -2.776682e+04  -1.200259e+05  -9.086141e+04   2.066133e+12  -5.340213e+11   7.352836e+10   1.530785e+05   3.806955e-22   0.000000e+00   0.000000e+00
     2520000   2.519999e-05   1.661294e-01   4.626798e+00   5.362599e+00   1.168278e+05  -5.646005e+04  -8.124148e+04   9.990600e+11   1.877525e+12   1.313051e+11   1.530904e+05   3.791655e-22   0.000000e+00   0.000000e+00
     2528000   2.527999e-05   1.757843e-01   4.628755e+00   5.356406e+00   8.895943e+04   9.908109e+04  -7.556087e+04  -1.590170e+12   1.418440e+12  -1.277713e+10   1.531022e+05   3.792503e-22   0.000000e+00   0.000000e+00
     2536000   2.535999e-05   1.766801e-01   4.638518e+00   5.350139e+00  -6.874484e+04   1.088263e+05  -8.291505e+04  -1.748668e+12  -1.212743e+12  -1.424586e+11   1.531141e+05   3.799859e-22   0.000000e+00   0.000000e+00
     2544000   2.543999e-05   1.679507e-01   4.641609e+00   5.343090e+00  -1.148787e+05  -4.212646e+04  -9.206405e+04   7.683125e+11  -1.982347e+12  -5.212382e+10   1.531259e+05   3.778599e-22   0.000000e+00   0.000000e+00
     2552000   2.551999e-05   1.634410e-01   4.633777e+00   5.335747e+00   2.038190e+04  -1.227452e+05  -8.927125e+04   2.097371e+12   2.677852e+11   1.101613e+11   1.531377e+05   3.745826e-22   0.000000e+00   0.000000e+00
     2560000   2.559999e-05   1.705002e-01   4.627411e+00   5.329015e+00   1.306563e+05  -1.127846e+04  -7.909788e+04   2.458612e+11   2.097476e+12   1.064793e+11   1.531494e+05   3.736686e-22   0.000000e+00   0.000000e+00
     2568000   2.567999e-05   1.789148e-01   4.632617e+00   5.322866e+00   4.917030e+04   1.229584e+05  -7.695344e+04  -1.976511e+12   7.513959e+11  -6.289486e+10   1.531611e+05   3.740562e-22   0.000000e+00   0.000000e+00
     2576000   2.575999e-05   1.764297e-01   4.641963e+00   5.316369e+00  -1.006360e+05   7.648022e+04  -8.651625e+04  -1.200987e+12  -1.736846e+12  -1.388935e+11   1.531728e+05   3.743769e-22   0.000000e+00   0.000000e+00
     2584000   2.583999e-05   1.673191e-01   4.641737e+00   5.309106e+00  -9.152670e+04  -8.001982e+04  -9.319420e+04   1.389661e+12  -1.584607e+12  -4.673850e+09   1.531844e+05   3.714125e-22   0.000000e+00   0.000000e+00
     2592000   2.591999e-05   1.658672e-01   4.632757e+00   5.301813e+00   6.178995e+04  -1.096775e+05  -8.730328e+04   1.868643e+12   9.490205e+11   1.298133e+11   1.531960e+05   3.687221e-22   0.000000e+00   0.000000e+00
     2600000   2.599999e-05   1.747416e-01   4.629015e+00   5.295235e+00   1.281429e+05   3.121306e+04  -7.795947e+04  -4.557510e+11   2.047221e+12   6.996928e+10   1.532075e+05   3.683091e-22   0.000000e+00   0.000000e+00
     2608000   2.607999e-05   1.810945e-01   4.636585e+00   5.289039e+00   8.133375e+03   1.308742e+05  -7.925806e+04  -2.096769e+12   7.075309e+10  -9.889419e+10   1.532190e+05   3.689920e-22   0.000000e+00   0.000000e+00
     2616000   2.615999e-05   1.758698e-01   4.644541e+00   5.282299e+00  -1.179481e+05   3.941122e+04  -8.952424e+04  -5.831670e+11  -2.013210e+12  -1.184452e+11   1.532305e+05   3.687053e-22   0.000000e+00   0.000000e+00
     2624000   2.623999e-05   1.674169e-01   4.641383e+00   5.274902e+00  -6.069765e+04  -1.053588e+05  -9.326528e+04   1.796114e+12  -1.067837e+12   3.691056e+10   1.532420e+05   3.654583e-22   0.000000e+00   0.000000e+00
     2632000   2.631999e-05   1.688880e-01   4.632309e+00   5.267706e+00   9.314988e+04  -8.679920e+04  -8.529700e+04   1.482192e+12   1.458885e+12   1.335625e+11   1.532533e+05   3.634547e-22   0.000000e+00   0.000000e+00
     2640000   2.639999e-05   1.785660e-01   4.631306e+00   5.261252e+00   1.142901e+05   6.654264e+04  -7.745898e+04  -1.031387e+12   1.809732e+12   3.232063e+10   1.532646e+05   3.632451e-22   0.000000e+00   0.000000e+00
     2648000   2.647999e-05   1.825330e-01   4.640315e+00   5.254970e+00  -2.858764e+04   1.264823e+05  -8.172209e+04  -2.011981e+12  -5.342759e+11  -1.236158e+11   1.532760e+05   3.640411e-22   0.000000e+00   0.000000e+00
     2656000   2.655999e-05   1.753746e-01   4.646368e+00   5.248008e+00  -1.226163e+05   3.616754e+03  -9.191933e+04   8.195823e+09  -2.080178e+12  -9.325343e+10   1.532873e+05   3.630157e-22   0.000000e+00   0.000000e+00
     2664000   2.663999e-05   1.682511e-01   4.640914e+00   5.240525e+00  -2.809872e+04  -1.186634e+05  -9.289736e+04   2.002438e+12  -5.298303e+11   7.064311e+10   1.532986e+05   3.596831e-22   0.000000e+00   0.000000e+00
     2672000   2.671999e-05   1.722166e-01   4.632513e+00   5.233433e+00   1.138817e+05  -5.955409e+04  -8.359510e+04   1.030290e+12   1.788535e+12   1.288816e+11   1.533098e+05   3.581856e-22   0.000000e+00   0.000000e+00
     2680000   2.679999e-05   1.818957e-01   4.634025e+00   5.227056e+00   9.396815e+04   9.297915e+04  -7.766704e+04  -1.455974e+12   1.468569e+12  -4.013044e+09   1.533209e+05   3.582045e-22   0.000000e+00   0.000000e+00
     2688000   2.687999e-05   1.835034e-01   4.643672e+00   5.220652e+00  -5.843898e+04   1.139987e+05  -8.426099e+04  -1.795573e+12  -1.020939e+12  -1.364465e+11   1.533321e+05   3.589645e-22   0.000000e+00   0.000000e+00
     2696000   2.695999e-05   1.751665e-01   4.647665e+00   5.213494e+00  -1.182194e+05  -2.757406e+04  -9.369099e+04   5.173338e+11  -1.998036e+12  -6.518816e+10   1.533432e+05   3.572589e-22   0.000000e+00   0.000000e+00
     2704000   2.703999e-05   1.696850e-01   4.640583e+00   5.205970e+00   2.244796e+03  -1.225217e+05  -9.220050e+04   2.053042e+12  -3.479520e+10   9.576493e+10   1.533543e+05   3.540701e-22   0.000000e+00   0.000000e+00
     2712000   2.711999e-05   1.755961e-01   4.633296e+00   5.198979e+00   1.253291e+05  -3.222522e+04  -8.231083e+04   5.809158e+11   1.964122e+12   1.150434e+11   1.533653e+05   3.527050e-22   0.000000e+00   0.000000e+00
     2720000   2.719999e-05   1.847374e-01   4.636914e+00   5.192630e+00   7.142429e+04   1.107515e+05  -7.846627e+04  -1.735067e+12   1.094826e+12  -3.459259e+10   1.533763e+05   3.529084e-22   0.000000e+00   0.000000e+00
     2728000   2.727999e-05   1.842461e-01   4.646604e+00   5.186086e+00  -8.072240e+04   9.758653e+04  -8.653566e+04  -1.517526e+12  -1.376580e+12  -1.372786e+11   1.533873e+05   3.534959e-22   0.000000e+00   0.000000e+00
     2736000   2.735999e-05   1.753332e-01   4.648660e+00   5.178783e+00  -1.086995e+05  -5.242678e+04  -9.469358e+04   9.157125e+11  -1.830477e+12  -3.815877e+10   1.533982e+05   3.513610e-22   0.000000e+00   0.000000e+00
     2744000   2.743999e-05   1.714941e-01   4.640545e+00   5.171262e+00   2.759554e+04  -1.201718e+05  -9.127749e+04   2.000972e+12   3.750178e+11   1.107584e+11   1.534091e+05   3.485732e-22   0.000000e+00   0.000000e+00
     2752000   2.751999e-05   1.787821e-01   4.634506e+00   5.164360e+00   1.297811e+05  -8.185527e+03  -8.140979e+04   1.914826e+11   2.024694e+12   1.011692e+11   1.534199e+05   3.477408e-22   0.000000e+00   0.000000e+00
     2760000   2.759999e-05   1.871339e-01   4.639728e+00   5.158017e+00   5.040906e+04   1.212417e+05  -7.937482e+04  -1.893584e+12   7.488386e+11  -5.927330e+10   1.534308e+05   3.480958e-22   0.000000e+00   0.000000e+00
     2768000   2.767999e-05   1.849590e-01   4.649108e+00   5.151343e+00  -9.577014e+04   8.084061e+04  -8.852794e+04  -1.237115e+12  -1.613926e+12  -1.359300e+11   1.534416e+05   3.484600e-22   0.000000e+00   0.000000e+00
     2776000   2.775999e-05   1.759059e-01   4.649523e+00   5.143914e+00  -9.703673e+04  -7.073555e+04  -9.554051e+04   1.205913e+12  -1.633705e+12  -1.567980e+10   1.534524e+05   3.459734e-22   0.000000e+00   0.000000e+00
     2784000   2.783999e-05   1.735504e-01   4.640842e+00   5.136393e+00   4.760721e+04  -1.143616e+05  -9.058638e+04   1.896831e+12   6.927283e+11   1.218769e+11   1.534631e+05   3.434396e-22   0.000000e+00   0.000000e+00
     2792000   2.791999e-05   1.817615e-01   4.636012e+00   5.129554e+00   1.299104e+05   1.172936e+04  -8.086957e+04  -1.275682e+11   2.015074e+12   8.683424e+10   1.534737e+05   3.427856e-22   0.000000e+00   0.000000e+00
     2800000   2.799999e-05   1.892598e-01   4.642406e+00   5.123194e+00   3.228628e+04   1.266963e+05  -8.039336e+04  -1.969358e+12   4.526047e+11  -7.812574e+10   1.534844e+05   3.432517e-22   0.000000e+00   0.000000e+00
     2808000   2.807999e-05   1.857950e-01   4.651315e+00   5.116399e+00  -1.054002e+05   6.567009e+04  -9.021621e+04  -9.850465e+11  -1.761410e+12  -1.317806e+11   1.534950e+05   3.433771e-22   0.000000e+00   0.000000e+00
     2816000   2.815999e-05   1.768425e-01   4.650424e+00   5.108870e+00  -8.563087e+04  -8.357299e+04  -9.616080e+04   1.405165e+12  -1.443239e+12   2.597148e+09   1.535057e+05   3.406698e-22   0.000000e+00   0.000000e+00
     2824000   2.823999e-05   1.757102e-01   4.641482e+00   5.101352e+00   6.241047e+04  -1.075180e+05  -9.006686e+04   1.777552e+12   9.236700e+11   1.286429e+11   1.535162e+05   3.383629e-22   0.000000e+00   0.000000e+00
     2832000   2.831999e-05   1.845011e-01   4.637681e+00   5.094562e+00   1.280169e+05   2.680497e+04  -8.039652e+04  -3.638489e+11   1.969351e+12   7.673723e+10   1.535267e+05   3.373348e-22   0.000000e+00   0.000000e+00
     2840000   2.839999e-05   1.912595e-01   4.644867e+00   5.088195e+00   1.864934e+04   1.290035e+05  -8.114151e+04  -1.989782e+12   2.286761e+11  -9.425861e+10   1.535371e+05   3.376990e-22   0.000000e+00   0.000000e+00
     2848000   2.847999e-05   1.869224e-01   4.653327e+00   5.081302e+00  -1.106259e+05   5.414132e+04  -9.169245e+04  -7.904128e+11  -1.837423e+12  -1.317512e+11   1.535476e+05   3.375627e-22   0.000000e+00   0.000000e+00
     2856000   2.855999e-05   1.781715e-01   4.651543e+00   5.073673e+00  -7.645679e+04  -9.124500e+04  -9.699888e+04   1.521278e+12  -1.291965e+12   1.580937e+10   1.535580e+05   3.347082e-22   0.000000e+00   0.000000e+00
     2864000   2.863999e-05   1.779048e-01   4.642537e+00   5.066129e+00   7.188563e+04  -1.016133e+05  -8.994691e+04   1.675463e+12   1.064024e+12   1.365603e+11   1.535684e+05   3.325902e-22   0.000000e+00   0.000000e+00
     2872000   2.871999e-05   1.870046e-01   4.639471e+00   5.059351e+00   1.255730e+05   3.668314e+04  -8.044985e+04  -5.166804e+11   1.918303e+12   6.772852e+10   1.535787e+05   3.320851e-22   0.000000e+00   0.000000e+00
     2880000   2.879999e-05   1.932145e-01   4.647126e+00   5.052946e+00   9.552783e+03   1.294995e+05  -8.202562e+04  -1.984545e+12   8.145654e+10  -1.030032e+11   1.535890e+05   3.324850e-22   0.000000e+00   0.000000e+00
     2888000   2.887999e-05   1.883412e-01   4.655232e+00   5.045966e+00  -1.132420e+05   4.641358e+04  -9.281574e+04  -6.614454e+11  -1.870241e+12  -1.286494e+11   1.535993e+05   3.322105e-22   0.000000e+00   0.000000e+00
     2896000   2.895999e-05   1.797667e-01   4.652896e+00   5.038266e+00  -7.039241e+04  -9.548687e+04  -9.758613e+04   1.580898e+12  -1.190380e+12   2.401282e+10   1.536095e+05   3.293087e-22   0.000000e+00   0.000000e+00
     2904000   2.903999e-05   1.800243e-01   4.643894e+00   5.030698e+00   7.714466e+04  -9.766061e+04  -9.005617e+04   1.604876e+12   1.139080e+12   1.390848e+11   1.536197e+05   3.273047e-22   0.000000e+00   0.000000e+00
     2912000   2.911999e-05   1.892683e-01   4.641262e+00   5.023910e+00   1.238122e+05   4.198949e+04  -8.068171e+04  -5.957153e+11   1.878164e+12   6.280800e+10   1.536298e+05   3.268306e-22   0.000000e+00   0.000000e+00
     2920000   2.919999e-05   1.951754e-01   4.649142e+00   5.017468e+00   5.039142e+03   1.293826e+05  -8.270422e+04  -1.969522e+12   8.174253e+09  -1.076850e+11   1.536399e+05   3.272402e-22   0.000000e+00   0.000000e+00
     2928000   2.927999e-05   1.900661e-01   4.657065e+00   5.010425e+00  -1.140047e+05   4.291491e+04  -9.364600e+04  -6.005777e+11  -1.873252e+12  -1.277212e+11   1.536501e+05   3.268965e-22   0.000000e+00   0.000000e+00
     2936000   2.935999e-05   1.815900e-01   4.654511e+00   5.002665e+00  -6.784397e+04  -9.675927e+04  -9.821547e+04   1.593345e+12  -1.145234e+12   2.723281e+10   1.536601e+05   3.239925e-22   0.000000e+00   0.000000e+00
     2944000   2.943999e-05   1.820323e-01   4.645534e+00   4.995057e+00   7.864902e+04  -9.619811e+04  -9.041442e+04   1.575318e+12   1.154021e+12   1.420604e+11   1.536701e+05   3.225638e-22   0.000000e+00   0.000000e+00
     2952000   2.951999e-05   1.913082e-01   4.643020e+00   4.988247e+00   1.233733e+05   4.300493e+04  -8.091461e+04  -6.063912e+11   1.858795e+12   6.286366e+10   1.536801e+05   3.220341e-22   0.000000e+00   0.000000e+00
     2960000   2.959999e-05   1.971827e-01   4.650925e+00   4.981784e+00   5.028195e+03   1.292294e+05  -8.303688e+04  -1.954011e+12   5.646793e+09  -1.099959e+11   1.536901e+05   3.223710e-22   0.000000e+00   0.000000e+00
     2968000   2.967999e-05   1.921115e-01   4.658859e+00   4.974706e+00  -1.133368e+05   4.364434e+04  -9.419999e+04  -6.060726e+11  -1.854837e+12  -1.305845e+11   1.537000e+05   3.219509e-22   0.000000e+00   0.000000e+00
     2976000   2.975999e-05   1.836371e-01   4.656404e+00   4.966894e+00  -6.878375e+04  -9.542315e+04  -9.894425e+04   1.565686e+12  -1.156049e+12   2.609777e+10   1.537099e+05   3.189369e-22   0.000000e+00   0.000000e+00
     2984000   2.983999e-05   1.839372e-01   4.647455e+00   4.959226e+00   7.651615e+04  -9.727875e+04  -9.116957e+04   1.583661e+12   1.111338e+12   1.429035e+11   1.537198e+05   3.168702e-22   0.000000e+00   0.000000e+00
     2992000   2.991999e-05   1.931335e-01   4.644740e+00   4.952362e+00   1.242087e+05   3.962414e+04  -8.145497e+04  -5.482967e+11   1.857779e+12   6.717974e+10   1.537295e+05   3.163218e-22   0.000000e+00   0.000000e+00
     3000000   2.999999e-05   1.992488e-01   4.652456e+00   4.945870e+00   9.691781e+03   1.288955e+05  -8.323341e+04  -1.934491e+12   7.663971e+10  -1.070213e+11   1.537393e+05   3.166229e-22   0.000000e+00   0.000000e+00
     3008000   3.007999e-05   1.945087e-01   4.660600e+00   4.938778e+00  -1.110381e+05   4.889241e+04  -9.443970e+04  -6.820001e+11  -1.808791e+12  -1.349610e+11   1.537491e+05   3.162828e-22   0.000000e+00   0.000000e+00
     3016000   3.015999e-05   1.859338e-01   4.658596e+00   4.930928e+00  -7.361232e+04  -9.099145e+04  -9.971741e+04   1.489046e+12  -1.225600e+12   1.875110e+10   1.537588e+05   3.133443e-22   0.000000e+00   0.000000e+00
     3024000   3.023999e-05   1.857171e-01   4.649696e+00   4.923179e+00   7.015021e+04  -1.010104e+05  -9.230704e+04   1.632980e+12   1.003447e+12   1.425503e+11   1.537685e+05   3.112052e-22   0.000000e+00   0.000000e+00
     3032000   3.031999e-05   1.946893e-01   4.646434e+00   4.916235e+00   1.261278e+05   3.135074e+04  -8.219863e+04  -4.152629e+11   1.872972e+12   7.671666e+10   1.537781e+05   3.106122e-22   0.000000e+00   0.000000e+00
     3040000   3.039999e-05   2.013240e-01   4.653707e+00   4.909717e+00   1.936089e+04   1.279077e+05  -8.315904e+04  -1.904166e+12   2.242441e+11  -9.885470e+10   1.537877e+05   3.106131e-22   0.000000e+00   0.000000e+00
     3048000   3.047999e-05   1.972522e-01   4.662239e+00   4.902643e+00  -1.064130e+05   5.867592e+04  -9.427085e+04  -8.271165e+11  -1.727017e+12  -1.416687e+11   1.537972e+05   3.107260e-22   0.000000e+00   0.000000e+00
     3056000   3.055999e-05   1.885179e-01   4.661072e+00   4.894777e+00  -8.220924e+04  -8.260510e+04  -1.003721e+05   1.347573e+12  -1.347098e+12   4.562151e+09   1.538068e+05   3.060329e-22   0.000000e+00   0.000000e+00
     3064000   3.063999e-05   1.873627e-01   4.652310e+00   4.886930e+00   5.826974e+04  -1.068792e+05  -9.402603e+04   1.709891e+12   8.142580e+11   1.337040e+11   1.538162e+05   3.038761e-22   0.000000e+00   0.000000e+00
     3072000   3.071999e-05   1.958478e-01   4.648130e+00   4.879840e+00   1.278242e+05   1.702510e+04  -8.386550e+04  -1.933047e+11   1.884647e+12   8.753694e+10   1.538255e+05   3.032639e-22   0.000000e+00   0.000000e+00
     3080000   3.079999e-05   2.032439e-01   4.654572e+00   4.873238e+00   3.460556e+04   1.244630e+05  -8.352592e+04  -1.836842e+12   4.549791e+11  -8.348028e+10   1.538349e+05   3.025453e-22   0.000000e+00   0.000000e+00
     3088000   3.087999e-05   2.002925e-01   4.663576e+00   4.866164e+00  -9.744287e+04   7.281041e+04  -9.418899e+04  -1.036905e+12  -1.578153e+12  -1.476058e+11   1.538442e+05   3.025451e-22   0.000000e+00   0.000000e+00
     3096000   3.095999e-05   1.914820e-01   4.663704e+00   4.858273e+00  -9.316651e+04  -6.869188e+04  -1.013524e+05   1.128400e+12  -1.507811e+12  -1.568946e+10   1.538535e+05   2.991660e-22   0.000000e+00   0.000000e+00
     3104000   3.103999e-05   1.890248e-01   4.655322e+00   4.850289e+00   4.079475e+04  -1.128288e+05  -9.632841e+04   1.791854e+12   5.408172e+11   1.250235e+11   1.538626e+05   2.968254e-22   0.000000e+00   0.000000e+00
     3112000   3.111999e-05   1.966854e-01   4.649985e+00   4.843013e+00   1.276658e+05  -2.456559e+03  -8.585987e+04   1.059714e+11   1.867549e+12   1.037282e+11   1.538718e+05   2.960906e-22   0.000000e+00   0.000000e+00
     3120000   3.119999e-05   2.049468e-01   4.655192e+00   4.836320e+00   5.397827e+04   1.173071e+05  -8.369417e+04  -1.714753e+12   7.466496e+11  -5.982608e+10   1.538809e+05   2.954261e-22   0.000000e+00   0.000000e+00
     3128000   3.127999e-05   2.035301e-01   4.664611e+00   4.829287e+00  -8.348931e+04   8.941844e+04  -9.335954e+04  -1.283121e+12  -1.354387e+12  -1.501214e+11   1.538900e+05   2.956180e-22   0.000000e+00   0.000000e+00
     3136000   3.135999e-05   1.948671e-01   4.666394e+00   4.821412e+00  -1.042581e+05  -4.910510e+04  -1.019993e+05   8.255896e+11  -1.668344e+12  -4.102831e+10   1.538990e+05   2.925606e-22   0.000000e+00   0.000000e+00
     3144000   3.143999e-05   1.908574e-01   4.658748e+00   4.813298e+00   1.788102e+04  -1.166533e+05  -9.879246e+04   1.840766e+12   1.883688e+11   1.103989e+11   1.539080e+05   2.900148e-22   0.000000e+00   0.000000e+00
     3152000   3.151999e-05   1.972566e-01   4.652157e+00   4.805809e+00   1.233141e+05  -2.627034e+04  -8.828313e+04   4.668606e+11   1.786790e+12   1.200307e+11   1.539169e+05   2.891109e-22   0.000000e+00   0.000000e+00
     3160000   3.159999e-05   2.063003e-01   4.655672e+00   4.799000e+00   7.579221e+04   1.043726e+05  -8.399441e+04  -1.508035e+12   1.072013e+12  -2.908274e+10   1.539258e+05   2.890802e-22   0.000000e+00   0.000000e+00
     3168000   3.167999e-05   2.068172e-01   4.665242e+00   4.792025e+00  -6.314585e+04   1.060624e+05  -9.197422e+04  -1.528373e+12  -1.035222e+12  -1.448454e+11   1.539347e+05   2.894818e-22   0.000000e+00   0.000000e+00
     3176000   3.175999e-05   1.986946e-01   4.668963e+00   4.784233e+00  -1.130762e+05  -2.337376e+04  -1.018139e+05   4.341865e+11  -1.791389e+12  -7.129398e+10   1.539436e+05   2.873275e-22   0.000000e+00   0.000000e+00
     3184000   3.183999e-05   1.930133e-01   4.662544e+00   4.776036e+00  -1.004825e+04  -1.158285e+05  -1.009165e+05   1.818463e+12  -2.361670e+11   8.966619e+10   1.539524e+05   2.846534e-22   0.000000e+00   0.000000e+00
     3192000   3.191999e-05   1.976307e-01   4.654778e+00   4.768347e+00   1.125029e+05  -5.315604e+04  -9.067288e+04   8.690917e+11   1.607365e+12   1.356591e+11   1.539611e+05   2.835640e-22   0.000000e+00   0.000000e+00
     3200000   3.199999e-05   2.071728e-01   4.656124e+00   4.761425e+00   9.790941e+04   8.391888e+04  -8.413139e+04  -1.189836e+12   1.395474e+12   6.856687e+09   1.539699e+05   2.840825e-22   0.000000e+00   0.000000e+00
     3208000   3.207999e-05   2.099731e-01   4.665371e+00   4.754538e+00  -3.523324e+04   1.198784e+05  -8.998449e+04  -1.726101e+12  -6.084503e+11  -1.351077e+11   1.539786e+05   2.845191e-22   0.000000e+00   0.000000e+00
     3216000   3.215999e-05   2.030010e-01   4.671175e+00   4.746889e+00  -1.161085e+05   8.531521e+03  -1.007876e+05  -4.669500e+10  -1.828389e+12  -1.013102e+11   1.539874e+05   2.835008e-22   0.000000e+00   0.000000e+00
     3224000   3.223999e-05   1.957537e-01   4.666624e+00   4.738661e+00  -4.152760e+04  -1.069469e+05  -1.027258e+05   1.677403e+12  -7.068593e+11   5.748058e+10   1.539960e+05   2.802528e-22   0.000000e+00   0.000000e+00
     3232000   3.231999e-05   1.980162e-01   4.658053e+00   4.730759e+00   9.244506e+04  -7.996534e+04  -9.368498e+04   1.264903e+12   1.295863e+12   1.417192e+11   1.540046e+05   2.788210e-22   0.000000e+00   0.000000e+00
     3240000   3.239999e-05   2.074610e-01   4.656839e+00   4.723661e+00   1.162500e+05   5.453711e+04  -8.503940e+04  -7.424650e+11   1.657241e+12   4.746706e+10   1.540132e+05   2.789051e-22   0.000000e+00   0.000000e+00
     3248000   3.247999e-05   2.126901e-01   4.665027e+00   4.716829e+00  -1.410327e+02   1.264255e+05  -8.797318e+04  -1.812299e+12  -8.012398e+10  -1.126156e+11   1.540218e+05   2.792383e-22   0.000000e+00   0.000000e+00
     3256000   3.255999e-05   2.076411e-01   4.672759e+00   4.709358e+00  -1.092791e+05   4.453682e+04  -9.899444e+04  -5.829386e+11  -1.715261e+12  -1.285149e+11   1.540303e+05   2.788406e-22   0.000000e+00   0.000000e+00
     3264000   3.263999e-05   1.992787e-01   4.670764e+00   4.701158e+00  -7.305034e+04  -8.697874e+04  -1.040496e+05   1.373391e+12  -1.172655e+12   1.573090e+10   1.540389e+05   2.757533e-22   0.000000e+00   0.000000e+00
     3272000   3.271999e-05   1.987170e-01   4.662093e+00   4.693050e+00   6.200390e+04  -1.023987e+05  -9.695669e+04   1.594157e+12   8.323080e+11   1.401052e+11   1.540473e+05   2.751180e-22   0.000000e+00   0.000000e+00
     3280000   3.279999e-05   2.072152e-01   4.658150e+00   4.685733e+00   1.262422e+05   1.689473e+04  -8.666403e+04  -1.784291e+11   1.790337e+12   8.872796e+10   1.540558e+05   2.744135e-22   0.000000e+00   0.000000e+00
     3288000   3.287999e-05   2.146980e-01   4.664386e+00   4.678917e+00   3.969610e+04   1.215208e+05  -8.598081e+04  -1.725815e+12   5.108506e+11  -7.515181e+10   1.540642e+05   2.744467e-22   0.000000e+00   0.000000e+00
     3296000   3.295999e-05   2.123738e-01   4.673522e+00   4.671673e+00  -8.943509e+04   8.065703e+04  -9.609464e+04  -1.113371e+12  -1.408680e+12  -1.465006e+11   1.540726e+05   2.745092e-22   0.000000e+00   0.000000e+00
     3304000   3.303999e-05   2.037200e-01   4.674657e+00   4.663597e+00  -9.959197e+04  -5.433313e+04  -1.042608e+05   8.865171e+11  -1.560134e+12  -3.409922e+10   1.540810e+05   2.724803e-22   0.000000e+00   0.000000e+00
     3312000   3.311999e-05   2.000983e-01   4.666915e+00   4.655324e+00   2.110934e+04  -1.148809e+05  -1.005003e+05   1.769786e+12   2.235448e+11   1.158808e+11   1.540893e+05   2.703480e-22   0.000000e+00   0.000000e+00
     3320000   3.319999e-05   2.065535e-01   4.660434e+00   4.647714e+00   1.224778e+05  -2.673853e+04  -8.961204e+04   4.665787e+11   1.718158e+12   1.246781e+11   1.540976e+05   2.695107e-22   0.000000e+00   0.000000e+00
     3328000   3.327999e-05   2.156669e-01   4.663739e+00   4.640813e+00   7.975936e+04   1.008477e+05  -8.495184e+04  -1.408560e+12   1.094467e+12  -2.358055e+10   1.541059e+05   2.692984e-22   0.000000e+00   0.000000e+00
     3336000   3.335999e-05   2.167599e-01   4.673272e+00   4.633774e+00  -5.429018e+04   1.104874e+05  -9.271616e+04  -1.544577e+12  -8.822258e+11  -1.472376e+11   1.541141e+05   2.696035e-22   0.000000e+00   0.000000e+00
     3344000   3.343999e-05   2.090623e-01   4.677786e+00   4.625899e+00  -1.139428e+05  -9.661615e+03  -1.033315e+05   2.280115e+11  -1.763649e+12  -8.682993e+10   1.541224e+05   2.683009e-22   0.000000e+00   0.000000e+00
     3352000   3.351999e-05   2.026534e-01   4.672257e+00   4.617526e+00  -2.611185e+04  -1.109311e+05  -1.037724e+05   1.706018e+12  -4.729263e+11   7.596966e+10   1.541306e+05   2.657850e-22   0.000000e+00   0.000000e+00
     3360000   3.359999e-05   2.059672e-01   4.664022e+00   4.609586e+00   1.005792e+05  -6.964003e+04  -9.377011e+04   1.092942e+12   1.381860e+12   1.457102e+11   1.541387e+05   2.645739e-22   0.000000e+00   0.000000e+00
     3368000   3.367999e-05   2.155186e-01   4.663668e+00   4.602478e+00   1.117529e+05   6.308380e+04  -8.539883e+04  -8.457263e+11   1.550241e+12   3.807430e+10   1.541468e+05   2.641493e-22   0.000000e+00   0.000000e+00
     3376000   3.375999e-05   2.202491e-01   4.672152e+00   4.595580e+00  -5.815429e+03   1.255396e+05  -8.927330e+04  -1.750126e+12  -1.696872e+11  -1.249624e+11   1.541549e+05   2.631103e-22   0.000000e+00   0.000000e+00
     3384000   3.383999e-05   2.150000e-01   4.679670e+00   4.587972e+00  -1.086252e+05   4.184704e+04  -1.010723e+05  -5.206708e+11  -1.676625e+12  -1.349016e+11   1.541629e+05   2.625465e-22   0.000000e+00   0.000000e+00
     3392000   3.391999e-05   2.067743e-01   4.677629e+00   4.579592e+00  -7.174149e+04  -8.551751e+04  -1.063419e+05   1.331679e+12  -1.138501e+12   1.687490e+10   1.541710e+05   2.599884e-22   0.000000e+00   0.000000e+00
     3400000   3.399999e-05   2.061436e-01   4.669080e+00   4.571306e+00   5.911807e+04  -1.022590e+05  -9.909226e+04   1.563042e+12   7.640941e+11   1.436848e+11   1.541789e+05   2.581302e-22   0.000000e+00   0.000000e+00
     3408000   3.407999e-05   2.144480e-01   4.664891e+00   4.563843e+00   1.260959e+05   1.081468e+04  -8.807059e+04  -7.880443e+10   1.738699e+12   1.003305e+11   1.541868e+05   2.574589e-22   0.000000e+00   0.000000e+00
     3416000   3.415999e-05   2.223018e-01   4.670639e+00   4.556949e+00   4.916874e+04   1.177409e+05  -8.657663e+04  -1.624076e+12   6.278539e+11  -6.884149e+10   1.541947e+05   2.572490e-22   0.000000e+00   0.000000e+00
     3424000   3.423999e-05   2.208772e-01   4.679972e+00   4.549661e+00  -7.921646e+04   9.013616e+04  -9.684342e+04  -1.216243e+12  -1.237918e+12  -1.576257e+11   1.542025e+05   2.572729e-22   0.000000e+00   0.000000e+00
     3432000   3.431999e-05   2.125023e-01   4.682238e+00   4.541474e+00  -1.047067e+05  -3.855323e+04  -1.064471e+05   6.489143e+11  -1.609294e+12  -5.573047e+10   1.542104e+05   2.553919e-22   0.000000e+00   0.000000e+00
     3440000   3.439999e-05   2.078269e-01   4.675301e+00   4.532963e+00   2.463892e+03  -1.137522e+05  -1.041038e+05   1.723320e+12  -6.057296e+10   1.066871e+11   1.542182e+05   2.529481e-22   0.000000e+00   0.000000e+00
     3448000   3.447999e-05   2.130134e-01   4.668007e+00   4.525064e+00   1.139295e+05  -4.670152e+04  -9.286908e+04   7.506465e+11   1.545627e+12   1.432974e+11   1.542259e+05   2.519636e-22   0.000000e+00   0.000000e+00
     3456000   3.455999e-05   2.225004e-01   4.669562e+00   4.517985e+00   9.794273e+04   8.252451e+04  -8.593560e+04  -1.105065e+12   1.321348e+12   9.086538e+09   1.542336e+05   2.515007e-22   0.000000e+00   0.000000e+00
     3464000   3.463999e-05   2.256602e-01   4.678680e+00   4.510954e+00  -2.640649e+04   1.210157e+05  -9.191445e+04  -1.652000e+12  -4.680460e+11  -1.419481e+11   1.542413e+05   2.516199e-22   0.000000e+00   0.000000e+00
     3472000   3.471999e-05   2.193670e-01   4.685120e+00   4.503112e+00  -1.116521e+05   2.321776e+04  -1.038629e+05  -2.394553e+11  -1.698680e+12  -1.225987e+11   1.542490e+05   2.507605e-22   0.000000e+00   0.000000e+00
     3480000   3.479999e-05   2.116961e-01   4.681837e+00   4.494566e+00  -5.714745e+04  -9.462879e+04  -1.075856e+05   1.445294e+12  -9.173861e+11   3.891705e+10   1.542566e+05   2.485897e-22   0.000000e+00   0.000000e+00
     3488000   3.487999e-05   2.123006e-01   4.673289e+00   4.486241e+00   7.194674e+04  -9.390647e+04  -9.900850e+04   1.423076e+12   9.296124e+11   1.521076e+11   1.542642e+05   2.469582e-22   0.000000e+00   0.000000e+00
     3496000   3.495999e-05   2.210704e-01   4.670067e+00   4.478790e+00   1.244219e+05   2.361262e+04  -8.809879e+04  -2.552605e+11   1.682660e+12   9.015986e+10   1.542717e+05   2.463183e-22   0.000000e+00   0.000000e+00
     3504000   3.503999e-05   2.283757e-01   4.676496e+00   4.471852e+00   3.941110e+04   1.206381e+05  -8.772289e+04  -1.634158e+12   4.734830e+11  -8.336373e+10   1.542793e+05   2.460858e-22   0.000000e+00   0.000000e+00
     3512000   3.511999e-05   2.263122e-01   4.685639e+00   4.464435e+00  -8.373409e+04   8.389385e+04  -9.876656e+04  -1.101552e+12  -1.288888e+12  -1.612024e+11   1.542868e+05   2.460275e-22   0.000000e+00   0.000000e+00
     3520000   3.519999e-05   2.179302e-01   4.687396e+00   4.456095e+00  -1.010798e+05  -4.335288e+04  -1.082133e+05   7.127111e+11  -1.538333e+12  -4.970130e+10   1.542943e+05   2.440377e-22   0.000000e+00   0.000000e+00
     3528000   3.527999e-05   2.136272e-01   4.680323e+00   4.447465e+00   6.732049e+03  -1.125651e+05  -1.053223e+05   1.683928e+12  -5.376508e+09   1.131100e+11   1.543017e+05   2.416467e-22   0.000000e+00   0.000000e+00
     3536000   3.535999e-05   2.189961e-01   4.673210e+00   4.439485e+00   1.142446e+05  -4.449929e+04  -9.369771e+04   7.122936e+11   1.519316e+12   1.466295e+11   1.543091e+05   2.407151e-22   0.000000e+00   0.000000e+00
     3544000   3.543999e-05   2.284606e-01   4.674826e+00   4.432348e+00   9.804421e+04   8.187264e+04  -8.658958e+04  -1.072902e+12   1.295971e+12   1.021359e+10   1.543164e+05   2.401932e-22   0.000000e+00   0.000000e+00
     3552000   3.551999e-05   2.317601e-01   4.683887e+00   4.425265e+00  -2.305734e+04   1.212795e+05  -9.260384e+04  -1.623260e+12  -4.187027e+11  -1.444896e+11   1.543237e+05   2.402497e-22   0.000000e+00   0.000000e+00
     3560000   3.559999e-05   2.257377e-01   4.690545e+00   4.417354e+00  -1.094977e+05   2.841649e+04  -1.049802e+05  -3.025116e+11  -1.647100e+12  -1.305837e+11   1.543311e+05   2.394531e-22   0.000000e+00   0.000000e+00
     3568000   3.567999e-05   2.179693e-01   4.687742e+00   4.408690e+00  -6.214656e+04  -8.935894e+04  -1.094217e+05   1.353758e+12  -9.785146e+11   2.997334e+10   1.543383e+05   2.368910e-22   0.000000e+00   0.000000e+00
     3576000   3.575999e-05   2.179794e-01   4.679303e+00   4.400196e+00   6.377136e+04  -9.746903e+04  -1.012697e+05   1.455296e+12   7.937395e+11   1.522025e+11   1.543456e+05   2.352175e-22   0.000000e+00   0.000000e+00
     3584000   3.583999e-05   2.263584e-01   4.675433e+00   4.392564e+00   1.246659e+05   1.239812e+04  -9.016354e+04  -9.168484e+10   1.655250e+12   1.005332e+11   1.543527e+05   2.341602e-22   0.000000e+00   0.000000e+00
     3592000   3.591999e-05   2.342094e-01   4.681092e+00   4.385508e+00   5.201736e+04   1.152697e+05  -8.851016e+04  -1.529994e+12   6.407647e+11  -6.499859e+10   1.543599e+05   2.339543e-22   0.000000e+00   0.000000e+00
     3600000   3.599999e-05   2.332554e-01   4.690438e+00   4.378076e+00  -7.181638e+04   9.463688e+04  -9.856692e+04  -1.232748e+12  -1.100538e+12  -1.587506e+11   1.543670e+05   2.340073e-22   0.000000e+00   0.000000e+00
     3608000   3.607999e-05   2.252057e-01   4.693453e+00   4.369732e+00  -1.063806e+05  -2.587065e+04  -1.088359e+05   4.585541e+11  -1.587838e+12  -7.102646e+10   1.543741e+05   2.323727e-22   0.000000e+00   0.000000e+00
     3616000   3.615999e-05   2.197868e-01   4.687324e+00   4.360975e+00  -1.330916e+04  -1.096319e+05  -1.078761e+05   1.618150e+12  -2.867302e+11   9.150741e+10   1.543812e+05   2.300543e-22   0.000000e+00   0.000000e+00
     3624000   3.623999e-05   2.236938e-01   4.679532e+00   4.352746e+00   1.020654e+05  -6.328583e+04  -9.702195e+04   9.636865e+11   1.320713e+12   1.520242e+11   1.543882e+05   2.289786e-22   0.000000e+00   0.000000e+00
     3632000   3.631999e-05   2.331625e-01   4.679356e+00   4.345394e+00   1.112032e+05   6.069184e+04  -8.825078e+04  -7.586621e+11   1.453293e+12   4.317740e+10   1.543951e+05   2.284391e-22   0.000000e+00   0.000000e+00
     3640000   3.639999e-05   2.382545e-01   4.687561e+00   4.338287e+00   4.158826e+03   1.241908e+05  -9.164802e+04  -1.635318e+12  -3.343812e+10  -1.198128e+11   1.544021e+05   2.284806e-22   0.000000e+00   0.000000e+00
     3648000   3.647999e-05   2.339194e-01   4.695573e+00   4.330491e+00  -9.959327e+04   5.639614e+04  -1.036476e+05  -6.851079e+11  -1.481116e+12  -1.478467e+11   1.544091e+05   2.280935e-22   0.000000e+00   0.000000e+00
     3656000   3.655999e-05   2.256282e-01   4.695049e+00   4.321841e+00  -8.446919e+04  -6.665817e+04  -1.107517e+05   1.019895e+12  -1.272300e+12  -1.234419e+10   1.544160e+05   2.259177e-22   0.000000e+00   0.000000e+00
     3664000   3.663999e-05   2.232147e-01   4.687175e+00   4.313116e+00   3.178610e+04  -1.082956e+05  -1.053951e+05   1.583109e+12   3.357849e+11   1.321738e+11   1.544229e+05   2.240149e-22   0.000000e+00   0.000000e+00
     3672000   3.671999e-05   2.299487e-01   4.681233e+00   4.305158e+00   1.205868e+05  -2.356582e+04  -9.355209e+04   4.093653e+11   1.562545e+12   1.337772e+11   1.544297e+05   2.232331e-22   0.000000e+00   0.000000e+00
     3680000   3.679999e-05   2.390508e-01   4.684320e+00   4.297970e+00   8.499987e+04   9.410818e+04  -8.814359e+04  -1.204738e+12   1.075607e+12  -1.367391e+10   1.544365e+05   2.216794e-22   0.000000e+00   0.000000e+00
     3688000   3.687999e-05   2.411874e-01   4.693630e+00   4.290700e+00  -3.559259e+04   1.160566e+05  -9.548160e+04  -1.499079e+12  -5.834630e+11  -1.506546e+11   1.544432e+05   2.218562e-22   0.000000e+00   0.000000e+00
     3696000   3.695999e-05   2.346609e-01   4.699570e+00   4.282561e+00  -1.092585e+05   1.859615e+04  -1.075711e+05  -1.542330e+11  -1.600486e+12  -1.202702e+11   1.544500e+05   2.209785e-22   0.000000e+00   0.000000e+00
     3704000   3.703999e-05   2.272353e-01   4.696259e+00   4.273724e+00  -5.595681e+04  -9.142104e+04  -1.112110e+05   1.347021e+12  -8.698579e+11   3.707011e+10   1.544567e+05   2.186758e-22   0.000000e+00   0.000000e+00
     3712000   3.711999e-05   2.275983e-01   4.687906e+00   4.265099e+00   6.548675e+04  -9.480717e+04  -1.028688e+05   1.381175e+12   7.903844e+11   1.505706e+11   1.544633e+05   2.172094e-22   0.000000e+00   0.000000e+00
     3720000   3.719999e-05   2.359623e-01   4.684125e+00   4.257348e+00   1.239191e+05   1.117618e+04  -9.154285e+04  -6.654117e+10   1.591355e+12   1.039301e+11   1.544699e+05   2.166001e-22   0.000000e+00   0.000000e+00
     3728000   3.727999e-05   2.439410e-01   4.689561e+00   4.250195e+00   5.685336e+04   1.123554e+05  -8.948152e+04  -1.440759e+12   6.824625e+11  -5.877254e+10   1.544765e+05   2.163936e-22   0.000000e+00   0.000000e+00
     3736000   3.735999e-05   2.435779e-01   4.698947e+00   4.242702e+00  -6.351674e+04   9.991404e+04  -9.923626e+04  -1.263342e+12  -9.615416e+11  -1.597561e+11   1.544831e+05   2.165076e-22   0.000000e+00   0.000000e+00
     3744000   3.743999e-05   2.358998e-01   4.702762e+00   4.234283e+00  -1.074881e+05  -1.276402e+04  -1.102291e+05   2.748470e+11  -1.566831e+12  -8.681104e+10   1.544897e+05   2.158392e-22   0.000000e+00   0.000000e+00
     3752000   3.751999e-05   2.298032e-01   4.697503e+00   4.225357e+00  -2.823046e+04  -1.039804e+05  -1.107258e+05   1.503218e+12  -4.871101e+11   7.395157e+10   1.544962e+05   2.128273e-22   0.000000e+00   0.000000e+00
     3760000   3.759999e-05   2.324200e-01   4.689409e+00   4.216860e+00   8.851112e+04  -7.688483e+04  -1.006259e+05   1.125861e+12   1.094259e+12   1.539802e+11   1.545027e+05   2.116769e-22   0.000000e+00   0.000000e+00
     3768000   3.767999e-05   2.415717e-01   4.687659e+00   4.209257e+00   1.190144e+05   3.881928e+04  -9.056327e+04  -4.379720e+11   1.511645e+12   7.211756e+10   1.545091e+05   2.111343e-22   0.000000e+00   0.000000e+00
     3776000   3.775999e-05   2.481818e-01   4.694679e+00   4.202068e+00   3.128397e+04   1.206150e+05  -9.136953e+04  -1.537475e+12   3.299402e+11  -9.113989e+10   1.545155e+05   2.110587e-22   0.000000e+00   0.000000e+00
     3784000   3.783999e-05   2.458791e-01   4.703608e+00   4.194345e+00  -8.162019e+04   8.181061e+04  -1.025778e+05  -1.005830e+12  -1.199675e+12  -1.567087e+11   1.545219e+05   2.106063e-22   0.000000e+00   0.000000e+00
     3792000   3.791999e-05   2.377413e-01   4.705577e+00   4.185707e+00  -1.001820e+05  -3.602535e+04  -1.120034e+05   5.851920e+11  -1.453165e+12  -5.624360e+10   1.545283e+05   2.090780e-22   0.000000e+00   0.000000e+00
     3800000   3.799999e-05   2.329918e-01   4.699109e+00   4.176739e+00  -5.431392e+03  -1.083641e+05  -1.100394e+05   1.554435e+12  -1.834846e+11   1.037428e+11   1.545347e+05   2.093838e-22   0.000000e+00   0.000000e+00
     3808000   3.807999e-05   2.372555e-01   4.691588e+00   4.168371e+00   1.030260e+05  -5.985175e+04  -9.841917e+04   8.929545e+11   1.275147e+12   1.590476e+11   1.545410e+05   2.083769e-22   0.000000e+00   0.000000e+00
     3816000   3.815999e-05   2.467107e-01   4.691473e+00   4.160927e+00   1.117626e+05   5.866230e+04  -8.917812e+04  -6.952207e+11   1.398595e+12   4.844990e+10   1.545474e+05   2.078053e-22   0.000000e+00   0.000000e+00
     3824000   3.823999e-05   2.521262e-01   4.699483e+00   4.153760e+00   1.191588e+04   1.234059e+05  -9.228132e+04  -1.556299e+12   6.123903e+10  -1.193288e+11   1.545537e+05   2.076783e-22   0.000000e+00   0.000000e+00
     3832000   3.831999e-05   2.484929e-01   4.707860e+00   4.145919e+00  -9.236931e+04   6.696556e+04  -1.042704e+05  -7.944617e+11  -1.336780e+12  -1.549701e+11   1.545600e+05   2.078752e-22   0.000000e+00   0.000000e+00
     3840000   3.839999e-05   2.402399e-01   4.708473e+00   4.137178e+00  -9.240024e+04  -5.166516e+04  -1.126217e+05   7.908528e+11  -1.339903e+12  -3.438853e+10   1.545663e+05   2.061731e-22   0.000000e+00   0.000000e+00
     3848000   3.847999e-05   2.365773e-01   4.701292e+00   4.128234e+00   1.107444e+04  -1.091178e+05  -1.089189e+05   1.544845e+12   3.905733e+10   1.177245e+11   1.545725e+05   2.044834e-22   0.000000e+00   0.000000e+00
     3856000   3.855999e-05   2.419149e-01   4.694329e+00   4.119986e+00   1.110438e+05  -4.689130e+04  -9.677332e+04   7.131286e+11   1.368239e+12   1.550630e+11   1.545788e+05   2.047335e-22   0.000000e+00   0.000000e+00
     3864000   3.863999e-05   2.514058e-01   4.695329e+00   4.112641e+00   1.049971e+05   7.089440e+04  -8.857829e+04  -8.493818e+11   1.294531e+12   2.899625e+10   1.545850e+05   2.041903e-22   0.000000e+00   0.000000e+00
     3872000   3.871999e-05   2.559519e-01   4.703863e+00   4.105461e+00  -7.567410e+02   1.234314e+05  -9.307276e+04  -1.541214e+12  -1.069309e+11  -1.295370e+11   1.545912e+05   2.046709e-22   0.000000e+00   0.000000e+00
     3880000   3.879999e-05   2.515322e-01   4.711773e+00   4.097525e+00  -9.751898e+04   5.670444e+04  -1.057119e+05  -6.435201e+11  -1.400271e+12  -1.576942e+11   1.545974e+05   2.043631e-22   0.000000e+00   0.000000e+00
     3888000   3.887999e-05   2.433573e-01   4.711542e+00   4.088680e+00  -8.581176e+04  -6.038301e+04  -1.135451e+05   9.047907e+11  -1.247232e+12  -2.073007e+10   1.546036e+05   2.022436e-22   0.000000e+00   0.000000e+00
     3896000   3.895999e-05   2.404441e-01   4.704041e+00   4.079710e+00   2.131051e+04  -1.079172e+05  -1.086457e+05   1.518465e+12   1.677619e+11   1.309887e+11   1.546097e+05   2.002471e-22   0.000000e+00   0.000000e+00
     3904000   3.903999e-05   2.463810e-01   4.697512e+00   4.071499e+00   1.145069e+05  -3.849250e+04  -9.650146e+04   5.929558e+11   1.402054e+12   1.440969e+11   1.546158e+05   1.991621e-22   0.000000e+00   0.000000e+00
     3912000   3.911999e-05   2.557815e-01   4.699156e+00   4.064134e+00   9.990579e+04   7.706263e+04  -8.937608e+04  -9.234369e+11   1.216153e+12   1.611121e+10   1.546218e+05   1.986586e-22   0.000000e+00   0.000000e+00
     3920000   3.919999e-05   2.598138e-01   4.707883e+00   4.056854e+00  -6.949208e+03   1.220014e+05  -9.474762e+04  -1.499919e+12  -1.934775e+11  -1.393634e+11   1.546278e+05   1.965090e-22   0.000000e+00   0.000000e+00
     3928000   3.927999e-05   2.551014e-01   4.715484e+00   4.048763e+00  -9.818031e+04   5.165389e+04  -1.077223e+05  -5.670743e+11  -1.398212e+12  -1.538269e+11   1.546337e+05   1.959809e-22   0.000000e+00   0.000000e+00
     3936000   3.935999e-05   2.470761e-01   4.714935e+00   4.039774e+00  -8.216035e+04  -6.255331e+04  -1.151094e+05   9.266992e+11  -1.190107e+12  -1.490368e+10   1.546397e+05   1.938756e-22   0.000000e+00   0.000000e+00
     3944000   3.943999e-05   2.444512e-01   4.707434e+00   4.030694e+00   2.406855e+04  -1.061162e+05  -1.098876e+05   1.481846e+12   1.983637e+11   1.328062e+11   1.546455e+05   1.919732e-22   0.000000e+00   0.000000e+00
     3952000   3.951999e-05   2.504840e-01   4.701083e+00   4.022391e+00   1.143606e+05  -3.665250e+04  -9.744366e+04   5.696247e+11   1.377024e+12   1.503315e+11   1.546513e+05   1.911706e-22   0.000000e+00   0.000000e+00
     3960000   3.959999e-05   2.598485e-01   4.702779e+00   4.014966e+00   9.980007e+04   7.656721e+04  -8.997905e+04  -8.996848e+11   1.194043e+12   1.793246e+10   1.546571e+05   1.905223e-22   0.000000e+00   0.000000e+00
     3968000   3.967999e-05   2.639558e-01   4.711452e+00   4.007642e+00  -4.976645e+03   1.217473e+05  -9.525454e+04  -1.478389e+12  -1.683575e+11  -1.381770e+11   1.546629e+05   1.903302e-22   0.000000e+00   0.000000e+00
     3976000   3.975999e-05   2.594273e-01   4.719142e+00   3.999512e+00  -9.621637e+04   5.432406e+04  -1.082298e+05  -5.953922e+11  -1.360292e+12  -1.536764e+11   1.546687e+05   1.899550e-22   0.000000e+00   0.000000e+00
     3984000   3.983999e-05   2.514209e-01   4.718885e+00   3.990476e+00  -8.407578e+04  -5.861990e+04  -1.158410e+05   8.677008e+11  -1.204564e+12  -2.040064e+10   1.546744e+05   1.879058e-22   0.000000e+00   0.000000e+00
     3992000   3.991999e-05   2.484796e-01   4.711580e+00   3.981318e+00   1.866170e+04  -1.059689e+05  -1.111227e+05   1.466315e+12   1.247340e+11   1.271045e+11   1.546801e+05   1.860011e-22   0.000000e+00   0.000000e+00
     4000000   3.999999e-05   2.541210e-01   4.704996e+00   3.972904e+00   1.111414e+05  -4.242655e+04  -9.886976e+04   6.392351e+11   1.319150e+12   1.522893e+11   1.546857e+05   1.851771e-22   0.000000e+00   0.000000e+00
     4008000   4.007999e-05   2.635081e-01   4.706135e+00   3.965382e+00   1.039785e+05   6.973726e+04  -9.085473e+04  -8.016760e+11   1.233453e+12   2.904525e+10   1.546913e+05   1.845905e-22   0.000000e+00   0.000000e+00
     4016000   4.015999e-05   2.682014e-01   4.714495e+00   3.958026e+00   4.356063e+03   1.218745e+05  -9.517747e+04  -1.464397e+12  -4.738541e+10  -1.279264e+11   1.546969e+05   1.844447e-22   0.000000e+00   0.000000e+00
     4024000   4.023999e-05   2.643242e-01   4.722578e+00   3.949923e+00  -9.095868e+04   6.348170e+04  -1.078399e+05  -7.041476e+11  -1.279453e+12  -1.594505e+11   1.547025e+05   1.840473e-22   0.000000e+00   0.000000e+00
     4032000   4.031999e-05   2.563201e-01   4.723175e+00   3.940885e+00  -8.967333e+04  -4.835047e+04  -1.164281e+05   7.301803e+11  -1.265377e+12  -3.708285e+10   1.547080e+05   1.821390e-22   0.000000e+00   0.000000e+00
     4040000   4.039999e-05   2.525849e-01   4.716355e+00   3.931627e+00   6.031738e+03  -1.055306e+05  -1.129743e+05   1.448300e+12  -4.054079e+10   1.150079e+11   1.547135e+05   1.801669e-22   0.000000e+00   0.000000e+00
     4048000   4.047999e-05   2.573425e-01   4.709288e+00   3.923044e+00   1.038961e+05  -5.419618e+04  -1.010265e+05   7.845274e+11   1.208907e+12   1.580789e+11   1.547190e+05   1.792825e-22   0.000000e+00   0.000000e+00
     4056000   4.055999e-05   2.667062e-01   4.709312e+00   3.915388e+00   1.111680e+05   5.613894e+04  -9.181361e+04  -6.179317e+11   1.307766e+12   5.120627e+10   1.547244e+05   1.786796e-22   0.000000e+00   0.000000e+00
     4064000   4.063999e-05   2.724444e-01   4.717008e+00   3.908029e+00   2.123276e+04   1.207790e+05  -9.435520e+04  -1.432566e+12   1.661206e+11  -1.099501e+11   1.547298e+05   1.784547e-22   0.000000e+00   0.000000e+00
     4072000   4.071999e-05   2.697813e-01   4.725679e+00   3.900025e+00  -8.035773e+04   7.837852e+04  -1.065008e+05  -8.836248e+11  -1.131600e+12  -1.662704e+11   1.547352e+05   1.782136e-22   0.000000e+00   0.000000e+00
     4080000   4.079999e-05   2.619186e-01   4.727728e+00   3.891059e+00  -9.751968e+04  -3.014386e+04  -1.163009e+05   4.916344e+11  -1.348145e+12  -6.299489e+10   1.547406e+05   1.760258e-22   0.000000e+00   0.000000e+00
     4088000   4.087999e-05   2.569342e-01   4.721860e+00   3.881721e+00  -1.485903e+04  -1.023711e+05  -1.150897e+05   1.393670e+12  -3.035729e+11   8.991321e+10   1.547459e+05   1.742793e-22   0.000000e+00   0.000000e+00
     4096000   4.095999e-05   2.601372e-01   4.714201e+00   3.872911e+00   8.947483e+04  -7.127800e+04  -1.042191e+05   9.915975e+11   1.011813e+12   1.591138e+11   1.547511e+05   1.734199e-22   0.000000e+00   0.000000e+00
     4104000   4.103999e-05   2.691730e-01   4.712488e+00   3.865037e+00   1.185518e+05   3.347674e+04  -9.367130e+04  -3.259752e+11   1.383011e+12   8.149249e+10   1.547564e+05   1.728575e-22   0.000000e+00   0.000000e+00
     4112000   4.111999e-05   2.762923e-01   4.718906e+00   3.857640e+00   4.568274e+04   1.146125e+05  -9.342491e+04  -1.339495e+12   4.714765e+11  -7.679891e+10   1.547616e+05   1.725973e-22   0.000000e+00   0.000000e+00
     4120000   4.119999e-05   2.755388e-01   4.728094e+00   3.849790e+00  -6.135517e+04   9.679559e+04  -1.040141e+05  -1.106307e+12  -8.779682e+11  -1.646509e+11   1.547668e+05   1.725593e-22   0.000000e+00   0.000000e+00
     4128000   4.127999e-05   2.682816e-01   4.732126e+00   3.840973e+00  -1.029956e+05  -3.163123e+03  -1.154829e+05   1.525854e+11  -1.405600e+12  -9.776019e+10   1.547721e+05   1.714358e-22   0.000000e+00   0.000000e+00
     4136000   4.135999e-05   2.619141e-01   4.727892e+00   3.831579e+00  -4.120067e+04  -9.220538e+04  -1.172888e+05   1.258317e+12  -6.330108e+11   5.544978e+10   1.547772e+05   1.696194e-22   0.000000e+00   0.000000e+00
     4144000   4.143999e-05   2.629486e-01   4.719924e+00   3.822511e+00   6.631232e+04  -8.879218e+04  -1.080564e+05   1.203555e+12   7.083508e+11   1.563514e+11   1.547823e+05   1.685731e-22   0.000000e+00   0.000000e+00
     4152000   4.151999e-05   2.710741e-01   4.716124e+00   3.814365e+00   1.212787e+05   3.124873e+03  -9.612937e+04   5.675243e+10   1.396796e+12   1.168008e+11   1.547874e+05   1.679994e-22   0.000000e+00   0.000000e+00
     4160000   4.159999e-05   2.795348e-01   4.720553e+00   3.806904e+00   7.402627e+04   9.969698e+04  -9.241938e+04  -1.138966e+12   8.153505e+11  -3.294846e+10   1.547925e+05   1.676027e-22   0.000000e+00   0.000000e+00
     4168000   4.167999e-05   2.812882e-01   4.729781e+00   3.799247e+00  -3.228048e+04   1.130354e+05  -1.007137e+05  -1.289855e+12  -5.128432e+11  -1.623600e+11   1.547976e+05   1.667571e-22   0.000000e+00   0.000000e+00
     4176000   4.175999e-05   2.754367e-01   4.736007e+00   3.790650e+00  -1.000987e+05   3.110717e+04  -1.139142e+05  -2.645149e+11  -1.361886e+12  -1.396339e+11   1.548026e+05   1.660087e-22   0.000000e+00   0.000000e+00
     4184000   4.183999e-05   2.680206e-01   4.734214e+00   3.781228e+00  -6.829504e+04  -7.061377e+04  -1.196448e+05   9.902672e+11  -9.698317e+11   6.970006e+09   1.548076e+05   1.640598e-22   0.000000e+00   0.000000e+00
     4192000   4.191999e-05   2.664354e-01   4.726698e+00   3.771844e+00   3.342775e+04  -1.002601e+05  -1.131257e+05   1.342174e+12   2.867363e+11   1.423072e+11   1.548125e+05   1.625884e-22   0.000000e+00   0.000000e+00
     4200000   4.199999e-05   2.727697e-01   4.720866e+00   3.763301e+00   1.134601e+05  -3.213155e+04  -1.003136e+05   4.960480e+11   1.275643e+12   1.522653e+11   1.548175e+05   1.619678e-22   0.000000e+00   0.000000e+00
     4208000   4.207999e-05   2.820336e-01   4.722562e+00   3.755655e+00   1.007419e+05   7.250517e+04  -9.254201e+04  -7.874919e+11   1.126409e+12   2.504930e+10   1.548223e+05   1.613848e-22   0.000000e+00   0.000000e+00
     4216000   4.215999e-05   2.866509e-01   4.730904e+00   3.748154e+00   6.831294e+03   1.204084e+05  -9.709073e+04  -1.367269e+12  -2.704323e+10  -1.299333e+11   1.548272e+05   1.611790e-22   0.000000e+00   0.000000e+00
     4224000   4.223999e-05   2.832032e-01   4.739087e+00   3.739888e+00  -8.430248e+04   6.890225e+04  -1.100843e+05  -7.242558e+11  -1.153545e+12  -1.675454e+11   1.548321e+05   1.608684e-22   0.000000e+00   0.000000e+00
     4232000   4.231999e-05   2.754785e-01   4.740468e+00   3.730633e+00  -9.144107e+04  -3.561199e+04  -1.197698e+05   5.576454e+11  -1.245170e+12  -5.566815e+10   1.548369e+05   1.592754e-22   0.000000e+00   0.000000e+00
     4240000   4.239999e-05   2.710380e-01   4.734495e+00   3.721045e+00  -9.073023e+03  -1.000666e+05  -1.178147e+05   1.332874e+12  -2.383393e+11   9.963250e+10   1.548417e+05   1.574714e-22   0.000000e+00   0.000000e+00
     4248000   4.247999e-05   2.744718e-01   4.727106e+00   3.712046e+00   8.952529e+04  -6.837213e+04  -1.062446e+05   9.352636e+11   9.648361e+11   1.670063e+11   1.548465e+05   1.566465e-22   0.000000e+00   0.000000e+00
     4256000   4.255999e-05   2.834378e-01   4.725418e+00   3.704036e+00   1.182486e+05   3.098536e+04  -9.505831e+04  -2.736197e+11   1.320533e+12   8.987954e+10   1.548512e+05   1.560782e-22   0.000000e+00   0.000000e+00
     4264000   4.263999e-05   2.907857e-01   4.731537e+00   3.696553e+00   5.231327e+04   1.111988e+05  -9.422587e+04  -1.242530e+12   5.240113e+11  -7.163279e+10   1.548559e+05   1.558182e-22   0.000000e+00   0.000000e+00
     4272000   4.271999e-05   2.907912e-01   4.740753e+00   3.688646e+00  -5.054850e+04   1.022104e+05  -1.047840e+05  -1.122483e+12  -7.300115e+11  -1.707625e+11   1.548606e+05   1.556948e-22   0.000000e+00   0.000000e+00
     4280000   4.279999e-05   2.841612e-01   4.745657e+00   3.679732e+00  -1.003070e+05   1.213328e+04  -1.173651e+05  -2.352268e+10  -1.340321e+12  -1.186137e+11   1.548653e+05   1.547676e-22   0.000000e+00   0.000000e+00
     4288000   4.287999e-05   2.773853e-01   4.742637e+00   3.670114e+00  -5.408136e+04  -8.007486e+04  -1.210286e+05   1.084707e+12  -7.830363e+11   3.322496e+10   1.548700e+05   1.530469e-22   0.000000e+00   0.000000e+00
