     timestep     time              x             y              z              vx             vy             vz             ax             ay             az         v_magnitude      ELoss        Electronic      Nuclear
           0   0.000000e+00   1.000000e-01   1.008776e+01   1.737112e+01   1.128363e+05  -1.344921e+04   9.392973e+04   0.000000e+00   0.000000e+00   0.000000e+00   1.474304e+05   0.000000e+00   0.000000e+00   0.000000e+00
        8000   7.999000e-08   9.954366e-02   1.008869e+01   1.737802e+01  -1.274610e+05  -1.062188e+04   7.638532e+04   1.440159e+12  -2.419155e+13  -8.838729e+11   1.489760e+05   4.650535e-20   0.000000e+00   0.000000e+00
       16000   1.599900e-07   9.927621e-02   1.008719e+01   1.738475e+01   1.151249e+05   2.552126e+04   9.364451e+04  -5.760564e+12   2.406452e+13   5.889705e+11   1.505801e+05   4.949535e-20   0.000000e+00   0.000000e+00
       24000   2.399900e-07   9.840246e-02   1.008810e+01   1.739152e+01  -1.194840e+05  -5.799266e+04   7.439395e+04   1.087673e+13  -2.276742e+13  -1.933162e+11   1.522302e+05   5.257307e-20   0.000000e+00   0.000000e+00
       32000   3.199900e-07   9.864287e-02   1.008676e+01   1.739825e+01   9.305985e+04   7.885374e+04   9.388936e+04  -1.641112e+13   1.980361e+13  -2.956263e+11   1.539261e+05   5.585301e-20   0.000000e+00   0.000000e+00
       40000   3.999900e-07   9.722649e-02   1.008735e+01   1.740493e+01  -7.859337e+04  -1.119765e+05   7.427529e+04   2.168783e+13  -1.469735e+13   8.836496e+11   1.556678e+05   5.933104e-20   0.000000e+00   0.000000e+00
       48000   4.799900e-07   9.794533e-02   1.008652e+01   1.741169e+01   2.979389e+04   1.246976e+05   9.141056e+04  -2.568111e+13   7.274264e+12  -1.474631e+12   1.574581e+05   6.312886e-20   0.000000e+00   0.000000e+00
       56000   5.599900e-07   9.617603e-02   1.008637e+01   1.741828e+01   6.149122e+03  -1.384474e+05   7.855328e+04   2.709903e+13   2.259326e+12   1.955304e+12   1.592988e+05   6.720633e-20   0.000000e+00   0.000000e+00
       64000   6.399900e-07   9.699157e-02   1.008646e+01   1.742504e+01  -6.992275e+04   1.186537e+05   8.375399e+04  -2.456533e+13  -1.283669e+13  -2.230606e+12   1.611912e+05   7.158313e-20   0.000000e+00   0.000000e+00
       72000   7.199900e-07   9.551307e-02   1.008532e+01   1.743157e+01   1.058431e+05  -8.860217e+04   8.695110e+04   1.716267e+13   2.247948e+13   2.107212e+12   1.631367e+05   7.627188e-20   0.000000e+00   0.000000e+00
       80000   7.999900e-07   9.560038e-02   1.008629e+01   1.743828e+01  -1.460019e+05   2.190471e+04   7.398469e+04  -5.098509e+12  -2.843822e+13  -1.528561e+12   1.651366e+05   8.133444e-20   0.000000e+00   0.000000e+00
       88000   8.799900e-07   9.526363e-02   1.008465e+01   1.744482e+01   1.312722e+05   4.421823e+04   9.362481e+04  -9.674521e+12   2.787758e+13   4.914089e+11   1.671922e+05   8.675174e-20   0.000000e+00   0.000000e+00
       96000   9.599900e-07   9.401463e-02   1.008551e+01   1.745139e+01  -9.882487e+04  -1.177677e+05   7.091278e+04   2.325525e+13  -1.911142e+13   7.975632e+11   1.693050e+05   9.260355e-20   0.000000e+00   0.000000e+00
      104000   1.039990e-06   9.486469e-02   1.008471e+01   1.745800e+01   8.690263e+03   1.464050e+05   8.884951e+04  -3.050291e+13   3.065341e+12  -1.961362e+12   1.714764e+05   9.886870e-20   0.000000e+00   0.000000e+00
      112000   1.119990e-06   9.304200e-02   1.008413e+01   1.746442e+01   7.196182e+04  -1.356487e+05   8.121182e+04   2.699326e+13   1.573063e+13   2.477197e+12   1.737079e+05   1.056039e-19   0.000000e+00   0.000000e+00
      120000   1.199990e-06   9.352331e-02   1.008495e+01   1.747102e+01  -1.503809e+05   5.430147e+04   7.357497e+04  -1.176945e+13  -2.966661e+13  -2.021501e+12   1.760009e+05   1.128791e-19   0.000000e+00   0.000000e+00
      128000   1.279990e-06   9.305368e-02   1.008325e+01   1.747743e+01   1.447317e+05   4.707252e+04   9.299534e+04  -1.035358e+13   3.093957e+13   5.670748e+11   1.783570e+05   1.206890e-19   0.000000e+00   0.000000e+00
      136000   1.359990e-06   9.168290e-02   1.008410e+01   1.748386e+01  -8.371112e+04  -1.444563e+05   6.932127e+04   2.902539e+13  -1.627502e+13   1.295553e+12   1.807778e+05   1.291404e-19   0.000000e+00   0.000000e+00
      144000   1.439990e-06   9.270298e-02   1.008366e+01   1.749037e+01  -4.921811e+04   1.554998e+05   8.356660e+04  -3.269933e+13  -8.886416e+12  -2.584937e+12   1.832648e+05   1.382071e-19   0.000000e+00   0.000000e+00
      152000   1.519990e-06   9.112498e-02   1.008248e+01   1.749664e+01   1.424701e+05  -8.223989e+04   8.641651e+04   1.628618e+13   3.052780e+13   2.341404e+12   1.858197e+05   1.479648e-19   0.000000e+00   0.000000e+00
      160000   1.599990e-06   9.077687e-02   1.008370e+01   1.750306e+01  -1.652146e+05  -6.283971e+04   6.532111e+04   1.233659e+13  -3.319352e+13  -5.380116e+11   1.884450e+05   1.587072e-19   0.000000e+00   0.000000e+00
      168000   1.679990e-06   9.141753e-02   1.008239e+01   1.750940e+01   5.030911e+04   1.612399e+05   8.947974e+04  -3.412978e+13   1.178451e+13  -1.900115e+12   1.911438e+05   1.701898e-19   0.000000e+00   0.000000e+00
      176000   1.759990e-06   8.948458e-02   1.008192e+01   1.751555e+01   9.406219e+04  -1.500908e+05   7.892315e+04   3.049186e+13   2.059000e+13   2.988534e+12   1.939170e+05   1.825745e-19   0.000000e+00   0.000000e+00
      184000   1.839990e-06   8.975919e-02   1.008300e+01   1.752189e+01  -1.856419e+05  -1.009646e+03   6.521599e+04  -4.391710e+11  -3.765789e+13  -1.615256e+12   1.967666e+05   1.960201e-19   0.000000e+00   0.000000e+00
      192000   1.919990e-06   9.005615e-02   1.008139e+01   1.752809e+01   9.483524e+04   1.505285e+05   9.069315e+04  -3.212672e+13   2.115519e+13  -1.355115e+12   1.996943e+05   2.105054e-19   0.000000e+00   0.000000e+00
      200000   1.999990e-06   8.809426e-02   1.008122e+01   1.753414e+01   7.848375e+04  -1.709490e+05   7.553097e+04   3.509207e+13   1.741614e+13   3.158460e+12   2.027022e+05   2.261543e-19   0.000000e+00   0.000000e+00
      208000   2.079990e-06   8.848918e-02   1.008227e+01   1.754037e+01  -1.958283e+05   2.269218e+03   6.321808e+04  -1.113578e+12  -4.008699e+13  -1.755685e+12   2.057921e+05   2.431420e-19   0.000000e+00   0.000000e+00
      216000   2.159990e-06   8.886501e-02   1.008068e+01   1.754645e+01   8.400779e+04   1.693114e+05   8.912459e+04  -3.627874e+13   1.900982e+13  -1.728793e+12   2.089661e+05   2.614699e-19   0.000000e+00   0.000000e+00
      224000   2.239990e-06   8.689900e-02   1.008026e+01   1.755237e+01   1.191886e+05  -1.576618e+05   7.730996e+04   3.254379e+13   2.612446e+13   3.330855e+12   2.122263e+05   2.812745e-19   0.000000e+00   0.000000e+00
      232000   2.319990e-06   8.692771e-02   1.008152e+01   1.755845e+01  -1.976120e+05  -6.296716e+04   5.879669e+04   1.267438e+13  -4.083589e+13  -8.235490e+11   2.155746e+05   3.028386e-19   0.000000e+00   0.000000e+00
      240000   2.399990e-06   8.777283e-02   1.008032e+01   1.756445e+01   1.990758e+03   2.026391e+05   8.306754e+04  -4.354605e+13   1.730842e+12  -2.949012e+12   2.190132e+05   3.260895e-19   0.000000e+00   0.000000e+00
      248000   2.479990e-06   8.607380e-02   1.007918e+01   1.757022e+01   1.927801e+05  -7.269794e+04   8.412394e+04   1.474454e+13   4.201553e+13   2.756551e+12   2.225443e+05   3.512220e-19   0.000000e+00   0.000000e+00
      256000   2.559990e-06   8.516662e-02   1.008044e+01   1.757609e+01  -1.254941e+05  -1.792576e+05   5.719154e+04   3.748897e+13  -2.588222e+13   1.500827e+12   2.261701e+05   3.786640e-19   0.000000e+00   0.000000e+00
      264000   2.639990e-06   8.634736e-02   1.008032e+01   1.758200e+01  -1.523796e+05   1.578661e+05   6.862526e+04  -3.424917e+13  -3.132833e+13  -3.665068e+12   2.298927e+05   4.082435e-19   0.000000e+00   0.000000e+00
      272000   2.719990e-06   8.574953e-02   1.007850e+01   1.758766e+01   1.839655e+05   1.132236e+05   8.921667e+04  -2.483154e+13   4.056769e+13  -2.745859e+10   2.337146e+05   4.403106e-19   0.000000e+00   0.000000e+00
      280000   2.799990e-06   8.384102e-02   1.007875e+01   1.759327e+01   8.284350e+04  -2.120621e+05   6.810663e+04   4.473503e+13   1.858958e+13   3.813898e+12   2.376381e+05   4.751384e-19   0.000000e+00   0.000000e+00
      288000   2.879990e-06   8.413271e-02   1.007996e+01   1.759900e+01  -2.266011e+05  -6.576954e+04   5.223494e+04   1.351499e+13  -4.776650e+13  -1.041753e+12   2.416654e+05   5.130286e-19   0.000000e+00   0.000000e+00
      296000   2.959990e-06   8.511314e-02   1.007890e+01   1.760459e+01  -5.007541e+04   2.286089e+05   7.516964e+04  -4.972785e+13  -9.477063e+12  -3.961951e+12   2.458049e+05   5.550797e-19   0.000000e+00   0.000000e+00
      304000   3.039990e-06   8.381577e-02   1.007735e+01   1.760991e+01   2.327686e+05   3.110857e+04   8.590238e+04  -7.363237e+12   5.133733e+13   1.674285e+12   2.500564e+05   5.998839e-19   0.000000e+00   0.000000e+00
      312000   3.119990e-06   8.215079e-02   1.007808e+01   1.761523e+01   2.798518e+04  -2.459813e+05   5.865424e+04   5.244863e+13   6.802176e+12   3.981869e+12   2.544214e+05   6.487896e-19   0.000000e+00   0.000000e+00
      320000   3.199990e-06   8.271464e-02   1.007914e+01   1.762065e+01  -2.512034e+05  -4.182278e+04   4.667158e+04   8.481157e+12  -5.351838e+13  -1.679883e+12   2.589025e+05   7.019342e-19   0.000000e+00   0.000000e+00
      328000   3.279990e-06   8.367550e-02   1.007803e+01   1.762593e+01  -6.058141e+04   2.462816e+05   7.147547e+04  -5.394398e+13  -1.188392e+13  -4.344288e+12   2.635023e+05   7.595282e-19   0.000000e+00   0.000000e+00
      336000   3.359990e-06   8.254463e-02   1.007642e+01   1.763097e+01   2.421697e+05   7.827604e+04   8.467958e+04  -1.762498e+13   5.380582e+13   1.046271e+12   2.682237e+05   8.220441e-19   0.000000e+00   0.000000e+00
      344000   3.439990e-06   8.071824e-02   1.007681e+01   1.763595e+01   1.115010e+05  -2.417402e+05   6.079480e+04   5.198527e+13   2.502072e+13   4.697910e+12   2.730693e+05   8.902138e-19   0.000000e+00   0.000000e+00
      352000   3.519990e-06   8.074084e-02   1.007814e+01   1.764103e+01  -2.243615e+05  -1.593754e+05   3.960614e+04   3.420699e+13  -4.828563e+13   3.587665e+11   2.780418e+05   9.645708e-19   0.000000e+00   0.000000e+00
      360000   3.599990e-06   8.197636e-02   1.007785e+01   1.764603e+01  -2.063218e+05   1.861390e+05   5.435138e+04  -4.117598e+13  -4.404779e+13  -4.781946e+12   2.831439e+05   1.045083e-18   0.000000e+00   0.000000e+00
      368000   3.679990e-06   8.190165e-02   1.007609e+01   1.765078e+01   1.341344e+05   2.425726e+05   7.955377e+04  -5.364431e+13   3.063622e+13  -2.485563e+12   2.883788e+05   1.132659e-18   0.000000e+00   0.000000e+00
      376000   3.759990e-06   8.013622e-02   1.007525e+01   1.765536e+01   2.744782e+05  -7.324412e+04   7.473680e+04   1.546898e+13   6.116101e+13   3.662470e+12   2.937491e+05   1.227784e-18   0.000000e+00   0.000000e+00
      384000   3.839990e-06   7.880074e-02   1.007626e+01   1.765995e+01   1.196798e+04  -2.954991e+05   4.574206e+04   6.436181e+13   3.178950e+12   4.609196e+12   2.992579e+05   1.331838e-18   0.000000e+00   0.000000e+00
      392000   3.919990e-06   7.930448e-02   1.007740e+01   1.766457e+01  -2.809226e+05  -1.142538e+05   3.158148e+04   2.466478e+13  -6.126251e+13  -8.536116e+11   3.049078e+05   1.445005e-18   0.000000e+00   0.000000e+00
      400000   3.999990e-06   8.052254e-02   1.007689e+01   1.766906e+01  -2.113616e+05   2.223480e+05   4.922806e+04  -4.946935e+13  -4.562281e+13  -5.407534e+12   3.107020e+05   1.567769e-18   0.000000e+00   0.000000e+00
      408000   4.079990e-06   8.049233e-02   1.007518e+01   1.767330e+01   1.262819e+05   2.808026e+05   7.393184e+04  -6.249153e+13   2.910536e+13  -3.160915e+12   3.166435e+05   1.701325e-18   0.000000e+00   0.000000e+00
      416000   4.159990e-06   7.890995e-02   1.007416e+01   1.767735e+01   3.142159e+05  -6.006037e+03   7.341905e+04   8.005615e+11   7.046701e+13   3.015999e+12   3.227353e+05   1.846479e-18   0.000000e+00   0.000000e+00
      424000   4.239990e-06   7.731791e-02   1.007480e+01   1.768135e+01   1.348930e+05  -2.963185e+05   4.719357e+04   6.513273e+13   3.039426e+13   5.772566e+12   3.289803e+05   2.005039e-18   0.000000e+00   0.000000e+00
      432000   4.319990e-06   7.718269e-02   1.007617e+01   1.768535e+01  -2.044599e+05  -2.648222e+05   2.336837e+04   5.831805e+13  -4.504012e+13   2.157790e+12   3.353814e+05   2.177951e-18   0.000000e+00   0.000000e+00
      440000   4.399990e-06   7.832829e-02   1.007660e+01   1.768928e+01  -3.374102e+05   4.925360e+04   2.554702e+04  -1.132397e+13  -7.439470e+13  -3.907843e+12   3.419418e+05   2.365564e-18   0.000000e+00   0.000000e+00
      448000   4.479990e-06   7.928779e-02   1.007552e+01   1.769299e+01  -1.312653e+05   3.191978e+05   4.948833e+04  -7.139716e+13  -2.821558e+13  -6.189355e+12   3.486645e+05   2.569475e-18   0.000000e+00   0.000000e+00
      456000   4.559990e-06   7.887850e-02   1.007386e+01   1.769644e+01   2.060166e+05   2.813036e+05   6.959177e+04  -6.308374e+13   4.702180e+13  -2.430462e+12   3.555525e+05   2.791156e-18   0.000000e+00   0.000000e+00
      464000   4.639990e-06   7.728395e-02   1.007305e+01   1.769970e+01   3.559187e+05  -2.337179e+04   6.527465e+04   4.774821e+12   8.022459e+13   3.680865e+12   3.626088e+05   3.032263e-18   0.000000e+00   0.000000e+00
      472000   4.719990e-06   7.574137e-02   1.007368e+01   1.770278e+01   1.854441e+05  -3.177229e+05   3.797358e+04   7.051287e+13   4.176020e+13   6.836367e+12   3.698369e+05   3.295879e-18   0.000000e+00   0.000000e+00
      480000   4.799990e-06   7.540472e-02   1.007507e+01   1.770580e+01  -1.531630e+05  -3.445941e+05   1.031794e+04   7.669979e+13  -3.417611e+13   4.007895e+12   3.772406e+05   3.583415e-18   0.000000e+00   0.000000e+00
      488000   4.879990e-06   7.635391e-02   1.007594e+01   1.770871e+01  -3.750115e+05  -8.628316e+04   3.161441e+03   1.905416e+13  -8.375287e+13  -2.248110e+12   3.848226e+05   3.895502e-18   0.000000e+00   0.000000e+00
      496000   4.959990e-06   7.765130e-02   1.007551e+01   1.771140e+01  -3.048166e+05   2.465853e+05   2.014945e+04  -5.548117e+13  -6.770166e+13  -6.960105e+12   3.925856e+05   4.234082e-18   0.000000e+00   0.000000e+00
      504000   5.039990e-06   7.815718e-02   1.007405e+01   1.771379e+01  -3.538269e+02   3.978599e+05   4.618923e+04  -8.948609e+13   8.724135e+11  -6.457323e+12   4.005323e+05   4.601634e-18   0.000000e+00   0.000000e+00
      512000   5.119990e-06   7.738414e-02   1.007257e+01   1.771588e+01   3.111461e+05   2.580772e+05   5.992824e+04  -5.822927e+13   7.079146e+13  -1.131636e+12   4.086650e+05   5.000546e-18   0.000000e+00   0.000000e+00
      520000   5.199990e-06   7.578472e-02   1.007205e+01   1.771775e+01   4.079180e+05  -7.070369e+04   4.981316e+04   1.557576e+13   9.220891e+13   5.090762e+12   4.169862e+05   5.434035e-18   0.000000e+00   0.000000e+00
      528000   5.279990e-06   7.436932e-02   1.007280e+01   1.771946e+01   2.243506e+05  -3.609180e+05   2.129518e+04   8.088660e+13   5.049315e+13   7.911458e+12   4.254979e+05   5.905728e-18   0.000000e+00   0.000000e+00
      536000   5.359990e-06   7.400154e-02   1.007425e+01   1.772104e+01  -1.164762e+05  -4.182030e+05  -8.428312e+03   9.392286e+13  -2.649905e+13   5.535529e+12   4.342021e+05   6.418226e-18   0.000000e+00   0.000000e+00
      544000   5.439990e-06   7.485463e-02   1.007542e+01   1.772246e+01  -3.927244e+05  -2.040031e+05  -2.210219e+04   4.584685e+13  -8.869012e+13  -5.338844e+11   4.431007e+05   6.973485e-18   0.000000e+00   0.000000e+00
      552000   5.519990e-06   7.633747e-02   1.007552e+01   1.772363e+01  -4.272198e+05   1.476537e+05  -1.274000e+04  -3.327926e+13  -9.615137e+13  -6.554377e+12   4.521954e+05   7.574082e-18   0.000000e+00   0.000000e+00
      560000   5.599990e-06   7.748455e-02   1.007445e+01   1.772447e+01  -1.944653e+05   4.183319e+05   1.235158e+04  -9.426350e+13  -4.330292e+13  -8.712703e+12   4.614877e+05   8.223293e-18   0.000000e+00   0.000000e+00
      568000   5.679990e-06   7.754607e-02   1.007283e+01   1.772493e+01   1.673200e+05   4.387943e+05   3.584318e+04  -9.892039e+13   3.842611e+13  -5.492797e+12   4.709789e+05   8.924895e-18   0.000000e+00   0.000000e+00
      576000   5.759990e-06   7.643299e-02   1.007161e+01   1.772504e+01   4.398184e+05   1.895448e+05   4.094295e+04  -4.279276e+13   9.965005e+13   1.234119e+12   4.806701e+05   9.683627e-18   0.000000e+00   0.000000e+00
      584000   5.839990e-06   7.477589e-02   1.007156e+01   1.772487e+01   4.532699e+05  -1.863393e+05   2.179611e+04   4.191914e+13   1.021733e+14   7.373833e+12   4.905619e+05   1.050482e-17   0.000000e+00   0.000000e+00
      592000   5.919990e-06   7.357134e-02   1.007275e+01   1.772447e+01   1.883946e+05  -4.636750e+05  -1.296222e+04   1.044753e+14   4.191712e+13   9.187338e+12   5.006546e+05   1.139305e-17   0.000000e+00   0.000000e+00
      600000   5.999990e-06   7.360477e-02   1.007453e+01   1.772387e+01  -2.051038e+05  -4.657894e+05  -4.517643e+04   1.050415e+14  -4.706595e+13   5.436978e+12   5.109484e+05   1.235189e-17   0.000000e+00   0.000000e+00
      608000   6.079990e-06   7.496136e-02   1.007583e+01   1.772302e+01  -4.879133e+05  -1.748215e+05  -5.727672e+04   3.959020e+13  -1.106532e+14  -1.923582e+12   5.214427e+05   1.338449e-17   0.000000e+00   0.000000e+00
      616000   6.159990e-06   7.691193e-02   1.007581e+01   1.772180e+01  -4.714189e+05   2.431323e+05  -4.267237e+04  -5.442669e+13  -1.064392e+14  -8.546227e+12   5.321372e+05   1.449345e-17   0.000000e+00   0.000000e+00
      624000   6.239990e-06   7.828745e-02   1.007443e+01   1.772012e+01  -1.434356e+05   5.236185e+05  -1.150028e+04  -1.174529e+14  -3.210739e+13  -9.942912e+12   5.430307e+05   1.568165e-17   0.000000e+00   0.000000e+00
      632000   6.319990e-06   7.819130e-02   1.007254e+01   1.771793e+01   3.005953e+05   4.653153e+05   1.323650e+04  -1.042834e+14   6.783171e+13  -4.611936e+12   5.541218e+05   1.695516e-17   0.000000e+00   0.000000e+00
      640000   6.399990e-06   7.665739e-02   1.007150e+01   1.771529e+01   5.599298e+05   7.788643e+04   9.959411e+03  -1.725551e+13   1.255795e+14   4.195594e+12   5.654086e+05   1.832285e-17   0.000000e+00   0.000000e+00
      648000   6.479990e-06   7.479263e-02   1.007222e+01   1.771230e+01   4.261864e+05  -3.879897e+05  -2.508601e+04   8.723717e+13   9.473136e+13   1.026890e+13   5.768883e+05   1.979095e-17   0.000000e+00   0.000000e+00
      656000   6.559990e-06   7.415455e-02   1.007445e+01   1.770903e+01  -4.047679e+04  -5.827044e+05  -7.223152e+04   1.308432e+14  -1.048057e+13   8.831153e+12   5.885578e+05   2.136246e-17   0.000000e+00   0.000000e+00
      664000   6.639990e-06   7.560103e-02   1.007667e+01   1.770547e+01  -5.003600e+05  -3.165965e+05  -9.951167e+04   7.132433e+13  -1.133609e+14   2.254759e+11   6.004132e+05   2.304116e-17   0.000000e+00   0.000000e+00
      672000   6.719990e-06   7.838497e-02   1.007711e+01   1.770146e+01  -5.573684e+05   2.389185e+05  -8.575429e+04  -5.264397e+13  -1.253687e+14  -9.288831e+12   6.124503e+05   2.482574e-17   0.000000e+00   0.000000e+00
      680000   6.799990e-06   8.040427e-02   1.007530e+01   1.769681e+01  -1.100319e+05   6.133243e+05  -4.403511e+04  -1.360062e+14  -2.485024e+13  -1.063962e+13   6.246702e+05   2.673479e-17   0.000000e+00   0.000000e+00
      688000   6.879990e-06   7.994200e-02   1.007289e+01   1.769148e+01   4.735304e+05   4.258405e+05  -1.694963e+04  -9.408501e+13   1.050022e+14  -2.167332e+12   6.370702e+05   2.875216e-17   0.000000e+00   0.000000e+00
      696000   6.959990e-06   7.751437e-02   1.007249e+01   1.768562e+01   6.155818e+05  -2.037510e+05  -3.976791e+04   4.577551e+13   1.355669e+14   8.830438e+12   6.496437e+05   3.090524e-17   0.000000e+00   0.000000e+00
      704000   7.039990e-06   7.593763e-02   1.007507e+01   1.767946e+01   1.022872e+05  -6.467291e+05  -1.001617e+05   1.438258e+14   2.075725e+13   1.073167e+13   6.623848e+05   3.319269e-17   0.000000e+00   0.000000e+00
      712000   7.119990e-06   7.768517e-02   1.007832e+01   1.767304e+01  -5.544947e+05  -3.589257e+05  -1.404309e+05   8.011070e+13  -1.245106e+14   3.551745e+11   6.752872e+05   3.561768e-17   0.000000e+00   0.000000e+00
      720000   7.199990e-06   8.161849e-02   1.007860e+01   1.766612e+01  -5.488639e+05   3.990791e+05  -1.153333e+05  -8.687807e+13  -1.221962e+14  -1.133925e+13   6.883440e+05   3.816911e-17   0.000000e+00   0.000000e+00
      728000   7.279990e-06   8.340863e-02   1.007550e+01   1.765836e+01   2.032835e+05   6.689540e+05  -5.784434e+04  -1.458611e+14   4.393681e+13  -8.509609e+12   7.015480e+05   4.082250e-17   0.000000e+00   0.000000e+00
      736000   7.359990e-06   8.093156e-02   1.007353e+01   1.764976e+01   7.124743e+05  -7.271574e+03  -5.828334e+04   2.463827e+12   1.546121e+14   6.718529e+12   7.148912e+05   4.362451e-17   0.000000e+00   0.000000e+00
      744000   7.439990e-06   7.838276e-02   1.007648e+01   1.764077e+01   1.508911e+05  -6.997407e+05  -1.345676e+05   1.535264e+14   3.046640e+13   1.189575e+13   7.283636e+05   4.657714e-17   0.000000e+00   0.000000e+00
      752000   7.519990e-06   8.112191e-02   1.008069e+01   1.763158e+01  -6.767143e+05  -2.440840e+05  -1.815982e+05   5.425361e+13  -1.495817e+14  -2.516234e+12   7.419550e+05   4.967413e-17   0.000000e+00   0.000000e+00
      760000   7.599990e-06   8.611120e-02   1.007940e+01   1.762168e+01  -3.024630e+05   6.812587e+05  -1.241608e+05  -1.460375e+14  -6.690092e+13  -1.341579e+13   7.556542e+05   5.286450e-17   0.000000e+00   0.000000e+00
      768000   7.679990e-06   8.528317e-02   1.007525e+01   1.761056e+01   6.914276e+05   3.287141e+05  -7.700123e+04  -6.959895e+13   1.475302e+14   1.383480e+12   7.694506e+05   5.613832e-17   0.000000e+00   0.000000e+00
      776000   7.759990e-06   8.127960e-02   1.007760e+01   1.759880e+01   2.933661e+05  -7.083351e+05  -1.606356e+05   1.531295e+14   6.014526e+13   1.274773e+13   7.833301e+05   5.953201e-17   0.000000e+00   0.000000e+00
      784000   7.839990e-06   8.459636e-02   1.008298e+01   1.758680e+01  -7.467569e+05  -1.740507e+05  -2.184269e+05   3.866263e+13  -1.624067e+14  -4.044673e+12   7.972765e+05   6.316217e-17   0.000000e+00   0.000000e+00
      792000   7.919990e-06   9.008223e-02   1.008001e+01   1.757392e+01   4.102895e+02   7.999437e+05  -1.352358e+05  -1.683816e+14  -1.569204e+12  -1.190014e+13   8.112946e+05   6.683180e-17   0.000000e+00   0.000000e+00
      800000   7.999990e-06   8.622885e-02   1.007689e+01   1.755967e+01   7.823843e+05  -2.266061e+05  -1.332850e+05   4.930034e+13   1.629626e+14   1.014813e+13   8.253729e+05   7.061310e-17   0.000000e+00   0.000000e+00
      808000   8.079990e-06   8.532992e-02   1.008361e+01   1.754530e+01  -5.051228e+05  -6.230102e+05  -2.479171e+05   1.326518e+14  -1.098355e+14   4.543365e+12   8.394960e+05   7.453373e-17   0.000000e+00   0.000000e+00
      816000   8.159990e-06   9.305657e-02   1.008330e+01   1.753047e+01  -3.044622e+05   7.756213e+05  -1.855533e+05  -1.602719e+14  -6.592323e+13  -1.421205e+13   8.536484e+05   7.850604e-17   0.000000e+00   0.000000e+00
      824000   8.239990e-06   8.975893e-02   1.007848e+01   1.751389e+01   8.395686e+05  -1.556122e+05  -1.549704e+05   3.396330e+13   1.717138e+14   9.591814e+12   8.678171e+05   8.246550e-17   0.000000e+00   0.000000e+00
      832000   8.319990e-06   8.909657e-02   1.008637e+01   1.749724e+01  -6.458659e+05  -5.310316e+05  -2.806496e+05   1.115444e+14  -1.372628e+14   1.907340e+12   8.819872e+05   8.672105e-17   0.000000e+00   0.000000e+00
      840000   8.399990e-06   9.710243e-02   1.008344e+01   1.748002e+01   1.043763e+05   8.711782e+05  -1.824257e+05  -1.768451e+14   1.915283e+13  -1.146015e+13   8.961724e+05   9.092212e-17   0.000000e+00   0.000000e+00
      848000   8.479990e-06   9.056755e-02   1.008230e+01   1.746108e+01   4.934760e+05  -7.288473e+05  -2.323766e+05   1.504511e+14   9.695689e+13   1.400702e+13   9.103492e+05   9.518017e-17   0.000000e+00   0.000000e+00
      856000   8.559990e-06   9.729954e-02   1.008942e+01   1.744255e+01  -7.927802e+05   3.804062e+05  -2.854614e+05  -7.483507e+13  -1.641361e+14  -1.204195e+13   9.244985e+05   9.954335e-17   0.000000e+00   0.000000e+00
      864000   8.639990e-06   9.702371e-02   1.008179e+01   1.742199e+01   9.175050e+05   3.462986e+04  -1.948022e+05  -4.953199e+12   1.813910e+14   7.223562e+12   9.385961e+05   1.035237e-16   0.000000e+00   0.000000e+00
      872000   8.719990e-06   9.673625e-02   1.009142e+01   1.740107e+01  -8.321063e+05  -3.116137e+05  -3.434536e+05   6.458413e+13  -1.706118e+14  -2.645953e+12   9.526093e+05   1.076311e-16   0.000000e+00   0.000000e+00
      880000   8.799990e-06   1.024518e-01   1.008420e+01   1.737834e+01   7.891004e+05   5.124297e+05  -2.209348e+05  -9.909074e+13   1.530318e+14  -4.837840e+11   9.664760e+05   1.106257e-16   0.000000e+00   0.000000e+00
      888000   8.879990e-06   9.868416e-02   1.009281e+01   1.735393e+01  -7.067601e+05  -5.581077e+05  -3.869360e+05   1.122514e+14  -1.439103e+14   1.678723e+12   9.801600e+05   1.140390e-16   0.000000e+00   0.000000e+00
      896000   8.959990e-06   1.061682e-01   1.008626e+01   1.732822e+01   7.832189e+05   5.557964e+05  -2.550159e+05  -1.055937e+14   1.488910e+14  -1.110147e+12   9.936673e+05   1.172262e-16   0.000000e+00   0.000000e+00
      904000   9.039990e-06   1.031707e-01   1.009573e+01   1.730131e+01  -8.326193e+05  -3.825818e+05  -4.176837e+05   7.666978e+13  -1.660069e+14  -1.579952e+12   1.007017e+06   1.208284e-16   0.000000e+00   0.000000e+00
      912000   9.119990e-06   1.077036e-01   1.008747e+01   1.727324e+01   9.727321e+05   1.160737e+05  -2.849181e+05  -1.955164e+13   1.818865e+14   6.172647e+12   1.020225e+06   1.242563e-16   0.000000e+00   0.000000e+00
      920000   9.199990e-06   1.108944e-01   1.009839e+01   1.724498e+01  -8.785086e+05   3.541237e+05  -4.129439e+05  -6.407040e+13  -1.713949e+14  -1.149000e+13   1.033297e+06   1.278800e-16   0.000000e+00   0.000000e+00
      928000   9.279990e-06   1.069033e-01   1.009189e+01   1.721460e+01   5.807227e+05  -7.867246e+05  -3.720239e+05   1.503341e+14   1.038431e+14   1.416744e+13   1.046220e+06   1.309864e-16   0.000000e+00   0.000000e+00
      936000   9.359990e-06   1.184631e-01   1.009531e+01   1.718475e+01   1.705164e+05   9.889639e+05  -3.380983e+05  -1.807443e+14   2.763663e+13  -1.130980e+13   1.058979e+06   1.341035e-16   0.000000e+00   0.000000e+00
      944000   9.439990e-06   1.126532e-01   1.010204e+01   1.715297e+01  -8.298087e+05  -4.821354e+05  -4.767104e+05   9.184332e+13  -1.585090e+14  -2.626178e+11   1.071583e+06   1.373161e-16   0.000000e+00   0.000000e+00
      952000   9.519990e-06   1.148739e-01   1.009391e+01   1.712019e+01   8.992584e+05  -4.767786e+05  -3.729713e+05   8.971512e+13   1.588868e+14   1.230333e+13   1.084016e+06   1.400389e-16   0.000000e+00   0.000000e+00
      960000   9.599990e-06   1.253343e-01   1.009931e+01   1.708756e+01   1.599256e+05   1.018329e+06  -3.731366e+05  -1.805361e+14   2.455771e+13  -1.124992e+13   1.096267e+06   1.426979e-16   0.000000e+00   0.000000e+00
      968000   9.679990e-06   1.214603e-01   1.010709e+01   1.705316e+01  -9.824307e+05  -8.983912e+04  -5.051598e+05   1.930898e+13  -1.812092e+14  -5.983274e+12   1.108344e+06   1.455209e-16   0.000000e+00   0.000000e+00
      976000   9.759990e-06   1.187415e-01   1.010170e+01   1.701739e+01   2.333509e+05  -9.886404e+05  -4.723046e+05   1.777891e+14   3.550500e+13   1.282064e+13   1.120238e+06   1.477153e-16   0.000000e+00   0.000000e+00
      984000   9.839990e-06   1.276534e-01   1.009844e+01   1.698153e+01   1.051886e+06   1.641251e+05  -3.845575e+05  -2.565541e+13   1.792650e+14   5.479268e+12   1.131939e+06   1.498595e-16   0.000000e+00   0.000000e+00
      992000   9.919990e-06   1.352240e-01   1.010541e+01   1.694507e+01   9.021918e+04   1.058470e+06  -4.230612e+05  -1.799009e+14   1.101777e+13  -1.156980e+13   1.143450e+06   1.519695e-16   0.000000e+00   0.000000e+00
     1000000   9.999990e-06   1.341205e-01   1.011289e+01   1.690711e+01  -9.308813e+05   4.349586e+05  -5.270227e+05  -7.106809e+13  -1.649963e+14  -1.126067e+13   1.154765e+06   1.539550e-16   0.000000e+00   0.000000e+00
     1008000   1.007999e-05   1.303725e-01   1.011368e+01   1.686776e+01  -7.937553e+05  -6.353672e+05  -5.705535e+05   1.110351e+14  -1.406595e+14   1.602926e+12   1.165878e+06   1.555534e-16   0.000000e+00   0.000000e+00
     1016000   1.015999e-05   1.305039e-01   1.011016e+01   1.682757e+01   6.629659e+04  -1.041919e+06  -5.429975e+05   1.778951e+14   5.113376e+12   1.132253e+13   1.176791e+06   1.569226e-16   0.000000e+00   0.000000e+00
     1024000   1.023999e-05   1.350497e-01   1.010727e+01   1.678675e+01   8.100598e+05  -7.137082e+05  -4.945491e+05   1.214786e+14   1.287889e+14   1.248049e+13   1.187500e+06   1.582760e-16   0.000000e+00   0.000000e+00
     1032000   1.031999e-05   1.413860e-01   1.010706e+01   1.674525e+01   1.099731e+06  -1.026873e+05  -4.639827e+05   2.003065e+13   1.752171e+14   8.026366e+12   1.198012e+06   1.593896e-16   0.000000e+00   0.000000e+00
     1040000   1.039999e-05   1.473362e-01   1.010905e+01   1.670288e+01   1.034043e+06   4.242720e+05  -4.591126e+05  -6.552250e+13   1.627563e+14   2.160618e+12   1.208320e+06   1.601713e-16   0.000000e+00   0.000000e+00
     1048000   1.047999e-05   1.521415e-01   1.011189e+01   1.665960e+01   8.352159e+05   7.521811e+05  -4.703311e+05  -1.173563e+14   1.291793e+14  -2.458462e+12   1.218431e+06   1.611616e-16   0.000000e+00   0.000000e+00
     1056000   1.055999e-05   1.559878e-01   1.011461e+01   1.661534e+01   6.643474e+05   9.115603e+05  -4.863366e+05  -1.412462e+14   1.005409e+14  -5.116464e+12   1.228342e+06   1.617473e-16   0.000000e+00   0.000000e+00
     1064000   1.063999e-05   1.591905e-01   1.011670e+01   1.657009e+01   5.986988e+05   9.610229e+05  -5.007608e+05  -1.474507e+14   8.910508e+13  -5.878484e+12   1.238049e+06   1.622979e-16   0.000000e+00   0.000000e+00
     1072000   1.071999e-05   1.619194e-01   1.011802e+01   1.652389e+01   6.598932e+05   9.281201e+05  -5.094526e+05  -1.406549e+14   9.751105e+13  -5.120032e+12   1.247561e+06   1.625965e-16   0.000000e+00   0.000000e+00
     1080000   1.079999e-05   1.639892e-01   1.011862e+01   1.647676e+01   8.319588e+05   7.886479e+05  -5.153816e+05  -1.177214e+14   1.228286e+14  -2.639474e+12   1.256877e+06   1.629724e-16   0.000000e+00   0.000000e+00
     1088000   1.087999e-05   1.649992e-01   1.011896e+01   1.642871e+01   1.044419e+06   4.860850e+05  -5.250493e+05  -7.045367e+13   1.535533e+14   1.469074e+12   1.266004e+06   1.630201e-16   0.000000e+00   0.000000e+00
     1096000   1.095999e-05   1.646272e-01   1.012000e+01   1.637976e+01   1.150302e+06  -2.263592e+04  -5.493258e+05   6.689296e+12   1.675534e+14   6.590554e+12   1.274937e+06   1.631155e-16   0.000000e+00   0.000000e+00
     1104000   1.103999e-05   1.634134e-01   1.012322e+01   1.633000e+01   9.337412e+05  -6.481938e+05  -5.965063e+05   9.957559e+13   1.331403e+14   1.072838e+13   1.283685e+06   1.629800e-16   0.000000e+00   0.000000e+00
     1112000   1.111999e-05   1.634480e-01   1.012963e+01   1.627960e+01   2.552485e+05  -1.080028e+06  -6.620323e+05   1.620343e+14   3.162794e+13   1.046218e+13   1.292245e+06   1.628293e-16   0.000000e+00   0.000000e+00
     1120000   1.119999e-05   1.679091e-01   1.013779e+01   1.622872e+01  -6.598518e+05  -8.603622e+05  -7.183328e+05   1.285403e+14  -1.020598e+14   3.788379e+12   1.300627e+06   1.624670e-16   0.000000e+00   0.000000e+00
     1128000   1.127999e-05   1.777723e-01   1.014271e+01   1.617716e+01  -1.086306e+06   1.272448e+05  -7.188561e+05  -1.477219e+13  -1.621037e+14  -6.740065e+12   1.308819e+06   1.620056e-16   0.000000e+00   0.000000e+00
     1136000   1.135999e-05   1.876291e-01   1.013962e+01   1.612444e+01  -3.630114e+05   1.084940e+06  -6.520453e+05  -1.507485e+14  -5.690447e+13  -1.115780e+13   1.316828e+06   1.611916e-16   0.000000e+00   0.000000e+00
     1144000   1.143999e-05   1.884882e-01   1.013251e+01   1.607026e+01   9.141078e+05   7.484044e+05  -5.991977e+05  -1.018698e+14   1.235941e+14  -1.465557e+12   1.324666e+06   1.604118e-16   0.000000e+00   0.000000e+00
     1152000   1.151999e-05   1.814177e-01   1.013427e+01   1.601519e+01   9.315540e+05  -6.862534e+05  -6.605952e+05   9.875214e+13   1.240854e+14   9.970498e+12   1.332337e+06   1.597039e-16   0.000000e+00   0.000000e+00
     1160000   1.159999e-05   1.827677e-01   1.014724e+01   1.596018e+01  -5.906756e+05  -9.274814e+05  -7.655308e+05   1.311287e+14  -8.729138e+13   4.256276e+12   1.339835e+06   1.588459e-16   0.000000e+00   0.000000e+00
     1168000   1.167999e-05   1.977541e-01   1.015149e+01   1.590481e+01  -8.921894e+05   6.901262e+05  -7.365940e+05  -9.047884e+13  -1.270922e+14  -9.815145e+12   1.347163e+06   1.580177e-16   0.000000e+00   0.000000e+00
     1176000   1.175999e-05   2.022506e-01   1.014073e+01   1.584740e+01   8.364677e+05   8.480278e+05  -6.444651e+05  -1.108077e+14   1.076574e+14  -2.528256e+12   1.354313e+06   1.560376e-16   0.000000e+00   0.000000e+00
     1184000   1.183999e-05   1.920415e-01   1.014428e+01   1.578877e+01   6.264248e+05  -9.617478e+05  -7.319498e+05   1.314480e+14   7.795146e+13   9.752214e+12   1.361293e+06   1.548455e-16   0.000000e+00   0.000000e+00
     1192000   1.191999e-05   2.013655e-01   1.015932e+01   1.573071e+01  -1.091956e+06  -1.518392e+05  -8.101096e+05   2.351821e+13  -1.499283e+14  -3.883813e+12   1.368101e+06   1.537081e-16   0.000000e+00   0.000000e+00
     1200000   1.199999e-05   2.143659e-01   1.014990e+01   1.567118e+01   4.194999e+05   1.110941e+06  -6.926473e+05  -1.415162e+14   4.973202e+13  -6.268803e+12   1.374748e+06   1.517885e-16   0.000000e+00   0.000000e+00
     1208000   1.207999e-05   2.022728e-01   1.014962e+01   1.560971e+01   7.239356e+05  -9.008929e+05  -7.563886e+05   1.195986e+14   8.797460e+13   9.392854e+12   1.381237e+06   1.504527e-16   0.000000e+00   0.000000e+00
     1216000   1.215999e-05   2.134767e-01   1.016599e+01   1.554936e+01  -1.105937e+06   1.150198e+05  -8.300868e+05  -1.124028e+13  -1.470745e+14  -5.666059e+12   1.387577e+06   1.494895e-16   0.000000e+00   0.000000e+00
     1224000   1.223999e-05   2.219239e-01   1.015202e+01   1.548711e+01   9.404553e+05   7.484438e+05  -7.056806e+05  -9.129024e+13   1.139620e+14  -1.096068e+12   1.393775e+06   1.475959e-16   0.000000e+00   0.000000e+00
     1232000   1.231999e-05   2.106740e-01   1.016348e+01   1.542397e+01  -2.366132e+05  -1.094479e+06  -8.400434e+05   1.403021e+14  -3.526263e+13   6.174976e+12   1.399837e+06   1.463957e-16   0.000000e+00   0.000000e+00
     1240000   1.239999e-05   2.319382e-01   1.016613e+01   1.536159e+01  -2.986689e+05   1.132700e+06  -7.771450e+05  -1.369810e+14  -4.206590e+13  -8.932966e+12   1.405762e+06   1.451504e-16   0.000000e+00   0.000000e+00
     1248000   1.247999e-05   2.195432e-01   1.015912e+01   1.529643e+01   8.270777e+05  -8.253821e+05  -7.919532e+05   1.043925e+14   9.616491e+13   8.543107e+12   1.411560e+06   1.435489e-16   0.000000e+00   0.000000e+00
     1256000   1.255999e-05   2.343007e-01   1.017614e+01   1.523285e+01  -9.841077e+05   5.654582e+05  -8.487238e+05  -6.531268e+13  -1.248517e+14  -7.685423e+12   1.417231e+06   1.425163e-16   0.000000e+00   0.000000e+00
     1264000   1.263999e-05   2.311231e-01   1.016046e+01   1.516661e+01   1.171046e+06  -2.425831e+05  -7.707836e+05   3.232284e+13   1.357498e+14   6.131194e+12   1.422780e+06   1.407325e-16   0.000000e+00   0.000000e+00
     1272000   1.271999e-05   2.375696e-01   1.018175e+01   1.510147e+01  -1.114187e+06   1.223584e+05  -8.850999e+05  -1.125164e+13  -1.380607e+14  -5.139078e+12   1.428211e+06   1.396532e-16   0.000000e+00   0.000000e+00
     1280000   1.279999e-05   2.400364e-01   1.016435e+01   1.503419e+01   1.204001e+06   6.434863e+02  -7.780534e+05   3.082854e+12   1.370311e+14   4.642165e+12   1.433522e+06   1.377269e-16   0.000000e+00   0.000000e+00
     1288000   1.287999e-05   2.442274e-01   1.018634e+01   1.496767e+01  -1.117922e+06   9.240648e+04  -9.009047e+05  -7.522837e+12  -1.358456e+14  -4.804516e+12   1.438721e+06   1.367002e-16   0.000000e+00   0.000000e+00
     1296000   1.295999e-05   2.453915e-01   1.016869e+01   1.489909e+01   1.187844e+06  -1.797400e+05  -8.008148e+05   2.389407e+13   1.324787e+14   5.480890e+12   1.443809e+06   1.348302e-16   0.000000e+00   0.000000e+00
     1304000   1.303999e-05   2.544839e-01   1.019022e+01   1.483161e+01  -1.033561e+06   4.725096e+05  -8.985987e+05  -5.088815e+13  -1.235284e+14  -6.622872e+12   1.448790e+06   1.338262e-16   0.000000e+00   0.000000e+00
     1312000   1.311999e-05   2.475947e-01   1.017511e+01   1.476156e+01   9.425054e+05  -7.143239e+05  -8.453276e+05   8.408408e+13   1.020220e+14   7.331667e+12   1.453669e+06   1.320157e-16   0.000000e+00   0.000000e+00
     1320000   1.319999e-05   2.666961e-01   1.019022e+01   1.469321e+01  -5.131149e+05   1.054414e+06  -8.671732e+05  -1.154176e+14  -6.243394e+13  -7.820261e+12   1.458446e+06   1.309745e-16   0.000000e+00   0.000000e+00
     1328000   1.327999e-05   2.506002e-01   1.018716e+01   1.462202e+01   8.077916e+04  -1.139393e+06  -9.143386e+05   1.299675e+14   4.010296e+12   6.299519e+12   1.463132e+06   1.292774e-16   0.000000e+00   0.000000e+00
     1336000   1.335999e-05   2.737254e-01   1.018449e+01   1.455221e+01   6.214833e+05   1.042443e+06  -8.253919e+05  -1.119071e+14   6.411745e+13  -3.484499e+12   1.467720e+06   1.277791e-16   0.000000e+00   0.000000e+00
     1344000   1.343999e-05   2.636357e-01   1.020172e+01   1.448088e+01  -1.022068e+06  -4.506778e+05  -9.590034e+05   5.241931e+13  -1.168496e+14  -1.124748e+12   1.472217e+06   1.266831e-16   0.000000e+00   0.000000e+00
     1352000   1.351999e-05   2.684706e-01   1.018388e+01   1.440865e+01   1.163722e+06  -3.056466e+05  -8.560045e+05   3.609971e+13   1.214373e+14   5.528373e+12   1.476622e+06   1.249396e-16   0.000000e+00   0.000000e+00
     1360000   1.359999e-05   2.846074e-01   1.020163e+01   1.433759e+01  -5.097774e+05   1.060155e+06  -8.996590e+05  -1.108392e+14  -5.935327e+13  -7.312733e+12   1.480941e+06   1.239585e-16   0.000000e+00   0.000000e+00
     1368000   1.367999e-05   2.682759e-01   1.020269e+01   1.426397e+01  -3.788328e+05  -1.064155e+06  -9.642756e+05   1.163084e+14  -4.519708e+13   4.023109e+12   1.485182e+06   1.225085e-16   0.000000e+00   0.000000e+00
     1376000   1.375999e-05   2.849301e-01   1.019028e+01   1.419101e+01   1.173458e+06   3.333223e+05  -8.544183e+05  -3.220343e+13   1.194450e+14   2.190068e+12   1.489341e+06   1.210011e-16   0.000000e+00   0.000000e+00
     1384000   1.383999e-05   2.931245e-01   1.021148e+01   1.411818e+01  -8.158884e+05   8.248276e+05  -9.403635e+05  -8.330993e+13  -9.005362e+13  -6.867646e+12   1.493418e+06   1.199825e-16   0.000000e+00   0.000000e+00
     1392000   1.391999e-05   2.781767e-01   1.020842e+01   1.404294e+01  -2.542460e+05  -1.103731e+06  -9.794792e+05   1.174872e+14  -3.111457e+13   4.414153e+12   1.497412e+06   1.181765e-16   0.000000e+00   0.000000e+00
     1400000   1.399999e-05   2.943950e-01   1.019660e+01   1.396835e+01   1.199284e+06   2.100217e+05  -8.783952e+05  -1.864441e+13   1.189758e+14   2.826102e+12   1.501323e+06   1.165456e-16   0.000000e+00   0.000000e+00
     1408000   1.407999e-05   3.062054e-01   1.021566e+01   1.389399e+01  -5.181192e+05   1.056621e+06  -9.384035e+05  -1.048234e+14  -5.729560e+13  -6.790128e+12   1.505157e+06   1.155753e-16   0.000000e+00   0.000000e+00
     1416000   1.415999e-05   2.915815e-01   1.022069e+01   1.381747e+01  -7.884953e+05  -7.924478e+05  -1.013478e+06   8.313794e+13  -8.446338e+13   1.222004e+12   1.508919e+06   1.139688e-16   0.000000e+00   0.000000e+00
     1424000   1.423999e-05   2.968448e-01   1.020505e+01   1.374073e+01   1.019406e+06  -6.170823e+05  -9.316602e+05   6.470523e+13   9.780374e+13   5.871342e+12   1.512604e+06   1.124009e-16   0.000000e+00   0.000000e+00
     1432000   1.431999e-05   3.174433e-01   1.021208e+01   1.366491e+01   5.461480e+05   1.085434e+06  -9.069019e+05  -1.049937e+14   5.013909e+13  -3.368474e+12   1.516218e+06   1.109898e-16   0.000000e+00   0.000000e+00
     1440000   1.439999e-05   3.146601e-01   1.023054e+01   1.358786e+01  -1.046156e+06   4.506304e+05  -1.006067e+06  -4.150857e+13  -1.078028e+14  -5.256634e+12   1.519763e+06   1.100538e-16   0.000000e+00   0.000000e+00
     1448000   1.447999e-05   3.028338e-01   1.022601e+01   1.350921e+01  -3.621295e+05  -1.065938e+06  -1.026108e+06   1.072073e+14  -3.998281e+13   3.571955e+12   1.523240e+06   1.083486e-16   0.000000e+00   0.000000e+00
     1456000   1.455999e-05   3.128487e-01   1.021318e+01   1.343085e+01   1.115726e+06  -4.364105e+05  -9.462342e+05   4.514196e+13   1.039530e+14   5.147963e+12   1.526649e+06   1.068884e-16   0.000000e+00   0.000000e+00
     1464000   1.463999e-05   3.317206e-01   1.022049e+01   1.335306e+01   6.323578e+05   1.039180e+06  -9.279607e+05  -9.712156e+13   5.677399e+13  -2.741309e+12   1.529994e+06   1.056294e-16   0.000000e+00   0.000000e+00
     1472000   1.471999e-05   3.327773e-01   1.023830e+01   1.327435e+01  -8.441422e+05   7.883004e+05  -1.008440e+06  -7.240685e+13  -8.502899e+13  -5.981315e+12   1.533279e+06   1.047856e-16   0.000000e+00   0.000000e+00
     1480000   1.479999e-05   3.212862e-01   1.024138e+01   1.319419e+01  -8.992642e+05  -6.547944e+05  -1.059913e+06   6.498868e+13  -8.974323e+13   1.873748e+11   1.536505e+06   1.032837e-16   0.000000e+00   0.000000e+00
     1488000   1.487999e-05   3.204326e-01   1.022985e+01   1.311362e+01   4.204269e+05  -1.074913e+06  -1.019010e+06   1.038093e+14   3.519831e+13   5.582543e+12   1.539668e+06   1.017584e-16   0.000000e+00   0.000000e+00
     1496000   1.495999e-05   3.354163e-01   1.022379e+01   1.303352e+01   1.210648e+06  -9.070615e+03  -9.562411e+05   3.672478e+12   1.087225e+14   3.494343e+12   1.542772e+06   1.004713e-16   0.000000e+00   0.000000e+00
     1504000   1.503999e-05   3.508259e-01   1.023325e+01   1.295350e+01   5.551047e+05   1.080062e+06  -9.564981e+05  -9.702921e+13   4.733927e+13  -2.978232e+12   1.545821e+06   9.932113e-17   0.000000e+00   0.000000e+00
     1512000   1.511999e-05   3.533586e-01   1.024885e+01   1.287269e+01  -6.520756e+05   9.659585e+05  -1.020074e+06  -8.579931e+13  -6.412445e+13  -5.988796e+12   1.548815e+06   9.837954e-17   0.000000e+00   0.000000e+00
     1520000   1.519999e-05   3.455548e-01   1.025646e+01   1.279074e+01  -1.111644e+06  -9.354309e+04  -1.078628e+06   1.144568e+13  -1.057236e+14  -2.732146e+12   1.551754e+06   9.709444e-17   0.000000e+00   0.000000e+00
     1528000   1.527999e-05   3.392863e-01   1.025225e+01   1.270808e+01  -4.940204e+05  -9.995147e+05  -1.083426e+06   9.321725e+13  -4.900979e+13   2.606362e+12   1.554637e+06   9.558034e-17   0.000000e+00   0.000000e+00
     1536000   1.535999e-05   3.427280e-01   1.024324e+01   1.262527e+01   5.431996e+05  -1.020926e+06  -1.043238e+06   9.430492e+13   4.447823e+13   5.471806e+12   1.557466e+06   9.422963e-17   0.000000e+00   0.000000e+00
     1544000   1.543999e-05   3.548487e-01   1.023870e+01   1.254260e+01   1.169400e+06  -2.702643e+05  -9.969072e+05   2.681989e+13   9.991161e+13   4.266641e+12   1.560244e+06   9.298881e-17   0.000000e+00   0.000000e+00
     1552000   1.551999e-05   3.689187e-01   1.024266e+01   1.245990e+01   1.037282e+06   6.395738e+05  -9.787099e+05  -5.360801e+13   8.756268e+13   2.970690e+11   1.562972e+06   9.175850e-17   0.000000e+00   0.000000e+00
     1560000   1.559999e-05   3.786444e-01   1.025301e+01   1.237682e+01   3.485832e+05   1.154398e+06  -9.985570e+05  -9.828841e+13   2.655897e+13  -3.711225e+12   1.565650e+06   9.066355e-17   0.000000e+00   0.000000e+00
     1568000   1.567999e-05   3.817537e-01   1.026477e+01   1.229308e+01  -4.489396e+05   1.082558e+06  -1.042123e+06  -9.132600e+13  -4.318410e+13  -5.615250e+12   1.568279e+06   8.971566e-17   0.000000e+00   0.000000e+00
     1576000   1.575999e-05   3.797286e-01   1.027362e+01   1.220863e+01  -9.825323e+05   5.644830e+05  -1.087931e+06  -4.584912e+13  -8.916255e+13  -4.948178e+12   1.570861e+06   8.860253e-17   0.000000e+00   0.000000e+00
     1584000   1.583999e-05   3.758014e-01   1.027772e+01   1.212350e+01  -1.100586e+06  -1.098075e+05  -1.119025e+06   1.230250e+13  -9.864892e+13  -2.507953e+12   1.573393e+06   8.723600e-17   0.000000e+00   0.000000e+00
     1592000   1.591999e-05   3.729442e-01   1.027764e+01   1.203793e+01  -8.581581e+05  -6.847846e+05  -1.130497e+06   6.112729e+13  -7.726732e+13   3.162579e+11   1.575877e+06   8.589800e-17   0.000000e+00   0.000000e+00
     1600000   1.599999e-05   3.727495e-01   1.027506e+01   1.195204e+01  -4.073305e+05  -1.028839e+06  -1.125459e+06   8.968359e+13  -3.862176e+13   2.762680e+12   1.578318e+06   8.470434e-17   0.000000e+00   0.000000e+00
     1608000   1.607999e-05   3.755382e-01   1.027184e+01   1.186589e+01   9.383599e+04  -1.120851e+06  -1.110651e+06   9.663344e+13   3.620106e+12   4.426583e+12   1.580714e+06   8.343296e-17   0.000000e+00   0.000000e+00
     1616000   1.615999e-05   3.807218e-01   1.026930e+01   1.177954e+01   5.322698e+05  -1.015454e+06  -1.091625e+06   8.713319e+13   4.003704e+13   5.157787e+12   1.583068e+06   8.235135e-17   0.000000e+00   0.000000e+00
     1624000   1.623999e-05   3.874058e-01   1.026809e+01   1.169296e+01   8.572717e+05  -7.902776e+05  -1.074235e+06   6.792253e+13   6.656519e+13   5.150062e+12   1.585381e+06   8.124124e-17   0.000000e+00   0.000000e+00
     1632000   1.631999e-05   3.947231e-01   1.026835e+01   1.160603e+01   1.059498e+06  -5.191490e+05  -1.062345e+06   4.528855e+13   8.255703e+13   4.739371e+12   1.587649e+06   7.984146e-17   0.000000e+00   0.000000e+00
     1640000   1.639999e-05   4.019952e-01   1.026986e+01   1.151870e+01   1.162131e+06  -2.590091e+05  -1.053592e+06   2.388275e+13   9.023795e+13   4.076660e+12   1.589871e+06   7.863046e-17   0.000000e+00   0.000000e+00
     1648000   1.647999e-05   4.088747e-01   1.027222e+01   1.143101e+01   1.197161e+06  -3.813163e+04  -1.048800e+06   5.961332e+12   9.234611e+13   3.365387e+12   1.592052e+06   7.744434e-17   0.000000e+00   0.000000e+00
     1656000   1.655999e-05   4.151929e-01   1.027508e+01   1.134294e+01   1.195384e+06   1.290261e+05  -1.046830e+06  -7.406697e+12   9.144987e+13   2.733319e+12   1.594191e+06   7.630092e-17   0.000000e+00   0.000000e+00
     1664000   1.663999e-05   4.209020e-01   1.027813e+01   1.125449e+01   1.180929e+06   2.386823e+05  -1.047176e+06  -1.597737e+13   8.952218e+13   2.307610e+12   1.596289e+06   7.513461e-17   0.000000e+00   0.000000e+00
     1672000   1.671999e-05   4.259444e-01   1.028119e+01   1.116566e+01   1.169597e+06   2.894947e+05  -1.050214e+06  -1.982101e+13   8.788551e+13   2.074415e+12   1.598347e+06   7.392853e-17   0.000000e+00   0.000000e+00
     1680000   1.679999e-05   4.303324e-01   1.028414e+01   1.107642e+01   1.169778e+06   2.843588e+05  -1.054478e+06  -1.920625e+13   8.713759e+13   2.116335e+12   1.600364e+06   7.270321e-17   0.000000e+00   0.000000e+00
     1688000   1.687999e-05   4.341042e-01   1.028703e+01   1.098676e+01   1.181131e+06   2.249605e+05  -1.059159e+06  -1.439242e+13   8.726674e+13   2.411298e+12   1.602341e+06   7.162151e-17   0.000000e+00   0.000000e+00
     1696000   1.695999e-05   4.372389e-01   1.028996e+01   1.089674e+01   1.193831e+06   1.105823e+05  -1.065952e+06  -5.432050e+12   8.744061e+13   2.915324e+12   1.604281e+06   7.046915e-17   0.000000e+00   0.000000e+00
     1704000   1.703999e-05   4.396967e-01   1.029313e+01   1.080637e+01   1.190699e+06  -5.925953e+04  -1.076359e+06   7.555381e+12   8.646283e+13   3.527619e+12   1.606184e+06   6.936306e-17   0.000000e+00   0.000000e+00
     1712000   1.711999e-05   4.414899e-01   1.029686e+01   1.071563e+01   1.147819e+06  -2.796733e+05  -1.090923e+06   2.418683e+13   8.245429e+13   4.242114e+12   1.608048e+06   6.820069e-17   0.000000e+00   0.000000e+00
     1720000   1.719999e-05   4.428290e-01   1.030159e+01   1.062453e+01   1.035378e+06  -5.355439e+05  -1.110352e+06   4.321783e+13   7.323299e+13   4.912618e+12   1.609874e+06   6.700067e-17   0.000000e+00   0.000000e+00
     1728000   1.727999e-05   4.441362e-01   1.030770e+01   1.053313e+01   8.240091e+05  -7.939788e+05  -1.134929e+06   6.213646e+13   5.684084e+13   5.286138e+12   1.611663e+06   6.589807e-17   0.000000e+00   0.000000e+00
     1736000   1.735999e-05   4.461640e-01   1.031543e+01   1.044147e+01   4.986251e+05  -9.998705e+05  -1.163935e+06   7.692453e+13   3.227822e+13   5.165761e+12   1.613416e+06   6.480034e-17   0.000000e+00   0.000000e+00
     1744000   1.743999e-05   4.498487e-01   1.032473e+01   1.034962e+01   6.937790e+04  -1.084706e+06  -1.194678e+06   8.264628e+13   4.682421e+11   4.317001e+12   1.615134e+06   6.366783e-17   0.000000e+00   0.000000e+00
     1752000   1.751999e-05   4.562123e-01   1.033488e+01   1.025759e+01  -4.102338e+05  -9.763116e+05  -1.221725e+06   7.426675e+13  -3.450288e+13   2.579716e+12   1.616814e+06   6.252798e-17   0.000000e+00   0.000000e+00
     1760000   1.759999e-05   4.659476e-01   1.034440e+01   1.016533e+01  -8.311664e+05  -6.315181e+05  -1.236832e+06   4.895533e+13  -6.473037e+13   9.904934e+10   1.618458e+06   6.147914e-17   0.000000e+00   0.000000e+00
     1768000   1.767999e-05   4.788038e-01   1.035122e+01   1.007279e+01  -1.048423e+06  -7.746424e+04  -1.232649e+06   8.989993e+12  -7.990818e+13  -2.677177e+12   1.620066e+06   6.054128e-17   0.000000e+00   0.000000e+00
     1776000   1.775999e-05   4.930613e-01   1.035342e+01   9.979860e+00  -9.289505e+05   5.581876e+05  -1.206316e+06  -3.610805e+13  -7.080108e+13  -5.007902e+12   1.621641e+06   5.942535e-17   0.000000e+00   0.000000e+00
     1784000   1.783999e-05   5.055259e-01   1.035029e+01   9.886233e+00  -4.325357e+05   1.047463e+06  -1.162088e+06  -7.018621e+13  -3.514252e+13  -5.605765e+12   1.623180e+06   5.813789e-17   0.000000e+00   0.000000e+00
     1792000   1.791999e-05   5.124762e-01   1.034361e+01   9.791759e+00   3.091703e+05   1.136440e+06  -1.119159e+06  -7.569982e+13   1.688302e+13  -3.822426e+12   1.624684e+06   5.671802e-17   0.000000e+00   0.000000e+00
     1800000   1.799999e-05   5.119253e-01   1.033799e+01   9.696431e+00   9.703425e+05   6.971847e+05  -1.103059e+06  -4.468741e+13   6.231320e+13   2.078255e+10   1.626152e+06   5.540526e-17   0.000000e+00   0.000000e+00
     1808000   1.807999e-05   5.059087e-01   1.033909e+01   9.600689e+00   1.166236e+06  -1.180754e+05  -1.129156e+06   1.145809e+13   7.496019e+13   3.944737e+12   1.627587e+06   5.442690e-17   0.000000e+00   0.000000e+00
     1816000   1.815999e-05   5.007416e-01   1.035007e+01   9.505136e+00   6.925130e+05  -8.645282e+05  -1.194417e+06   6.199773e+13   4.200416e+13   5.495624e+12   1.628992e+06   5.331425e-17   0.000000e+00   0.000000e+00
     1824000   1.823999e-05   5.043612e-01   1.036785e+01   9.410068e+00  -2.270056e+05  -1.008394e+06  -1.260832e+06   7.136617e+13  -2.037431e+13   3.402207e+12   1.630365e+06   5.228227e-17   0.000000e+00   0.000000e+00
     1832000   1.831999e-05   5.202265e-01   1.038297e+01   9.315311e+00  -9.484378e+05  -3.425608e+05  -1.282800e+06   2.660194e+13  -6.856054e+13  -1.401798e+12   1.631704e+06   5.132805e-17   0.000000e+00   0.000000e+00
     1840000   1.839999e-05   5.417043e-01   1.038556e+01   9.219960e+00  -8.259690e+05   6.762055e+05  -1.235815e+06  -4.094722e+13  -5.985187e+13  -5.424690e+12   1.633009e+06   5.025233e-17   0.000000e+00   0.000000e+00
     1848000   1.847999e-05   5.552866e-01   1.037547e+01   9.123120e+00   1.315545e+05   1.147203e+06  -1.156500e+06  -7.142034e+13   3.639507e+12  -4.558381e+12   1.634280e+06   4.887001e-17   0.000000e+00   0.000000e+00
     1856000   1.855999e-05   5.526075e-01   1.036573e+01   9.024870e+00   1.056991e+06   5.384441e+05  -1.125960e+06  -3.126375e+13   6.347779e+13   9.624300e+11   1.635524e+06   4.773297e-17   0.000000e+00   0.000000e+00
     1864000   1.863999e-05   5.415093e-01   1.037201e+01   8.926460e+00   9.446102e+05  -6.042823e+05  -1.192251e+06   4.239183e+13   5.533993e+13   5.497096e+12   1.636737e+06   4.667756e-17   0.000000e+00   0.000000e+00
     1872000   1.871999e-05   5.421493e-01   1.039434e+01   8.829187e+00  -1.754744e+05  -9.894856e+05  -1.293407e+06   6.687566e+13  -1.684362e+13   3.775955e+12   1.637918e+06   4.560286e-17   0.000000e+00   0.000000e+00
     1880000   1.879999e-05   5.637349e-01   1.041213e+01   8.732904e+00  -9.824215e+05  -5.826115e+04  -1.310726e+06   7.882119e+12  -6.785543e+13  -2.927369e+12   1.639070e+06   4.475511e-17   0.000000e+00   0.000000e+00
     1888000   1.887999e-05   5.886640e-01   1.040724e+01   8.635417e+00  -3.502978e+05   1.048149e+06  -1.211981e+06  -6.131113e+13  -2.746762e+13  -6.071476e+12   1.640190e+06   4.362097e-17   0.000000e+00   0.000000e+00
     1896000   1.895999e-05   5.913075e-01   1.039182e+01   8.535360e+00   9.253909e+05   7.388789e+05  -1.136448e+06  -4.164817e+13   5.167596e+13  -3.542672e+11   1.641281e+06   4.228453e-17   0.000000e+00   0.000000e+00
     1904000   1.903999e-05   5.770389e-01   1.039702e+01   8.434714e+00   9.266888e+05  -6.056202e+05  -1.213164e+06   4.082364e+13   5.091892e+13   5.729118e+12   1.642345e+06   4.125355e-17   0.000000e+00   0.000000e+00
     1912000   1.911999e-05   5.804153e-01   1.042472e+01   8.336161e+00  -4.268385e+05  -8.557358e+05  -1.336491e+06   5.605182e+13  -3.190650e+13   2.496685e+12   1.643376e+06   4.009227e-17   0.000000e+00   0.000000e+00
     1920000   1.919999e-05   6.104980e-01   1.043780e+01   8.238524e+00  -8.732310e+05   4.927500e+05  -1.303317e+06  -2.506281e+13  -5.847392e+13  -5.346479e+12   1.644376e+06   3.927254e-17   0.000000e+00   0.000000e+00
     1928000   1.927999e-05   6.283233e-01   1.042122e+01   8.137908e+00   4.583085e+05   1.065165e+06  -1.167281e+06  -5.886558e+13   2.147642e+13  -3.548459e+12   1.645348e+06   3.799783e-17   0.000000e+00   0.000000e+00
     1936000   1.935999e-05   6.140943e-01   1.041618e+01   8.034945e+00   1.096894e+06  -2.714511e+05  -1.197255e+06   2.002468e+13   5.831725e+13   5.091980e+12   1.646294e+06   3.696806e-17   0.000000e+00   0.000000e+00
     1944000   1.943999e-05   6.116114e-01   1.044559e+01   7.934556e+00  -2.658454e+05  -9.016054e+05  -1.352680e+06   5.684895e+13  -2.191953e+13   3.409892e+12   1.647213e+06   3.600459e-17   0.000000e+00   0.000000e+00
     1952000   1.951999e-05   6.451827e-01   1.046158e+01   7.836186e+00  -8.247822e+05   5.407420e+05  -1.320447e+06  -2.622999e+13  -5.398807e+13  -5.752563e+12   1.648104e+06   3.519100e-17   0.000000e+00   0.000000e+00
     1960000   1.959999e-05   6.614968e-01   1.044143e+01   7.733682e+00   6.925001e+05   9.411521e+05  -1.163516e+06  -4.888575e+13   3.321381e+13  -2.259632e+12   1.648968e+06   3.389330e-17   0.000000e+00   0.000000e+00
     1968000   1.967999e-05   6.427655e-01   1.044513e+01   7.629107e+00   8.518911e+05  -6.468893e+05  -1.256055e+06   4.069328e+13   4.122255e+13   6.341967e+12   1.649806e+06   3.293251e-17   0.000000e+00   0.000000e+00
     1976000   1.975999e-05   6.555225e-01   1.048075e+01   7.529095e+00  -7.519881e+05  -4.519625e+05  -1.398135e+06   3.021195e+13  -4.884763e+13  -4.825884e+11   1.650617e+06   3.202937e-17   0.000000e+00   0.000000e+00
     1984000   1.983999e-05   6.931542e-01   1.047670e+01   7.428535e+00  -1.384306e+05   1.081526e+06  -1.240268e+06  -5.429464e+13  -1.425492e+13  -6.396153e+12   1.651401e+06   3.101916e-17   0.000000e+00   0.000000e+00
     1992000   1.991999e-05   6.838721e-01   1.046044e+01   7.322072e+00   1.140581e+06   3.465034e+03  -1.195281e+06   4.453040e+12   5.508025e+13   4.383220e+12   1.652160e+06   2.988895e-17   0.000000e+00   0.000000e+00
     2000000   1.999999e-05   6.790691e-01   1.049518e+01   7.219142e+00  -3.254020e+05  -8.067768e+05  -1.405447e+06   4.840427e+13  -2.482253e+13   3.020900e+12   1.652893e+06   2.889699e-17   0.000000e+00   0.000000e+00
     2008000   2.007999e-05   7.217525e-01   1.050564e+01   7.119068e+00  -4.738669e+05   9.033766e+05  -1.301443e+06  -4.239266e+13  -3.230485e+13  -7.010582e+12   1.653600e+06   2.815800e-17   0.000000e+00   0.000000e+00
     2016000   2.015999e-05   7.208826e-01   1.048299e+01   7.011582e+00   1.129634e+06   2.478472e+05  -1.182859e+06  -8.066532e+12   5.194559e+13   3.157268e+12   1.654285e+06   2.704528e-17   0.000000e+00   0.000000e+00
     2024000   2.023999e-05   7.116135e-01   1.051745e+01   6.907050e+00  -2.339553e+05  -8.189093e+05  -1.418978e+06   4.762831e+13  -1.988673e+13   3.605246e+12   1.654946e+06   2.612565e-17   0.000000e+00   0.000000e+00
     2032000   2.031999e-05   7.574503e-01   1.052877e+01   6.806553e+00  -3.907016e+05   9.435014e+05  -1.303115e+06  -4.244542e+13  -2.738635e+13  -7.122620e+12   1.655582e+06   2.541722e-17   0.000000e+00   0.000000e+00
     2040000   2.039999e-05   7.518769e-01   1.050720e+01   6.697210e+00   1.135252e+06   2.421114e+04  -1.205656e+06   3.876304e+12   4.959607e+13   4.625200e+12   1.656197e+06   2.439851e-17   0.000000e+00   0.000000e+00
     2048000   2.047999e-05   7.520364e-01   1.054958e+01   6.593266e+00  -5.269284e+05  -5.796971e+05  -1.459880e+06   3.471467e+13  -3.450977e+13   1.157008e+12   1.656790e+06   2.344940e-17   0.000000e+00   0.000000e+00
     2056000   2.055999e-05   7.988199e-01   1.054527e+01   6.490713e+00   1.357691e+05   1.091942e+06  -1.239380e+06  -4.753501e+13  -1.150919e+12  -6.239830e+12   1.657358e+06   2.251071e-17   0.000000e+00   0.000000e+00
     2064000   2.063999e-05   7.791589e-01   1.054021e+01   6.378994e+00   8.640657e+05  -5.559674e+05  -1.301127e+06   3.236723e+13   3.331399e+13   7.242814e+12   1.657903e+06   2.164489e-17   0.000000e+00   0.000000e+00
     2072000   2.071999e-05   8.083120e-01   1.058441e+01   6.277800e+00  -7.720836e+05   1.925282e+05  -1.455059e+06  -2.415757e+12  -4.591249e+13  -4.807813e+12   1.658426e+06   2.094305e-17   0.000000e+00   0.000000e+00
     2080000   2.079999e-05   8.332958e-01   1.055795e+01   6.168966e+00   9.688103e+05   6.590457e+05  -1.174352e+06  -2.509444e+13   3.740229e+13   2.705972e+11   1.658927e+06   1.989488e-17   0.000000e+00   0.000000e+00
     2088000   2.087999e-05   8.181924e-01   1.059285e+01   6.060072e+00  -1.424896e+05  -7.464914e+05  -1.475156e+06   4.102858e+13  -1.606320e+13   4.152315e+12   1.659409e+06   1.921840e-17   0.000000e+00   0.000000e+00
     2096000   2.095999e-05   8.728360e-01   1.059993e+01   5.958187e+00   2.386425e+04   1.067773e+06  -1.270616e+06  -4.220928e+13  -7.461906e+12  -7.078292e+12   1.659871e+06   1.852994e-17   0.000000e+00   0.000000e+00
     2104000   2.103999e-05   8.530553e-01   1.059459e+01   5.843583e+00   7.945540e+05  -5.879121e+05  -1.334052e+06   3.244533e+13   2.642714e+13   7.664348e+12   1.660316e+06   1.777796e-17   0.000000e+00   0.000000e+00
     2112000   2.111999e-05   8.945372e-01   1.063806e+01   5.743162e+00  -6.219122e+05   5.571880e+05  -1.435560e+06  -1.729706e+13  -3.726751e+13  -6.983425e+12   1.660742e+06   1.706952e-17   0.000000e+00   0.000000e+00
     2120000   2.119999e-05   9.025782e-01   1.061035e+01   5.629379e+00   1.143178e+06   9.901855e+04  -1.201154e+06   1.880443e+12   4.058074e+13   5.121045e+12   1.661153e+06   1.648544e-17   0.000000e+00   0.000000e+00
     2128000   2.127999e-05   9.156137e-01   1.066466e+01   5.525453e+00  -6.377413e+05  -9.384334e+04  -1.531411e+06   1.190699e+13  -3.816570e+13  -2.630277e+12   1.661548e+06   1.579242e-17   0.000000e+00   0.000000e+00
     2136000   2.135999e-05   9.528407e-01   1.063943e+01   5.415947e+00   9.959330e+05   6.613468e+05  -1.154441e+06  -2.129205e+13   3.281976e+13   4.196604e+11   1.661925e+06   1.506488e-17   0.000000e+00   0.000000e+00
     2144000   2.143999e-05   9.448226e-01   1.068621e+01   5.306858e+00  -3.571655e+05  -4.826364e+05  -1.550063e+06   2.805483e+13  -2.614048e+13   1.665350e+12   1.662288e+06   1.450533e-17   0.000000e+00   0.000000e+00
     2152000   2.151999e-05   9.996597e-01   1.067358e+01   5.201659e+00   7.354637e+05   9.379014e+05  -1.159220e+06  -3.121852e+13   2.054274e+13  -3.197922e+12   1.662636e+06   1.385788e-17   0.000000e+00   0.000000e+00
     2160000   2.159999e-05   9.826283e-01   1.070984e+01   5.088625e+00  -9.051753e+04  -6.216141e+05  -1.539762e+06   3.309114e+13  -1.551605e+13   4.309838e+12   1.662968e+06   1.334626e-17   0.000000e+00   0.000000e+00
     2168000   2.167999e-05   1.045612e+00   1.070770e+01   4.986128e+00   5.814246e+05   1.026145e+06  -1.172814e+06  -3.295278e+13   1.295813e+13  -5.009689e+12   1.663286e+06   1.260755e-17   0.000000e+00   0.000000e+00
     2176000   2.175999e-05   1.027185e+00   1.073913e+01   4.870783e+00   3.377239e+04  -6.279581e+05  -1.540147e+06   3.278561e+13  -1.128733e+13   5.313074e+12   1.663588e+06   1.213514e-17   0.000000e+00   0.000000e+00
     2184000   2.183999e-05   1.093881e+00   1.074033e+01   4.769479e+00   5.962155e+05   1.032005e+06  -1.161025e+06  -3.145838e+13   1.226576e+13  -5.262003e+12   1.663877e+06   1.152022e-17   0.000000e+00   0.000000e+00
     2192000   2.191999e-05   1.077602e+00   1.077540e+01   4.653893e+00  -9.205882e+03  -5.661551e+05  -1.564861e+06   3.015872e+13  -1.372118e+13   4.779639e+12   1.664153e+06   1.105920e-17   0.000000e+00   0.000000e+00
     2200000   2.199999e-05   1.144471e+00   1.077160e+01   4.551681e+00   7.657272e+05   9.594226e+05  -1.124034e+06  -2.726858e+13   1.738102e+13  -3.750020e+12   1.664417e+06   1.046129e-17   0.000000e+00   0.000000e+00
     2208000   2.207999e-05   1.135170e+00   1.081829e+01   4.438450e+00  -1.799484e+05  -3.930803e+05  -1.607551e+06   2.407351e+13  -2.082260e+13   2.390454e+12   1.664666e+06   1.006044e-17   0.000000e+00   0.000000e+00
     2216000   2.215999e-05   1.195911e+00   1.080340e+01   4.332527e+00   1.031726e+06   7.393535e+05  -1.077411e+06  -1.815787e+13   2.526091e+13  -6.207550e+10   1.664907e+06   9.559638e-18   0.000000e+00   0.000000e+00
     2224000   2.223999e-05   1.203762e+00   1.086548e+01   4.225801e+00  -3.616888e+05  -1.937567e+04  -1.625262e+06   1.176593e+13  -2.794060e+13  -2.291003e+12   1.665134e+06   9.132781e-18   0.000000e+00   0.000000e+00
     2232000   2.231999e-05   1.246962e+00   1.084164e+01   4.112148e+00   1.216496e+06   3.066350e+05  -1.095222e+06  -2.346875e+12   2.916657e+13   5.551075e+12   1.665352e+06   8.766083e-18   0.000000e+00   0.000000e+00
     2240000   2.239999e-05   1.284313e+00   1.091079e+01   4.015609e+00  -3.476304e+05   5.512295e+05  -1.532770e+06  -6.706451e+12  -2.703611e+13  -8.207472e+12   1.665559e+06   8.336022e-18   0.000000e+00   0.000000e+00
     2248000   2.247999e-05   1.299384e+00   1.089389e+01   3.893003e+00   1.077051e+06  -2.351446e+05  -1.248767e+06   1.663183e+13   2.090861e+13   1.040111e+13   1.665758e+06   8.127222e-18   0.000000e+00   0.000000e+00
     2256000   2.255999e-05   1.371239e+00   1.094641e+01   3.805098e+00   1.126241e+05   1.066555e+06  -1.274816e+06  -2.311328e+13  -1.052929e+13  -1.085710e+13   1.665947e+06   7.545516e-18   0.000000e+00   0.000000e+00
     2264000   2.263999e-05   1.365793e+00   1.096498e+01   3.681165e+00   4.972658e+05  -4.646914e+05  -1.520780e+06   2.589930e+13  -1.863324e+12   9.032959e+12   1.666129e+06   7.476639e-18   0.000000e+00   0.000000e+00
     2272000   2.271999e-05   1.450366e+00   1.097654e+01   3.589235e+00   8.974780e+05   1.007191e+06  -9.780978e+05  -2.157400e+13   1.503902e+13  -4.316662e+12   1.666306e+06   7.027169e-18   0.000000e+00   0.000000e+00
     2280000   2.279999e-05   1.460921e+00   1.104180e+01   3.481930e+00  -1.151467e+05   5.074927e+04  -1.661716e+06   1.239422e+13  -2.293823e+13  -1.563489e+12   1.666473e+06   6.751238e-18   0.000000e+00   0.000000e+00
     2288000   2.287999e-05   1.515172e+00   1.102488e+01   3.369463e+00   1.313071e+06   2.352112e+05  -9.990992e+05   2.083806e+12   2.442772e+13   8.482771e+12   1.666637e+06   6.661466e-18   0.000000e+00   0.000000e+00
     2296000   2.295999e-05   1.578619e+00   1.109760e+01   3.287637e+00   2.764922e+04   9.659108e+05  -1.358104e+06  -1.430356e+13  -1.665576e+13  -1.214175e+13   1.666792e+06   6.231165e-18   0.000000e+00   0.000000e+00
     2304000   2.303999e-05   1.589960e+00   1.111063e+01   3.162170e+00   7.978651e+05  -3.451062e+05  -1.422326e+06   2.207634e+13   2.770297e+12   1.170728e+13   1.666942e+06   6.258721e-18   0.000000e+00   0.000000e+00
     2312000   2.311999e-05   1.684899e+00   1.113355e+01   3.081508e+00   9.533931e+05   1.072098e+06  -8.490226e+05  -1.970166e+13   1.315289e+13  -5.521838e+12   1.667091e+06   5.859266e-18   0.000000e+00   0.000000e+00
     2320000   2.319999e-05   1.707337e+00   1.120673e+01   2.979943e+00   5.445746e+04   2.378258e+05  -1.649282e+06   1.007273e+13  -2.173107e+13  -2.804548e+12   1.667230e+06   5.760334e-18   0.000000e+00   0.000000e+00
     2328000   2.327999e-05   1.767641e+00   1.119739e+01   2.868614e+00   1.382337e+06   1.536557e+05  -9.196000e+05   5.506350e+12   2.051544e+13   1.169863e+13   1.667372e+06   5.825730e-18   0.000000e+00   0.000000e+00
     2336000   2.335999e-05   1.850500e+00   1.126792e+01   2.802486e+00   3.593227e+05   1.182403e+06  -1.119549e+06  -1.664914e+13  -8.363662e+12  -1.418170e+13   1.667507e+06   5.432333e-18   0.000000e+00   0.000000e+00
     2344000   2.343999e-05   1.870592e+00   1.130724e+01   2.682938e+00   6.912808e+05  -1.790139e+05  -1.507020e+06   2.032315e+13  -7.275056e+12   1.018277e+13   1.667640e+06   5.645021e-18   0.000000e+00   0.000000e+00
     2352000   2.351999e-05   1.969964e+00   1.131810e+01   2.604399e+00   1.306092e+06   8.522023e+05  -5.910639e+05  -1.261288e+13   1.995796e+13   8.950959e+11   1.667778e+06   5.532672e-18   0.000000e+00   0.000000e+00
     2360000   2.359999e-05   2.021824e+00   1.140685e+01   2.528802e+00   1.823132e+05   7.607301e+05  -1.473082e+06   2.361812e+11  -2.078445e+13  -1.070800e+13   1.667909e+06   5.419495e-18   0.000000e+00   0.000000e+00
     2368000   2.367999e-05   2.074739e+00   1.141601e+01   2.413417e+00   1.331573e+06  -6.091931e+04  -1.002783e+06   1.327204e+13   1.099769e+13   1.694969e+13   1.668045e+06   5.793963e-18   0.000000e+00   0.000000e+00
     2376000   2.375999e-05   2.179768e+00   1.146874e+01   2.364664e+00   8.159571e+05   1.294390e+06  -6.645314e+05  -1.888540e+13   5.050583e+12  -1.335958e+13   1.668182e+06   5.559498e-18   0.000000e+00   0.000000e+00
     2384000   2.383999e-05   2.214297e+00   1.154089e+01   2.265460e+00   5.735338e+05   1.758603e+05  -1.556733e+06   1.636447e+13  -1.742680e+13   4.056583e+12   1.668318e+06   5.831063e-18   0.000000e+00   0.000000e+00
     2392000   2.391999e-05   2.311151e+00   1.154660e+01   2.183819e+00   1.522586e+06   5.535435e+05  -3.988671e+05  -5.547499e+12   2.218798e+13   9.600465e+12   1.668465e+06   6.103052e-18   0.000000e+00   0.000000e+00
     2400000   2.399999e-05   2.387673e+00   1.163694e+01   2.137749e+00   3.837314e+05   1.132090e+06  -1.164209e+06  -5.870276e+12  -1.618242e+13  -1.767607e+13   1.668610e+06   6.039807e-18   0.000000e+00   0.000000e+00
     2408000   2.407999e-05   2.443298e+00   1.166760e+01   2.028140e+00   1.328336e+06  -6.868178e+04  -1.007758e+06   1.562008e+13   3.661110e+12   2.033280e+13   1.668763e+06   6.656523e-18   0.000000e+00   0.000000e+00
     2416000   2.415999e-05   2.556386e+00   1.171291e+01   1.994781e+00   9.768385e+05   1.309557e+06  -3.408194e+05  -1.902573e+13   1.051837e+13  -1.413469e+13   1.668925e+06   6.673649e-18   0.000000e+00   0.000000e+00
     2424000   2.423999e-05   2.602937e+00   1.179538e+01   1.911083e+00   7.360503e+05   2.917231e+05  -1.469349e+06   1.714630e+13  -1.990150e+13   4.633137e+12   1.669089e+06   7.063271e-18   0.000000e+00   0.000000e+00
     2432000   2.431999e-05   2.709823e+00   1.180758e+01   1.846217e+00   1.522261e+06   6.787566e+05  -9.200455e+04  -1.027636e+13   2.417662e+13   8.251327e+12   1.669267e+06   7.528232e-18   0.000000e+00   0.000000e+00
     2440000   2.439999e-05   2.781591e+00   1.190373e+01   1.808849e+00   4.672738e+05   1.021608e+06  -1.234924e+06   2.654280e+12  -2.190238e+13  -1.712102e+13   1.669451e+06   7.745243e-18   0.000000e+00   0.000000e+00
     2448000   2.447999e-05   2.862734e+00   1.192624e+01   1.716488e+00   1.607685e+06   1.072375e+05  -4.376892e+05   5.615016e+12   1.534574e+13   2.436480e+13   1.669648e+06   8.549500e-18   0.000000e+00   0.000000e+00
     2456000   2.455999e-05   2.961876e+00   1.200082e+01   1.704284e+00   5.971919e+05   1.415919e+06  -6.534206e+05  -1.177386e+13  -7.209685e+12  -2.639717e+13   1.669857e+06   8.817425e-18   0.000000e+00   0.000000e+00
     2464000   2.463999e-05   3.025232e+00   1.205185e+01   1.610418e+00   1.425198e+06  -4.672352e+04  -8.693622e+05   1.627879e+13  -1.012581e+12   2.672995e+13   1.670079e+06   9.745027e-18   0.000000e+00   0.000000e+00
     2472000   2.471999e-05   3.137944e+00   1.210133e+01   1.600416e+00   8.347081e+05   1.435842e+06  -1.777302e+05  -1.908820e+13   8.080847e+12  -2.442195e+13   1.670319e+06   1.020099e-17   0.000000e+00   0.000000e+00
     2480000   2.479999e-05   3.196067e+00   1.217337e+01   1.519183e+00   1.250340e+06   2.957504e+04  -1.107516e+06   2.061861e+13  -1.297238e+13   2.292104e+13   1.670574e+06   1.112580e-17   0.000000e+00   0.000000e+00
     2488000   2.487999e-05   3.311979e+00   1.220965e+01   1.505495e+00   9.709331e+05   1.357909e+06   7.151620e+04  -2.162293e+13   1.658127e+13  -2.110782e+13   1.670851e+06   1.181841e-17   0.000000e+00   0.000000e+00
     2496000   2.495999e-05   3.370634e+00   1.228957e+01   1.434649e+00   1.206063e+06   8.052293e+04  -1.153972e+06   2.212300e+13  -1.786695e+13   2.186378e+13   1.671144e+06   1.280419e-17   0.000000e+00   0.000000e+00
     2504000   2.503999e-05   3.485904e+00   1.232393e+01   1.423094e+00   9.465387e+05   1.370822e+06   1.367582e+05  -2.244842e+13   1.785246e+13  -2.347575e+13   1.671464e+06   1.367600e-17   0.000000e+00   0.000000e+00
     2512000   2.511999e-05   3.547036e+00   1.240100e+01   1.353730e+00   1.318462e+06   5.864076e+03  -1.027885e+06   2.186527e+13  -1.518095e+13   2.794536e+13   1.671803e+06   1.483418e-17   0.000000e+00   0.000000e+00
     2520000   2.519999e-05   3.658564e+00   1.244344e+01   1.352125e+00   7.640814e+05   1.487245e+06  -2.095727e+04  -2.007361e+13   9.859218e+12  -3.295581e+13   1.672171e+06   1.580473e-17   0.000000e+00   0.000000e+00
     2528000   2.527999e-05   3.726777e+00   1.250635e+01   1.278151e+00   1.549321e+06  -1.054619e+05  -6.212529e+05   1.539843e+13  -9.494122e+11   3.853506e+13   1.672565e+06   1.717505e-17   0.000000e+00   0.000000e+00
     2536000   2.535999e-05   3.826302e+00   1.256862e+01   1.286196e+00   5.359735e+05   1.490941e+06  -5.373305e+05  -7.401755e+12  -1.190369e+13  -4.044654e+13   1.672990e+06   1.827533e-17   0.000000e+00   0.000000e+00
     2544000   2.543999e-05   3.912060e+00   1.260639e+01   1.216589e+00   1.664946e+06   1.028877e+05   1.333821e+05  -4.467932e+12   2.598244e+13   3.587746e+13   1.673446e+06   1.978046e-17   0.000000e+00   0.000000e+00
     2552000   2.551999e-05   3.988988e+00   1.269303e+01   1.212830e+00   6.477145e+05   9.374183e+05  -1.226284e+06   1.795257e+13  -3.766256e+13  -1.932551e+13   1.673936e+06   2.110991e-17   0.000000e+00   0.000000e+00
     2560000   2.559999e-05   4.096272e+00   1.271460e+01   1.178212e+00   1.219905e+06   9.738459e+05   6.060322e+05  -2.730526e+13   3.850956e+13  -6.880488e+12   1.674461e+06   2.273839e-17   0.000000e+00   0.000000e+00
     2568000   2.567999e-05   4.160410e+00   1.279698e+01   1.132230e+00   1.363373e+06  -3.826204e+04  -9.723438e+05   2.534667e+13  -2.191476e+13   3.637704e+13   1.675023e+06   2.445418e-17   0.000000e+00   0.000000e+00
     2576000   2.575999e-05   4.260950e+00   1.284751e+01   1.141381e+00   5.065198e+05   1.544638e+06  -4.065156e+05  -8.203755e+12  -1.027911e+13  -4.934360e+13   1.675626e+06   2.609023e-17   0.000000e+00   0.000000e+00
     2584000   2.583999e-05   4.350639e+00   1.288319e+01   1.084933e+00   1.563937e+06   2.981813e+05   5.244751e+05  -1.756634e+13   4.007165e+13   2.965242e+13   1.676271e+06   2.797083e-17   0.000000e+00   0.000000e+00
     2592000   2.591999e-05   4.418200e+00   1.296896e+01   1.065285e+00   1.087012e+06   2.532515e+05  -1.251585e+06   3.131061e+13  -4.059202e+13   1.895608e+13   1.676960e+06   2.993600e-17   0.000000e+00   0.000000e+00
     2600000   2.599999e-05   4.520543e+00   1.300833e+01   1.068636e+00   5.271814e+05   1.587631e+06  -1.271764e+05  -1.500810e+13   6.411611e+11  -5.445960e+13   1.677697e+06   3.200953e-17   0.000000e+00   0.000000e+00
     2608000   2.607999e-05   4.607410e+00   1.304769e+01   1.016666e+00   1.534954e+06   2.863453e+05   6.158149e+05  -2.085063e+13   4.464787e+13   3.126604e+13   1.678483e+06   3.419023e-17   0.000000e+00   0.000000e+00
     2616000   2.615999e-05   4.674617e+00   1.312873e+01   9.942064e-01   1.272240e+06   1.310241e+04  -1.096062e+06   3.185808e+13  -3.598706e+13   3.651541e+13   1.679321e+06   3.661233e-17   0.000000e+00   0.000000e+00
     2624000   2.623999e-05   4.767770e+00   1.317925e+01   1.003323e+00   4.335419e+05   1.465537e+06  -6.981203e+05   4.426773e+12  -2.774166e+13  -5.554341e+13   1.680217e+06   3.897422e-17   0.000000e+00   0.000000e+00
     2632000   2.631999e-05   4.863609e+00   1.320862e+01   9.718037e-01   1.045630e+06   1.033453e+06   8.154570e+05  -3.619040e+13   5.040010e+13  -1.741701e+13   1.681172e+06   4.182829e-17   0.000000e+00   0.000000e+00
     2640000   2.639999e-05   4.935404e+00   1.327100e+01   9.295791e-01   1.664076e+06  -2.442812e+05   3.063544e+04   1.636875e+12   1.895973e+13   6.371161e+13   1.682190e+06   4.458191e-17   0.000000e+00   0.000000e+00
     2648000   2.647999e-05   5.007924e+00   1.334379e+01   9.249109e-01   1.035410e+06   2.804165e+05  -1.297191e+06   3.813890e+13  -5.385389e+13   1.876424e+13   1.683274e+06   4.752276e-17   0.000000e+00   0.000000e+00
     2656000   2.655999e-05   5.098803e+00   1.338882e+01   9.299488e-01   3.892859e+05   1.491485e+06  -6.791393e+05   6.144512e+12  -3.049350e+13  -6.351960e+13   1.684429e+06   5.057513e-17   0.000000e+00   0.000000e+00
     2664000   2.663999e-05   5.191325e+00   1.342069e+01   9.079814e-01   7.581082e+05   1.329318e+06   7.068398e+05  -3.721889e+13   4.475821e+13  -4.418049e+13   1.685656e+06   5.407208e-17   0.000000e+00   0.000000e+00
     2672000   2.671999e-05   5.269569e+00   1.346908e+01   8.709523e-01   1.481490e+06   1.766724e+05   7.872749e+05  -2.825441e+13   5.670310e+13   4.051609e+13   1.686958e+06   5.734634e-17   0.000000e+00   0.000000e+00
     2680000   2.679999e-05   5.338982e+00   1.353433e+01   8.477666e-01   1.605661e+06  -3.851694e+05  -3.521192e+05   1.586055e+13  -3.291284e+12   7.575376e+13   1.688340e+06   6.095398e-17   0.000000e+00   0.000000e+00
     2688000   2.687999e-05   5.412384e+00   1.359741e+01   8.445053e-01   1.087181e+06   1.517680e+05  -1.284694e+06   4.315611e+13  -6.024560e+13   2.935455e+13   1.689803e+06   6.464776e-17   0.000000e+00   0.000000e+00
     2696000   2.695999e-05   5.494247e+00   1.364680e+01   8.468906e-01   5.053079e+05   1.091449e+06  -1.189147e+06   3.125779e+13  -6.194211e+13  -4.362707e+13   1.691351e+06   6.847197e-17   0.000000e+00   0.000000e+00
     2704000   2.703999e-05   5.580158e+00   1.368572e+01   8.413864e-01   3.042476e+05   1.629218e+06  -3.453774e+05  -3.718615e+12  -1.676760e+13  -8.257807e+13   1.692987e+06   7.265846e-17   0.000000e+00   0.000000e+00
     2712000   2.711999e-05   5.664164e+00   1.372303e+01   8.252335e-01   5.098651e+05   1.519582e+06   5.504173e+05  -3.505806e+13   3.720057e+13  -7.009077e+13   1.694712e+06   7.701841e-17   0.000000e+00   0.000000e+00
     2720000   2.719999e-05   5.743475e+00   1.376468e+01   8.032750e-01   9.040002e+05   9.888199e+05   1.040789e+06  -4.830964e+13   7.059337e+13  -2.503174e+13   1.696533e+06   8.147257e-17   0.000000e+00   0.000000e+00
     2728000   2.727999e-05   5.818493e+00   1.381160e+01   7.813355e-01   1.269937e+06   3.771994e+05   1.062884e+06  -4.378692e+13   7.619955e+13   2.535355e+13   1.698453e+06   8.600152e-17   0.000000e+00   0.000000e+00
     2736000   2.735999e-05   5.890958e+00   1.386175e+01   7.625685e-01   1.506773e+06  -1.027112e+05   7.814718e+05  -2.907044e+13   6.189822e+13   6.429958e+13   1.700474e+06   9.078591e-17   0.000000e+00   0.000000e+00
     2744000   2.743999e-05   5.962431e+00   1.391265e+01   7.476005e-01   1.609067e+06  -3.877155e+05   3.993048e+05  -1.203257e+13   3.952237e+13   8.709528e+13   1.702605e+06   9.598706e-17   0.000000e+00   0.000000e+00
     2752000   2.751999e-05   6.033759e+00   1.396266e+01   7.355132e-01   1.623462e+06  -5.177979e+05   5.248576e+04   2.605839e+12   1.784717e+13   9.733579e+13   1.704846e+06   1.014928e-16   0.000000e+00   0.000000e+00
     2760000   2.759999e-05   6.105234e+00   1.401088e+01   7.249918e-01   1.600493e+06  -5.626994e+05  -1.906309e+05   1.270465e+13   1.824586e+12   1.007386e+14   1.707205e+06   1.071061e-16   0.000000e+00   0.000000e+00
     2768000   2.767999e-05   6.176832e+00   1.405716e+01   7.152035e-01   1.578405e+06  -5.781617e+05  -3.120686e+05   1.786844e+13  -6.701595e+12   1.024443e+14   1.709685e+06   1.131048e-16   0.000000e+00   0.000000e+00
     2776000   2.775999e-05   6.248435e+00   1.410155e+01   7.056053e-01   1.574232e+06  -5.963900e+05  -3.131052e+05   1.820363e+13  -7.254590e+12   1.049784e+14   1.712286e+06   1.191476e-16   0.000000e+00   0.000000e+00
     2784000   2.783999e-05   6.320066e+00   1.414396e+01   6.962062e-01   1.588720e+06  -6.185713e+05  -1.860659e+05   1.321110e+13   1.039561e+12   1.087022e+14   1.715017e+06   1.256836e-16   0.000000e+00   0.000000e+00
     2792000   2.791999e-05   6.391682e+00   1.418455e+01   6.873910e-01   1.602845e+06  -6.140501e+05   7.024573e+04   2.318855e+12   1.850251e+13   1.106195e+14   1.717878e+06   1.323352e-16   0.000000e+00   0.000000e+00
     2800000   2.799999e-05   6.463327e+00   1.422343e+01   6.800359e-01   1.576679e+06  -5.234798e+05   4.488472e+05  -1.490479e+13   4.469264e+13   1.047745e+14   1.720875e+06   1.392649e-16   0.000000e+00   0.000000e+00
     2808000   2.807999e-05   6.534573e+00   1.426136e+01   6.751894e-01   1.454648e+06  -2.700842e+05   8.850274e+05  -3.641266e+13   7.498218e+13   8.288703e+13   1.724013e+06   1.463522e-16   0.000000e+00   0.000000e+00
     2816000   2.815999e-05   6.604639e+00   1.429979e+01   6.736914e-01   1.184967e+06   2.066265e+05   1.239640e+06  -5.678612e+13   9.922281e+13   3.785991e+13   1.727295e+06   1.541895e-16   0.000000e+00   0.000000e+00
     2824000   2.823999e-05   6.672100e+00   1.434087e+01   6.749744e-01   7.665608e+05   8.648955e+05   1.288309e+06  -6.522203e+13   1.004970e+14  -2.854211e+13   1.730723e+06   1.619004e-16   0.000000e+00   0.000000e+00
     2832000   2.831999e-05   6.735467e+00   1.438643e+01   6.762898e-01   3.043450e+05   1.498524e+06   8.182977e+05  -5.007889e+13   6.322894e+13  -9.696928e+13   1.734304e+06   1.705093e-16   0.000000e+00   0.000000e+00
     2840000   2.839999e-05   6.794461e+00   1.443591e+01   6.726798e-01   3.471345e+04   1.729849e+06  -1.649659e+05  -7.148021e+12  -1.197268e+13  -1.280567e+14   1.738044e+06   1.786098e-16   0.000000e+00   0.000000e+00
     2848000   2.847999e-05   6.851492e+00   1.448474e+01   6.596713e-01   2.109186e+05   1.228382e+06  -1.216949e+06   4.629460e+13  -9.061912e+13  -8.358934e+13   1.741945e+06   1.875136e-16   0.000000e+00   0.000000e+00
     2856000   2.855999e-05   6.911448e+00   1.452531e+01   6.387823e-01   8.423291e+05   1.227723e+05  -1.524454e+06   7.068837e+13  -1.104056e+14   3.004828e+13   1.746010e+06   1.965038e-16   0.000000e+00   0.000000e+00
     2864000   2.863999e-05   6.977908e+00   1.455358e+01   6.205476e-01   1.467174e+06  -7.606486e+05  -5.763344e+05   3.355576e+13  -3.328417e+13   1.290238e+14   1.750242e+06   2.061011e-16   0.000000e+00   0.000000e+00
     2872000   2.871999e-05   7.047719e+00   1.457678e+01   6.177237e-01   1.407826e+06  -4.364650e+05   9.519946e+05  -4.237697e+13   8.605582e+13   1.023288e+14   1.754642e+06   2.158234e-16   0.000000e+00   0.000000e+00
     2880000   2.879999e-05   7.111061e+00   1.461061e+01   6.291859e-01   5.695986e+05   9.717824e+05   1.351312e+06  -7.376460e+13   1.124017e+14  -4.958767e+13   1.759218e+06   2.264533e-16   0.000000e+00   0.000000e+00
     2888000   2.887999e-05   7.162385e+00   1.466065e+01   6.338173e-01  -7.682254e+04   1.756385e+06  -1.442452e+05  -7.250748e+12  -1.214349e+13  -1.454833e+14   1.763972e+06   2.368947e-16   0.000000e+00   0.000000e+00
     2896000   2.895999e-05   7.211425e+00   1.470832e+01   6.148461e-01   4.647459e+05   6.088511e+05  -1.594471e+06   7.430989e+13  -1.263996e+14  -2.674582e+13   1.768905e+06   2.476848e-16   0.000000e+00   0.000000e+00
     2904000   2.903999e-05   7.272656e+00   1.473294e+01   5.911631e-01   1.443460e+06  -8.627522e+05  -5.650153e+05   3.505991e+13  -3.561694e+13   1.435450e+14   1.774024e+06   2.590877e-16   0.000000e+00   0.000000e+00
     2912000   2.911999e-05   7.339609e+00   1.475006e+01   5.950942e-01   1.101413e+06  -2.988947e+04   1.397144e+06  -7.068913e+13   1.249018e+14   5.857053e+13   1.779330e+06   2.710750e-16   0.000000e+00   0.000000e+00
     2920000   2.919999e-05   7.391046e+00   1.479200e+01   6.110999e-01  -5.784971e+04   1.708983e+06   5.115162e+05  -3.984060e+13   4.277778e+13  -1.469380e+14   1.784830e+06   2.838794e-16   0.000000e+00   0.000000e+00
     2928000   2.927999e-05   7.432884e+00   1.484239e+01   5.954809e-01   3.366610e+05   7.104678e+05  -1.608687e+06   7.749317e+13  -1.342840e+14  -4.324933e+13   1.790524e+06   2.959743e-16   0.000000e+00   0.000000e+00
     2936000   2.935999e-05   7.491365e+00   1.486152e+01   5.704123e-01   1.479251e+06  -9.956751e+05  -2.180498e+05   1.888995e+13  -7.821698e+12   1.626334e+14   1.796413e+06   3.089606e-16   0.000000e+00   0.000000e+00
     2944000   2.943999e-05   7.553112e+00   1.487843e+01   5.842977e-01   6.108008e+05   6.617823e+05   1.561405e+06  -8.736661e+13   1.402191e+14  -2.507464e+13   1.802503e+06   3.232781e-16   0.000000e+00   0.000000e+00
     2952000   2.951999e-05   7.592124e+00   1.492933e+01   5.917170e-01  -1.875691e+05   1.604787e+06  -8.131473e+05   3.065793e+13  -7.254875e+13  -1.506057e+14   1.808793e+06   3.367571e-16   0.000000e+00   0.000000e+00
     2960000   2.959999e-05   7.638192e+00   1.496058e+01   5.608381e-01   1.206985e+06  -7.701518e+05  -1.115936e+06   6.543386e+13  -8.987123e+13   1.325281e+14   1.815285e+06   3.513535e-16   0.000000e+00   0.000000e+00
     2968000   2.967999e-05   7.700299e+00   1.496771e+01   5.656253e-01   8.837798e+05   1.064589e+05   1.589728e+06  -8.667922e+13   1.482719e+14   3.845328e+13   1.821987e+06   3.664246e-16   0.000000e+00   0.000000e+00
     2976000   2.975999e-05   7.737553e+00   1.501457e+01   5.804469e-01  -2.878158e+05   1.708696e+06  -5.851172e+05   1.872880e+13  -5.469508e+13  -1.694846e+14   1.828891e+06   3.822099e-16   0.000000e+00   0.000000e+00
     2984000   2.983999e-05   7.779241e+00   1.504495e+01   5.484851e-01   1.215990e+06  -8.757151e+05  -1.060854e+06   6.453477e+13  -8.754696e+13   1.459283e+14   1.836006e+06   3.978850e-16   0.000000e+00   0.000000e+00
     2992000   2.991999e-05   7.837829e+00   1.505030e+01   5.584898e-01   6.123336e+05   4.550426e+05   1.678047e+06  -9.615519e+13   1.579113e+14  -7.529540e+12   1.843328e+06   4.145554e-16   0.000000e+00   0.000000e+00
     3000000   2.999999e-05   7.867492e+00   1.510036e+01   5.657103e-01  -1.750560e+05   1.332543e+06  -1.272542e+06   6.072423e+13  -1.185219e+14  -1.327416e+14   1.850859e+06   4.315823e-16   0.000000e+00   0.000000e+00
     3008000   3.007999e-05   7.914064e+00   1.511460e+01   5.348775e-01   1.427377e+06  -1.190373e+06   3.393144e+03   8.375485e+12   1.027973e+13   1.904831e+14   1.858603e+06   4.487965e-16   0.000000e+00   0.000000e+00
     3016000   3.015999e-05   7.961496e+00   1.513187e+01   5.604336e-01  -1.504885e+05   1.527006e+06   1.062849e+06  -7.135145e+13   9.845371e+13  -1.511978e+14   1.866559e+06   4.673630e-16   0.000000e+00   0.000000e+00
     3024000   3.023999e-05   7.986775e+00   1.517715e+01   5.405809e-01   6.261539e+05  -1.584591e+05  -1.759946e+06   1.008797e+14  -1.613548e+14   5.019870e+13   1.874724e+06   4.850749e-16   0.000000e+00   0.000000e+00
     3032000   3.031999e-05   8.041006e+00   1.517350e+01   5.367636e-01   8.540332e+05  -1.410244e+05   1.672369e+06  -9.463974e+13   1.646542e+14   6.245357e+13   1.883104e+06   5.050411e-16   0.000000e+00   0.000000e+00
     3040000   3.039999e-05   8.065292e+00   1.521885e+01   5.510125e-01  -3.072700e+05   1.384623e+06  -1.251769e+06   6.170497e+13  -1.216536e+14  -1.500402e+14   1.891698e+06   5.243402e-16   0.000000e+00   0.000000e+00
     3048000   3.047999e-05   8.107291e+00   1.522621e+01   5.206711e-01   1.371999e+06  -1.232008e+06   4.600653e+05  -1.794390e+13   5.352597e+13   1.977685e+14   1.900496e+06   5.444195e-16   0.000000e+00   0.000000e+00
     3056000   3.055999e-05   8.142137e+00   1.524972e+01   5.499305e-01  -5.093190e+05   1.827577e+06   2.162899e+05  -2.597346e+13   1.741720e+13  -2.063185e+14   1.909509e+06   5.657843e-16   0.000000e+00   0.000000e+00
     3064000   3.063999e-05   8.168301e+00   1.527696e+01   5.169562e-01   1.201922e+06  -1.192823e+06  -9.022650e+05   6.104231e+13  -7.964623e+13   1.861147e+14   1.918730e+06   5.865197e-16   0.000000e+00   0.000000e+00
     3072000   3.071999e-05   8.211168e+00   1.528009e+01   5.405647e-01  -2.209396e+05   1.400896e+06   1.306318e+06  -8.691733e+13   1.263064e+14  -1.497997e+14   1.928157e+06   6.087194e-16   0.000000e+00   0.000000e+00
     3080000   3.079999e-05   8.226897e+00   1.531981e+01   5.187552e-01   7.651855e+05  -6.346353e+05  -1.663350e+06   1.024972e+14  -1.583776e+14   1.072957e+14   1.937783e+06   6.302493e-16   0.000000e+00   0.000000e+00
     3088000   3.087999e-05   8.271717e+00   1.531172e+01   5.298655e-01   1.462355e+05   7.620552e+05   1.786358e+06  -1.115073e+14   1.775767e+14  -6.635467e+13   1.947611e+06   6.538084e-16   0.000000e+00   0.000000e+00
     3096000   3.095999e-05   8.282078e+00   1.535535e+01   5.205739e-01   3.741575e+05  -9.352957e+04  -1.919273e+06   1.148234e+14  -1.880519e+14   3.129059e+13   1.957639e+06   6.763554e-16   0.000000e+00   0.000000e+00
     3104000   3.103999e-05   8.324968e+00   1.534262e+01   5.214136e-01   3.940513e+05   2.763191e+05   1.908097e+06  -1.162357e+14   1.929839e+14  -3.676258e+12   1.967858e+06   7.005468e-16   0.000000e+00   0.000000e+00
     3112000   3.111999e-05   8.332246e+00   1.538569e+01   5.205246e-01   1.286359e+05   2.301688e+05  -1.960615e+06   1.159360e+14  -1.955014e+14  -1.560931e+13   1.978266e+06   7.238566e-16   0.000000e+00   0.000000e+00
     3120000   3.119999e-05   8.371988e+00   1.537077e+01   5.158962e-01   4.906852e+05   2.843293e+04   1.927166e+06  -1.165142e+14   1.970481e+14   2.703475e+13   1.988857e+06   7.489475e-16   0.000000e+00   0.000000e+00
     3128000   3.127999e-05   8.376406e+00   1.541215e+01   5.185158e-01   2.736708e+04   3.140464e+05  -1.974624e+06   1.170578e+14  -1.991312e+14  -3.032256e+13   1.999629e+06   7.733392e-16   0.000000e+00   0.000000e+00
     3136000   3.135999e-05   8.413123e+00   1.539523e+01   5.131719e-01   4.476394e+05   1.381222e+04   1.960062e+06  -1.192043e+14   2.014777e+14   2.608720e+13   2.010576e+06   7.992346e-16   0.000000e+00   0.000000e+00
     3144000   3.143999e-05   8.414190e+00   1.543505e+01   5.147437e-01   5.815664e+04   1.722350e+05  -2.013504e+06   1.211274e+14  -2.042009e+14  -1.424975e+13   2.021693e+06   8.239667e-16   0.000000e+00   0.000000e+00
     3152000   3.151999e-05   8.448172e+00   1.541593e+01   5.129613e-01   2.768730e+05   2.111932e+05   2.002926e+06  -1.238441e+14   2.058979e+14  -4.302530e+12   2.032972e+06   8.505189e-16   0.000000e+00   0.000000e+00
     3160000   3.159999e-05   8.445657e+00   1.545393e+01   5.095094e-01   2.070604e+05  -1.664206e+05  -2.027073e+06   1.248963e+14  -2.057298e+14   2.935804e+13   2.044406e+06   8.755438e-16   0.000000e+00   0.000000e+00
     3168000   3.167999e-05   8.476594e+00   1.543337e+01   5.149144e-01  -4.879417e+03   5.847176e+05   1.971083e+06  -1.250140e+14   2.017703e+14  -5.986021e+13   2.055988e+06   9.026232e-16   0.000000e+00   0.000000e+00
     3176000   3.175999e-05   8.471153e+00   1.546798e+01   5.032768e-01   4.519169e+05  -6.532393e+05  -1.909050e+06   1.214494e+14  -1.929423e+14   9.445199e+13   2.067709e+06   9.277981e-16   0.000000e+00   0.000000e+00
     3184000   3.183999e-05   8.497738e+00   1.544828e+01   5.183644e-01  -3.629639e+05   1.063885e+06   1.749569e+06  -1.151090e+14   1.773926e+14  -1.313957e+14   2.079564e+06   9.551911e-16   0.000000e+00   0.000000e+00
     3192000   3.191999e-05   8.491049e+00   1.547638e+01   4.969598e-01   7.412230e+05  -1.191025e+06  -1.551320e+06   1.034427e+14  -1.549630e+14   1.679921e+14   2.091542e+06   9.810713e-16   0.000000e+00   0.000000e+00
     3200000   3.199999e-05   8.511056e+00   1.546112e+01   5.221234e-01  -7.283361e+05   1.523362e+06   1.254662e+06  -8.806961e+13   1.244413e+14  -2.017070e+14   2.103636e+06   1.008100e-15   0.000000e+00   0.000000e+00
     3208000   3.207999e-05   8.505413e+00   1.547872e+01   4.919601e-01   9.892400e+05  -1.633617e+06  -9.107440e+05   6.699838e+13  -8.765830e+13   2.292962e+14   2.115835e+06   1.032938e-15   0.000000e+00   0.000000e+00
     3216000   3.215999e-05   8.516289e+00   1.547159e+01   5.247224e-01  -1.007914e+06   1.807135e+06   4.973082e+05  -4.339202e+13   4.458537e+13  -2.486392e+14   2.128132e+06   1.060195e-15   0.000000e+00   0.000000e+00
     3224000   3.223999e-05   8.513749e+00   1.547542e+01   4.897185e-01   1.103355e+06  -1.833296e+06  -5.858209e+04   1.575869e+13   9.009459e+11   2.572692e+14   2.140513e+06   1.084722e-15   0.000000e+00   0.000000e+00
     3232000   3.231999e-05   8.513699e+00   1.547866e+01   5.249948e-01  -1.120929e+06   1.795468e+06  -3.938314e+05   1.170141e+13  -4.815931e+13  -2.545698e+14   2.152973e+06   1.111024e-15   0.000000e+00   0.000000e+00
     3240000   3.239999e-05   8.515174e+00   1.546762e+01   4.909975e-01   1.028182e+06  -1.714886e+06   8.314909e+05  -3.996200e+13   9.223969e+13   2.404693e+14   2.165495e+06   1.135157e-15   0.000000e+00   0.000000e+00
     3248000   3.247999e-05   8.503933e+00   1.548082e+01   5.227269e-01  -1.044014e+06   1.470770e+06  -1.221013e+06   6.494631e+13  -1.329012e+14  -2.161797e+14   2.178073e+06   1.159946e-15   0.000000e+00   0.000000e+00
     3256000   3.255999e-05   8.508683e+00   1.545660e+01   4.954440e-01   7.775123e+05  -1.321446e+06   1.564729e+06  -8.769611e+13   1.660371e+14   1.842401e+14   2.190690e+06   1.183495e-15   0.000000e+00   0.000000e+00
     3264000   3.263999e-05   8.487581e+00   1.547686e+01   5.188164e-01  -8.250353e+05   9.323414e+05  -1.817901e+06   1.052171e+14  -1.925176e+14  -1.468710e+14   2.203340e+06   1.205881e-15   0.000000e+00   0.000000e+00
     3272000   3.271999e-05   8.493623e+00   1.544308e+01   5.017855e-01   4.268561e+05  -7.907010e+05   2.025655e+06  -1.193430e+14   2.106604e+14   1.077251e+14   2.216008e+06   1.228895e-15   0.000000e+00   0.000000e+00
     3280000   3.279999e-05   8.464868e+00   1.546641e+01   5.147887e-01  -5.561284e+05   3.395853e+05  -2.131298e+06   1.281372e+14  -2.221960e+14  -6.916958e+13   2.228683e+06   1.249181e-15   0.000000e+00   0.000000e+00
     3288000   3.287999e-05   8.469867e+00   1.542689e+01   5.084836e-01   7.414774e+04  -2.866301e+05   2.221712e+06  -1.342877e+14   2.275555e+14   3.415888e+13   2.241352e+06   1.270708e-15   0.000000e+00   0.000000e+00
     3296000   3.295999e-05   8.435465e+00   1.544983e+01   5.121067e-01  -3.307820e+05  -1.593106e+05  -2.223901e+06   1.366241e+14  -2.291004e+14  -4.229685e+12   2.254004e+06   1.288528e-15   0.000000e+00   0.000000e+00
     3304000   3.303999e-05   8.437617e+00   1.540713e+01   5.143382e-01  -2.008272e+05   6.738324e+04   2.256704e+06  -1.381607e+14   2.280404e+14  -1.878761e+13   2.266624e+06   1.307991e-15   0.000000e+00   0.000000e+00
     3312000   3.311999e-05   8.398691e+00   1.542791e+01   5.117666e-01  -2.145559e+05  -4.687180e+05  -2.220142e+06   1.377656e+14  -2.265564e+14   3.419504e+13   2.279202e+06   1.323156e-15   0.000000e+00   0.000000e+00
     3320000   3.319999e-05   8.397182e+00   1.538274e+01   5.186252e-01  -3.462789e+05   1.988198e+05   2.256667e+06  -1.381657e+14   2.254042e+14  -4.074289e+13   2.291721e+06   1.339236e-15   0.000000e+00   0.000000e+00
     3328000   3.327999e-05   8.353935e+00   1.540134e+01   5.144459e-01  -2.497041e+05  -5.295514e+05  -2.228547e+06   1.377278e+14  -2.259079e+14   3.792794e+13   2.304170e+06   1.351653e-15   0.000000e+00   0.000000e+00
     3336000   3.335999e-05   8.348673e+00   1.535313e+01   5.207802e-01  -3.248262e+05   5.416138e+04   2.293008e+06  -1.382990e+14   2.272682e+14  -2.464817e+13   2.316534e+06   1.365111e-15   0.000000e+00   0.000000e+00
     3344000   3.343999e-05   8.301018e+00   1.537015e+01   5.207508e-01  -4.699144e+05  -2.883119e+05  -2.262606e+06   1.369519e+14  -2.287592e+14   3.922373e+11   2.328804e+06   1.373850e-15   0.000000e+00   0.000000e+00
     3352000   3.351999e-05   8.291629e+00   1.531860e+01   5.202160e-01  -1.070256e+05  -4.223450e+05   2.300062e+06  -1.341456e+14   2.271583e+14   3.577769e+13   2.340965e+06   1.384121e-15   0.000000e+00   0.000000e+00
     3360000   3.359999e-05   8.240571e+00   1.533303e+01   5.312680e-01  -8.928149e+05   3.033253e+05  -2.155810e+06   1.251596e+14  -2.187912e+14  -8.294489e+13   2.353007e+06   1.389293e-15   0.000000e+00   0.000000e+00
     3368000   3.367999e-05   8.224583e+00   1.528122e+01   5.168272e-01   2.938848e+05  -1.243038e+06   1.990297e+06  -1.087046e+14   1.968362e+14   1.393366e+14   2.364908e+06   1.394644e-15   0.000000e+00   0.000000e+00
     3376000   3.375999e-05   8.174283e+00   1.528674e+01   5.451251e-01  -1.435241e+06   1.155998e+06  -1.500770e+06   7.929257e+13  -1.563563e+14  -1.967296e+14   2.376670e+06   1.397710e-15   0.000000e+00   0.000000e+00
     3384000   3.383999e-05   8.145345e+00   1.524467e+01   5.136847e-01   6.678315e+05  -2.113208e+06   8.900502e+05  -3.717307e+13   9.040661e+13   2.433131e+14   2.388270e+06   1.397551e-15   0.000000e+00   0.000000e+00
     3392000   3.391999e-05   8.103728e+00   1.522775e+01   5.562535e-01  -1.708901e+06   1.681172e+06   1.090288e+05  -1.878110e+13  -1.810876e+12  -2.602065e+14   2.399701e+06   1.396744e-15   0.000000e+00   0.000000e+00
     3400000   3.399999e-05   8.053756e+00   1.521011e+01   5.204970e-01   4.457122e+05  -2.107372e+06  -1.083045e+06   7.681465e+13  -1.003417e+14   2.262352e+14   2.410946e+06   1.390971e-15   0.000000e+00   0.000000e+00
     3408000   3.407999e-05   8.025430e+00   1.516000e+01   5.526017e-01  -1.060638e+06   7.247590e+05   2.053258e+06  -1.225309e+14   1.865230e+14  -1.288105e+14   2.422003e+06   1.387988e-15   0.000000e+00   0.000000e+00
     3416000   3.415999e-05   7.957932e+00   1.516522e+01   5.473975e-01  -8.326611e+05  -2.662686e+05  -2.270362e+06   1.299401e+14  -2.189025e+14  -2.227055e+13   2.432852e+06   1.377294e-15   0.000000e+00   0.000000e+00
     3424000   3.423999e-05   7.926960e+00   1.510384e+01   5.344151e-01   3.108105e+05  -1.713767e+06   1.713776e+06  -8.395376e+13   1.612645e+14   1.768649e+14   2.443487e+06   1.368870e-15   0.000000e+00   0.000000e+00
     3432000   3.431999e-05   7.869610e+00   1.508809e+01   5.749007e-01  -1.862394e+06   1.597448e+06  -3.598998e+04  -1.019264e+13  -1.713401e+13  -2.506283e+14   2.453905e+06   1.356459e-15   0.000000e+00   0.000000e+00
     3440000   3.439999e-05   7.806469e+00   1.506728e+01   5.424362e-01   5.792518e+04  -1.854979e+06  -1.620930e+06   1.025766e+14  -1.475455e+14   1.721335e+14   2.464086e+06   1.339817e-15   0.000000e+00   0.000000e+00
     3448000   3.447999e-05   7.771042e+00   1.500199e+01   5.586771e-01  -3.842131e+05  -6.532112e+05   2.355108e+06  -1.240038e+14   2.097304e+14   3.819894e+13   2.474033e+06   1.326694e-15   0.000000e+00   0.000000e+00
     3456000   3.455999e-05   7.698871e+00   1.499409e+01   5.871479e-01  -1.899604e+06   1.347193e+06  -8.634307e+05   3.618350e+13  -9.162719e+13  -2.232597e+14   2.483734e+06   1.309131e-15   0.000000e+00   0.000000e+00
     3464000   3.463999e-05   7.633797e+00   1.496078e+01   5.544245e-01   8.079647e+04  -2.062246e+06  -1.398778e+06   8.992495e+13  -1.231762e+14   1.863807e+14   2.493184e+06   1.284710e-15   0.000000e+00   0.000000e+00
     3472000   3.471999e-05   7.590793e+00   1.489272e+01   5.704984e-01  -2.992544e+05  -9.784515e+05   2.283619e+06  -1.137818e+14   1.971433e+14   6.980686e+13   2.502366e+06   1.264916e-15   0.000000e+00   0.000000e+00
     3480000   3.479999e-05   7.517018e+00   1.487320e+01   6.055294e-01  -2.022774e+06   1.485956e+06   8.294101e+04  -1.615159e+13  -8.541754e+12  -2.342197e+14   2.511287e+06   1.240421e-15   0.000000e+00   0.000000e+00
     3488000   3.487999e-05   7.436747e+00   1.485104e+01   5.841966e-01  -7.695985e+05  -9.789389e+05  -2.190765e+06   1.206053e+14  -1.925985e+14   4.345022e+13   2.519931e+06   1.211301e-15   0.000000e+00   0.000000e+00
     3496000   3.495999e-05   7.381864e+00   1.478326e+01   5.724233e-01   3.191773e+05  -2.400556e+06   7.264601e+05  -1.909678e+13   6.326122e+13   2.181496e+14   2.528298e+06   1.183549e-15   0.000000e+00   0.000000e+00
     3504000   3.503999e-05   7.320990e+00   1.472727e+01   6.078808e-01  -1.082699e+06   8.241061e+04   2.292208e+06  -1.167211e+14   1.817316e+14  -6.144562e+13   2.536385e+06   1.156056e-15   0.000000e+00   0.000000e+00
     3512000   3.511999e-05   7.234805e+00   1.470600e+01   6.317656e-01  -2.138229e+06   1.346925e+06  -2.943769e+05   3.625505e+12  -4.128389e+13  -2.168853e+14   2.544187e+06   1.124681e-15   0.000000e+00   0.000000e+00
     3520000   3.519999e-05   7.147043e+00   1.467590e+01   6.167936e-01  -1.183225e+06  -5.896434e+05  -2.182538e+06   1.117752e+14  -1.853368e+14  -1.074079e+13   2.551700e+06   1.089617e-15   0.000000e+00   0.000000e+00
     3528000   3.527999e-05   7.075246e+00   1.461421e+01   6.007229e-01   5.545162e+04  -2.449024e+06  -7.397962e+05   5.493510e+13  -5.844247e+13   1.969744e+14   2.558924e+06   1.055506e-15   0.000000e+00   0.000000e+00
     3536000   3.535999e-05   7.008856e+00   1.454323e+01   6.134998e-01  -3.488625e+04  -1.968130e+06   1.645864e+06  -6.321544e+13   1.281626e+14   1.521821e+14   2.565857e+06   1.022496e-15   0.000000e+00   0.000000e+00
     3544000   3.543999e-05   6.932121e+00   1.448721e+01   6.449190e-01  -1.104422e+06  -1.614796e+05   2.317747e+06  -1.080500e+14   1.690999e+14  -3.952475e+13   2.572504e+06   9.865453e-16   0.000000e+00   0.000000e+00
     3552000   3.551999e-05   6.842116e+00   1.444711e+01   6.714391e-01  -2.035767e+06   1.094526e+06   1.143762e+06  -6.248830e+13   6.932237e+13  -1.772096e+14   2.578861e+06   9.507073e-16   0.000000e+00   0.000000e+00
     3560000   3.559999e-05   6.745382e+00   1.441008e+01   6.828730e-01  -2.273051e+06   1.106510e+06  -5.391926e+05   1.497648e+13  -5.942035e+13  -1.857856e+14   2.584928e+06   9.113193e-16   0.000000e+00   0.000000e+00
     3568000   3.567999e-05   6.648355e+00   1.436621e+01   6.834603e-01  -1.950638e+06   2.984825e+05  -1.678591e+06   7.246304e+13  -1.389395e+14  -1.091301e+14   2.590704e+06   8.721793e-16   0.000000e+00   0.000000e+00
     3576000   3.575999e-05   6.553324e+00   1.431328e+01   6.813865e-01  -1.438480e+06  -6.794702e+05  -2.051665e+06   9.601059e+13  -1.589699e+14  -1.483726e+13   2.596196e+06   8.337313e-16   0.000000e+00   0.000000e+00
     3584000   3.583999e-05   6.459319e+00   1.425398e+01   6.821717e-01  -9.996603e+05  -1.438077e+06  -1.923517e+06   9.534314e+13  -1.433445e+14   5.744704e+13   2.601404e+06   7.943576e-16   0.000000e+00   0.000000e+00
     3592000   3.591999e-05   6.364553e+00   1.419169e+01   6.873542e-01  -7.239465e+05  -1.897690e+06  -1.633305e+06   8.554288e+13  -1.183742e+14   9.942832e+13   2.606340e+06   7.556854e-16   0.000000e+00   0.000000e+00
     3600000   3.599999e-05   6.267547e+00   1.412886e+01   6.966487e-01  -6.087200e+05  -2.109126e+06  -1.413648e+06   7.692443e+13  -1.002494e+14   1.162372e+14   2.611007e+06   7.161780e-16   0.000000e+00   0.000000e+00
     3608000   3.607999e-05   6.167484e+00   1.406661e+01   7.094530e-01  -6.303926e+05  -2.135885e+06  -1.371474e+06   7.458928e+13  -9.572603e+13   1.145925e+14   2.615404e+06   6.791048e-16   0.000000e+00   0.000000e+00
     3616000   3.615999e-05   6.064355e+00   1.400513e+01   7.257238e-01  -7.835525e+05  -1.993284e+06  -1.508272e+06   7.787553e+13  -1.038850e+14   9.666080e+13   2.619546e+06   6.407015e-16   0.000000e+00   0.000000e+00
     3624000   3.623999e-05   5.958760e+00   1.394366e+01   7.464438e-01  -1.089768e+06  -1.631909e+06  -1.741176e+06   8.271206e+13  -1.191314e+14   5.974615e+13   2.623436e+06   6.034412e-16   0.000000e+00   0.000000e+00
     3632000   3.631999e-05   5.852295e+00   1.387998e+01   7.726917e-01  -1.559400e+06  -9.919922e+05  -1.867021e+06   8.045530e+13  -1.288510e+14   1.138956e+12   2.627079e+06   5.675815e-16   0.000000e+00   0.000000e+00
     3640000   3.639999e-05   5.747474e+00   1.381017e+01   8.037135e-01  -2.110158e+06  -1.210733e+05  -1.565894e+06   5.961349e+13  -1.138339e+14  -7.167031e+13   2.630485e+06   5.338323e-16   0.000000e+00   0.000000e+00
     3648000   3.647999e-05   5.646252e+00   1.373007e+01   8.340949e-01  -2.487346e+06   6.657666e+05  -5.532232e+05   1.360820e+13  -5.671181e+13  -1.297986e+14   2.633665e+06   5.005298e-16   0.000000e+00   0.000000e+00
     3656000   3.655999e-05   5.546648e+00   1.364002e+01   8.531583e-01  -2.312041e+06   7.489825e+05   1.022396e+06  -4.411186e+13   3.506246e+13  -1.252558e+14   2.636627e+06   4.673478e-16   0.000000e+00   0.000000e+00
     3664000   3.663999e-05   5.439967e+00   1.355128e+01   8.528621e-01  -1.442674e+06  -3.508248e+05   2.182190e+06  -7.277372e+13   1.063013e+14  -3.094145e+13   2.639383e+06   4.357817e-16   0.000000e+00   0.000000e+00
     3672000   3.671999e-05   5.315883e+00   1.348269e+01   8.442652e-01  -4.986077e+05  -2.050542e+06   1.589499e+06  -3.389818e+13   8.035534e+13   9.313176e+13   2.641938e+06   4.049413e-16   0.000000e+00   0.000000e+00
     3680000   3.679999e-05   5.178913e+00   1.343676e+01   8.614918e-01  -6.613169e+05  -2.493313e+06  -5.817130e+05   4.395499e+13  -3.690957e+13   1.079732e+14   2.644303e+06   3.725991e-16   0.000000e+00   0.000000e+00
     3688000   3.687999e-05   5.055493e+00   1.337798e+01   9.203911e-01  -2.021125e+06  -7.415047e+05  -1.539187e+06   5.705888e+13  -9.897189e+13  -2.733455e+13   2.646483e+06   3.444058e-16   0.000000e+00   0.000000e+00
     3696000   3.695999e-05   4.957702e+00   1.327267e+01   9.696808e-01  -2.490697e+06   6.415629e+05   6.318958e+05  -2.680361e+13   3.817863e+12  -1.093253e+14   2.648484e+06   3.170962e-16   0.000000e+00   0.000000e+00
     3704000   3.703999e-05   4.843854e+00   1.316739e+01   9.584000e-01  -1.027630e+06  -1.153763e+06   2.153367e+06  -5.305121e+13   9.109312e+13   2.354432e+13   2.650317e+06   2.920455e-16   0.000000e+00   0.000000e+00
     3712000   3.711999e-05   4.691121e+00   1.312311e+01   9.645212e-01  -7.694869e+05  -2.510862e+06  -3.694949e+05   3.777905e+13  -2.520237e+13   9.229728e+13   2.651993e+06   2.652064e-16   0.000000e+00   0.000000e+00
     3720000   3.719999e-05   4.568536e+00   1.305714e+01   1.048194e+00  -2.494452e+06  -1.224051e+05  -8.966116e+05   2.687421e+13  -6.844312e+13  -6.553078e+13   2.653524e+06   2.434260e-16   0.000000e+00   0.000000e+00
     3728000   3.727999e-05   4.471031e+00   1.292534e+01   1.069857e+00  -1.604365e+06  -3.300604e+05   2.089417e+06  -5.402627e+13   7.081368e+13  -3.025559e+13   2.654918e+06   2.222768e-16   0.000000e+00   0.000000e+00
     3736000   3.735999e-05   4.311445e+00   1.287087e+01   1.061102e+00  -7.655420e+05  -2.543476e+06  -8.673311e+02   2.917240e+13  -8.840569e+12   8.414441e+13   2.656186e+06   2.013840e-16   0.000000e+00   0.000000e+00
     3744000   3.743999e-05   4.189424e+00   1.280289e+01   1.161423e+00  -2.625522e+06   4.246917e+04  -4.077611e+05   9.939916e+12  -4.861158e+13  -6.924282e+13   2.657337e+06   1.826096e-16   0.000000e+00   0.000000e+00
     3752000   3.751999e-05   4.080337e+00   1.266636e+01   1.162160e+00  -9.871612e+05  -1.287675e+06   2.105798e+06  -3.681606e+13   6.831475e+13   2.454653e+13   2.658379e+06   1.668468e-16   0.000000e+00   0.000000e+00
     3760000   3.759999e-05   3.910328e+00   1.263825e+01   1.207740e+00  -1.782748e+06  -1.703275e+06  -9.963095e+05   4.523572e+13  -5.889800e+13   1.968920e+13   2.659317e+06   1.487694e-16   0.000000e+00   0.000000e+00
     3768000   3.767999e-05   3.822765e+00   1.250220e+01   1.287349e+00  -1.923603e+06  -1.504826e+03   1.837452e+06  -4.252319e+13   3.913127e+13  -4.445597e+13   2.660165e+06   1.340588e-16   0.000000e+00   0.000000e+00
     3776000   3.775999e-05   3.648470e+00   1.244468e+01   1.284418e+00  -1.117574e+06  -2.409239e+06  -1.646322e+05   3.528155e+13  -2.020648e+13   5.591076e+13   2.660922e+06   1.205913e-16   0.000000e+00   0.000000e+00
     3784000   3.783999e-05   3.553942e+00   1.233952e+01   1.404697e+00  -2.328297e+06   2.356452e+05   1.267934e+06  -3.042842e+13   7.918447e+12  -5.731340e+13   2.661607e+06   1.078874e-16   0.000000e+00   0.000000e+00
     3792000   3.791999e-05   3.385491e+00   1.225605e+01   1.394199e+00  -9.505697e+05  -2.464082e+06   3.348553e+05   2.750527e+13  -3.039444e+12   5.583028e+13   2.662219e+06   9.807020e-17   0.000000e+00   0.000000e+00
     3800000   3.799999e-05   3.290907e+00   1.216136e+01   1.529256e+00  -2.309274e+06   1.957444e+05   1.311221e+06  -2.865836e+13   3.725287e+12  -5.100197e+13   2.662773e+06   8.683149e-17   0.000000e+00   0.000000e+00
     3808000   3.807999e-05   3.116321e+00   1.208033e+01   1.529990e+00  -1.118183e+06  -2.403881e+06   2.530080e+05   3.120262e+13  -9.717687e+12   4.569671e+13   2.663267e+06   7.978152e-17   0.000000e+00   0.000000e+00
     3816000   3.815999e-05   3.036871e+00   1.196759e+01   1.666099e+00  -1.884233e+06   4.183028e+04   1.882368e+06  -3.431433e+13   1.982417e+13  -3.477411e+13   2.663718e+06   7.028872e-17   0.000000e+00   0.000000e+00
     3824000   3.823999e-05   2.850599e+00   1.191765e+01   1.701767e+00  -1.706883e+06  -2.043630e+06  -8.745801e+04   3.456242e+13  -2.982920e+13   2.218309e+13   2.664117e+06   6.516738e-17   0.000000e+00   0.000000e+00
     3832000   3.831999e-05   2.779866e+00   1.176819e+01   1.808213e+00  -1.008990e+06  -6.364955e+05   2.382504e+06  -2.788764e+13   3.976216e+13  -1.177880e+12   2.664491e+06   5.971397e-17   0.000000e+00   0.000000e+00
     3840000   3.839999e-05   2.614155e+00   1.175227e+01   1.917058e+00  -2.467679e+06  -9.963231e+05   1.384919e+05   1.562286e+13  -4.083994e+13  -1.527974e+13   2.664823e+06   5.429452e-17   0.000000e+00   0.000000e+00
     3848000   3.847999e-05   2.503641e+00   1.159556e+01   1.969957e+00  -4.532360e+05  -1.828997e+06   1.884761e+06   5.542822e+12   3.180128e+13   3.220432e+13   2.665141e+06   5.263000e-17   0.000000e+00   0.000000e+00
     3856000   3.855999e-05   2.414616e+00   1.155430e+01   2.144425e+00  -2.207785e+06   1.302074e+05   1.487708e+06  -2.335251e+13  -1.253106e+13  -3.354651e+13   2.665434e+06   4.627585e-17   0.000000e+00   0.000000e+00
     3864000   3.863999e-05   2.240513e+00   1.147027e+01   2.199226e+00  -1.300930e+06  -2.201212e+06   7.538264e+05   3.348460e+13  -1.140306e+13   2.451374e+13   2.665710e+06   4.690382e-17   0.000000e+00   0.000000e+00
     3872000   3.871999e-05   2.197583e+00   1.134229e+01   2.347745e+00  -6.396289e+05  -3.353084e+05   2.566303e+06  -2.534979e+13   3.325784e+13  -1.965980e+12   2.665983e+06   4.439113e-17   0.000000e+00   0.000000e+00
     3880000   3.879999e-05   2.057250e+00   1.134074e+01   2.493259e+00  -2.399770e+06  -7.616170e+05   8.774125e+05   6.255739e+12  -3.740469e+13  -1.533939e+13   2.666235e+06   4.239651e-17   0.000000e+00   0.000000e+00
     3888000   3.887999e-05   1.942983e+00   1.119862e+01   2.578681e+00  -2.457409e+05  -1.876945e+06   1.878001e+06   2.083212e+13   2.428536e+13   2.700697e+13   2.666495e+06   4.442194e-17   0.000000e+00   0.000000e+00
     3896000   3.895999e-05   1.911177e+00   1.115332e+01   2.772466e+00  -1.372834e+06   4.286485e+05   2.245699e+06  -3.456873e+13   2.394036e+12  -2.158198e+13   2.666754e+06   4.223566e-17   0.000000e+00   0.000000e+00
     3904000   3.903999e-05   1.749094e+00   1.111668e+01   2.887452e+00  -1.684709e+06  -1.763235e+06   1.079670e+06   3.229760e+13  -2.582510e+13   8.237820e+12   2.667008e+06   4.506713e-17   0.000000e+00   0.000000e+00
     3912000   3.911999e-05   1.714407e+00   1.098286e+01   3.033162e+00   1.979273e+05  -5.996634e+05   2.591451e+06  -9.989178e+12   4.055801e+13   1.015522e+13   2.667281e+06   4.684986e-17   0.000000e+00   0.000000e+00
     3920000   3.919999e-05   1.640179e+00   1.100308e+01   3.219068e+00  -2.124500e+06  -3.607615e+04   1.612777e+06  -1.405490e+13  -3.562333e+13  -1.929988e+13   2.667556e+06   4.663546e-17   0.000000e+00   0.000000e+00
     3928000   3.927999e-05   1.517816e+00   1.089397e+01   3.334058e+00  -1.898605e+05  -1.898029e+06   1.865168e+06   3.576956e+13   1.730765e+13   2.126454e+13   2.667848e+06   5.151973e-17   0.000000e+00   0.000000e+00
     3936000   3.935999e-05   1.528031e+00   1.085201e+01   3.528832e+00  -7.313962e+05   7.363351e+05   2.458037e+06  -4.241230e+13   8.737476e+12  -1.522875e+13   2.668160e+06   5.345671e-17   0.000000e+00   0.000000e+00
     3944000   3.943999e-05   1.389677e+00   1.083846e+01   3.671739e+00  -1.513473e+06  -1.653767e+06   1.447502e+06   3.767877e+13  -2.899467e+13   6.285563e+12   2.668485e+06   5.836224e-17   0.000000e+00   0.000000e+00
     3952000   3.951999e-05   1.385642e+00   1.072742e+01   3.835321e+00   5.415111e+05   1.512548e+03   2.613326e+06  -2.044813e+13   4.490856e+13   4.220480e+12   2.668841e+06   6.225732e-17   0.000000e+00   0.000000e+00
     3960000   3.959999e-05   1.310402e+00   1.076693e+01   4.013503e+00  -2.071792e+06  -4.747100e+05   1.614634e+06   3.277870e+12  -4.969954e+13  -1.038992e+13   2.669216e+06   6.572801e-17   0.000000e+00   0.000000e+00
     3968000   3.967999e-05   1.249853e+00   1.064762e+01   4.156543e+00   7.672277e+05  -1.007127e+06   2.350306e+06   1.638049e+13   4.792116e+13   1.519934e+13   2.669622e+06   7.100675e-17   0.000000e+00   0.000000e+00
     3976000   3.975999e-05   1.238973e+00   1.068265e+01   4.348073e+00  -1.782378e+06   4.861014e+05   1.927704e+06  -2.999643e+13  -4.229456e+13  -1.705435e+13   2.670057e+06   7.569675e-17   0.000000e+00   0.000000e+00
     3984000   3.983999e-05   1.142096e+00   1.059065e+01   4.488320e+00   4.838502e+05  -1.568653e+06   2.106402e+06   4.125374e+13   3.542254e+13   1.691864e+13   2.670526e+06   8.241797e-17   0.000000e+00   0.000000e+00
     3992000   3.991999e-05   1.165707e+00   1.060626e+01   4.678712e+00  -1.327945e+06   9.580915e+05   2.110220e+06  -4.836151e+13  -2.911804e+13  -1.719671e+13   2.671031e+06   8.853977e-17   0.000000e+00   0.000000e+00
     4000000   3.999999e-05   1.058332e+00   1.053914e+01   4.821937e+00   2.725639e+05  -1.750140e+06   2.000008e+06   5.292674e+13   2.644901e+13   1.595048e+13   2.671575e+06   9.551431e-17   0.000000e+00   0.000000e+00
     4008000   4.007999e-05   1.093356e+00   1.054653e+01   5.008380e+00  -1.158600e+06   1.104549e+06   2.139637e+06  -5.532408e+13  -2.659450e+13  -1.620988e+13   2.672158e+06   1.025681e-16   0.000000e+00   0.000000e+00
     4016000   4.015999e-05   9.914022e-01   1.048459e+01   5.154207e+00   4.296144e+05  -1.697190e+06   2.019594e+06   5.520587e+13   3.213780e+13   1.528517e+13   2.672785e+06   1.098309e-16   0.000000e+00   0.000000e+00
     4024000   4.023999e-05   1.023750e+00   1.050395e+01   5.337345e+00  -1.413904e+06   9.945543e+05   2.039389e+06  -5.200436e+13  -4.133509e+13  -1.587366e+13   2.673457e+06   1.188223e-16   0.000000e+00   0.000000e+00
     4032000   4.031999e-05   9.404728e-01   1.042745e+01   5.484139e+00   9.345815e+05  -1.313713e+06   2.133531e+06   4.288762e+13   5.392124e+13   1.443832e+13   2.674180e+06   1.262848e-16   0.000000e+00   0.000000e+00
     4040000   4.039999e-05   9.499225e-01   1.047137e+01   5.662461e+00  -1.891812e+06   3.653653e+05   1.855510e+06  -2.537268e+13  -6.728698e+13  -1.259100e+13   2.674951e+06   1.359076e-16   0.000000e+00   0.000000e+00
     4048000   4.047999e-05   9.108636e-01   1.037793e+01   5.813897e+00   1.364003e+06  -2.600727e+05   2.287275e+06  -1.319650e+11   7.468341e+13   8.595222e+12   2.675774e+06   1.441982e-16   0.000000e+00   0.000000e+00
     4056000   4.055999e-05   8.695951e-01   1.043121e+01   5.981660e+00  -1.822654e+06  -9.584973e+05   1.709882e+06   3.451533e+13  -7.005779e+13  -2.444400e+12   2.676655e+06   1.558817e-16   0.000000e+00   0.000000e+00
     4064000   4.063999e-05   8.937242e-01   1.035816e+01   6.143419e+00   6.672585e+05   1.199541e+06   2.298990e+06  -6.588090e+13   4.591178e+13  -4.805921e+12   2.677590e+06   1.653390e-16   0.000000e+00   0.000000e+00
     4072000   4.071999e-05   8.038426e-01   1.036233e+01   6.296476e+00  -2.378846e+05  -1.948128e+06   1.822922e+06   8.213238e+13   2.936657e+11   1.106949e+13   2.678589e+06   1.756164e-16   0.000000e+00   0.000000e+00
     4080000   4.079999e-05   8.476529e-01   1.036897e+01   6.466642e+00  -1.381404e+06   1.175289e+06   1.972538e+06  -6.531921e+13  -5.326643e+13  -1.396972e+13   2.679643e+06   1.867756e-16   0.000000e+00   0.000000e+00
     4088000   4.087999e-05   7.956099e-01   1.029506e+01   6.615316e+00   1.521981e+06  -4.226324e+05   2.165975e+06   1.097662e+13   8.640910e+13   9.182832e+12   2.680764e+06   1.964655e-16   0.000000e+00   0.000000e+00
     4096000   4.095999e-05   7.580254e-01   1.034402e+01   6.776355e+00  -1.586996e+06  -1.333841e+06   1.701527e+06   5.898453e+13  -6.897537e+13   9.922826e+11   2.681954e+06   2.111598e-16   0.000000e+00   0.000000e+00
     4104000   4.103999e-05   7.991931e-01   1.030389e+01   6.937105e+00  -2.936006e+05   1.652701e+06   2.093321e+06  -9.271295e+13  -2.200760e+12  -1.122432e+13   2.683210e+06   2.238974e-16   0.000000e+00   0.000000e+00
     4112000   4.111999e-05   7.281244e-01   1.025997e+01   7.083724e+00   1.353473e+06  -1.131591e+06   2.023459e+06   4.980130e+13   8.049868e+13   1.175110e+13   2.684543e+06   2.336686e-16   0.000000e+00   0.000000e+00
     4120000   4.119999e-05   7.134121e-01   1.030826e+01   7.243050e+00  -1.820001e+06  -1.035497e+06   1.682161e+06   4.765284e+13  -8.643409e+13  -1.591148e+12   2.685949e+06   2.505187e-16   0.000000e+00   0.000000e+00
     4128000   4.127999e-05   7.496167e-01   1.026722e+01   7.399024e+00  -3.025477e+05   1.728763e+06   2.035223e+06  -1.008629e+14  -4.559491e+12  -1.107023e+13   2.687432e+06   2.655295e-16   0.000000e+00   0.000000e+00
     4136000   4.135999e-05   6.896093e-01   1.022123e+01   7.543724e+00   1.618540e+06  -7.268252e+05   2.020588e+06   3.154193e+13   9.805811e+13   1.005962e+13   2.689000e+06   2.760135e-16   0.000000e+00   0.000000e+00
     4144000   4.143999e-05   6.577590e-01   1.026275e+01   7.696631e+00  -1.248575e+06  -1.701573e+06   1.668928e+06   8.788145e+13  -6.070182e+13   3.925989e+12   2.690653e+06   2.947182e-16   0.000000e+00   0.000000e+00
     4152000   4.151999e-05   6.976034e-01   1.025561e+01   7.851252e+00  -1.476097e+06   1.301737e+06   1.837267e+06  -8.051251e+13  -7.335663e+13  -1.264544e+13   2.692384e+06   3.105989e-16   0.000000e+00   0.000000e+00
     4160000   4.159999e-05   6.784935e-01   1.019445e+01   7.995502e+00   1.453245e+06   9.520812e+05   2.059213e+06  -6.188376e+13   9.332494e+13   5.850391e+11   2.694204e+06   3.243683e-16   0.000000e+00   0.000000e+00
     4168000   4.167999e-05   6.180532e-01   1.019680e+01   8.139535e+00   8.158925e+05  -1.827914e+06   1.806131e+06   9.941367e+13   5.553457e+13   1.136822e+13   2.696119e+06   3.392598e-16   0.000000e+00   0.000000e+00
     4176000   4.175999e-05   6.194063e-01   1.023343e+01   8.289465e+00  -1.879975e+06  -1.060616e+06   1.618841e+06   5.688273e+13  -1.032555e+14  -1.505607e+12   2.698121e+06   3.606007e-16   0.000000e+00   0.000000e+00
     4184000   4.183999e-05   6.523138e-01   1.021273e+01   8.437051e+00  -1.207273e+06   1.593257e+06   1.815267e+06  -1.020581e+14  -6.322992e+13  -1.229834e+13   2.700216e+06   3.784526e-16   0.000000e+00   0.000000e+00
     4192000   4.191999e-05   6.341367e-01   1.016107e+01   8.577437e+00   1.418430e+06   1.167747e+06   1.981775e+06  -7.751096e+13   9.540004e+13  -6.600983e+11   2.702408e+06   3.932349e-16   0.000000e+00   0.000000e+00
     4200000   4.199999e-05   5.817621e-01   1.015321e+01   8.716673e+00   1.444469e+06  -1.387150e+06   1.817901e+06   7.907940e+13   9.667815e+13   1.102180e+13   2.704706e+06   4.098656e-16   0.000000e+00   0.000000e+00
     4208000   4.207999e-05   5.622609e-01   1.018401e+01   8.859249e+00  -9.461411e+05  -1.971596e+06   1.595638e+06   1.178157e+14  -5.203173e+13   5.672265e+12   2.707108e+06   4.340554e-16   0.000000e+00   0.000000e+00
     4216000   4.215999e-05   5.850859e-01   1.019560e+01   9.002348e+00  -2.183825e+06   7.951528e+04   1.602051e+06  -1.037229e+13  -1.314421e+14  -7.506133e+12   2.709610e+06   4.563362e-16   0.000000e+00   0.000000e+00
     4224000   4.223999e-05   6.039348e-01   1.016612e+01   9.141652e+00  -7.799077e+05   1.893538e+06   1.778312e+06  -1.276114e+14  -4.181427e+13  -1.134032e+13   2.712220e+06   4.761099e-16   0.000000e+00   0.000000e+00
     4232000   4.231999e-05   5.872843e-01   1.012636e+01   9.276832e+00   1.359208e+06   1.407538e+06   1.882094e+06  -9.731186e+13   9.660689e+13  -1.871696e+12   2.714938e+06   4.939865e-16   0.000000e+00   0.000000e+00
     4240000   4.239999e-05   5.479262e-01   1.011114e+01   9.410426e+00   1.948098e+06  -5.928919e+05   1.799910e+06   3.337327e+13   1.351812e+14   8.515997e+12   2.717772e+06   5.122425e-16   0.000000e+00   0.000000e+00
     4248000   4.247999e-05   5.173246e-01   1.012456e+01   9.544812e+00   6.549690e+05  -2.075171e+06   1.633097e+06   1.329995e+14   5.011115e+13   1.045973e+13   2.720721e+06   5.357588e-16   0.000000e+00   0.000000e+00
     4256000   4.255999e-05   5.115891e-01   1.014578e+01   9.679890e+00  -1.201987e+06  -1.923728e+06   1.507812e+06   1.252003e+14  -7.499199e+13   4.269851e+12   2.723784e+06   5.636097e-16   0.000000e+00   0.000000e+00
     4264000   4.263999e-05   5.247560e-01   1.015425e+01   9.814119e+00  -2.227852e+06  -4.921908e+05   1.493574e+06   2.902897e+13  -1.462615e+14  -4.749529e+12   2.726965e+06   5.898499e-16   0.000000e+00   0.000000e+00
     4272000   4.271999e-05   5.404285e-01   1.014354e+01   9.946161e+00  -1.931131e+06   1.125907e+06   1.567626e+06  -8.301775e+13  -1.270095e+14  -1.089921e+13   2.730272e+06   6.147773e-16   0.000000e+00   0.000000e+00
     4280000   4.279999e-05   5.458707e-01   1.012011e+01   1.007572e+01  -7.169280e+05   2.044579e+06   1.666987e+06  -1.485256e+14  -4.278879e+13  -1.125198e+13   2.733703e+06   6.396306e-16   0.000000e+00   0.000000e+00
     4288000   4.287999e-05   5.379033e-01   1.009469e+01   1.020289e+01   6.818480e+05   2.010649e+06   1.727721e+06  -1.474989e+14   5.571414e+13  -6.482956e+12   2.737269e+06   6.649214e-16   0.000000e+00   0.000000e+00
