     timestep     time              x             y              z              vx             vy             vz             ax             ay             az         v_magnitude      ELoss        Electronic      Nuclear
           0   0.000000e+00   1.000000e-01   8.623742e+00   1.540356e+00  -3.253016e+04  -3.503327e+04  -1.394639e+05   0.000000e+00   0.000000e+00   0.000000e+00   1.474304e+05   0.000000e+00   0.000000e+00   0.000000e+00
        8000   7.999000e-08   9.917393e-02   8.619873e+00   1.529310e+00   1.441455e+04  -5.561308e+04  -1.357773e+05   6.517450e+11  -1.965244e+10   7.720902e+10   1.474315e+05   3.338961e-23   0.000000e+00   0.000000e+00
       16000   1.599900e-07   1.023213e-01   8.615877e+00   1.518737e+00   6.195179e+04  -3.819002e+04  -1.282182e+05   4.796646e+11   4.324053e+11   1.029357e+11   1.474327e+05   3.312134e-23   0.000000e+00   0.000000e+00
       24000   2.399900e-07   1.083982e-01   8.614516e+00   1.508791e+00   8.421140e+04   6.963752e+03  -1.208168e+05   5.187997e+10   6.414951e+11   7.310163e+10   1.474339e+05   3.249479e-23   0.000000e+00   0.000000e+00
       32000   3.199900e-07   1.147973e-01   8.617069e+00   1.499291e+00   6.976454e+04   5.499205e+04  -1.176684e+05  -3.944155e+11   5.026442e+11   1.029468e+09   1.474350e+05   3.161733e-23   0.000000e+00   0.000000e+00
       40000   3.999900e-07   1.187945e-01   8.622693e+00   1.489795e+00   2.713146e+04   8.017794e+04  -1.207178e+05  -6.198348e+11   9.867917e+10  -7.380124e+10   1.474361e+05   3.093335e-23   0.000000e+00   0.000000e+00
       48000   4.799900e-07   1.190082e-01   8.628925e+00   1.479850e+00  -2.031812e+04   6.959809e+04  -1.283783e+05  -5.108240e+11  -3.489071e+11  -1.083378e+11   1.474372e+05   3.054921e-23   0.000000e+00   0.000000e+00
       56000   5.599900e-07   1.160989e-01   8.633031e+00   1.469244e+00  -4.735761e+04   2.962563e+04  -1.364464e+05  -1.351864e+11  -6.026766e+11  -8.396306e+10   1.474382e+05   3.009501e-23   0.000000e+00   0.000000e+00
       64000   6.399900e-07   1.123580e-01   8.633454e+00   1.458124e+00  -4.028056e+04  -1.815786e+04  -1.406631e+05   3.021393e+11  -5.373493e+11  -1.718310e+10   1.474393e+05   2.945902e-23   0.000000e+00   0.000000e+00
       72000   7.199900e-07   1.104606e-01   8.630588e+00   1.446897e+00  -3.480377e+03  -4.894925e+04  -1.390342e+05   5.753513e+11  -1.993108e+11   5.574125e+10   1.474403e+05   2.895849e-23   0.000000e+00   0.000000e+00
       80000   7.999900e-07   1.120843e-01   8.626496e+00   1.436011e+00   4.378596e+04  -4.756612e+04  -1.325111e+05   5.542967e+11   2.304907e+11   1.003928e+11   1.474413e+05   2.869462e-23   0.000000e+00   0.000000e+00
       88000   8.799900e-07   1.171064e-01   8.623812e+00   1.425741e+00   7.781565e+04  -1.542663e+04  -1.242818e+05   2.607163e+11   5.368391e+11   9.657514e+10   1.474423e+05   2.831135e-23   0.000000e+00   0.000000e+00
       96000   9.599900e-07   1.237314e-01   8.624416e+00   1.416063e+00   8.224583e+04   3.105333e+04  -1.183674e+05  -1.529781e+11   5.750477e+11   4.453740e+10   1.474433e+05   2.758129e-23   0.000000e+00   0.000000e+00
      104000   1.039990e-06   1.294233e-01   8.628549e+00   1.406657e+00   5.561956e+04   6.901759e+04  -1.178254e+05  -4.826904e+11   3.343975e+11  -3.200643e+10   1.474442e+05   2.678922e-23   0.000000e+00   0.000000e+00
      112000   1.119990e-06   1.321581e-01   8.634736e+00   1.397053e+00   1.157253e+04   8.034160e+04  -1.230909e+05  -5.706817e+11  -6.156740e+10  -9.386588e+10   1.474452e+05   2.620412e-23   0.000000e+00   0.000000e+00
      120000   1.199990e-06   1.313904e-01   8.640550e+00   1.386874e+00  -2.824553e+04   6.022372e+04  -1.315889e+05  -3.833549e+11  -4.185535e+11  -1.092959e+11   1.474461e+05   2.588023e-23   0.000000e+00   0.000000e+00
      128000   1.279990e-06   1.282662e-01   8.643800e+00   1.376025e+00  -4.494909e+04   1.899762e+04  -1.391376e+05  -1.835249e+10  -5.683327e+11  -7.169394e+10   1.474470e+05   2.544562e-23   0.000000e+00   0.000000e+00
      136000   1.359990e-06   1.250245e-01   8.643559e+00   1.364734e+00  -3.118717e+04  -2.340715e+04  -1.421982e+05   3.467290e+11  -4.488312e+11  -2.186059e+09   1.474478e+05   2.491887e-23   0.000000e+00   0.000000e+00
      144000   1.439990e-06   1.239103e-01   8.640556e+00   1.353429e+00   5.989201e+03  -4.732564e+04  -1.395189e+05   5.445739e+11  -1.265898e+11   6.629447e+10   1.474487e+05   2.455546e-23   0.000000e+00   0.000000e+00
      152000   1.519990e-06   1.261454e-01   8.636770e+00   1.342531e+00   4.919828e+04  -4.234045e+04  -1.323941e+05   4.934216e+11   2.446846e+11   1.050824e+11   1.474496e+05   2.435410e-23   0.000000e+00   0.000000e+00
      160000   1.599990e-06   1.314203e-01   8.634486e+00   1.332282e+00   7.907432e+04  -1.134224e+04  -1.239364e+05   2.257081e+11   4.992031e+11   9.829666e+10   1.474504e+05   2.400057e-23   0.000000e+00   0.000000e+00
      168000   1.679990e-06   1.380895e-01   8.635275e+00   1.322637e+00   8.282387e+04   3.147672e+04  -1.178613e+05  -1.339696e+11   5.300983e+11   4.740198e+10   1.474512e+05   2.333377e-23   0.000000e+00   0.000000e+00
      176000   1.759990e-06   1.439381e-01   8.639331e+00   1.313283e+00   5.946470e+04   6.723309e+04  -1.169862e+05  -4.262763e+11   3.304941e+11  -2.676529e+10   1.474520e+05   2.259458e-23   0.000000e+00   0.000000e+00
      184000   1.839990e-06   1.471636e-01   8.645426e+00   1.303764e+00   1.982983e+04   8.061678e+04  -1.218608e+05  -5.262175e+11  -7.207098e+09  -9.042015e+10   1.474528e+05   2.208954e-23   0.000000e+00   0.000000e+00
      192000   1.919990e-06   1.471481e-01   8.651481e+00   1.293687e+00  -1.844242e+04   6.634980e+04  -1.303846e+05  -3.947712e+11  -3.341404e+11  -1.142191e+11   1.474536e+05   2.173398e-23   0.000000e+00   0.000000e+00
      200000   1.999990e-06   1.446960e-01   8.655480e+00   1.282906e+00  -3.887317e+04   3.128080e+04  -1.387558e+05  -9.817089e+10  -5.089014e+11  -8.724239e+10   1.474544e+05   2.140025e-23   0.000000e+00   0.000000e+00
      208000   2.079990e-06   1.416342e-01   8.656341e+00   1.271588e+00  -3.322889e+04  -9.154759e+03  -1.433703e+05   2.326579e+11  -4.650295e+11  -2.424800e+10   1.474551e+05   2.099301e-23   0.000000e+00   0.000000e+00
      216000   2.159990e-06   1.400049e-01   8.654330e+00   1.260118e+00  -4.453685e+03  -3.797121e+04  -1.424134e+05   4.599854e+11  -2.306119e+11   4.708344e+10   1.474558e+05   2.068448e-23   0.000000e+00   0.000000e+00
      224000   2.239990e-06   1.412158e-01   8.650890e+00   1.248939e+00   3.522027e+04  -4.370364e+04  -1.363560e+05   4.970171e+11   9.087451e+10   9.923199e+10   1.474565e+05   2.054102e-23   0.000000e+00   0.000000e+00
      232000   2.319990e-06   1.455005e-01   8.648009e+00   1.238375e+00   6.975335e+04  -2.461466e+04  -1.275627e+05   3.373803e+11   3.687545e+11   1.133091e+11   1.474573e+05   2.034857e-23   0.000000e+00   0.000000e+00
      240000   2.399990e-06   1.518755e-01   8.647405e+00   1.228512e+00   8.577399e+04   1.124871e+04  -1.194158e+05   5.087865e+10   4.968985e+11   8.333039e+10   1.474580e+05   1.986818e-23   0.000000e+00   0.000000e+00
      248000   2.479990e-06   1.585697e-01   8.649876e+00   1.219163e+00   7.757817e+04   4.964212e+04  -1.151579e+05  -2.473424e+11   4.308840e+11   1.909685e+10   1.474586e+05   1.915274e-23   0.000000e+00   0.000000e+00
      256000   2.559990e-06   1.637374e-01   8.655016e+00   1.209932e+00   4.900662e+04   7.577300e+04  -1.166235e+05  -4.417187e+11   2.014381e+11  -5.475706e+10   1.474593e+05   1.849332e-23   0.000000e+00   0.000000e+00
      264000   2.639990e-06   1.661738e-01   8.661407e+00   1.200361e+00   1.165492e+04   7.995236e+04  -1.233540e+05  -4.603391e+11  -9.903639e+10  -1.077042e+11   1.474599e+05   1.807735e-23   0.000000e+00   0.000000e+00
      272000   2.719990e-06   1.657616e-01   8.667183e+00   1.190122e+00  -1.981428e+04   6.105329e+04  -1.327573e+05  -3.006786e+11  -3.549480e+11  -1.183763e+11   1.474606e+05   1.785189e-23   0.000000e+00   0.000000e+00
      280000   2.799990e-06   1.634848e-01   8.670766e+00   1.179150e+00  -3.348555e+04   2.698672e+04  -1.410505e+05  -3.105717e+10  -4.680543e+11  -8.219435e+10   1.474612e+05   1.757208e-23   0.000000e+00   0.000000e+00
      288000   2.879990e-06   1.610119e-01   8.671449e+00   1.167669e+00  -2.465325e+04  -9.054173e+03  -1.451042e+05   2.435555e+11  -4.042283e+11  -1.617260e+10   1.474618e+05   1.727672e-23   0.000000e+00   0.000000e+00
      296000   2.959990e-06   1.600462e-01   8.669623e+00   1.156086e+00   2.923320e+03  -3.377903e+04  -1.435116e+05   4.235250e+11  -1.954964e+11   5.462673e+10   1.474624e+05   1.709050e-23   0.000000e+00   0.000000e+00
      304000   3.039990e-06   1.617076e-01   8.666581e+00   1.144843e+00   3.896475e+04  -3.861720e+04  -1.368788e+05   4.499612e+11   7.698507e+10   1.063531e+11   1.474630e+05   1.702295e-23   0.000000e+00   0.000000e+00
      312000   3.119990e-06   1.661643e-01   8.664014e+00   1.134261e+00   7.071979e+04  -2.236294e+04  -1.274524e+05   3.208262e+11   3.161832e+11   1.225225e+11   1.474636e+05   1.688443e-23   0.000000e+00   0.000000e+00
      320000   3.199990e-06   1.726173e-01   8.663408e+00   1.124440e+00   8.746057e+04   8.923741e+03  -1.183921e+05   8.651841e+10   4.424253e+11   9.724387e+10   1.474642e+05   1.647928e-23   0.000000e+00   0.000000e+00
      328000   3.279990e-06   1.796119e-01   8.665553e+00   1.115224e+00   8.396687e+04   4.433856e+04  -1.128251e+05  -1.698904e+11   4.171746e+11   3.748914e+10   1.474647e+05   1.583019e-23   0.000000e+00   0.000000e+00
      336000   3.359990e-06   1.855548e-01   8.670291e+00   1.106239e+00   6.204236e+04   7.192823e+04  -1.127967e+05  -3.609125e+11   2.531750e+11  -3.708785e+10   1.474653e+05   1.516610e-23   0.000000e+00   0.000000e+00
      344000   3.439990e-06   1.892580e-01   8.676607e+00   1.097024e+00   2.972823e+04   8.271950e+04  -1.184056e+05  -4.220148e+11   1.078735e+10  -9.843544e+10   1.474658e+05   1.455959e-23   0.000000e+00   0.000000e+00
      352000   3.519990e-06   1.903351e-01   8.682993e+00   1.087195e+00  -1.717431e+03   7.373995e+04  -1.276941e+05  -3.414724e+11  -2.274865e+11  -1.267892e+11   1.474663e+05   1.429053e-23   0.000000e+00   0.000000e+00
      360000   3.599990e-06   1.892874e-01   8.687968e+00   1.076578e+00  -2.190022e+04   4.854400e+04  -1.375148e+05  -1.494389e+11  -3.834582e+11  -1.115783e+11   1.474668e+05   1.408862e-23   0.000000e+00   0.000000e+00
      368000   3.679990e-06   1.873070e-01   8.690559e+00   1.065267e+00  -2.444395e+04   1.588090e+04  -1.445576e+05   8.658151e+10  -4.099482e+11  -5.968924e+10   1.474673e+05   1.387910e-23   0.000000e+00   0.000000e+00
      376000   3.759990e-06   1.858627e-01   8.690598e+00   1.053585e+00  -8.945538e+03  -1.350672e+04  -1.465752e+05   2.894110e+11  -3.051014e+11   1.043977e+10   1.474678e+05   1.371164e-23   0.000000e+00   0.000000e+00
      384000   3.839990e-06   1.862195e-01   8.688734e+00   1.041966e+00   1.932117e+04  -3.046496e+04  -1.429876e+05   3.980615e+11  -1.085045e+11   7.689362e+10   1.474683e+05   1.364851e-23   0.000000e+00   0.000000e+00
      392000   3.919990e-06   1.890578e-01   8.686190e+00   1.030828e+00   5.145363e+04  -3.012479e+04  -1.348779e+05   3.845913e+11   1.157714e+11   1.208447e+11   1.474687e+05   1.363140e-23   0.000000e+00   0.000000e+00
      400000   3.999990e-06   1.942966e-01   8.684366e+00   1.020445e+00   7.782808e+04  -1.300825e+04  -1.245823e+05   2.586902e+11   3.005108e+11   1.302151e+11   1.474692e+05   1.349718e-23   0.000000e+00   0.000000e+00
      408000   4.079990e-06   2.011526e-01   8.684415e+00   1.010874e+00   9.093640e+04   1.548460e+04  -1.150570e+05   6.227923e+10   3.928938e+11   1.020848e+11   1.474697e+05   1.306973e-23   0.000000e+00   0.000000e+00
      416000   4.159990e-06   2.083998e-01   8.686920e+00   1.001940e+00   8.745464e+04   4.684532e+04  -1.091084e+05  -1.458986e+11   3.716976e+11   4.262888e+10   1.474701e+05   1.249619e-23   0.000000e+00   0.000000e+00
      424000   4.239990e-06   2.147413e-01   8.691745e+00   9.932705e-01   6.896823e+04   7.209301e+04  -1.085981e+05  -3.038000e+11   2.447843e+11  -3.045024e+10   1.474706e+05   1.186690e-23   0.000000e+00   0.000000e+00
      432000   4.319990e-06   2.191892e-01   8.698102e+00   9.844110e-01   4.136622e+04   8.423571e+04  -1.137579e+05  -3.682838e+11   5.223391e+10  -9.525509e+10   1.474710e+05   1.142477e-23   0.000000e+00   0.000000e+00
      440000   4.399990e-06   2.213384e-01   8.704787e+00   9.749568e-01   1.296095e+04   8.018256e+04  -1.230877e+05  -3.236639e+11  -1.498860e+11  -1.317328e+11   1.474714e+05   1.120342e-23   0.000000e+00   0.000000e+00
      448000   4.479990e-06   2.214665e-01   8.710539e+00   9.646810e-01  -7.909497e+03   6.159313e+04  -1.337596e+05  -1.856981e+11  -3.024012e+11  -1.282784e+11   1.474717e+05   1.103360e-23   0.000000e+00   0.000000e+00
      456000   4.559990e-06   2.204327e-01   8.714406e+00   9.536044e-01  -1.542621e+04   3.423616e+04  -1.426112e+05   1.506381e+09  -3.644565e+11  -8.766658e+10   1.474721e+05   1.088880e-23   0.000000e+00   0.000000e+00
      464000   4.639990e-06   2.194058e-01   8.715995e+00   9.419797e-01  -7.807118e+03   6.048820e+03  -1.471414e+05   1.836529e+11  -3.236953e+11  -2.306056e+10   1.474725e+05   1.077436e-23   0.000000e+00   0.000000e+00
      472000   4.719990e-06   2.195252e-01   8.715560e+00   9.302104e-01   1.251301e+04  -1.524535e+04  -1.461481e+05   3.121798e+11  -1.970692e+11   4.727612e+10   1.474729e+05   1.073478e-23   0.000000e+00   0.000000e+00
      480000   4.799990e-06   2.215971e-01   8.713888e+00   9.187372e-01   3.988012e+04  -2.419731e+04  -1.399015e+05   3.566807e+11  -2.259838e+10   1.055736e+11   1.474733e+05   1.076196e-23   0.000000e+00   0.000000e+00
      488000   4.879990e-06   2.259028e-01   8.712073e+00   9.079259e-01   6.713967e+04  -1.883049e+04  -1.299467e+05   3.103691e+11   1.530808e+11   1.381651e+11   1.474736e+05   1.076007e-23   0.000000e+00   0.000000e+00
      496000   4.959990e-06   2.321543e-01   8.711215e+00   8.979808e-01   8.752295e+04  -8.372822e+02  -1.186913e+05   1.890358e+11   2.866374e+11   1.373615e+11   1.474740e+05   1.059829e-23   0.000000e+00   0.000000e+00
      504000   5.039990e-06   2.395927e-01   8.712153e+00   8.888964e-01   9.624745e+04   2.509765e+04  -1.088817e+05   2.539810e+10   3.479262e+11   1.026372e+11   1.474744e+05   1.024720e-23   0.000000e+00   0.000000e+00
      512000   5.119990e-06   2.471934e-01   8.715271e+00   8.804548e-01   9.157047e+04   5.253459e+04  -1.029746e+05  -1.388176e+11   3.237950e+11   4.173450e+10   1.474747e+05   9.753096e-24   0.000000e+00   0.000000e+00
      520000   5.199990e-06   2.539273e-01   8.720420e+00   8.722741e-01   7.511559e+04   7.481974e+04  -1.025112e+05  -2.628902e+11   2.221366e+11  -3.051515e+10   1.474751e+05   9.251882e-24   0.000000e+00   0.000000e+00
      528000   5.279990e-06   2.590165e-01   8.726962e+00   8.639020e-01   5.139037e+04   8.670446e+04  -1.076585e+05  -3.169766e+11   6.950081e+10  -9.534460e+10   1.474754e+05   8.865051e-24   0.000000e+00   0.000000e+00
      536000   5.359990e-06   2.621210e-01   8.733943e+00   8.549331e-01   2.658927e+04   8.561136e+04  -1.171016e+05  -2.896641e+11  -9.532191e+10  -1.354696e+11   1.474757e+05   8.628593e-24   0.000000e+00   0.000000e+00
      544000   5.439990e-06   2.634105e-01   8.740329e+00   8.451161e-01   6.973730e+03   7.222412e+04  -1.283908e+05  -1.906210e+11  -2.314815e+11  -1.405784e+11   1.474760e+05   8.499878e-24   0.000000e+00   0.000000e+00
      552000   5.519990e-06   2.635040e-01   8.745267e+00   8.344186e-01  -2.714190e+03   5.020334e+04  -1.386417e+05  -4.708885e+10  -3.071028e+11  -1.102905e+11   1.474763e+05   8.423278e-24   0.000000e+00   0.000000e+00
      560000   5.599990e-06   2.633004e-01   8.748280e+00   8.230296e-01  -3.441901e+02   2.511745e+04  -1.453215e+05   1.045379e+11  -3.072571e+11  -5.336153e+10   1.474766e+05   8.383707e-24   0.000000e+00   0.000000e+00
      568000   5.679990e-06   2.637511e-01   8.749365e+00   8.113057e-01   1.327454e+04   2.955498e+03  -1.468485e+05   2.287863e+11  -2.362174e+11   1.591987e+10   1.474769e+05   8.400219e-24   0.000000e+00   0.000000e+00
      576000   5.759990e-06   2.656371e-01   8.748965e+00   7.996819e-01   3.481766e+04  -1.129771e+04  -1.428622e+05   2.984511e+11  -1.104495e+11   8.146395e+10   1.474772e+05   8.362524e-24   0.000000e+00   0.000000e+00
      584000   5.839990e-06   2.693998e-01   8.747858e+00   7.885714e-01   5.930446e+04  -1.447781e+04  -1.342497e+05   3.025864e+11   3.191826e+10   1.302165e+11   1.474775e+05   8.488503e-24   0.000000e+00   0.000000e+00
      592000   5.919990e-06   2.750650e-01   8.746950e+00   7.782803e-01   8.153355e+04  -6.437334e+03  -1.227213e+05   2.434885e+11   1.651210e+11   1.530984e+11   1.474778e+05   8.523977e-24   0.000000e+00   0.000000e+00
      600000   5.999990e-06   2.822623e-01   8.747080e+00   7.689524e-01   9.695841e+04   1.097495e+04  -1.105821e+05   1.358255e+11   2.623090e+11   1.451155e+11   1.474781e+05   8.394019e-24   0.000000e+00   0.000000e+00
      608000   6.079990e-06   2.903156e-01   8.748859e+00   7.605370e-01   1.026020e+05   3.406283e+04  -1.003116e+05   3.476310e+09   3.047469e+11   1.070283e+11   1.474783e+05   8.085998e-24   0.000000e+00   0.000000e+00
      616000   6.159990e-06   2.983931e-01   8.752554e+00   7.527942e-01   9.761326e+04   5.805837e+04  -9.407879e+04  -1.251585e+11   2.847527e+11   4.585694e+10   1.474786e+05   7.660868e-24   0.000000e+00   0.000000e+00
      624000   6.239990e-06   3.056872e-01   8.758037e+00   7.453365e-01   8.344936e+04   7.793578e+04  -9.333937e+04  -2.217142e+11   2.049529e+11  -2.710182e+10   1.474789e+05   7.121946e-24   0.000000e+00   0.000000e+00
      632000   6.319990e-06   3.115901e-01   8.764809e+00   7.377086e-01   6.352231e+04   8.979679e+04  -9.824227e+04  -2.667161e+11   8.677524e+10  -9.314888e+10   1.474791e+05   6.769083e-24   0.000000e+00   0.000000e+00
      640000   6.399990e-06   3.158187e-01   8.772129e+00   7.294958e-01   4.239808e+04   9.141952e+04  -1.076802e+05  -2.513107e+11  -4.625989e+10  -1.382333e+11   1.474794e+05   6.541349e-24   0.000000e+00   0.000000e+00
      648000   6.479990e-06   3.184688e-01   8.779160e+00   7.204153e-01   2.480515e+04   8.276769e+04  -1.195175e+05  -1.803715e+11  -1.654129e+11  -1.519929e+11   1.474796e+05   6.432214e-24   0.000000e+00   0.000000e+00
      656000   6.559990e-06   3.199853e-01   8.785154e+00   7.103804e-01   1.457162e+04   6.599505e+04  -1.310825e+05  -7.098697e+10  -2.458031e+11  -1.316500e+11   1.474798e+05   6.416171e-24   0.000000e+00   0.000000e+00
      664000   6.639990e-06   3.210550e-01   8.789603e+00   6.995186e-01   1.382453e+04   4.488527e+04  -1.398018e+05   5.418744e+10  -2.735399e+11  -8.247132e+10   1.474800e+05   6.553490e-24   0.000000e+00   0.000000e+00
      672000   6.719990e-06   3.224607e-01   8.792337e+00   6.881403e-01   2.282286e+04   2.385615e+04  -1.437374e+05   1.666599e+11  -2.430250e+11  -1.387846e+10   1.474803e+05   6.744723e-24   0.000000e+00   0.000000e+00
      680000   6.799990e-06   3.249145e-01   8.793541e+00   6.766760e-01   3.956610e+04   7.306196e+03  -1.418860e+05   2.447315e+11  -1.638862e+11   5.979998e+10   1.474805e+05   7.000408e-24   0.000000e+00   0.000000e+00
      688000   6.879990e-06   3.289086e-01   8.793713e+00   6.655896e-01   6.068459e+04  -1.529752e+03  -1.344084e+05   2.745465e+11  -5.357853e+10   1.245590e+11   1.474808e+05   7.266508e-24   0.000000e+00   0.000000e+00
      696000   6.959990e-06   3.346317e-01   8.793547e+00   6.552891e-01   8.209256e+04  -1.013920e+03  -1.225171e+05   2.521495e+11   6.614635e+10   1.683975e+11   1.474810e+05   7.464252e-24   0.000000e+00   0.000000e+00
      704000   7.039990e-06   3.419435e-01   8.793798e+00   6.460506e-01   9.978023e+04   8.715222e+03  -1.082528e+05   1.832345e+11   1.732367e+11   1.828313e+11   1.474813e+05   7.518605e-24   0.000000e+00   0.000000e+00
      712000   7.119990e-06   3.504103e-01   8.795140e+00   6.379643e-01   1.105333e+05   2.585261e+04  -9.415326e+04   8.167005e+10   2.485518e+11   1.641156e+11   1.474815e+05   7.392235e-24   0.000000e+00   0.000000e+00
      720000   7.199990e-06   3.593929e-01   8.798049e+00   6.309116e-01   1.124988e+05   4.726589e+04  -8.283009e+04  -3.283324e+10   2.784447e+11   1.142860e+11   1.474818e+05   7.104655e-24   0.000000e+00   0.000000e+00
      728000   7.279990e-06   3.681705e-01   8.802711e+00   6.245776e-01   1.055422e+05   6.898925e+04  -7.650010e+04  -1.374087e+11   2.561184e+11   4.138727e+10   1.474820e+05   6.679972e-24   0.000000e+00   0.000000e+00
      736000   7.359990e-06   3.760851e-01   8.808988e+00   6.185041e-01   9.133465e+04   8.700121e+04  -7.641850e+04  -2.112271e+11   1.871053e+11  -3.945096e+10   1.474823e+05   6.291779e-24   0.000000e+00   0.000000e+00
      744000   7.439990e-06   3.826722e-01   8.816443e+00   6.121823e-01   7.296317e+04   9.800037e+04  -8.260377e+04  -2.396957e+11   8.366602e+10  -1.124698e+11   1.474825e+05   5.975719e-24   0.000000e+00   0.000000e+00
      752000   7.519990e-06   3.877529e-01   8.824426e+00   6.051533e-01   5.435584e+04   1.000071e+05  -9.378255e+04  -2.170673e+11  -3.389477e+10  -1.619634e+11   1.474827e+05   5.773880e-24   0.000000e+00   0.000000e+00
      760000   7.599990e-06   3.914706e-01   8.832196e+00   5.971052e-01   3.958395e+04   9.268595e+04  -1.076737e+05  -1.436727e+11  -1.472888e+11  -1.796119e+11   1.474829e+05   5.781401e-24   0.000000e+00   0.000000e+00
      768000   7.679990e-06   3.942814e-01   8.839047e+00   5.879337e-01   3.205986e+04   7.756488e+04  -1.212729e+05  -4.104564e+10  -2.238342e+11  -1.540191e+11   1.474831e+05   5.852093e-24   0.000000e+00   0.000000e+00
      776000   7.759990e-06   3.968343e-01   8.844490e+00   5.777947e-01   3.325241e+04   5.813002e+04  -1.314020e+05   7.035632e+10  -2.535541e+11  -9.436966e+10   1.474833e+05   6.056462e-24   0.000000e+00   0.000000e+00
      784000   7.839990e-06   3.998299e-01   8.848339e+00   5.670638e-01   4.294137e+04   3.836566e+04  -1.357774e+05   1.677768e+11  -2.322619e+11  -1.257305e+10   1.474835e+05   6.374805e-24   0.000000e+00   0.000000e+00
      792000   7.919990e-06   4.038665e-01   8.850741e+00   5.562530e-01   5.880510e+04   2.255540e+04  -1.333591e+05   2.266015e+11  -1.622045e+11   7.248027e+10   1.474837e+05   6.425909e-24   0.000000e+00   0.000000e+00
      800000   7.999990e-06   4.093305e-01   8.852121e+00   5.459012e-01   7.807414e+04   1.320917e+04  -1.244245e+05   2.475054e+11  -6.771477e+10   1.481094e+11   1.474840e+05   6.803279e-24   0.000000e+00   0.000000e+00
      808000   8.079990e-06   4.163539e-01   8.853074e+00   5.364848e-01   9.717834e+04   1.207799e+04  -1.102818e+05   2.226507e+11   4.006831e+10   2.005757e+11   1.474842e+05   7.084565e-24   0.000000e+00   0.000000e+00
      816000   8.159990e-06   4.247804e-01   8.854282e+00   5.283341e-01   1.126041e+05   1.946921e+04  -9.323586e+04   1.570275e+11   1.421822e+11   2.193275e+11   1.474844e+05   7.206179e-24   0.000000e+00   0.000000e+00
      824000   8.239990e-06   4.341963e-01   8.856386e+00   5.215661e-01   1.215363e+05   3.419100e+04  -7.623412e+04   6.287899e+10   2.205170e+11   1.991346e+11   1.474847e+05   7.148728e-24   0.000000e+00   0.000000e+00
      832000   8.319990e-06   4.440089e-01   8.859881e+00   5.160524e-01   1.223731e+05   5.371906e+04  -6.237700e+04  -4.207154e+10   2.602961e+11   1.416154e+11   1.474849e+05   6.942827e-24   0.000000e+00   0.000000e+00
      840000   8.399990e-06   4.535573e-01   8.865017e+00   5.114298e-01   1.150632e+05   7.456783e+04  -5.433220e+04  -1.373252e+11   2.527087e+11   5.598893e+10   1.474852e+05   6.654202e-24   0.000000e+00   0.000000e+00
      848000   8.479990e-06   4.622426e-01   8.871744e+00   5.071590e-01   1.011861e+05   9.286978e+04  -5.374500e+04  -2.032836e+11   1.973671e+11  -4.169437e+10   1.474854e+05   6.356735e-24   0.000000e+00   0.000000e+00
      856000   8.559990e-06   4.696504e-01   8.879713e+00   5.026256e-01   8.371228e+04   1.051137e+05  -6.078953e+04  -2.254856e+11   1.036276e+11  -1.313387e+11   1.474856e+05   6.109958e-24   0.000000e+00   0.000000e+00
      864000   8.639990e-06   4.756438e-01   8.888332e+00   4.972638e-01   6.654778e+04   1.087412e+05  -7.415403e+04  -1.947651e+11  -1.483293e+10  -1.965490e+11   1.474858e+05   5.951284e-24   0.000000e+00   0.000000e+00
      872000   8.719990e-06   4.804129e-01   8.896861e+00   4.906709e-01   5.366892e+04   1.029954e+05  -9.090503e+04  -1.209424e+11  -1.260256e+11  -2.141980e+11   1.474860e+05   5.920692e-24   0.000000e+00   0.000000e+00
      880000   8.799990e-06   4.844188e-01   8.904605e+00   4.827370e-01   4.775850e+04   8.958233e+04  -1.069875e+05  -2.386310e+10  -2.040505e+11  -1.815141e+11   1.474863e+05   5.824827e-24   0.000000e+00   0.000000e+00
      888000   8.879990e-06   4.882768e-01   8.911063e+00   4.736619e-01   5.010096e+04   7.135476e+04  -1.189565e+05   8.154629e+10  -2.435089e+11  -1.117279e+11   1.474865e+05   6.078741e-24   0.000000e+00   0.000000e+00
      896000   8.959990e-06   4.926479e-01   8.915991e+00   4.638866e-01   6.037214e+04   5.197684e+04  -1.241206e+05   1.707904e+11  -2.324654e+11  -1.428183e+10   1.474867e+05   6.465040e-24   0.000000e+00   0.000000e+00
      904000   9.039990e-06   4.980934e-01   8.919456e+00   4.540245e-01   7.649360e+04   3.543748e+04  -1.210178e+05   2.252462e+11  -1.738373e+11   9.146295e+10   1.474869e+05   6.922905e-24   0.000000e+00   0.000000e+00
      912000   9.119990e-06   5.049593e-01   8.921824e+00   4.447429e-01   9.530421e+04   2.500179e+04  -1.097474e+05   2.359652e+11  -8.107587e+10   1.864324e+11   1.474872e+05   7.518903e-24   0.000000e+00   0.000000e+00
      920000   9.199990e-06   5.133085e-01   8.923684e+00   4.366367e-01   1.128896e+05   2.302608e+04  -9.207754e+04   1.959283e+11   3.297117e+10   2.484478e+11   1.474874e+05   7.843813e-24   0.000000e+00   0.000000e+00
      928000   9.279990e-06   5.228895e-01   8.925754e+00   4.300952e-01   1.255531e+05   3.018683e+04  -7.125860e+04   1.149661e+11   1.435722e+11   2.633690e+11   1.474877e+05   7.998269e-24   0.000000e+00   0.000000e+00
      936000   9.359990e-06   5.331929e-01   8.928728e+00   4.252106e-01   1.306176e+05   4.531211e+04  -5.136701e+04   9.247870e+09   2.285323e+11   2.250897e+11   1.474880e+05   7.981618e-24   0.000000e+00   0.000000e+00
      944000   9.439990e-06   5.435541e-01   8.933141e+00   4.217404e-01   1.269620e+05   6.555543e+04  -3.655034e+04  -9.900721e+10   2.688478e+11   1.382550e+11   1.474883e+05   7.843543e-24   0.000000e+00   0.000000e+00
      952000   9.519990e-06   5.532932e-01   8.939245e+00   4.191375e-01   1.153607e+05   8.682015e+04  -3.011693e+04  -1.854165e+11   2.530207e+11   1.914259e+10   1.474885e+05   7.655166e-24   0.000000e+00   0.000000e+00
      960000   9.599990e-06   5.618690e-01   8.946937e+00   4.166535e-01   9.845129e+04   1.045328e+05  -3.366274e+04  -2.287584e+11   1.812120e+11  -1.063467e+11   1.474888e+05   7.477897e-24   0.000000e+00   0.000000e+00
      968000   9.679990e-06   5.690105e-01   8.955767e+00   4.135015e-01   8.024671e+04   1.146789e+05  -4.649989e+04  -2.167791e+11   6.727792e+10  -2.082027e+11   1.474891e+05   7.353132e-24   0.000000e+00   0.000000e+00
      976000   9.759990e-06   5.747940e-01   8.965018e+00   4.090440e-01   6.522687e+04   1.148492e+05  -6.563707e+04  -1.505456e+11  -6.322517e+10  -2.602480e+11   1.474893e+05   7.316136e-24   0.000000e+00   0.000000e+00
      984000   9.839990e-06   5.796351e-01   8.973872e+00   4.029556e-01   5.721135e+04   1.049485e+05  -8.640512e+04  -4.526273e+10  -1.793273e+11  -2.477935e+11   1.474896e+05   7.410564e-24   0.000000e+00   0.000000e+00
      992000   9.919990e-06   5.841938e-01   8.981602e+00   3.953163e-01   5.834264e+04   8.732957e+04  -1.035516e+05   7.312380e+10  -2.521707e+11  -1.714769e+11   1.474898e+05   7.622393e-24   0.000000e+00   0.000000e+00
     1000000   9.999990e-06   5.892117e-01   8.987750e+00   3.866041e-01   6.846640e+04   6.619191e+04  -1.126247e+05   1.749084e+11  -2.656100e+11  -4.978413e+10   1.474901e+05   8.031548e-24   0.000000e+00   0.000000e+00
     1008000   1.007999e-05   5.953266e-01   8.992232e+00   3.775831e-01   8.521383e+04   4.651895e+04  -1.110316e+05   2.352315e+11  -2.162688e+11   8.991388e+10   1.474904e+05   8.540858e-24   0.000000e+00   0.000000e+00
     1016000   1.015999e-05   6.029153e-01   8.995358e+00   3.691287e-01   1.045067e+05   3.302514e+04  -9.869749e+04   2.364330e+11  -1.138799e+11   2.122323e+11   1.474907e+05   8.829339e-24   0.000000e+00   0.000000e+00
     1024000   1.023999e-05   6.119902e-01   8.997769e+00   3.620109e-01   1.216535e+05   2.897529e+04  -7.819510e+04   1.833314e+11   1.523104e+10   2.908500e+11   1.474910e+05   9.180083e-24   0.000000e+00   0.000000e+00
     1032000   1.031999e-05   6.222138e-01   9.000278e+00   3.567194e-01   1.326253e+05   3.547656e+04  -5.390402e+04   8.553236e+10   1.444690e+11   3.055023e+11   1.474914e+05   9.419080e-24   0.000000e+00   0.000000e+00
     1040000   1.039999e-05   6.329706e-01   9.003697e+00   3.533410e-01   1.346660e+05   5.134546e+04  -3.134517e+04  -3.595470e+10   2.448242e+11   2.465296e+11   1.474917e+05   9.457100e-24   0.000000e+00   0.000000e+00
     1048000   1.047999e-05   6.435009e-01   9.008653e+00   3.515060e-01   1.270607e+05   7.313101e+04  -1.616531e+04  -1.503089e+11   2.886328e+11   1.242441e+11   1.474920e+05   9.405199e-24   0.000000e+00   0.000000e+00
     1056000   1.055999e-05   6.530896e-01   9.015417e+00   3.504470e-01   1.116330e+05   9.559165e+04  -1.242200e+04  -2.267691e+11   2.604991e+11  -3.337359e+10   1.474923e+05   9.332342e-24   0.000000e+00   0.000000e+00
     1064000   1.063999e-05   6.612600e-01   9.023810e+00   3.491772e-01   9.241656e+04   1.129476e+05  -2.135663e+04  -2.422943e+11   1.632275e+11  -1.852842e+11   1.474927e+05   9.276741e-24   0.000000e+00   0.000000e+00
     1072000   1.071999e-05   6.679166e-01   9.033224e+00   3.467480e-01   7.470454e+04   1.204673e+05  -4.075596e+04  -1.895667e+11   2.000705e+10  -2.883626e+11   1.474930e+05   9.261954e-24   0.000000e+00   0.000000e+00
     1080000   1.079999e-05   6.733902e-01   9.042761e+00   3.425167e-01   6.358880e+04   1.159426e+05  -6.533043e+04  -8.111725e+10  -1.307607e+11  -3.110355e+11   1.474933e+05   9.334274e-24   0.000000e+00   0.000000e+00
     1088000   1.087999e-05   6.783587e-01   9.051480e+00   3.363434e-01   6.242290e+04   1.004739e+05  -8.810654e+04   5.312985e+10  -2.469982e+11  -2.440406e+11   1.474936e+05   9.564142e-24   0.000000e+00   0.000000e+00
     1096000   1.095999e-05   6.836604e-01   9.058654e+00   3.286478e-01   7.174846e+04   7.823185e+04  -1.024032e+05   1.746483e+11  -2.960136e+11  -1.037881e+11   1.474940e+05   9.991367e-24   0.000000e+00   0.000000e+00
     1104000   1.103999e-05   6.900539e-01   9.063978e+00   3.203076e-01   8.907175e+04   5.530028e+04  -1.037434e+05   2.480381e+11  -2.636917e+11   7.238630e+10   1.474943e+05   1.056485e-23   0.000000e+00   0.000000e+00
     1112000   1.111999e-05   6.979969e-01   9.067654e+00   3.124241e-01   1.095476e+05   3.803093e+04  -9.114645e+04   2.513187e+11  -1.574338e+11   2.363511e+11   1.474947e+05   1.114724e-23   0.000000e+00   0.000000e+00
     1120000   1.119999e-05   7.075063e-01   9.070354e+00   3.060191e-01   1.272395e+05   3.153510e+04  -6.760513e+04   1.806082e+11  -1.832262e+09   3.390459e+11   1.474951e+05   1.143928e-23   0.000000e+00   0.000000e+00
     1128000   1.127999e-05   7.181425e-01   9.073044e+00   3.017345e-01   1.370129e+05   3.785716e+04  -3.936036e+04   5.719172e+10   1.571071e+11   3.501525e+11   1.474955e+05   1.167079e-23   0.000000e+00   0.000000e+00
     1136000   1.135999e-05   7.291342e-01   9.076719e+00   2.996366e-01   1.358790e+05   5.557759e+04  -1.425041e+04  -8.487152e+10   2.749019e+11   2.627720e+11   1.474959e+05   1.176877e-23   0.000000e+00   0.000000e+00
     1144000   1.143999e-05   7.395925e-01   9.082116e+00   2.991726e-01   1.239555e+05   7.993788e+04   3.633711e+02  -2.058294e+11   3.187689e+11   9.223024e+10   1.474963e+05   1.182019e-23   0.000000e+00   0.000000e+00
     1152000   1.151999e-05   7.487670e-01   9.089500e+00   2.992804e-01   1.046192e+05   1.039709e+05  -4.004546e+02  -2.645958e+11   2.658303e+11  -1.116716e+11   1.474968e+05   1.187153e-23   0.000000e+00   0.000000e+00
     1160000   1.159999e-05   7.562942e-01   9.098540e+00   2.986903e-01   8.390962e+04   1.201534e+05  -1.666621e+04  -2.384525e+11   1.271076e+11  -2.842632e+11   1.474972e+05   1.192387e-23   0.000000e+00   0.000000e+00
     1168000   1.167999e-05   7.623330e-01   9.108373e+00   2.963322e-01   6.844467e+04   1.232399e+05  -4.339110e+04  -1.354992e+11  -5.365935e+10  -3.661748e+11   1.474976e+05   1.204034e-23   0.000000e+00   0.000000e+00
     1176000   1.175999e-05   7.675307e-01   9.117870e+00   2.916956e-01   6.354500e+04   1.119347e+05  -7.202999e+04   1.706615e+10  -2.215377e+11  -3.292361e+11   1.474980e+05   1.222979e-23   0.000000e+00   0.000000e+00
     1184000   1.183999e-05   7.728364e-01   9.125986e+00   2.850124e-01   7.111025e+04   8.966162e+04  -9.305869e+04   1.671203e+11  -3.201078e+11  -1.807360e+11   1.474985e+05   1.264046e-23   0.000000e+00   0.000000e+00
     1192000   1.191999e-05   7.791829e-01   9.132110e+00   2.772084e-01   8.884866e+04   6.346636e+04  -9.916584e+04   2.638896e+11  -3.166781e+11   3.374263e+10   1.474989e+05   1.326049e-23   0.000000e+00   0.000000e+00
     1200000   1.199999e-05   7.871710e-01   9.136262e+00   2.696193e-01   1.109864e+05   4.176564e+04  -8.771385e+04   2.736374e+11  -2.103809e+11   2.460448e+11   1.474994e+05   1.392836e-23   0.000000e+00   0.000000e+00
     1208000   1.207999e-05   7.968603e-01   9.139107e+00   2.635659e-01   1.301364e+05   3.175203e+04  -6.174588e+04   1.909178e+11  -3.196665e+10   3.859119e+11   1.474999e+05   1.444971e-23   0.000000e+00   0.000000e+00
     1216000   1.215999e-05   8.077359e-01   9.141756e+00   2.599189e-01   1.397434e+05   3.711343e+04  -2.916770e+04   4.086651e+10   1.641888e+11   4.046432e+11   1.475004e+05   1.491223e-23   0.000000e+00   0.000000e+00
     1224000   1.223999e-05   8.188625e-01   9.145431e+00   2.587856e-01   1.361439e+05   5.675158e+04  -7.942556e+02  -1.289361e+11   3.133042e+11   2.829115e+11   1.475009e+05   1.510295e-23   0.000000e+00   0.000000e+00
     1232000   1.231999e-05   8.291863e-01   9.151054e+00   2.594060e-01   1.202297e+05   8.441206e+04   1.327021e+04  -2.571601e+11   3.573852e+11   5.671661e+10   1.475015e+05   1.527743e-23   0.000000e+00   0.000000e+00
     1240000   1.239999e-05   8.379139e-01   9.158894e+00   2.603743e-01   9.746655e+04   1.104549e+05   7.538182e+03  -2.938557e+11   2.727348e+11  -1.965727e+11   1.475020e+05   1.545615e-23   0.000000e+00   0.000000e+00
     1248000   1.247999e-05   8.448210e-01   9.168423e+00   2.601213e-01   7.620283e+04   1.252307e+05  -1.635218e+04  -2.199271e+11   8.397700e+10  -3.818804e+11   1.475025e+05   1.560174e-23   0.000000e+00   0.000000e+00
     1256000   1.255999e-05   8.503682e-01   9.178469e+00   2.575018e-01   6.463782e+04   1.229161e+05  -4.970658e+04  -5.885946e+10  -1.406601e+11  -4.244099e+11   1.475031e+05   1.576625e-23   0.000000e+00   0.000000e+00
     1264000   1.263999e-05   8.555534e-01   9.187642e+00   2.522557e-01   6.751702e+04   1.040616e+05  -7.981207e+04   1.291025e+11  -3.157371e+11  -3.024800e+11   1.475036e+05   1.611350e-23   0.000000e+00   0.000000e+00
     1272000   1.271999e-05   8.615396e-01   9.194858e+00   2.451403e-01   8.403096e+04   7.556668e+04  -9.479434e+04   2.702153e+11  -3.734776e+11  -5.821202e+10   1.475042e+05   1.673681e-23   0.000000e+00   0.000000e+00
     1280000   1.279999e-05   8.691985e-01   9.199761e+00   2.376699e-01   1.079416e+05   4.812996e+04  -8.825984e+04   3.073103e+11  -2.895802e+11   2.178999e+11   1.475048e+05   1.750339e-23   0.000000e+00   0.000000e+00
     1288000   1.287999e-05   8.787550e-01   9.202875e+00   2.315496e-01   1.298447e+05   3.235814e+04  -6.205765e+04   2.224487e+11  -9.178464e+10   4.175389e+11   1.475054e+05   1.800514e-23   0.000000e+00   0.000000e+00
     1296000   1.295999e-05   8.896856e-01   9.205425e+00   2.280170e-01   1.410748e+05   3.460457e+04  -2.566036e+04   4.784521e+10   1.475974e+11   4.619937e+11   1.475061e+05   1.841356e-23   0.000000e+00   0.000000e+00
     1304000   1.303999e-05   9.009089e-01   9.208893e+00   2.273412e-01   1.368381e+05   5.464320e+04   6.905258e+03  -1.510184e+11   3.373448e+11   3.235047e+11   1.475067e+05   1.870454e-23   0.000000e+00   0.000000e+00
     1312000   1.311999e-05   9.111962e-01   9.214449e+00   2.286596e-01   1.184330e+05   8.504538e+04   2.234594e+04  -2.932513e+11   3.959837e+11   4.727887e+10   1.475074e+05   1.899709e-23   0.000000e+00   0.000000e+00
     1320000   1.319999e-05   9.196723e-01   9.222449e+00   2.302651e-01   9.317794e+04   1.135277e+05   1.371002e+04  -3.148718e+11   2.894331e+11  -2.565326e+11   1.475080e+05   1.928335e-23   0.000000e+00   0.000000e+00
     1328000   1.327999e-05   9.262078e-01   9.232232e+00   2.302852e-01   7.175126e+04   1.278983e+05  -1.589380e+04  -1.999968e+11   5.550198e+10  -4.563996e+11   1.475087e+05   1.948938e-23   0.000000e+00   0.000000e+00
     1336000   1.335999e-05   9.315135e-01   9.242354e+00   2.274916e-01   6.366420e+04   1.216180e+05  -5.399039e+04   6.434659e+09  -2.073793e+11  -4.595990e+11   1.475094e+05   1.971431e-23   0.000000e+00   0.000000e+00
     1344000   1.343999e-05   9.368615e-01   9.251195e+00   2.218683e-01   7.283706e+04   9.704124e+04  -8.388678e+04   2.147301e+11  -3.843283e+11  -2.581812e+11   1.475101e+05   2.019484e-23   0.000000e+00   0.000000e+00
     1352000   1.351999e-05   9.435335e-01   9.257667e+00   2.146592e-01   9.552090e+04   6.458618e+04  -9.199907e+04   3.305943e+11  -3.964016e+11   6.493427e+10   1.475108e+05   2.098339e-23   0.000000e+00   0.000000e+00
     1360000   1.359999e-05   9.522408e-01   9.261697e+00   2.078565e-01   1.217359e+05   3.833691e+04  -7.396153e+04   2.988713e+11  -2.340772e+11   3.705543e+11   1.475116e+05   2.181968e-23   0.000000e+00   0.000000e+00
     1368000   1.367999e-05   9.627856e-01   9.264288e+00   2.033408e-01   1.396087e+05   3.011382e+04  -3.691162e+04   1.294608e+11   3.807082e+10   5.206333e+11   1.475124e+05   2.242795e-23   0.000000e+00   0.000000e+00
     1376000   1.375999e-05   9.741234e-01   9.267120e+00   2.020302e-01   1.406883e+05   4.424618e+04   3.034954e+03  -1.047061e+11   3.029645e+11   4.378477e+11   1.475131e+05   2.283083e-23   0.000000e+00   0.000000e+00
     1384000   1.383999e-05   9.848139e-01   9.271820e+00   2.034079e-01   1.239968e+05   7.502439e+04   2.750438e+04  -2.964076e+11   4.359126e+11   1.473409e+11   1.475139e+05   2.322846e-23   0.000000e+00   0.000000e+00
     1392000   1.391999e-05   9.936823e-01   9.279197e+00   2.056849e-01   9.697514e+04   1.084365e+05   2.445292e+04  -3.509773e+11   3.639856e+11  -2.220680e+11   1.475148e+05   2.364728e-23   0.000000e+00   0.000000e+00
     1400000   1.399999e-05   1.000398e+00   9.288804e+00   2.065950e-01   7.248617e+04   1.283673e+05  -5.333556e+03  -2.342620e+11   1.118048e+11  -4.934384e+11   1.475156e+05   2.410314e-23   0.000000e+00   0.000000e+00
     1408000   1.407999e-05   1.005682e+00   9.299093e+00   2.044839e-01   6.280667e+04   1.246094e+05  -4.784263e+04   3.913432e+09  -2.027119e+11  -5.229052e+11   1.475164e+05   2.438850e-23   0.000000e+00   0.000000e+00
     1416000   1.415999e-05   1.010992e+00   9.308135e+00   1.991708e-01   7.321340e+04   9.851294e+04  -8.183126e+04   2.455673e+11  -4.220851e+11  -2.884624e+11   1.475173e+05   2.494176e-23   0.000000e+00   0.000000e+00
     1424000   1.423999e-05   1.017809e+00   9.314590e+00   1.920962e-01   9.883753e+04   6.266332e+04  -8.981130e+04   3.667533e+11  -4.352399e+11   9.989908e+10   1.475182e+05   2.589204e-23   0.000000e+00   0.000000e+00
     1432000   1.431999e-05   1.026871e+00   9.318378e+00   1.856410e-01   1.268111e+05   3.482062e+04  -6.684578e+04   3.006828e+11  -2.292168e+11   4.509632e+11   1.475191e+05   2.685365e-23   0.000000e+00   0.000000e+00
     1440000   1.439999e-05   1.037769e+00   9.320768e+00   1.819518e-01   1.426234e+05   2.937758e+04  -2.361575e+04   7.553782e+10   1.012675e+11   5.820227e+11   1.475201e+05   2.750485e-23   0.000000e+00   0.000000e+00
     1448000   1.447999e-05   1.049125e+00   9.323785e+00   1.818226e-01   1.376284e+05   4.993335e+04   1.809845e+04  -1.959558e+11   3.908830e+11   4.118911e+11   1.475210e+05   2.798062e-23   0.000000e+00   0.000000e+00
     1456000   1.455999e-05   1.059281e+00   9.329194e+00   1.842047e-01   1.139127e+05   8.649833e+04   3.612033e+04  -3.697858e+11   4.805834e+11   1.542982e+10   1.475220e+05   2.853136e-23   0.000000e+00   0.000000e+00
     1464000   1.463999e-05   1.067178e+00   9.337535e+00   1.866747e-01   8.384150e+04   1.197168e+05   2.003829e+04  -3.455914e+11   3.089696e+11  -3.997450e+11   1.475230e+05   2.905533e-23   0.000000e+00   0.000000e+00
     1472000   1.471999e-05   1.072970e+00   9.347756e+00   1.867034e-01   6.389648e+04   1.311300e+05  -2.203411e+04  -1.275416e+11  -3.882797e+10  -6.011027e+11   1.475241e+05   2.939751e-23   0.000000e+00   0.000000e+00
     1480000   1.479999e-05   1.077989e+00   9.357736e+00   1.830692e-01   6.555877e+04   1.139027e+05  -6.702143e+04   1.681820e+11  -3.717184e+11  -4.672802e+11   1.475251e+05   2.984080e-23   0.000000e+00   0.000000e+00
     1488000   1.487999e-05   1.084035e+00   9.365449e+00   1.765927e-01   8.836762e+04   7.715109e+04  -8.945858e+04   3.740083e+11  -5.023299e+11  -6.381759e+10   1.475262e+05   3.073139e-23   0.000000e+00   0.000000e+00
     1496000   1.495999e-05   1.092358e+00   9.370101e+00   1.697353e-01   1.196338e+05   4.116003e+04  -7.588072e+04   3.678209e+11  -3.522161e+11   3.888011e+11   1.475272e+05   3.183496e-23   0.000000e+00   0.000000e+00
     1504000   1.503999e-05   1.102917e+00   9.372611e+00   1.652521e-01   1.413721e+05   2.638122e+04  -3.290264e+04   1.469606e+11   2.595218e+09   6.333950e+11   1.475284e+05   3.278770e-23   0.000000e+00   0.000000e+00
     1512000   1.511999e-05   1.114364e+00   9.375149e+00   1.646223e-01   1.405656e+05   4.199861e+04   1.556932e+04  -1.675629e+11   3.699618e+11   5.151156e+11   1.475295e+05   3.336985e-23   0.000000e+00   0.000000e+00
     1520000   1.519999e-05   1.124789e+00   9.379939e+00   1.671171e-01   1.170471e+05   7.989762e+04   4.100803e+04  -3.903227e+11   5.282000e+11   8.507108e+10   1.475307e+05   3.401335e-23   0.000000e+00   0.000000e+00
     1528000   1.527999e-05   1.132843e+00   9.387934e+00   1.701210e-01   8.443368e+04   1.178282e+05   2.744340e+04  -3.809032e+11   3.679685e+11  -4.078042e+11   1.475319e+05   3.465051e-23   0.000000e+00   0.000000e+00
     1536000   1.535999e-05   1.138591e+00   9.398156e+00   1.706480e-01   6.256557e+04   1.324394e+05  -1.764594e+04  -1.346494e+11  -2.406256e+10  -6.582686e+11   1.475331e+05   3.505709e-23   0.000000e+00   0.000000e+00
     1544000   1.543999e-05   1.143524e+00   9.408228e+00   1.671844e-01   6.531423e+04   1.141630e+05  -6.683741e+04   2.016944e+11  -4.092124e+11  -5.019347e+11   1.475344e+05   3.568171e-23   0.000000e+00   0.000000e+00
     1552000   1.551999e-05   1.149682e+00   9.415818e+00   1.606865e-01   9.154974e+04   7.374072e+04  -8.914995e+04   4.178322e+11  -5.459437e+11  -2.255281e+10   1.475356e+05   3.669618e-23   0.000000e+00   0.000000e+00
     1560000   1.559999e-05   1.158368e+00   9.420102e+00   1.540605e-01   1.249503e+05   3.610648e+04  -6.964835e+04   3.693022e+11  -3.415716e+11   4.853895e+11   1.475369e+05   3.789990e-23   0.000000e+00   0.000000e+00
     1568000   1.567999e-05   1.169284e+00   9.422324e+00   1.503783e-01   1.440445e+05   2.522978e+04  -1.954931e+04   7.929991e+10   8.748605e+10   6.969542e+11   1.475383e+05   3.875607e-23   0.000000e+00   0.000000e+00
     1576000   1.575999e-05   1.180675e+00   9.425083e+00   1.509086e-01   1.359930e+05   4.896482e+04   2.960227e+04  -2.704605e+11   4.736946e+11   4.591353e+11   1.475396e+05   3.942794e-23   0.000000e+00   0.000000e+00
     1584000   1.583999e-05   1.190428e+00   9.430707e+00   1.542036e-01   1.054230e+05   9.272621e+04   4.534532e+04  -4.492728e+11   5.555779e+11  -9.147048e+10   1.475410e+05   4.024611e-23   0.000000e+00   0.000000e+00
     1592000   1.591999e-05   1.197472e+00   9.439677e+00   1.569396e-01   7.229797e+04   1.275799e+05   1.628361e+04  -3.282490e+11   2.617289e+11  -5.928858e+11   1.475425e+05   4.093597e-23   0.000000e+00   0.000000e+00
     1600000   1.599999e-05   1.202542e+00   9.450220e+00   1.561011e-01   5.917585e+04   1.295156e+05  -3.864113e+04   2.172080e+10  -2.176312e+11  -6.963204e+11   1.475439e+05   4.131949e-23   0.000000e+00   0.000000e+00
     1608000   1.607999e-05   1.207747e+00   9.459448e+00   1.510721e-01   7.557440e+04   9.661780e+04  -8.199477e+04   3.639190e+11  -5.554638e+11  -3.191687e+11   1.475453e+05   4.210744e-23   0.000000e+00   0.000000e+00
     1616000   1.615999e-05   1.215143e+00   9.465329e+00   1.441297e-01   1.105933e+05   5.093711e+04  -8.333434e+04   4.567979e+11  -5.162189e+11   2.906181e+11   1.475468e+05   4.340829e-23   0.000000e+00   0.000000e+00
     1624000   1.623999e-05   1.225284e+00   9.468106e+00   1.389449e-01   1.398323e+05   2.390743e+04  -4.056953e+04   2.268746e+11  -1.154446e+11   7.138035e+11   1.475484e+05   4.455031e-23   0.000000e+00   0.000000e+00
     1632000   1.631999e-05   1.236784e+00   9.470198e+00   1.380540e-01   1.422688e+05   3.508034e+04   1.731895e+04  -1.716226e+11   3.798166e+11   6.408177e+11   1.475499e+05   4.533068e-23   0.000000e+00   0.000000e+00
     1640000   1.639999e-05   1.247247e+00   9.474578e+00   1.410049e-01   1.154818e+05   7.757804e+04   4.916353e+04  -4.558051e+11   6.145976e+11   1.009668e+11   1.475515e+05   4.620982e-23   0.000000e+00   0.000000e+00
     1648000   1.647999e-05   1.254976e+00   9.482641e+00   1.445524e-01   7.832772e+04   1.211305e+05   3.105020e+04  -4.114220e+11   4.009511e+11  -5.261023e+11   1.475532e+05   4.707436e-23   0.000000e+00   0.000000e+00
     1656000   1.655999e-05   1.260243e+00   9.493102e+00   1.449439e-01   5.812018e+04   1.333778e+05  -2.459324e+04  -5.841330e+10  -1.168897e+11  -7.722292e+11   1.475548e+05   4.758744e-23   0.000000e+00   0.000000e+00
     1664000   1.663999e-05   1.265166e+00   9.502857e+00   1.407137e-01   7.041398e+04   1.045543e+05  -7.670194e+04   3.464119e+11  -5.570691e+11  -4.414229e+11   1.475565e+05   4.850141e-23   0.000000e+00   0.000000e+00
     1672000   1.671999e-05   1.272163e+00   9.509276e+00   1.338526e-01   1.065283e+05   5.553220e+04  -8.568152e+04   4.945326e+11  -5.856310e+11   2.352189e+11   1.475582e+05   4.987357e-23   0.000000e+00   0.000000e+00
     1680000   1.679999e-05   1.282114e+00   9.512195e+00   1.284079e-01   1.391105e+05   2.307192e+04  -4.347317e+04   2.623120e+11  -1.682840e+11   7.499134e+11   1.475600e+05   5.116606e-23   0.000000e+00   0.000000e+00
     1688000   1.687999e-05   1.293626e+00   9.514117e+00   1.274473e-01   1.426995e+05   3.256084e+04   1.873824e+04  -1.808169e+11   3.920277e+11   6.961406e+11   1.475618e+05   5.205917e-23   0.000000e+00   0.000000e+00
     1696000   1.695999e-05   1.304054e+00   9.518386e+00   1.306341e-01   1.137792e+05   7.776475e+04   5.274439e+04  -4.919506e+11   6.584207e+11   9.060009e+10   1.475636e+05   5.304963e-23   0.000000e+00   0.000000e+00
     1704000   1.703999e-05   1.311548e+00   9.526577e+00   1.343512e-01   7.459273e+04   1.235383e+05   3.081875e+04  -4.163493e+11   4.014661e+11  -6.013496e+11   1.475655e+05   5.401325e-23   0.000000e+00   0.000000e+00
     1712000   1.711999e-05   1.316567e+00   9.537152e+00   1.344842e-01   5.651844e+04   1.328767e+05  -3.042325e+04  -6.598310e+08  -1.868641e+11  -8.176055e+11   1.475674e+05   5.457753e-23   0.000000e+00   0.000000e+00
     1720000   1.719999e-05   1.321588e+00   9.546610e+00   1.297560e-01   7.474971e+04   9.754556e+04  -8.169485e+04   4.238184e+11  -6.326101e+11  -3.676505e+11   1.475693e+05   5.547795e-23   0.000000e+00   0.000000e+00
     1728000   1.727999e-05   1.329130e+00   9.552303e+00   1.228506e-01   1.148779e+05   4.563864e+04  -8.060691e+04   5.039944e+11  -5.688767e+11   3.960913e+11   1.475713e+05   5.699521e-23   0.000000e+00   0.000000e+00
     1736000   1.735999e-05   1.339662e+00   9.554619e+00   1.183087e-01   1.438049e+05   1.950938e+04  -2.678474e+04   1.628871e+11  -3.278022e+10   8.503695e+11   1.475733e+05   5.825513e-23   0.000000e+00   0.000000e+00
     1744000   1.743999e-05   1.351154e+00   9.556750e+00   1.188162e-01   1.369091e+05   4.162136e+04   3.608389e+04  -3.240799e+11   5.462967e+11   5.997001e+11   1.475754e+05   5.921688e-23   0.000000e+00   0.000000e+00
     1752000   1.751999e-05   1.360720e+00   9.562126e+00   1.228699e-01   9.923955e+04   9.447348e+04   5.482130e+04  -5.452766e+11   6.721037e+11  -1.710135e+11   1.475774e+05   6.039712e-23   0.000000e+00   0.000000e+00
     1760000   1.759999e-05   1.367058e+00   9.571476e+00   1.259021e-01   6.253839e+04   1.331029e+05   1.234105e+04  -2.987235e+11   2.154059e+11  -8.088091e+11   1.475796e+05   6.129232e-23   0.000000e+00   0.000000e+00
     1768000   1.767999e-05   1.371634e+00   9.582094e+00   1.241484e-01   5.882789e+04   1.235081e+05  -5.536606e+04   2.151545e+11  -4.378265e+11  -7.482201e+11   1.475817e+05   6.191563e-23   0.000000e+00   0.000000e+00
     1776000   1.775999e-05   1.377486e+00   9.590119e+00   1.179771e-01   9.198003e+04   7.333257e+04  -8.912361e+04   5.474009e+11  -7.171721e+11  -2.524884e+10   1.475839e+05   6.322153e-23   0.000000e+00   0.000000e+00
     1784000   1.783999e-05   1.386570e+00   9.593906e+00   1.116675e-01   1.330645e+05   2.604623e+04  -5.828459e+04   3.950446e+11  -3.683465e+11   7.371423e+11   1.475861e+05   6.481429e-23   0.000000e+00   0.000000e+00
     1792000   1.791999e-05   1.397980e+00   9.595526e+00   1.097165e-01   1.452345e+05   2.377654e+04   1.113414e+04  -1.179327e+11   3.197326e+11   8.563074e+11   1.475884e+05   6.592474e-23   0.000000e+00   0.000000e+00
     1800000   1.799999e-05   1.408687e+00   9.599043e+00   1.128097e-01   1.167562e+05   6.981393e+04   5.724541e+04  -5.361557e+11   7.360323e+11   1.960483e+11   1.475907e+05   6.734266e-23   0.000000e+00   0.000000e+00
     1808000   1.807999e-05   1.416235e+00   9.606892e+00   1.170451e-01   7.288110e+04   1.228942e+05   3.700135e+04  -4.672960e+11   4.764494e+11  -6.617858e+11   1.475931e+05   6.856261e-23   0.000000e+00   0.000000e+00
     1816000   1.815999e-05   1.421040e+00   9.617536e+00   1.173842e-01   5.413289e+04   1.335420e+05  -3.194707e+04   4.080253e+10  -2.351181e+11  -9.139587e+11   1.475955e+05   6.925849e-23   0.000000e+00   0.000000e+00
     1824000   1.823999e-05   1.426090e+00   9.626792e+00   1.123569e-01   7.862462e+04   9.106354e+04  -8.550298e+04   5.194903e+11  -7.365291e+11  -3.068348e+11   1.475980e+05   7.036501e-23   0.000000e+00   0.000000e+00
     1832000   1.831999e-05   1.434191e+00   9.631720e+00   1.055381e-01   1.237566e+05   3.464543e+04  -7.259400e+04   5.092412e+11  -5.509125e+11   6.050923e+11   1.476005e+05   7.211202e-23   0.000000e+00   0.000000e+00
     1840000   1.839999e-05   1.445274e+00   9.633421e+00   1.022795e-01   1.464922e+05   1.760952e+04  -4.070735e+03   6.745944e+09   1.659457e+11   9.583017e+11   1.476030e+05   7.343098e-23   0.000000e+00   0.000000e+00
     1848000   1.847999e-05   1.456389e+00   9.636106e+00   1.046340e-01   1.243193e+05   5.732126e+04   5.519423e+04  -5.133642e+11   7.403088e+11   3.876356e+11   1.476056e+05   7.467062e-23   0.000000e+00   0.000000e+00
     1856000   1.855999e-05   1.464496e+00   9.643125e+00   1.092451e-01   7.799398e+04   1.161847e+05   4.697069e+04  -5.394666e+11   5.958331e+11  -5.778439e+11   1.476082e+05   7.607722e-23   0.000000e+00   0.000000e+00
     1864000   1.863999e-05   1.469453e+00   9.653619e+00   1.104723e-01   5.287339e+04   1.360797e+05  -2.181058e+04  -2.879200e+10  -1.464327e+11  -9.838691e+11   1.476109e+05   7.688165e-23   0.000000e+00   0.000000e+00
     1872000   1.871999e-05   1.474249e+00   9.663251e+00   1.059564e-01   7.447095e+04   9.649084e+04  -8.326682e+04   5.198926e+11  -7.531800e+11  -4.079430e+11   1.476136e+05   7.794925e-23   0.000000e+00   0.000000e+00
     1880000   1.879999e-05   1.482079e+00   9.668484e+00   9.906994e-02   1.216852e+05   3.622376e+04  -7.530689e+04   5.492344e+11  -6.128941e+11   5.925366e+11   1.476163e+05   7.984750e-23   0.000000e+00   0.000000e+00
     1888000   1.887999e-05   1.493105e+00   9.670147e+00   9.564840e-02   1.467036e+05   1.577801e+04  -4.531450e+03   1.481152e+10   1.534301e+11   1.011433e+12   1.476191e+05   8.127617e-23   0.000000e+00   0.000000e+00
     1896000   1.895999e-05   1.504209e+00   9.672717e+00   9.811493e-02   1.232965e+05   5.699664e+04   5.780657e+04  -5.456517e+11   7.808388e+11   3.941145e+11   1.476220e+05   8.252276e-23   0.000000e+00   0.000000e+00
     1904000   1.903999e-05   1.512135e+00   9.679829e+00   1.028620e-01   7.478762e+04   1.184095e+05   4.668096e+04  -5.488701e+11   6.027780e+11  -6.494106e+11   1.476249e+05   8.435574e-23   0.000000e+00   0.000000e+00
     1912000   1.911999e-05   1.516878e+00   9.690434e+00   1.038307e-01   5.164732e+04   1.355244e+05  -2.756254e+04   2.956230e+10  -2.194318e+11  -1.023945e+12   1.476279e+05   8.522527e-23   0.000000e+00   0.000000e+00
     1920000   1.919999e-05   1.521799e+00   9.699759e+00   9.886169e-02   7.895410e+04   8.942096e+04  -8.697710e+04   5.864362e+11  -8.207613e+11  -3.116092e+11   1.476309e+05   8.656199e-23   0.000000e+00   0.000000e+00
     1928000   1.927999e-05   1.530119e+00   9.704324e+00   9.209874e-02   1.281239e+05   2.831118e+04  -6.766483e+04   5.184679e+11  -5.542883e+11   7.496385e+11   1.476339e+05   8.837862e-23   0.000000e+00   0.000000e+00
     1936000   1.935999e-05   1.541435e+00   9.705685e+00   8.968822e-02   1.461663e+05   1.757218e+04   1.110553e+04  -1.156110e+11   3.169985e+11   1.021080e+12   1.476370e+05   8.981583e-23   0.000000e+00   0.000000e+00
     1944000   1.943999e-05   1.552075e+00   9.708892e+00   9.317915e-02   1.127465e+05   7.001516e+04   6.468170e+04  -6.359951e+11   8.610766e+11   1.767052e+11   1.476402e+05   9.142797e-23   0.000000e+00   0.000000e+00
     1952000   1.951999e-05   1.559039e+00   9.717071e+00   9.767747e-02   6.370228e+04   1.289455e+05   3.337145e+04  -4.617146e+11   4.561891e+11  -8.809711e+11   1.476434e+05   9.300347e-23   0.000000e+00   0.000000e+00
     1960000   1.959999e-05   1.563344e+00   9.727873e+00   9.708876e-02   5.339499e+04   1.285351e+05  -4.926707e+04   2.334541e+11  -4.675645e+11  -9.670808e+11   1.476467e+05   9.385920e-23   0.000000e+00   0.000000e+00
     1968000   1.967999e-05   1.569000e+00   9.735974e+00   9.093095e-02   9.403545e+04   6.838490e+04  -9.100194e+04   6.752014e+11  -8.784538e+11   3.744535e+10   1.476500e+05   9.546479e-23   0.000000e+00   0.000000e+00
     1976000   1.975999e-05   1.578543e+00   9.739013e+00   8.500155e-02   1.401423e+05   1.542361e+04  -4.386067e+04   3.522602e+11  -3.024488e+11   1.018889e+12   1.476533e+05   9.738926e-23   0.000000e+00   0.000000e+00
     1984000   1.983999e-05   1.590105e+00   9.740323e+00   8.494093e-02   1.388943e+05   3.008361e+04   4.007309e+04  -3.827337e+11   6.335527e+11   8.512624e+11   1.476568e+05   9.885617e-23   0.000000e+00   0.000000e+00
     1992000   1.991999e-05   1.599461e+00   9.745281e+00   8.976023e-02   9.083140e+04   9.686603e+04   6.457688e+04  -6.881944e+11   8.524390e+11  -3.104788e+11   1.476602e+05   1.007361e-22   0.000000e+00   0.000000e+00
     2000000   1.999999e-05   1.604878e+00   9.755119e+00   9.278982e-02   5.137575e+04   1.384381e+05   6.827338e+01  -1.892578e+11   7.088412e+10  -1.124220e+12   1.476637e+05   1.013668e-22   0.000000e+00   0.000000e+00
     2008000   2.007999e-05   1.609218e+00   9.765355e+00   8.937607e-02   6.704388e+04   1.055629e+05  -7.853172e+04   5.388794e+11  -8.027938e+11  -6.192381e+11   1.476673e+05   1.024290e-22   0.000000e+00   0.000000e+00
     2016000   2.015999e-05   1.616646e+00   9.770988e+00   8.242524e-02   1.199460e+05   3.612841e+04  -7.819460e+04   6.337303e+11  -7.383455e+11   6.307943e+11   1.476709e+05   1.044810e-22   0.000000e+00   0.000000e+00
     2024000   2.023999e-05   1.627694e+00   9.772400e+00   7.909649e-02   1.471636e+05   1.210078e+04   2.059138e+03  -3.323703e+10   2.097594e+11   1.149359e+12   1.476746e+05   1.061538e-22   0.000000e+00   0.000000e+00
     2032000   2.031999e-05   1.638544e+00   9.775024e+00   8.233324e-02   1.153595e+05   6.326315e+04   6.707341e+04  -6.724604e+11   9.243655e+11   2.849161e+11   1.476783e+05   1.078455e-22   0.000000e+00   0.000000e+00
     2040000   2.039999e-05   1.645553e+00   9.782922e+00   8.718189e-02   6.220172e+04   1.286283e+05   3.735933e+04  -5.008725e+11   5.166195e+11  -9.444131e+11   1.476821e+05   1.095494e-22   0.000000e+00   0.000000e+00
     2048000   2.047999e-05   1.649713e+00   9.793756e+00   8.664340e-02   5.262983e+04   1.278515e+05  -5.191550e+04   2.921042e+11  -5.359920e+11  -1.024130e+12   1.476859e+05   1.104698e-22   0.000000e+00   0.000000e+00
     2056000   2.055999e-05   1.655542e+00   9.801531e+00   8.027908e-02   9.910190e+04   6.102644e+04  -9.092231e+04   7.323548e+11  -9.382903e+11   1.683062e+11   1.476898e+05   1.123100e-22   0.000000e+00   0.000000e+00
     2064000   2.063999e-05   1.665534e+00   9.803969e+00   7.488771e-02   1.442145e+05   1.035502e+04  -3.013975e+04   2.576626e+11  -1.740065e+11   1.172608e+12   1.476938e+05   1.143850e-22   0.000000e+00   0.000000e+00
     2072000   2.071999e-05   1.676980e+00   9.805433e+00   7.616044e-02   1.308650e+05   3.992573e+04   5.563203e+04  -5.536360e+11   8.276783e+11   7.085998e+11   1.476978e+05   1.161012e-22   0.000000e+00   0.000000e+00
     2080000   2.079999e-05   1.685281e+00   9.811595e+00   8.143708e-02   7.504069e+04   1.135496e+05   5.736925e+04  -6.705509e+11   7.844619e+11  -6.753007e+11   1.477019e+05   1.182354e-22   0.000000e+00   0.000000e+00
     2088000   2.087999e-05   1.689788e+00   9.822190e+00   8.288067e-02   4.788406e+04   1.367850e+05  -2.853124e+04   7.872759e+10  -2.788403e+11  -1.205232e+12   1.477060e+05   1.194457e-22   0.000000e+00   0.000000e+00
     2096000   2.095999e-05   1.694748e+00   9.831200e+00   7.751118e-02   8.511403e+04   7.868995e+04  -9.155213e+04   7.362197e+11  -9.934114e+11  -1.695695e+11   1.477102e+05   1.210932e-22   0.000000e+00   0.000000e+00
     2104000   2.103999e-05   1.703867e+00   9.834592e+00   7.119663e-02   1.386970e+05   1.393256e+04  -4.887299e+04   4.319400e+11  -4.202478e+11   1.105678e+12   1.477144e+05   1.232822e-22   0.000000e+00   0.000000e+00
     2112000   2.111999e-05   1.715417e+00   9.835622e+00   7.113346e-02   1.379789e+05   2.740236e+04   4.507509e+04  -4.505042e+11   7.187768e+11   9.424270e+11   1.477188e+05   1.250044e-22   0.000000e+00   0.000000e+00
     2120000   2.119999e-05   1.724419e+00   9.840713e+00   7.637144e-02   8.300642e+04   1.026098e+05   6.635734e+04  -7.474611e+11   9.178604e+11  -4.840615e+11   1.477232e+05   1.271671e-22   0.000000e+00   0.000000e+00
     2128000   2.127999e-05   1.729215e+00   9.850963e+00   7.887327e-02   4.653518e+04   1.394341e+05  -1.469883e+04  -4.310092e+10  -1.203267e+11  -1.279005e+12   1.477276e+05   1.284743e-22   0.000000e+00   0.000000e+00
     2136000   2.135999e-05   1.733777e+00   9.860529e+00   7.418478e-02   7.808530e+04   8.755136e+04  -8.978987e+04   7.295479e+11  -1.008454e+12  -3.490511e+11   1.477321e+05   1.299489e-22   0.000000e+00   0.000000e+00
     2144000   2.143999e-05   1.742437e+00   9.864423e+00   6.754758e-02   1.354591e+05   1.622981e+04  -5.668810e+04   5.131067e+11  -5.381679e+11   1.071717e+12   1.477367e+05   1.323231e-22   0.000000e+00   0.000000e+00
     2152000   2.151999e-05   1.753969e+00   9.865307e+00   6.693548e-02   1.401283e+05   2.255738e+04   4.102095e+04  -4.149836e+11   6.801654e+11   1.043990e+12   1.477413e+05   1.341412e-22   0.000000e+00   0.000000e+00
     2160000   2.159999e-05   1.763167e+00   9.870013e+00   7.216262e-02   8.477057e+04   9.913989e+04   6.938385e+04  -7.830650e+11   9.749179e+11  -4.360504e+11   1.477460e+05   1.364089e-22   0.000000e+00   0.000000e+00
     2168000   2.167999e-05   1.767984e+00   9.880166e+00   7.493778e-02   4.555544e+04   1.400211e+05  -1.221084e+04  -6.107052e+10  -9.566170e+10  -1.326237e+12   1.477508e+05   1.378171e-22   0.000000e+00   0.000000e+00
     2176000   2.175999e-05   1.772468e+00   9.889777e+00   7.030185e-02   7.776020e+04   8.723928e+04  -9.041228e+04   7.567720e+11  -1.044481e+12  -3.571518e+11   1.477556e+05   1.393363e-22   0.000000e+00   0.000000e+00
     2184000   2.183999e-05   1.781178e+00   9.893548e+00   6.368413e-02   1.365760e+05   1.410067e+04  -5.460168e+04   5.078533e+11  -5.300238e+11   1.133090e+12   1.477605e+05   1.417986e-22   0.000000e+00   0.000000e+00
     2192000   2.191999e-05   1.792712e+00   9.894375e+00   6.339703e-02   1.383292e+05   2.412113e+04   4.601990e+04  -4.732452e+11   7.505555e+11   1.029508e+12   1.477655e+05   1.437102e-22   0.000000e+00   0.000000e+00
     2200000   2.199999e-05   1.801602e+00   9.899392e+00   6.883119e-02   7.955452e+04   1.043543e+05   6.795131e+04  -7.902659e+11   9.717495e+11  -5.668491e+11   1.477705e+05   1.470620e-22   0.000000e+00   0.000000e+00
     2208000   2.207999e-05   1.806106e+00   9.909793e+00   7.110198e-02   4.445040e+04   1.391890e+05  -2.209600e+04   4.148792e+10  -2.292498e+11  -1.361512e+12   1.477757e+05   1.484618e-22   0.000000e+00   0.000000e+00
     2216000   2.215999e-05   1.810848e+00   9.918913e+00   6.581864e-02   8.482834e+04   7.676424e+04  -9.354457e+04   8.228127e+11  -1.107629e+12  -1.630004e+11   1.477809e+05   1.502183e-22   0.000000e+00   0.000000e+00
     2224000   2.223999e-05   1.820151e+00   9.921886e+00   5.964549e-02   1.418389e+05   7.759612e+03  -4.077088e+04   3.922060e+11  -3.644071e+11   1.294619e+12   1.477861e+05   1.527369e-22   0.000000e+00   0.000000e+00
     2232000   2.231999e-05   1.831617e+00   9.922855e+00   6.065012e-02   1.307529e+05   3.431481e+04   5.973687e+04  -6.316540e+11   9.354296e+11   8.455647e+11   1.477915e+05   1.547977e-22   0.000000e+00   0.000000e+00
     2240000   2.239999e-05   1.839582e+00   9.929003e+00   6.631509e-02   6.713948e+04   1.181519e+05   5.810628e+04  -7.220878e+11   8.459225e+11  -8.853872e+11   1.477969e+05   1.572929e-22   0.000000e+00   0.000000e+00
     2248000   2.247999e-05   1.843566e+00   9.939811e+00   6.708273e-02   4.622605e+04   1.331313e+05  -4.455050e+04   2.806993e+11  -5.306372e+11  -1.294917e+12   1.478024e+05   1.585712e-22   0.000000e+00   0.000000e+00
     2256000   2.255999e-05   1.849104e+00   9.947684e+00   6.071398e-02   1.002921e+05   5.566467e+04  -9.322080e+04   8.665021e+11  -1.115045e+12   2.661859e+11   1.478079e+05   1.607492e-22   0.000000e+00   0.000000e+00
     2264000   2.263999e-05   1.859413e+00   9.949412e+00   5.582759e-02   1.472344e+05   2.833323e+03  -1.276153e+04   1.251812e+11  -1.005753e+09   1.442396e+12   1.478136e+05   1.631882e-22   0.000000e+00   0.000000e+00
     2272000   2.271999e-05   1.870400e+00   9.951150e+00   5.887892e-02   1.144228e+05   5.625610e+04   7.478784e+04  -8.219281e+11   1.134318e+12   4.045612e+11   1.478193e+05   1.655158e-22   0.000000e+00   0.000000e+00
     2280000   2.279999e-05   1.876868e+00   9.959119e+00   6.413549e-02   5.165187e+04   1.344131e+05   3.342854e+04  -5.019720e+11   5.117184e+11  -1.281309e+12   1.478251e+05   1.678393e-22   0.000000e+00   0.000000e+00
     2288000   2.287999e-05   1.880589e+00   9.969886e+00   6.235930e-02   5.669388e+04   1.149942e+05  -7.359429e+04   6.108528e+11  -9.234674e+11  -9.726778e+11   1.478309e+05   1.691335e-22   0.000000e+00   0.000000e+00
     2296000   2.295999e-05   1.887661e+00   9.975583e+00   5.526236e-02   1.222965e+05   2.748344e+04  -7.838347e+04   7.688456e+11  -9.198609e+11   8.767679e+11   1.478369e+05   1.717912e-22   0.000000e+00   0.000000e+00
     2304000   2.303999e-05   1.898935e+00   9.976251e+00   5.297985e-02   1.448666e+05   9.363088e+03   2.799127e+04  -2.978386e+11   5.443694e+11   1.360147e+12   1.478429e+05   1.740681e-22   0.000000e+00   0.000000e+00
     2312000   2.311999e-05   1.908565e+00   9.979917e+00   5.812323e-02   8.751324e+04   9.079203e+04   7.718526e+04  -9.057352e+11   1.160860e+12  -3.382796e+11   1.478490e+05   1.777696e-22   0.000000e+00   0.000000e+00
     2320000   2.319999e-05   1.913257e+00   9.989905e+00   6.140647e-02   4.152202e+04   1.414533e+05  -1.131533e+04  -5.346409e+10  -1.052715e+11  -1.514230e+12   1.478552e+05   1.796892e-22   0.000000e+00   0.000000e+00
     2328000   2.327999e-05   1.917668e+00   9.999310e+00   5.644670e-02   8.183349e+04   7.837963e+04  -9.498909e+04   8.967305e+11  -1.214487e+12  -2.298350e+11   1.478615e+05   1.816592e-22   0.000000e+00   0.000000e+00
     2336000   2.335999e-05   1.926952e+00   1.000210e+01   5.024992e-02   1.431779e+05   3.391071e+03  -3.678977e+04   3.807197e+11  -3.484106e+11   1.448922e+12   1.478678e+05   1.843068e-22   0.000000e+00   0.000000e+00
     2344000   2.343999e-05   1.938295e+00   1.000302e+01   5.193166e-02   1.244786e+05   3.960840e+04   6.930412e+04  -7.733205e+11   1.107474e+12   7.563836e+11   1.478743e+05   1.867325e-22   0.000000e+00   0.000000e+00
     2352000   2.351999e-05   1.945437e+00   1.000995e+01   5.769781e-02   5.567723e+04   1.284161e+05   4.772917e+04  -6.556009e+11   7.339949e+11  -1.209542e+12   1.478808e+05   1.894695e-22   0.000000e+00   0.000000e+00
     2360000   2.359999e-05   1.949035e+00   1.002084e+01   5.690796e-02   5.111704e+04   1.215899e+05  -6.688515e+04   5.640513e+11  -8.784027e+11  -1.166130e+12   1.478874e+05   1.908932e-22   0.000000e+00   0.000000e+00
     2368000   2.367999e-05   1.955690e+00   1.002697e+01   4.981984e-02   1.190951e+05   2.957689e+04  -8.254832e+04   8.427304e+11  -1.028976e+12   8.468524e+11   1.478941e+05   1.937582e-22   0.000000e+00   0.000000e+00
     2376000   2.375999e-05   1.966889e+00   1.002754e+01   4.732332e-02   1.449728e+05   6.788096e+03   2.848635e+04  -3.112386e+11   5.633947e+11   1.450587e+12   1.479008e+05   1.962967e-22   0.000000e+00   0.000000e+00
     2384000   2.383999e-05   1.976400e+00   1.003117e+01   5.264189e-02   8.396996e+04   9.297901e+04   7.861702e+04  -9.492886e+11   1.215067e+12  -4.227899e+11   1.479077e+05   1.992616e-22   0.000000e+00   0.000000e+00
     2392000   2.391999e-05   1.980799e+00   1.004134e+01   5.566895e-02   3.967603e+04   1.412122e+05  -1.907045e+04   4.004002e+10  -2.257712e+11  -1.589832e+12   1.479146e+05   2.011400e-22   0.000000e+00   0.000000e+00
     2400000   2.399999e-05   1.985423e+00   1.005028e+01   5.014953e-02   8.878109e+04   6.758127e+04  -9.711594e+04   9.705677e+11  -1.290811e+12  -1.125155e+10   1.479217e+05   2.033559e-22   0.000000e+00   0.000000e+00
     2408000   2.407999e-05   1.995257e+00   1.005228e+01   4.458626e-02   1.466199e+05  -1.419989e+03  -1.958325e+04   2.137560e+11  -1.230235e+11   1.607962e+12   1.479288e+05   2.063419e-22   0.000000e+00   0.000000e+00
     2416000   2.415999e-05   2.006226e+00   1.005364e+01   4.765170e-02   1.117767e+05   5.488437e+04   7.986687e+04  -9.311410e+11   1.280923e+12   4.232562e+11   1.479360e+05   2.095252e-22   0.000000e+00   0.000000e+00
     2424000   2.423999e-05   2.012206e+00   1.006186e+01   5.296239e-02   4.444934e+04   1.387170e+05   2.586659e+04  -4.432042e+11   4.276601e+11  -1.530791e+12   1.479433e+05   2.123312e-22   0.000000e+00   0.000000e+00
     2432000   2.431999e-05   2.015826e+00   1.007235e+01   5.008917e-02   6.383231e+04   1.010188e+05  -8.723552e+04   8.412674e+11  -1.199535e+12  -7.738018e+11   1.479507e+05   2.141258e-22   0.000000e+00   0.000000e+00
     2440000   2.439999e-05   2.023939e+00   1.007642e+01   4.309914e-02   1.360172e+05   7.873820e+03  -5.769702e+04   6.265318e+11  -6.973687e+11   1.381358e+12   1.479582e+05   2.173949e-22   0.000000e+00   0.000000e+00
     2448000   2.447999e-05   2.035381e+00   1.007680e+01   4.348461e-02   1.313106e+05   2.597642e+04   6.306027e+04  -7.260649e+11   1.071612e+12   1.070906e+12   1.479657e+05   2.201746e-22   0.000000e+00   0.000000e+00
     2456000   2.455999e-05   2.042950e+00   1.008288e+01   4.954993e-02   5.721798e+04   1.239102e+05   5.717077e+04  -7.765340e+11   9.108857e+11  -1.196550e+12   1.479734e+05   2.234811e-22   0.000000e+00   0.000000e+00
     2464000   2.463999e-05   2.046402e+00   1.009379e+01   4.925094e-02   4.806881e+04   1.234043e+05  -6.602420e+04   5.948189e+11  -9.244866e+11  -1.295317e+12   1.479812e+05   2.252121e-22   0.000000e+00   0.000000e+00
     2472000   2.471999e-05   2.053015e+00   1.009979e+01   4.209058e-02   1.212388e+05   2.434506e+04  -8.129724e+04   8.823097e+11  -1.078642e+12   9.924230e+11   1.479891e+05   2.283971e-22   0.000000e+00   0.000000e+00
     2480000   2.479999e-05   2.064293e+00   1.010007e+01   4.020501e-02   1.420138e+05   8.296291e+03   4.082116e+04  -4.672986e+11   7.615454e+11   1.471651e+12   1.479970e+05   2.313275e-22   0.000000e+00   0.000000e+00
     2488000   2.487999e-05   2.073088e+00   1.010440e+01   4.609053e-02   7.098781e+04   1.060726e+05   7.493228e+04  -9.633897e+11   1.204710e+12  -7.922850e+11   1.480051e+05   2.347158e-22   0.000000e+00   0.000000e+00
     2496000   2.495999e-05   2.076801e+00   1.011508e+01   4.777975e-02   3.994014e+04   1.356245e+05  -4.380311e+04   3.433432e+11  -6.150498e+11  -1.591963e+12   1.480132e+05   2.365649e-22   0.000000e+00   0.000000e+00
     2504000   2.503999e-05   2.082332e+00   1.012250e+01   4.108129e-02   1.076313e+05   4.058194e+04  -9.316095e+04   1.013494e+12  -1.293037e+12   6.073255e+11   1.480215e+05   2.395141e-22   0.000000e+00   0.000000e+00
     2512000   2.511999e-05   2.093193e+00   1.012312e+01   3.759987e-02   1.465244e+05  -7.008436e+02   2.104603e+04  -2.390249e+11   4.723961e+11   1.681321e+12   1.480298e+05   2.425998e-22   0.000000e+00   0.000000e+00
     2520000   2.519999e-05   2.102785e+00   1.012624e+01   4.295019e-02   8.200413e+04   9.098240e+04   8.314361e+04  -1.051688e+12   1.358908e+12  -4.493717e+11   1.480383e+05   2.463351e-22   0.000000e+00   0.000000e+00
     2528000   2.527999e-05   2.106860e+00   1.013647e+01   4.592547e-02   3.651129e+04   1.409692e+05  -2.669250e+04   1.487227e+11  -3.677108e+11  -1.739728e+12   1.480469e+05   2.486574e-22   0.000000e+00   0.000000e+00
     2536000   2.535999e-05   2.111723e+00   1.014477e+01   3.978909e-02   9.791513e+04   5.216420e+04  -9.804058e+04   1.072868e+12  -1.401100e+12   3.256867e+11   1.480555e+05   2.515148e-22   0.000000e+00   0.000000e+00
     2544000   2.543999e-05   2.122195e+00   1.014574e+01   3.537647e-02   1.477732e+05  -4.723974e+03   7.986479e+03  -8.727654e+10   2.770335e+11   1.782821e+12   1.480643e+05   2.548738e-22   0.000000e+00   0.000000e+00
     2552000   2.551999e-05   2.132199e+00   1.014817e+01   4.027282e-02   8.834724e+04   8.165344e+04   8.633153e+04  -1.092119e+12   1.434847e+12  -2.390942e+11   1.480731e+05   2.584869e-22   0.000000e+00   0.000000e+00
     2560000   2.559999e-05   2.136507e+00   1.015808e+01   4.390375e-02   3.515575e+04   1.427862e+05  -1.744924e+04   4.456528e+10  -2.322322e+11  -1.812471e+12   1.480821e+05   2.610419e-22   0.000000e+00   0.000000e+00
     2568000   2.567999e-05   2.141058e+00   1.016676e+01   3.810230e-02   9.334800e+04   5.731024e+04  -9.966286e+04   1.103639e+12  -1.455986e+12   1.961190e+11   1.480912e+05   2.638403e-22   0.000000e+00   0.000000e+00
     2576000   2.575999e-05   2.151341e+00   1.016787e+01   3.333992e-02   1.479218e+05  -6.397132e+03   3.455908e+03  -3.374491e+10   2.070890e+11   1.837604e+12   1.481004e+05   2.673462e-22   0.000000e+00   0.000000e+00
     2584000   2.583999e-05   2.161437e+00   1.017008e+01   3.811156e-02   8.936775e+04   7.925131e+04   8.757345e+04  -1.118571e+12   1.476128e+12  -1.939652e+11   1.481097e+05   2.710503e-22   0.000000e+00   0.000000e+00
     2592000   2.591999e-05   2.165737e+00   1.017992e+01   4.185914e-02   3.430320e+04   1.430806e+05  -1.704390e+04   4.344972e+10  -2.312986e+11  -1.856318e+12   1.481191e+05   2.737059e-22   0.000000e+00   0.000000e+00
     2600000   2.599999e-05   2.170272e+00   1.018856e+01   3.600934e-02   9.418783e+04   5.535997e+04  -1.000300e+05   1.127797e+12  -1.486157e+12   2.390855e+11   1.481286e+05   2.765902e-22   0.000000e+00   0.000000e+00
     2608000   2.607999e-05   2.180627e+00   1.018952e+01   3.141416e-02   1.477686e+05  -6.858435e+03   7.894646e+03  -8.680410e+10   2.775950e+11   1.870460e+12   1.481382e+05   2.801814e-22   0.000000e+00   0.000000e+00
     2616000   2.615999e-05   2.190522e+00   1.019193e+01   3.645819e-02   8.492905e+04   8.405254e+04   8.757875e+04  -1.138633e+12   1.492656e+12  -3.279588e+11   1.481479e+05   2.840381e-22   0.000000e+00   0.000000e+00
     2624000   2.623999e-05   2.194557e+00   1.020201e+01   3.979598e-02   3.395784e+04   1.419149e+05  -2.564695e+04   1.541416e+11  -3.744704e+11  -1.869430e+12   1.481578e+05   2.861641e-22   0.000000e+00   0.000000e+00
     2632000   2.631999e-05   2.199389e+00   1.021016e+01   3.353152e-02   1.005738e+05   4.636283e+04  -9.843302e+04   1.136799e+12  -1.479849e+12   4.641250e+11   1.481677e+05   2.892465e-22   0.000000e+00   0.000000e+00
     2640000   2.639999e-05   2.210049e+00   1.021071e+01   2.966592e-02   1.465650e+05  -5.083254e+03   2.120151e+04  -2.508944e+11   4.900998e+11   1.853690e+12   1.481778e+05   2.925432e-22   0.000000e+00   0.000000e+00
     2648000   2.647999e-05   2.219410e+00   1.021379e+01   3.528898e-02   7.522760e+04   9.562404e+04   8.459614e+04  -1.127435e+12   1.452616e+12  -6.389525e+11   1.481879e+05   2.965072e-22   0.000000e+00   0.000000e+00
     2656000   2.655999e-05   2.223008e+00   1.022429e+01   3.762830e-02   3.561403e+04   1.374621e+05  -4.240899e+04   3.689601e+11  -6.522336e+11  -1.805170e+12   1.481982e+05   2.989524e-22   0.000000e+00   0.000000e+00
     2664000   2.663999e-05   2.228499e+00   1.023145e+01   3.075867e-02   1.117899e+05   3.113066e+04  -9.219369e+04   1.093366e+12  -1.392633e+12   8.551017e+11   1.482085e+05   3.025859e-22   0.000000e+00   0.000000e+00
     2672000   2.671999e-05   2.239555e+00   1.023151e+01   2.826885e-02   1.421244e+05   1.462003e+03   4.204059e+04  -5.166945e+11   8.312681e+11   1.718784e+12   1.482190e+05   3.062394e-22   0.000000e+00   0.000000e+00
     2680000   2.679999e-05   2.247971e+00   1.023582e+01   3.451042e-02   6.099766e+04   1.126875e+05   7.451751e+04  -1.034935e+12   1.292069e+12  -1.106207e+12   1.482297e+05   3.103566e-22   0.000000e+00   0.000000e+00
     2688000   2.687999e-05   2.251135e+00   1.024667e+01   3.512151e-02   4.205479e+04   1.260715e+05  -6.567039e+04   6.778056e+11  -1.041071e+12  -1.565155e+12   1.482404e+05   3.126517e-22   0.000000e+00   0.000000e+00
     2696000   2.695999e-05   2.257743e+00   1.025224e+01   2.780686e-02   1.266848e+05   1.169286e+04  -7.610956e+04   9.303834e+11  -1.136843e+12   1.373442e+12   1.482513e+05   3.167230e-22   0.000000e+00   0.000000e+00
     2704000   2.703999e-05   2.269050e+00   1.025206e+01   2.746372e-02   1.310636e+05   1.716124e+04   6.715296e+04  -8.518516e+11   1.248311e+12   1.344171e+12   1.482622e+05   3.204009e-22   0.000000e+00   0.000000e+00
     2712000   2.711999e-05   2.276043e+00   1.025819e+01   3.389236e-02   4.471220e+04   1.315576e+05   5.175338e+04  -7.823487e+11   9.123251e+11  -1.642430e+12   1.482733e+05   3.244642e-22   0.000000e+00   0.000000e+00
     2720000   2.719999e-05   2.279099e+00   1.026892e+01   3.203060e-02   5.685462e+04   1.035116e+05  -8.967276e+04   1.015154e+12  -1.445546e+12  -1.025466e+12   1.482845e+05   3.268431e-22   0.000000e+00   0.000000e+00
     2728000   2.727999e-05   2.287269e+00   1.027235e+01   2.502014e-02   1.411799e+05  -6.161027e+03  -4.496599e+04   5.704610e+11  -6.205092e+11   1.875158e+12   1.482959e+05   3.311992e-22   0.000000e+00   0.000000e+00
     2736000   2.735999e-05   2.298294e+00   1.027268e+01   2.744754e-02   1.102659e+05   4.555615e+04   8.809732e+04  -1.155627e+12   1.598666e+12   6.202221e+11   1.483073e+05   3.351066e-22   0.000000e+00   0.000000e+00
     2744000   2.743999e-05   2.303511e+00   1.028103e+01   3.296371e-02   3.202535e+04   1.442826e+05   1.246652e+04  -3.084368e+11   2.452412e+11  -2.042510e+12   1.483190e+05   3.391760e-22   0.000000e+00   0.000000e+00
     2752000   2.751999e-05   2.307195e+00   1.029060e+01   2.824939e-02   8.181246e+04   6.797857e+04  -1.033810e+05   1.241426e+12  -1.675645e+12  -1.198237e+11   1.483307e+05   3.420640e-22   0.000000e+00   0.000000e+00
     2760000   2.759999e-05   2.317084e+00   1.029178e+01   2.295570e-02   1.478017e+05  -1.247953e+04   2.101165e+03  -1.438564e+10   1.786272e+11   2.093872e+12   1.483425e+05   3.462846e-22   0.000000e+00   0.000000e+00
     2768000   2.767999e-05   2.326888e+00   1.029388e+01   2.811273e-02   7.990640e+04   8.543815e+04   9.123783e+04  -1.252287e+12   1.645298e+12  -4.434641e+11   1.483545e+05   3.506909e-22   0.000000e+00   0.000000e+00
     2776000   2.775999e-05   2.330451e+00   1.030416e+01   3.104100e-02   3.189073e+04   1.393459e+05  -3.972855e+04   3.652278e+11  -6.500460e+11  -1.987964e+12   1.483666e+05   3.535770e-22   0.000000e+00   0.000000e+00
     2784000   2.783999e-05   2.335841e+00   1.031119e+01   2.408799e-02   1.139366e+05   2.497911e+04  -9.171021e+04   1.153465e+12  -1.471088e+12   1.031835e+12   1.483788e+05   3.576605e-22   0.000000e+00   0.000000e+00
     2792000   2.791999e-05   2.346950e+00   1.031092e+01   2.228106e-02   1.373895e+05   4.455349e+03   5.589458e+04  -7.252121e+11   1.099937e+12   1.695729e+12   1.483912e+05   3.618020e-22   0.000000e+00   0.000000e+00
     2800000   2.799999e-05   2.354452e+00   1.031612e+01   2.886093e-02   4.716314e+04   1.260436e+05   6.254841e+04  -9.372630e+11   1.135693e+12  -1.581110e+12   1.484037e+05   3.663263e-22   0.000000e+00   0.000000e+00
     2808000   2.807999e-05   2.357325e+00   1.032693e+01   2.761021e-02   5.245115e+04   1.071389e+05  -8.830368e+04   1.038345e+12  -1.486967e+12  -1.187907e+12   1.484163e+05   3.689147e-22   0.000000e+00   0.000000e+00
     2816000   2.815999e-05   2.365330e+00   1.033037e+01   2.050809e-02   1.413296e+05  -9.157233e+03  -4.442145e+04   5.872193e+11  -6.443495e+11   2.000032e+12   1.484291e+05   3.736715e-22   0.000000e+00   0.000000e+00
     2824000   2.823999e-05   2.376216e+00   1.033066e+01   2.327726e-02   1.048563e+05   4.976369e+04   9.254050e+04  -1.258265e+12   1.727490e+12   4.972836e+11   1.484420e+05   3.780231e-22   0.000000e+00   0.000000e+00
     2832000   2.831999e-05   2.380905e+00   1.033944e+01   2.846949e-02   2.814863e+04   1.457602e+05  -7.206368e+02  -1.370419e+11   1.591949e+10  -2.200449e+12   1.484550e+05   3.817234e-22   0.000000e+00   0.000000e+00
     2840000   2.839999e-05   2.384934e+00   1.034829e+01   2.285701e-02   9.306255e+04   5.062628e+04  -1.040150e+05   1.318406e+12  -1.749332e+12   3.276735e+11   1.484681e+05   3.853025e-22   0.000000e+00   0.000000e+00
     2848000   2.847999e-05   2.395420e+00   1.034856e+01   1.887376e-02   1.452026e+05  -1.006041e+04   2.935537e+04  -3.778667e+11   6.553568e+11   2.095358e+12   1.484814e+05   3.898554e-22   0.000000e+00   0.000000e+00
     2856000   2.855999e-05   2.404043e+00   1.035206e+01   2.513249e-02   5.901932e+04   1.094875e+05   8.111686e+04  -1.182696e+12   1.504086e+12  -1.169010e+12   1.484949e+05   3.950195e-22   0.000000e+00   0.000000e+00
     2864000   2.863999e-05   2.406894e+00   1.036289e+01   2.566789e-02   4.111538e+04   1.218549e+05  -7.426764e+04   8.641183e+11  -1.285566e+12  -1.631594e+12   1.485085e+05   3.977521e-22   0.000000e+00   0.000000e+00
     2872000   2.871999e-05   2.413965e+00   1.036743e+01   1.826015e-02   1.350885e+05  -3.879185e+03  -6.160268e+04   8.237343e+11  -9.776982e+11   1.867102e+12   1.485222e+05   4.024644e-22   0.000000e+00   0.000000e+00
     2880000   2.879999e-05   2.425032e+00   1.036724e+01   1.995576e-02   1.125927e+05   3.700008e+04   8.953681e+04  -1.232070e+12   1.718529e+12   8.397463e+11   1.485361e+05   4.069425e-22   0.000000e+00   0.000000e+00
     2888000   2.887999e-05   2.430106e+00   1.037539e+01   2.570616e-02   2.759843e+04   1.455867e+05   1.048650e+04  -2.861535e+11   2.172647e+11  -2.258253e+12   1.485501e+05   4.111305e-22   0.000000e+00   0.000000e+00
     2896000   2.895999e-05   2.433805e+00   1.038458e+01   2.050751e-02   8.825861e+04   5.523243e+04  -1.059770e+05   1.370061e+12  -1.833158e+12   1.851079e+11   1.485642e+05   4.145907e-22   0.000000e+00   0.000000e+00
     2904000   2.903999e-05   2.444130e+00   1.038489e+01   1.622693e-02   1.454929e+05  -1.266959e+04   2.732857e+04  -3.564325e+11   6.310152e+11   2.192080e+12   1.485785e+05   4.192830e-22   0.000000e+00   0.000000e+00
     2912000   2.911999e-05   2.452719e+00   1.038827e+01   2.252701e-02   5.710103e+04   1.101674e+05   8.174645e+04  -1.214112e+12   1.546879e+12  -1.235951e+12   1.485929e+05   4.244025e-22   0.000000e+00   0.000000e+00
     2920000   2.919999e-05   2.455458e+00   1.039909e+01   2.285345e-02   4.198753e+04   1.188022e+05  -7.878628e+04   9.510386e+11  -1.398612e+12  -1.602825e+12   1.486075e+05   4.272526e-22   0.000000e+00   0.000000e+00
     2928000   2.927999e-05   2.462784e+00   1.040317e+01   1.548069e-02   1.382019e+05  -9.342248e+03  -5.386583e+04   7.416801e+11  -8.624620e+11   2.051465e+12   1.486222e+05   4.330669e-22   0.000000e+00   0.000000e+00
     2936000   2.935999e-05   2.473659e+00   1.040312e+01   1.797672e-02   1.041427e+05   4.654474e+04   9.529364e+04  -1.345541e+12   1.852492e+12   5.662505e+11   1.486371e+05   4.379087e-22   0.000000e+00   0.000000e+00
     2944000   2.943999e-05   2.478078e+00   1.041195e+01   2.316261e-02   2.471860e+04   1.464074e+05  -7.164426e+03  -4.422629e+10  -1.079419e+11  -2.366251e+12   1.486521e+05   4.419273e-22   0.000000e+00   0.000000e+00
     2952000   2.951999e-05   2.482297e+00   1.042025e+01   1.702981e-02   1.008856e+05   3.693251e+04  -1.027621e+05   1.376846e+12  -1.810622e+12   7.004191e+11   1.486673e+05   4.461033e-22   0.000000e+00   0.000000e+00
     2960000   2.959999e-05   2.493083e+00   1.041990e+01   1.426632e-02   1.391538e+05  -4.569951e+03   5.217151e+04  -7.149807e+11   1.095070e+12   2.004043e+12   1.486826e+05   4.510730e-22   0.000000e+00   0.000000e+00
     2968000   2.967999e-05   2.500448e+00   1.042478e+01   2.103748e-02   4.103775e+04   1.283844e+05   6.280502e+04  -9.919736e+11   1.211973e+12  -1.828391e+12   1.486981e+05   4.566299e-22   0.000000e+00   0.000000e+00
     2976000   2.975999e-05   2.503104e+00   1.043541e+01   1.910240e-02   5.761157e+04   9.474229e+04  -9.909888e+04   1.283130e+12  -1.799206e+12  -9.747450e+11   1.487138e+05   4.597039e-22   0.000000e+00   0.000000e+00
     2984000   2.983999e-05   2.511853e+00   1.043749e+01   1.255669e-02   1.464605e+05  -1.989504e+04  -1.655280e+04   2.482566e+11  -1.800915e+11   2.409484e+12   1.487295e+05   4.650023e-22   0.000000e+00   0.000000e+00
     2992000   2.991999e-05   2.521765e+00   1.043874e+01   1.743358e-02   7.731466e+04   8.087729e+04   9.801290e+04  -1.443658e+12   1.919516e+12  -4.445300e+11   1.487455e+05   4.703539e-22   0.000000e+00   0.000000e+00
     3000000   2.999999e-05   2.524847e+00   1.044905e+01   2.018702e-02   2.899189e+04   1.357367e+05  -5.352598e+04   6.178329e+11  -9.828888e+11  -2.158990e+12   1.487616e+05   4.738252e-22   0.000000e+00   0.000000e+00
     3008000   3.007999e-05   2.530855e+00   1.045471e+01   1.275662e-02   1.276579e+05   7.517938e+02  -7.640511e+04   1.070556e+12  -1.332533e+12   1.774782e+12   1.487778e+05   4.788626e-22   0.000000e+00   0.000000e+00
     3016000   3.015999e-05   2.541896e+00   1.045410e+01   1.370951e-02   1.147524e+05   2.882100e+04   9.022733e+04  -1.296237e+12   1.820525e+12   1.067728e+12   1.487942e+05   4.839376e-22   0.000000e+00   0.000000e+00
     3024000   3.023999e-05   2.546832e+00   1.046205e+01   1.965850e-02   2.337943e+04   1.467321e+05   8.230818e+03  -2.574135e+11   1.799152e+11  -2.468677e+12   1.488108e+05   4.886553e-22   0.000000e+00   0.000000e+00
     3032000   3.031999e-05   2.550571e+00   1.047084e+01   1.402080e-02   9.465649e+04   4.257669e+04  -1.066630e+05   1.468765e+12  -1.952364e+12   5.235227e+11   1.488275e+05   4.927166e-22   0.000000e+00   0.000000e+00
     3040000   3.039999e-05   2.561185e+00   1.047047e+01   1.085975e-02   1.396881e+05  -8.384320e+03   5.071093e+04  -7.119444e+11   1.097722e+12   2.143855e+12   1.488444e+05   4.979513e-22   0.000000e+00   0.000000e+00
     3048000   3.047999e-05   2.568456e+00   1.047526e+01   1.770638e-02   3.786925e+04   1.299090e+05   6.204277e+04  -1.007009e+12   1.230937e+12  -1.961732e+12   1.488614e+05   5.035686e-22   0.000000e+00   0.000000e+00
     3056000   3.055999e-05   2.571037e+00   1.048577e+01   1.538997e-02   6.086983e+04   8.768264e+04  -1.037857e+05   1.397719e+12  -1.945468e+12  -8.244783e+11   1.488786e+05   5.068881e-22   0.000000e+00   0.000000e+00
     3064000   3.063999e-05   2.580127e+00   1.048721e+01   9.252089e-03   1.471464e+05  -2.269612e+04  -1.683234e+03   4.458336e+10   9.745804e+10   2.544796e+12   1.488960e+05   5.124760e-22   0.000000e+00   0.000000e+00
     3072000   3.071999e-05   2.589410e+00   1.048912e+01   1.494402e-02   6.373662e+04   9.612858e+04   9.419217e+04  -1.442508e+12   1.889983e+12  -9.520450e+11   1.489135e+05   5.182684e-22   0.000000e+00   0.000000e+00
     3080000   3.079999e-05   2.592003e+00   1.049979e+01   1.620089e-02   3.555017e+04   1.230025e+05  -7.607270e+04   9.774248e+11  -1.447351e+12  -1.884332e+12   1.489312e+05   5.216822e-22   0.000000e+00   0.000000e+00
     3088000   3.087999e-05   2.599135e+00   1.050373e+01   8.751047e-03   1.393322e+05  -1.599726e+04  -5.016424e+04   7.387084e+11  -8.597844e+11   2.324627e+12   1.489490e+05   5.287572e-22   0.000000e+00   0.000000e+00
     3096000   3.095999e-05   2.609665e+00   1.050373e+01   1.205236e-02   9.148680e+04   5.795352e+04   1.022876e+05  -1.535237e+12   2.089556e+12   1.899002e+11   1.489671e+05   5.344558e-22   0.000000e+00   0.000000e+00
     3104000   3.103999e-05   2.613114e+00   1.051334e+01   1.620409e-02   2.231344e+04   1.426731e+05  -3.664867e+04   3.985627e+11  -6.995471e+11  -2.482528e+12   1.489853e+05   5.386922e-22   0.000000e+00   0.000000e+00
     3112000   3.111999e-05   2.618408e+00   1.051973e+01   8.941942e-03   1.220387e+05   4.417396e+03  -8.537644e+04   1.239399e+12  -1.576907e+12   1.689226e+12   1.490037e+05   5.439720e-22   0.000000e+00   0.000000e+00
     3120000   3.119999e-05   2.629380e+00   1.051888e+01   9.458153e-03   1.151747e+05   2.425600e+04   9.140052e+04  -1.357485e+12   1.911278e+12   1.204123e+12   1.490222e+05   5.496014e-22   0.000000e+00   0.000000e+00
     3128000   3.127999e-05   2.634122e+00   1.052680e+01   1.546542e-02   1.996324e+04   1.476475e+05   3.859546e+03  -1.949463e+11   9.580413e+10  -2.638495e+12   1.490410e+05   5.547405e-22   0.000000e+00   0.000000e+00
     3136000   3.135999e-05   2.637984e+00   1.053513e+01   9.409107e-03   1.010811e+05   3.078683e+04  -1.051362e+05   1.516043e+12  -2.002338e+12   8.705562e+11   1.490598e+05   5.593753e-22   0.000000e+00   0.000000e+00
     3144000   3.143999e-05   2.648757e+00   1.053433e+01   7.350869e-03   1.319798e+05  -7.923073e+02   6.931979e+04  -1.020609e+12   1.499335e+12   1.961331e+12   1.490789e+05   5.651292e-22   0.000000e+00   0.000000e+00
     3152000   3.151999e-05   2.654869e+00   1.054037e+01   1.420327e-02   2.532522e+04   1.417562e+05   3.865305e+04  -7.033284e+11   7.983114e+11  -2.465048e+12   1.490981e+05   5.709759e-22   0.000000e+00   0.000000e+00
     3160000   3.159999e-05   2.657795e+00   1.055002e+01   9.848166e-03   8.080384e+04   5.708780e+04  -1.115695e+05   1.599877e+12  -2.167061e+12   4.921509e+10   1.491175e+05   5.750656e-22   0.000000e+00   0.000000e+00
     3168000   3.167999e-05   2.667974e+00   1.054983e+01   5.740037e-03   1.417953e+05  -1.658535e+04   4.313797e+04  -6.260767e+11   9.912759e+11   2.440744e+12   1.491371e+05   5.810536e-22   0.000000e+00   0.000000e+00
     3176000   3.175999e-05   2.675303e+00   1.055415e+01   1.266600e-02   3.480685e+04   1.296890e+05   6.493858e+04  -1.087509e+12   1.344878e+12  -2.101818e+12   1.491569e+05   5.873260e-22   0.000000e+00   0.000000e+00
     3184000   3.183999e-05   2.677728e+00   1.056453e+01   1.008826e-02   6.364680e+04   7.974898e+04  -1.088251e+05   1.551343e+12  -2.145872e+12  -6.659095e+11   1.491768e+05   5.911189e-22   0.000000e+00   0.000000e+00
     3192000   3.191999e-05   2.687146e+00   1.056522e+01   4.529041e-03   1.460342e+05  -2.472465e+04   1.795605e+04  -2.471276e+11   4.900668e+11   2.688850e+12   1.491969e+05   5.973284e-22   0.000000e+00   0.000000e+00
     3200000   3.199999e-05   2.695437e+00   1.056814e+01   1.106093e-02   4.540142e+04   1.155430e+05   8.279069e+04  -1.349523e+12   1.729561e+12  -1.672800e+12   1.492172e+05   6.038142e-22   0.000000e+00   0.000000e+00
     3208000   3.207999e-05   2.697674e+00   1.057881e+01   1.006870e-02   5.046810e+04   9.732736e+04  -1.012533e+05   1.434062e+12  -2.021839e+12  -1.229417e+12   1.492376e+05   6.075493e-22   0.000000e+00   0.000000e+00
     3216000   3.215999e-05   2.706339e+00   1.058040e+01   3.588064e-03   1.466117e+05  -2.780730e+04  -3.131970e+03   7.093869e+10   5.769894e+10   2.783685e+12   1.492583e+05   6.157690e-22   0.000000e+00   0.000000e+00
     3224000   3.223999e-05   2.715304e+00   1.058228e+01   9.549869e-03   5.475344e+04   1.023208e+05   9.389779e+04  -1.512885e+12   1.980512e+12  -1.275147e+12   1.492792e+05   6.222926e-22   0.000000e+00   0.000000e+00
     3232000   3.231999e-05   2.717525e+00   1.059297e+01   9.807578e-03   4.131053e+04   1.095727e+05  -9.261661e+04   1.308110e+12  -1.872712e+12  -1.632949e+12   1.493003e+05   6.262389e-22   0.000000e+00   0.000000e+00
     3240000   3.239999e-05   2.725572e+00   1.059531e+01   2.813564e-03   1.454869e+05  -2.800454e+04  -1.860699e+04   3.067351e+11  -2.651932e+11   2.793192e+12   1.493215e+05   6.329009e-22   0.000000e+00   0.000000e+00
     3248000   3.247999e-05   2.734966e+00   1.059649e+01   8.230191e-03   6.181530e+04   9.213881e+04   9.996310e+04  -1.606800e+12   2.128326e+12  -9.673185e+11   1.493429e+05   6.395152e-22   0.000000e+00   0.000000e+00
     3256000   3.255999e-05   2.737238e+00   1.060710e+01   9.339684e-03   3.543172e+04   1.171621e+05  -8.560033e+04   1.204904e+12  -1.748319e+12  -1.895156e+12   1.493646e+05   6.438937e-22   0.000000e+00   0.000000e+00
     3264000   3.263999e-05   2.744844e+00   1.060995e+01   2.081948e-03   1.440371e+05  -2.750733e+04  -2.851250e+04   4.604767e+11  -4.761673e+11   2.782708e+12   1.493864e+05   6.506187e-22   0.000000e+00   0.000000e+00
     3272000   3.271999e-05   2.754468e+00   1.061073e+01   7.113187e-03   6.598456e+04   8.574101e+04   1.030407e+05  -1.660627e+12   2.214150e+12  -7.781881e+11   1.494084e+05   6.574501e-22   0.000000e+00   0.000000e+00
     3280000   3.279999e-05   2.756778e+00   1.062124e+01   8.696483e-03   3.227070e+04   1.209222e+05  -8.164512e+04   1.151261e+12  -1.683261e+12  -2.039004e+12   1.494306e+05   6.616708e-22   0.000000e+00   0.000000e+00
     3288000   3.287999e-05   2.764153e+00   1.062434e+01   1.332420e-03   1.431868e+05  -2.747325e+04  -3.284723e+04   5.307502e+11  -5.735723e+11   2.790809e+12   1.494530e+05   6.684736e-22   0.000000e+00   0.000000e+00
     3296000   3.295999e-05   2.773840e+00   1.062495e+01   6.216562e-03   6.695654e+04   8.356348e+04   1.042924e+05  -1.690041e+12   2.259036e+12  -7.242020e+11   1.494755e+05   6.754148e-22   0.000000e+00   0.000000e+00
     3304000   3.303999e-05   2.776131e+00   1.063543e+01   7.910248e-03   3.141760e+04   1.213254e+05  -8.150354e+04   1.158959e+12  -1.695365e+12  -2.078002e+12   1.494983e+05   6.797295e-22   0.000000e+00   0.000000e+00
     3312000   3.311999e-05   2.783489e+00   1.063849e+01   5.430205e-04   1.433088e+05  -2.846534e+04  -3.176366e+04   5.185000e+11  -5.568273e+11   2.835620e+12   1.495213e+05   6.866373e-22   0.000000e+00   0.000000e+00
     3320000   3.319999e-05   2.793091e+00   1.063914e+01   5.541200e-03   6.467771e+04   8.573385e+04   1.040675e+05  -1.700536e+12   2.270183e+12  -8.125274e+11   1.495444e+05   6.937118e-22   0.000000e+00   0.000000e+00
     3328000   3.327999e-05   2.795298e+00   1.064965e+01   6.985461e-03   3.285326e+04   1.183945e+05  -8.528741e+04   1.231051e+12  -1.789052e+12  -2.010348e+12   1.495678e+05   6.980693e-22   0.000000e+00   0.000000e+00
