     timestep     time              x             y              z              vx             vy             vz             ax             ay             az         v_magnitude      ELoss        Electronic      Nuclear
           0   0.000000e+00   1.000000e-01   1.113042e+01   6.546741e+00   1.745016e+06   2.542086e+04  -8.680037e+05   0.000000e+00   0.000000e+00   0.000000e+00   1.949143e+06   0.000000e+00   0.000000e+00   0.000000e+00
        8000   7.999000e-08   7.490602e-02   1.118520e+01   6.472977e+00  -9.759150e+05  -1.368985e+06  -9.893228e+05   7.037103e+13  -5.087027e+13   8.986993e+11   1.950715e+06   1.022518e-16   0.000000e+00   0.000000e+00
       16000   1.599900e-07   1.376094e-01   1.117564e+01   6.399255e+00  -4.032369e+05   1.668603e+06  -9.297134e+05  -8.271612e+13  -2.187270e+13  -3.459111e+12   1.952230e+06   9.958029e-17   0.000000e+00   0.000000e+00
       24000   2.399900e-07   9.211447e-02   1.113774e+01   6.320143e+00   1.545356e+06  -7.393461e+05  -9.392558e+05   3.747435e+13   7.492850e+13   2.600869e+12   1.953704e+06   9.555609e-17   0.000000e+00   0.000000e+00
       32000   3.199900e-07   9.875900e-02   1.120254e+01   6.243526e+00  -1.561241e+06  -5.374345e+05  -1.047007e+06   2.744648e+13  -7.830404e+13  -7.985847e+11   1.955130e+06   9.379026e-17   0.000000e+00   0.000000e+00
       40000   3.999900e-07   1.436642e-01   1.115560e+01   6.164433e+00   8.167197e+05   1.508992e+06  -9.401129e+05  -7.182751e+13   3.785791e+13  -1.703648e+12   1.956502e+06   8.996337e-17   0.000000e+00   0.000000e+00
       48000   4.799900e-07   8.190846e-02   1.116542e+01   6.081639e+00   4.136903e+05  -1.604388e+06  -1.043033e+06   7.756846e+13   1.828361e+13   2.580682e+12   1.957835e+06   8.684248e-17   0.000000e+00   0.000000e+00
       56000   5.599900e-07   1.411107e-01   1.120255e+01   6.002228e+00  -1.251102e+06   1.075546e+06  -1.056446e+06  -4.972284e+13  -6.119694e+13  -3.477754e+12   1.959115e+06   8.520112e-17   0.000000e+00   0.000000e+00
       64000   6.399900e-07   1.196751e-01   1.114170e+01   5.916435e+00   1.685047e+06  -9.080537e+04  -9.976749e+05   5.374316e+12   7.666328e+13   2.040178e+12   1.960353e+06   8.093759e-17   0.000000e+00   0.000000e+00
       72000   7.199900e-07   1.084267e-01   1.121052e+01   5.832694e+00  -1.405000e+06  -7.572641e+05  -1.140256e+06   3.613577e+13  -6.661883e+13  -3.333915e+11   1.961545e+06   7.875583e-17   0.000000e+00   0.000000e+00
       80000   7.999900e-07   1.592485e-01   1.116190e+01   5.747014e+00   9.204899e+05   1.404853e+06  -1.015485e+06  -6.232731e+13   3.979728e+13  -1.493887e+12   1.962683e+06   7.509614e-17   0.000000e+00   0.000000e+00
       88000   8.799900e-07   9.643460e-02   1.118687e+01   5.657430e+00  -1.173648e+05  -1.587236e+06  -1.150371e+06   7.210159e+13  -6.968226e+12   2.212770e+12   1.963784e+06   7.217596e-17   0.000000e+00   0.000000e+00
       96000   9.599900e-07   1.711772e-01   1.119669e+01   5.571519e+00  -4.334534e+05   1.570014e+06  -1.098968e+06  -6.778526e+13  -2.138208e+13  -3.857329e+12   1.964830e+06   6.970489e-17   0.000000e+00   0.000000e+00
      104000   1.039990e-06   1.113723e-01   1.116519e+01   5.477517e+00   1.033484e+06  -1.228152e+06  -1.134933e+06   5.436078e+13   4.286087e+13   3.078008e+12   1.965838e+06   6.612349e-17   0.000000e+00   0.000000e+00
      112000   1.119990e-06   1.656619e-01   1.122123e+01   5.389403e+00  -1.253221e+06   9.409352e+05  -1.188430e+06  -3.874690e+13  -5.610280e+13  -3.599104e+12   1.966796e+06   6.426052e-17   0.000000e+00   0.000000e+00
      120000   1.199990e-06   1.357432e-01   1.115799e+01   5.292809e+00   1.527006e+06  -5.185804e+05  -1.127485e+06   2.310876e+13   6.193494e+13   2.771817e+12   1.967713e+06   6.039986e-17   0.000000e+00   0.000000e+00
      128000   1.279990e-06   1.595061e-01   1.123342e+01   5.201352e+00  -1.487915e+06   2.926048e+05  -1.255320e+06  -1.049885e+13  -6.424059e+13  -2.563607e+12   1.968587e+06   5.860340e-17   0.000000e+00   0.000000e+00
      136000   1.359990e-06   1.571485e-01   1.116066e+01   5.102796e+00   1.608536e+06  -5.650459e+03  -1.136305e+06   1.757415e+12   6.293422e+13   2.139895e+12   1.969418e+06   5.484825e-17   0.000000e+00   0.000000e+00
      144000   1.439990e-06   1.609659e-01   1.124055e+01   5.007949e+00  -1.474224e+06  -4.603498e+04  -1.306243e+06   3.617851e+12  -6.170674e+13  -1.937694e+12   1.970210e+06   5.290315e-17   0.000000e+00   0.000000e+00
      152000   1.519990e-06   1.716221e-01   1.116640e+01   4.906985e+00   1.586910e+06   1.597245e+05  -1.157963e+06  -4.537341e+12   5.953771e+13   1.963437e+12   1.970957e+06   4.940794e-17   0.000000e+00   0.000000e+00
      160000   1.599990e-06   1.725205e-01   1.124823e+01   4.809535e+00  -1.440350e+06  -1.830442e+04  -1.346301e+06   2.625550e+12  -5.841861e+13  -2.040132e+12   1.971667e+06   4.742959e-17   0.000000e+00   0.000000e+00
      168000   1.679990e-06   1.779315e-01   1.117272e+01   4.705137e+00   1.566526e+06  -4.052247e+04  -1.197686e+06   3.274826e+12   5.621977e+13   2.354679e+12   1.972333e+06   4.403950e-17   0.000000e+00   0.000000e+00
      176000   1.759990e-06   1.948762e-01   1.125573e+01   4.605941e+00  -1.370973e+06   3.672808e+05  -1.370445e+06  -1.154798e+13  -5.391445e+13  -2.918951e+12   1.972963e+06   4.228817e-17   0.000000e+00   0.000000e+00
      184000   1.839990e-06   1.759151e-01   1.118336e+01   4.497204e+00   1.410163e+06  -5.677352e+05  -1.258584e+06   2.223429e+13   4.812988e+13   3.178750e+12   1.973554e+06   3.915326e-17   0.000000e+00   0.000000e+00
      192000   1.919990e-06   2.267843e-01   1.125578e+01   4.397218e+00  -1.005090e+06   1.014979e+06  -1.362614e+06  -3.375297e+13  -3.905286e+13  -4.212402e+12   1.974109e+06   3.724732e-17   0.000000e+00   0.000000e+00
      200000   1.999990e-06   1.712920e-01   1.120861e+01   4.283779e+00   7.979005e+05  -1.194117e+06  -1.355214e+06   4.305563e+13   2.462641e+13   3.632313e+12   1.974630e+06   3.436739e-17   0.000000e+00   0.000000e+00
      208000   2.079990e-06   2.572498e-01   1.123857e+01   4.182281e+00  -3.771278e+04   1.484634e+06  -1.302119e+06  -4.775079e+13  -4.853267e+12  -4.168373e+12   1.975114e+06   3.226588e-17   0.000000e+00   0.000000e+00
      216000   2.159990e-06   1.841666e-01   1.125458e+01   4.066971e+00  -3.957476e+05  -1.247041e+06  -1.480253e+06   4.329611e+13  -1.630767e+13   2.148647e+12   1.975570e+06   2.983386e-17   0.000000e+00   0.000000e+00
      224000   2.239990e-06   2.595727e-01   1.121087e+01   3.958729e+00   1.212545e+06   9.235136e+05  -1.257532e+06  -2.711263e+13   3.530186e+13  -2.332751e+11   1.975988e+06   2.756826e-17   0.000000e+00   0.000000e+00
      232000   2.319990e-06   2.400679e-01   1.129495e+01   3.848175e+00  -1.243636e+06   5.055706e+02  -1.536048e+06   2.756166e+12  -4.308205e+13  -2.257832e+12   1.976379e+06   2.601178e-17   0.000000e+00   0.000000e+00
      240000   2.399990e-06   2.274765e-01   1.122102e+01   3.727990e+00   1.227544e+06  -7.027170e+05  -1.380875e+06   2.363547e+13   3.357950e+13   3.910343e+12   1.976738e+06   2.369229e-17   0.000000e+00   0.000000e+00
      248000   2.479990e-06   3.080597e-01   1.127388e+01   3.622413e+00  -1.293721e+05   1.401750e+06  -1.388219e+06  -3.848177e+13  -8.201454e+12  -4.706481e+12   1.977067e+06   2.187192e-17   0.000000e+00   0.000000e+00
      256000   2.559990e-06   2.382883e-01   1.129731e+01   3.498760e+00  -5.813540e+05  -9.942489e+05  -1.607326e+06   3.143448e+13  -2.092647e+13   1.566126e+12   1.977372e+06   1.990364e-17   0.000000e+00   0.000000e+00
      264000   2.639990e-06   2.935256e-01   1.123323e+01   3.380838e+00   1.450507e+06   2.165838e+05  -1.326732e+06  -3.117658e+12   3.591624e+13   2.444829e+12   1.977649e+06   1.819744e-17   0.000000e+00   0.000000e+00
      272000   2.719990e-06   3.386279e-01   1.131959e+01   3.271594e+00  -6.477919e+05   1.087558e+06  -1.519762e+06  -2.574246e+13  -2.272146e+13  -5.295053e+12   1.977901e+06   1.682604e-17   0.000000e+00   0.000000e+00
      280000   2.799990e-06   2.727087e-01   1.131196e+01   3.140113e+00  -1.783950e+05  -1.076823e+06  -1.649738e+06   3.116645e+13  -9.427476e+12   2.776868e+12   1.978132e+06   1.489125e-17   0.000000e+00   0.000000e+00
      288000   2.879990e-06   3.431790e-01   1.125928e+01   3.020743e+00   1.417545e+06   3.279961e+05  -1.340451e+06  -4.951998e+12   3.059262e+13   2.241729e+12   1.978339e+06   1.346518e-17   0.000000e+00   0.000000e+00
      296000   2.959990e-06   3.940916e-01   1.134589e+01   2.910088e+00  -4.174648e+05   1.168367e+06  -1.541166e+06  -2.422789e+13  -1.608049e+13  -5.633654e+12   1.978523e+06   1.223797e-17   0.000000e+00   0.000000e+00
      304000   3.039990e-06   3.326165e-01   1.136116e+01   2.773953e+00  -4.573165e+05  -7.859788e+05  -1.757360e+06   2.223105e+13  -1.653184e+13   1.604310e+12   1.978691e+06   1.074428e-17   0.000000e+00   0.000000e+00
      312000   3.119990e-06   3.748948e-01   1.129515e+01   2.644899e+00   1.337369e+06  -2.922421e+05  -1.428932e+06   1.002613e+13   2.415709e+13   4.438191e+12   1.978840e+06   9.820633e-18   0.000000e+00   0.000000e+00
      320000   3.199990e-06   4.690713e-01   1.134620e+01   2.537206e+00   5.466741e+05   1.303424e+06  -1.385120e+06  -2.348909e+13   5.438608e+12  -4.157079e+12   1.978970e+06   8.353904e-18   0.000000e+00   0.000000e+00
      328000   3.279990e-06   4.485071e-01   1.142634e+01   2.408946e+00  -7.376796e+05   3.020417e+05  -1.811458e+06  -7.327167e+11  -2.302837e+13  -3.544356e+12   1.979086e+06   7.584572e-18   0.000000e+00   0.000000e+00
      336000   3.359990e-06   4.216902e-01   1.139110e+01   2.262230e+00   3.725978e+05  -8.592906e+05  -1.743553e+06   2.139092e+13  -9.987376e+10   4.617721e+12   1.979189e+06   6.684949e-18   0.000000e+00   0.000000e+00
      344000   3.439990e-06   5.064684e-01   1.135247e+01   2.140026e+00   1.465158e+06   1.729178e+05  -1.319456e+06   1.172832e+12   2.028497e+13   3.957488e+12   1.979281e+06   5.982247e-18   0.000000e+00   0.000000e+00
      352000   3.519990e-06   5.998656e-01   1.142127e+01   2.038019e+00   6.092782e+05   1.307766e+06  -1.355135e+06  -1.769536e+13   3.098470e+12  -4.968358e+12   1.979359e+06   4.850324e-18   0.000000e+00   0.000000e+00
      360000   3.599990e-06   6.005169e-01   1.150833e+01   1.909759e+00  -3.824423e+05   5.929267e+05  -1.849406e+06  -2.650135e+12  -1.690005e+13  -4.871907e+12   1.979426e+06   4.417222e-18   0.000000e+00   0.000000e+00
      368000   3.679990e-06   5.851190e-01   1.150544e+01   1.755269e+00   2.416142e+05  -5.244604e+05  -1.893391e+06   1.515983e+13  -6.841038e+12   3.827931e+12   1.979487e+06   4.067042e-18   0.000000e+00   0.000000e+00
      376000   3.759990e-06   6.532063e-01   1.146283e+01   1.622253e+00   1.385267e+06  -2.934657e+05  -1.383296e+06   9.796734e+12   1.129542e+13   7.412362e+12   1.979545e+06   3.889025e-18   0.000000e+00   0.000000e+00
      384000   3.839990e-06   7.778629e-01   1.148334e+01   1.531228e+00   1.506786e+06   8.350790e+05  -9.752120e+05  -6.615117e+12   1.345385e+13   1.297354e+12   1.979596e+06   3.162341e-18   0.000000e+00   0.000000e+00
      392000   3.919990e-06   8.669302e-01   1.158017e+01   1.446795e+00   6.571117e+05   1.382608e+06  -1.255213e+06  -1.120613e+13  -1.362200e+12  -7.368380e+12   1.979637e+06   2.537842e-18   0.000000e+00   0.000000e+00
      400000   3.999990e-06   8.943307e-01   1.167041e+01   1.321844e+00   2.027588e+05   7.192901e+05  -1.833198e+06   1.469915e+12  -1.263597e+13  -4.796391e+12   1.979673e+06   2.581261e-18   0.000000e+00   0.000000e+00
      408000   4.079990e-06   9.295570e-01   1.168991e+01   1.170806e+00   8.196121e+05  -1.473511e+05  -1.796048e+06   1.192043e+13  -6.524105e+12   5.973816e+12   1.979714e+06   3.077327e-18   0.000000e+00   0.000000e+00
      416000   4.159990e-06   1.032503e+00   1.167174e+01   1.055136e+00   1.694549e+06  -1.219514e+05  -1.016409e+06   7.586904e+12   7.115107e+12   1.179270e+13   1.979761e+06   3.453317e-18   0.000000e+00   0.000000e+00
      424000   4.239990e-06   1.178882e+00   1.169556e+01   1.007351e+00   1.784139e+06   8.105860e+05  -2.818695e+05  -5.654025e+12   1.387377e+13   4.100863e+12   1.979811e+06   3.369912e-18   0.000000e+00   0.000000e+00
      432000   4.319990e-06   1.293685e+00   1.179789e+01   9.812781e-01   1.018878e+06   1.597690e+06  -5.736824e+05  -1.044302e+13   2.835959e+12  -1.065309e+13   1.979858e+06   3.220884e-18   0.000000e+00   0.000000e+00
      440000   4.399990e-06   1.352392e+00   1.191516e+01   8.967818e-01   6.287633e+05   1.114967e+06  -1.510475e+06   2.577268e+12  -1.306805e+13  -8.575094e+12   1.979906e+06   3.505361e-18   0.000000e+00   0.000000e+00
      448000   4.479990e-06   1.425472e+00   1.196051e+01   7.672813e-01   1.328059e+06   7.514777e+04  -1.466585e+06   1.197683e+13  -8.925016e+12   1.038599e+13   1.979964e+06   4.623375e-18   0.000000e+00   0.000000e+00
      456000   4.559990e-06   1.563266e+00   1.195787e+01   6.971595e-01   1.965560e+06   1.313673e+05  -1.996658e+05   9.462231e+11   1.091409e+13   1.647602e+13   1.980038e+06   5.469059e-18   0.000000e+00   0.000000e+00
      464000   4.639990e-06   1.704819e+00   1.201657e+01   7.143946e-01   1.376575e+06   1.391449e+06   2.996574e+05  -1.309776e+13   1.456530e+13  -7.449956e+12   1.980122e+06   6.136377e-18   0.000000e+00   0.000000e+00
      472000   4.719990e-06   1.779066e+00   1.214928e+01   6.911009e-01   6.607176e+05   1.553272e+06  -1.035398e+06  -4.860019e+10  -1.211964e+13  -1.821713e+13   1.980215e+06   6.689580e-18   0.000000e+00   0.000000e+00
      480000   4.799990e-06   1.854216e+00   1.221907e+01   5.773365e-01   1.420719e+06   1.532826e+05  -1.371035e+06   1.430696e+13  -1.473050e+13   1.317420e+13   1.980322e+06   8.317996e-18   0.000000e+00   0.000000e+00
      488000   4.879990e-06   1.999564e+00   1.221638e+01   5.332115e-01   1.934543e+06   2.328306e+05   3.542990e+05  -5.572762e+12   1.760354e+13   1.887976e+13   1.980453e+06   9.746876e-18   0.000000e+00   0.000000e+00
      496000   4.959990e-06   2.116055e+00   1.230155e+01   5.779533e-01   8.680444e+05   1.773075e+06   1.596810e+05  -1.299463e+13   8.493229e+12  -2.361730e+13   1.980605e+06   1.116565e-17   0.000000e+00   0.000000e+00
      504000   5.039990e-06   2.173721e+00   1.242367e+01   5.118797e-01   9.815742e+05   7.948021e+05  -1.525866e+06   1.544327e+13  -2.543944e+13  -3.322422e+12   1.980774e+06   1.253648e-17   0.000000e+00   0.000000e+00
      512000   5.119990e-06   2.301016e+00   1.242878e+01   4.348283e-01   1.973992e+06  -1.411266e+05   8.769576e+04  -5.075049e+11   1.167545e+13   3.033323e+13   1.980972e+06   1.477622e-17   0.000000e+00   0.000000e+00
      520000   5.199990e-06   2.423760e+00   1.248938e+01   4.901545e-01   8.602294e+05   1.720916e+06   4.728771e+05  -1.633928e+13   1.545856e+13  -2.650851e+13   1.981201e+06   1.690517e-17   0.000000e+00   0.000000e+00
      528000   5.279990e-06   2.479105e+00   1.261217e+01   4.322809e-01   1.051306e+06   6.714444e+05  -1.539509e+06   1.962853e+13  -3.085995e+13  -6.400710e+10   1.981456e+06   1.871386e-17   0.000000e+00   0.000000e+00
      536000   5.359990e-06   2.613600e+00   1.260773e+01   3.785969e-01   1.876814e+06   1.903038e+04   6.360241e+05  -1.008813e+13   2.418339e+13   2.906909e+13   1.981747e+06   2.143436e-17   0.000000e+00   0.000000e+00
      544000   5.439990e-06   2.706180e+00   1.270096e+01   4.358401e-01   4.963728e+05   1.902537e+06  -2.501943e+05  -5.614237e+12  -3.901436e+12  -4.087444e+13   1.982077e+06   2.404336e-17   0.000000e+00   0.000000e+00
      552000   5.519990e-06   2.779643e+00   1.277652e+01   3.407179e-01   1.696243e+06  -2.503893e+05  -9.950570e+05   1.776791e+13  -1.933345e+13   3.513400e+13   1.982441e+06   2.694275e-17   0.000000e+00   0.000000e+00
      560000   5.599990e-06   2.914891e+00   1.278505e+01   3.758348e-01   1.035253e+06   1.297424e+06   1.084734e+06  -2.503730e+13   3.496593e+13  -1.790669e+13   1.982853e+06   3.040403e-17   0.000000e+00   0.000000e+00
      568000   5.679990e-06   2.964377e+00   1.291072e+01   3.463267e-01   9.788365e+05   6.759295e+05  -1.586982e+06   2.559166e+13  -4.128752e+13  -1.815412e+12   1.983309e+06   3.311977e-17   0.000000e+00   0.000000e+00
      576000   5.759990e-06   3.096450e+00   1.289960e+01   3.152881e-01   1.571226e+06   3.144803e+05   1.169560e+06  -2.323034e+13   4.126361e+13   2.013578e+13   1.983814e+06   3.713202e-17   0.000000e+00   0.000000e+00
      584000   5.839990e-06   3.154309e+00   1.301732e+01   3.429155e-01   5.331123e+05   1.386128e+06  -1.316125e+06   1.923457e+13  -3.818282e+13  -3.244440e+13   1.984375e+06   4.041913e-17   0.000000e+00   0.000000e+00
      592000   5.919990e-06   3.268999e+00   1.301952e+01   2.776410e-01   1.772375e+06  -2.021919e+05   8.706206e+05  -1.657534e+13   3.429390e+13   4.174449e+13   1.984988e+06   4.483697e-17   0.000000e+00   0.000000e+00
      600000   5.999990e-06   3.334821e+00   1.311994e+01   3.265145e-01   3.667375e+05   1.630510e+06  -1.072288e+06   1.494197e+13  -3.362123e+13  -4.604612e+13   1.985664e+06   4.880850e-17   0.000000e+00   0.000000e+00
      608000   6.079990e-06   3.440476e+00   1.312859e+01   2.557269e-01   1.768593e+06  -3.251852e+05   8.438647e+05  -1.659613e+13   3.479323e+13   4.823543e+13   1.986397e+06   5.360747e-17   0.000000e+00   0.000000e+00
      616000   6.159990e-06   3.502241e+00   1.322627e+01   3.032546e-01   3.640792e+05   1.529539e+06  -1.215287e+06   1.990845e+13  -4.077524e+13  -4.538866e+13   1.987200e+06   5.796325e-17   0.000000e+00   0.000000e+00
      624000   6.239990e-06   3.610734e+00   1.322526e+01   2.461241e-01   1.582272e+06  -8.629820e+04   1.200574e+06  -2.630227e+13   4.847995e+13   3.818679e+13   1.988067e+06   6.338307e-17   0.000000e+00   0.000000e+00
      632000   6.319990e-06   3.658834e+00   1.333240e+01   2.709299e-01   6.144794e+05   9.748562e+05  -1.621181e+06   3.281924e+13  -5.713414e+13  -2.194638e+13   1.989009e+06   6.799268e-17   0.000000e+00   0.000000e+00
      640000   6.399990e-06   3.774105e+00   1.331856e+01   2.527892e-01   1.047470e+06   7.157174e+05   1.533213e+06  -3.819925e+13   6.161366e+13  -2.630275e+12   1.990022e+06   7.426097e-17   0.000000e+00   0.000000e+00
      648000   6.479990e-06   3.813627e+00   1.342344e+01   2.271197e-01   1.257105e+06  -1.396193e+05  -1.537765e+06   3.668481e+13  -5.509151e+13   3.495495e+13   1.991112e+06   7.915072e-17   0.000000e+00   0.000000e+00
      656000   6.559990e-06   3.918100e+00   1.342743e+01   2.679226e-01   2.367462e+05   1.815875e+06   7.846927e+05  -2.583095e+13   3.195661e+13  -6.608098e+13   1.992283e+06   8.564380e-17   0.000000e+00   0.000000e+00
      664000   6.639990e-06   3.978216e+00   1.348358e+01   1.954362e-01   1.783795e+06  -8.894898e+05   3.238480e+04   1.891587e+12   6.629841e+12   7.989166e+13   1.993531e+06   9.106224e-17   0.000000e+00   0.000000e+00
      672000   6.719990e-06   4.039149e+00   1.355153e+01   2.504430e-01   1.595791e+05   1.546115e+06  -1.250424e+06   2.577781e+13  -5.098964e+13  -5.981227e+13   1.994868e+06   9.702340e-17   0.000000e+00   0.000000e+00
      680000   6.799990e-06   4.137318e+00   1.354184e+01   2.179323e-01   9.834279e+05   5.201104e+05   1.657563e+06  -4.436225e+13   7.317946e+13   3.402002e+12   1.996287e+06   1.041602e-16   0.000000e+00   0.000000e+00
      688000   6.879990e-06   4.172664e+00   1.363203e+01   1.888271e-01   1.420523e+06  -6.228223e+05  -1.259121e+06   3.460538e+13  -4.983995e+13   6.363317e+13   1.997794e+06   1.099486e-16   0.000000e+00   0.000000e+00
      696000   6.959990e-06   4.250397e+00   1.365794e+01   2.427692e-01  -1.164159e+05   1.962515e+06  -3.640854e+05   2.639208e+12  -1.632473e+13  -8.906379e+13   1.999394e+06   1.168930e-16   0.000000e+00   0.000000e+00
      704000   7.039990e-06   4.330205e+00   1.366268e+01   1.909513e-01   1.220430e+06  -7.509730e+04   1.584053e+06  -4.266579e+13   7.441989e+13   3.645473e+13   2.001079e+06   1.239644e-16   0.000000e+00   0.000000e+00
      712000   7.119990e-06   4.361011e+00   1.374891e+01   1.787040e-01   1.261507e+06  -5.492636e+05  -1.455456e+06   4.142351e+13  -6.233975e+13   5.936679e+13   2.002859e+06   1.304597e-16   0.000000e+00   0.000000e+00
      720000   7.199990e-06   4.432299e+00   1.377043e+01   2.281903e-01  -2.058320e+05   1.931508e+06  -4.958481e+05   7.121127e+12  -2.354660e+13  -9.487230e+13   2.004733e+06   1.375693e-16   0.000000e+00   0.000000e+00
      728000   7.279990e-06   4.508882e+00   1.376818e+01   1.878275e-01   8.970090e+05   2.916866e+05   1.771189e+06  -5.111352e+13   8.585650e+13   1.180412e+13   2.006693e+06   1.452615e-16   0.000000e+00   0.000000e+00
      736000   7.359990e-06   4.538705e+00   1.384036e+01   1.575881e-01   1.512923e+06  -1.065411e+06  -7.816871e+05   2.522815e+13  -3.310224e+13   9.381042e+13   2.008748e+06   1.514453e-16   0.000000e+00   0.000000e+00
      744000   7.439990e-06   4.587245e+00   1.388465e+01   2.043659e-01   2.691101e+03   1.305180e+06  -1.529775e+06   4.001302e+13  -7.376671e+13  -6.293818e+13   2.010899e+06   1.585595e-16   0.000000e+00   0.000000e+00
      752000   7.519990e-06   4.664026e+00   1.387194e+01   2.037325e-01   2.237557e+04   1.514315e+06   1.326303e+06  -4.388548e+13   6.504143e+13  -7.343405e+13   2.013140e+06   1.667852e-16   0.000000e+00   0.000000e+00
      760000   7.599990e-06   4.708264e+00   1.390360e+01   1.519727e-01   1.422962e+06  -9.183158e+05   1.092698e+06  -3.004033e+13   5.791427e+13   8.790143e+13   2.015468e+06   1.734570e-16   0.000000e+00   0.000000e+00
      768000   7.679990e-06   4.731240e+00   1.397169e+01   1.574347e-01   1.041336e+06  -6.005580e+05  -1.620752e+06   5.017298e+13  -7.846471e+13   6.123413e+13   2.017892e+06   1.802663e-16   0.000000e+00   0.000000e+00
      776000   7.759990e-06   4.782351e+00   1.399134e+01   1.996904e-01  -3.267472e+05   1.670396e+06  -1.088603e+06   2.771202e+13  -5.625152e+13  -9.475107e+13   2.020407e+06   1.877904e-16   0.000000e+00   0.000000e+00
      784000   7.839990e-06   4.846750e+00   1.397854e+01   1.891413e-01  -3.010145e+03   1.323413e+06   1.530068e+06  -5.108571e+13   7.853280e+13  -6.793892e+13   2.023003e+06   1.953153e-16   0.000000e+00   0.000000e+00
      792000   7.919990e-06   4.882606e+00   1.400543e+01   1.438229e-01   1.281853e+06  -9.280755e+05   1.264488e+06  -3.677542e+13   6.886009e+13   8.792989e+13   2.025686e+06   2.021643e-16   0.000000e+00   0.000000e+00
      800000   7.999990e-06   4.899030e+00   1.406399e+01   1.410901e-01   1.180196e+06  -1.043684e+06  -1.277693e+06   4.247385e+13  -6.389486e+13   9.131402e+13   2.028457e+06   2.085686e-16   0.000000e+00   0.000000e+00
      808000   8.079990e-06   4.932575e+00   1.409253e+01   1.791361e-01  -1.250075e+05   1.035668e+06  -1.742977e+06   5.152611e+13  -9.231902e+13  -5.863484e+13   2.031306e+06   2.149037e-16   0.000000e+00   0.000000e+00
      816000   8.159990e-06   4.985435e+00   1.408125e+01   1.923940e-01  -5.471144e+05   1.889871e+06   5.168648e+05  -2.235093e+13   2.587766e+13  -1.179865e+14   2.034231e+06   2.225166e-16   0.000000e+00   0.000000e+00
      824000   8.239990e-06   5.027218e+00   1.407922e+01   1.598131e-01   4.585987e+05   2.578872e+05   1.968119e+06  -6.379342e+13   1.070469e+14   9.170397e+11   2.037231e+06   2.296723e-16   0.000000e+00   0.000000e+00
      832000   8.319990e-06   5.043596e+00   1.411500e+01   1.280675e-01   1.344650e+06  -1.423632e+06   5.727351e+05  -1.490369e+13   3.418741e+13   1.202459e+14   2.040304e+06   2.351197e-16   0.000000e+00   0.000000e+00
      840000   8.399990e-06   5.052922e+00   1.416102e+01   1.379714e-01   8.735846e+05  -8.772995e+05  -1.625687e+06   5.462524e+13  -8.623964e+13   7.579324e+13   2.043444e+06   2.405438e-16   0.000000e+00   0.000000e+00
      848000   8.479990e-06   5.077925e+00   1.417748e+01   1.723611e-01  -3.197676e+05   1.054305e+06  -1.724807e+06   5.278676e+13  -9.525132e+13  -6.810522e+13   2.046649e+06   2.462516e-16   0.000000e+00   0.000000e+00
      856000   8.559990e-06   5.116842e+00   1.416348e+01   1.855445e-01  -7.467973e+05   1.884435e+06   3.055177e+05  -1.576669e+13   1.462980e+13  -1.282230e+14   2.049913e+06   2.531202e-16   0.000000e+00   0.000000e+00
      864000   8.639990e-06   5.148772e+00   1.415277e+01   1.616343e-01   2.966104e+04   6.444521e+05   1.949247e+06  -6.598247e+13   1.080612e+14  -3.463431e+13   2.053232e+06   2.588477e-16   0.000000e+00   0.000000e+00
      872000   8.719990e-06   5.160160e+00   1.417075e+01   1.285214e-01   1.034930e+06  -1.176321e+06   1.332216e+06  -4.107747e+13   7.654220e+13   9.962739e+13   2.056601e+06   2.633339e-16   0.000000e+00   0.000000e+00
      880000   8.799990e-06   5.158502e+00   1.420759e+01   1.221524e-01   1.117147e+06  -1.548138e+06  -7.739000e+05   2.927862e+13  -4.055234e+13   1.231586e+14   2.060017e+06   2.672052e-16   0.000000e+00   0.000000e+00
      888000   8.879990e-06   5.162171e+00   1.423254e+01   1.473620e-01   1.824589e+05  -1.439906e+05  -2.050342e+06   6.807946e+13  -1.141712e+14   1.398919e+13   2.063475e+06   2.710740e-16   0.000000e+00   0.000000e+00
      896000   8.959990e-06   5.180417e+00   1.422777e+01   1.760030e-01  -7.913553e+05   1.498687e+06  -1.183234e+06   3.471308e+13  -6.864970e+13  -1.103211e+14   2.066966e+06   2.753874e-16   0.000000e+00   0.000000e+00
      904000   9.039990e-06   5.204694e+00   1.420511e+01   1.780259e-01  -8.305557e+05   1.671818e+06   8.956051e+05  -3.486518e+13   4.796026e+13  -1.216553e+14   2.070484e+06   2.797973e-16   0.000000e+00   0.000000e+00
      912000   9.119990e-06   5.218374e+00   1.419249e+01   1.513714e-01   5.515746e+04   1.978651e+05   2.063827e+06  -6.953413e+13   1.163723e+14  -9.209136e+12   2.074024e+06   2.830003e-16   0.000000e+00   0.000000e+00
      920000   9.199990e-06   5.213509e+00   1.420565e+01   1.226658e-01   9.407466e+05  -1.444188e+06   1.160025e+06  -3.524494e+13   6.754792e+13   1.128371e+14   2.077581e+06   2.851227e-16   0.000000e+00   0.000000e+00
      928000   9.279990e-06   5.198142e+00   1.423313e+01   1.201442e-01   9.191825e+05  -1.635188e+06  -9.013597e+05   3.393609e+13  -4.863207e+13   1.226264e+14   2.081150e+06   2.863634e-16   0.000000e+00   0.000000e+00
      936000   9.359990e-06   5.188232e+00   1.424812e+01   1.461377e-01  -2.290715e+04  -2.094700e+05  -2.074050e+06   6.942345e+13  -1.167734e+14   1.093729e+13   2.084727e+06   2.876790e-16   0.000000e+00   0.000000e+00
      944000   9.439990e-06   5.192093e+00   1.423463e+01   1.749821e-01  -9.831193e+05   1.410565e+06  -1.185237e+06   3.515097e+13  -6.951167e+13  -1.120405e+14   2.088302e+06   2.893705e-16   0.000000e+00   0.000000e+00
      952000   9.519990e-06   5.201978e+00   1.420327e+01   1.777928e-01  -1.023282e+06   1.583376e+06   9.064888e+05  -3.494368e+13   4.796645e+13  -1.230237e+14   2.091867e+06   2.909228e-16   0.000000e+00   0.000000e+00
      960000   9.599990e-06   5.201287e+00   1.418170e+01   1.512335e-01  -1.181261e+05   7.617299e+04   2.090699e+06  -6.983900e+13   1.169253e+14  -8.117002e+12   2.095418e+06   2.912573e-16   0.000000e+00   0.000000e+00
      968000   9.679990e-06   5.181174e+00   1.418721e+01   1.224208e-01   7.843088e+05  -1.600605e+06   1.108383e+06  -3.292917e+13   6.376690e+13   1.155533e+14   2.098950e+06   2.904849e-16   0.000000e+00   0.000000e+00
      976000   9.759990e-06   5.150224e+00   1.420764e+01   1.224856e-01   6.915517e+05  -1.681607e+06  -1.055597e+06   3.883011e+13  -5.718162e+13   1.163577e+14   2.102458e+06   2.885194e-16   0.000000e+00   0.000000e+00
      984000   9.839990e-06   5.126793e+00   1.421220e+01   1.531806e-01  -3.700817e+05  -4.787628e+04  -2.072611e+06   6.802418e+13  -1.159125e+14  -9.556347e+12   2.105937e+06   2.869106e-16   0.000000e+00   0.000000e+00
      992000   9.919990e-06   5.119456e+00   1.418396e+01   1.819677e-01  -1.272302e+06   1.509098e+06  -7.438678e+05   1.975210e+13  -4.484054e+13  -1.249949e+14   2.109377e+06   2.857913e-16   0.000000e+00   0.000000e+00
     1000000   9.999990e-06   5.115692e+00   1.414117e+01   1.757037e-01  -9.799172e+05   1.135882e+06   1.487728e+06  -5.198699e+13   7.895194e+13  -9.440203e+13   2.112771e+06   2.839005e-16   0.000000e+00   0.000000e+00
     1008000   1.007999e-05   5.094322e+00   1.412012e+01   1.408768e-01   1.721547e+05  -8.438888e+05   1.932911e+06  -6.066262e+13   1.059920e+14   5.176898e+13   2.116112e+06   2.807535e-16   0.000000e+00   0.000000e+00
     1016000   1.015999e-05   5.051235e+00   1.413138e+01   1.219138e-01   7.161114e+05  -1.993135e+06  -8.032034e+04   7.358774e+12  -2.728258e+12   1.311603e+14   2.119399e+06   2.763495e-16   0.000000e+00   0.000000e+00
     1024000   1.023999e-05   5.007925e+00   1.414094e+01   1.470162e-01  -1.561395e+05  -7.556226e+05  -1.977429e+06   6.507336e+13  -1.068593e+14   3.560967e+13   2.122633e+06   2.716850e-16   0.000000e+00   0.000000e+00
     1032000   1.031999e-05   4.985378e+00   1.411126e+01   1.856073e-01  -1.342200e+06   1.235701e+06  -1.091138e+06   3.083913e+13  -6.235578e+13  -1.087048e+14   2.125803e+06   2.682228e-16   0.000000e+00   0.000000e+00
     1040000   1.039999e-05   4.972626e+00   1.405602e+01   1.835158e-01  -1.147288e+06   1.066040e+06   1.442048e+06  -4.887745e+13   7.301664e+13  -9.275138e+13   2.128900e+06   2.636303e-16   0.000000e+00   0.000000e+00
     1048000   1.047999e-05   4.937889e+00   1.402867e+01   1.432542e-01   1.571258e+05  -1.170867e+06   1.774674e+06  -5.264209e+13   9.361301e+13   6.651329e+13   2.131921e+06   2.584725e-16   0.000000e+00   0.000000e+00
     1056000   1.055999e-05   4.877578e+00   1.404112e+01   1.316085e-01   4.461989e+05  -1.943342e+06  -7.628859e+05   2.844562e+13  -3.862540e+13   1.148270e+14   2.134869e+06   2.515170e-16   0.000000e+00   0.000000e+00
     1064000   1.063999e-05   4.828063e+00   1.403463e+01   1.744254e-01  -8.966551e+05   1.230911e+05  -1.936693e+06   5.892800e+13  -1.022002e+14  -3.385600e+13   2.137737e+06   2.453109e-16   0.000000e+00   0.000000e+00
     1072000   1.071999e-05   4.806408e+00   1.397477e+01   2.008132e-01  -1.559886e+06   1.387072e+06   4.739236e+05  -1.887710e+13   1.923108e+13  -1.181082e+14   2.140518e+06   2.396162e-16   0.000000e+00   0.000000e+00
     1080000   1.079999e-05   4.772547e+00   1.392366e+01   1.625665e-01  -2.878549e+05  -6.666955e+05   2.016436e+06  -5.909180e+13   1.007117e+14   2.493347e+13   2.143212e+06   2.333553e-16   0.000000e+00   0.000000e+00
     1088000   1.087999e-05   4.701337e+00   1.393065e+01   1.386511e-01   3.661452e+05  -2.059130e+06  -4.800448e+05   1.949911e+13  -2.295592e+13   1.130558e+14   2.145815e+06   2.246093e-16   0.000000e+00   0.000000e+00
     1096000   1.095999e-05   4.640258e+00   1.392206e+01   1.875415e-01  -1.095885e+06   1.696309e+05  -1.839993e+06   5.333110e+13  -9.336443e+13  -4.044267e+13   2.148328e+06   2.170440e-16   0.000000e+00   0.000000e+00
     1104000   1.103999e-05   4.614195e+00   1.384725e+01   2.087630e-01  -1.521828e+06   1.102453e+06   1.046108e+06  -3.403149e+13   4.568462e+13  -9.753067e+13   2.150745e+06   2.102915e-16   0.000000e+00   0.000000e+00
     1112000   1.111999e-05   4.560522e+00   1.380535e+01   1.567951e-01   6.201943e+04  -1.563420e+06   1.479033e+06  -3.819752e+13   7.054066e+13   7.624993e+13   2.153060e+06   2.023460e-16   0.000000e+00   0.000000e+00
     1120000   1.119999e-05   4.473360e+00   1.381963e+01   1.670958e-01  -3.146276e+05  -1.325433e+06  -1.670174e+06   5.073188e+13  -7.908199e+13   5.313202e+13   2.155283e+06   1.928592e-16   0.000000e+00   0.000000e+00
     1128000   1.127999e-05   4.429043e+00   1.376267e+01   2.245229e-01  -1.785109e+06   1.186899e+06  -2.430149e+05   2.687418e+12  -1.722369e+13  -1.043228e+14   2.157406e+06   1.855506e-16   0.000000e+00   0.000000e+00
     1136000   1.135999e-05   4.385323e+00   1.368849e+01   1.822838e-01  -4.201053e+05  -9.003776e+05   1.917277e+06  -4.997260e+13   8.560668e+13   2.930793e+13   2.159426e+06   1.775497e-16   0.000000e+00   0.000000e+00
     1144000   1.143999e-05   4.287603e+00   1.370144e+01   1.710055e-01  -1.956343e+05  -1.695949e+06  -1.325485e+06   4.034028e+13  -5.940552e+13   6.997908e+13   2.161348e+06   1.673570e-16   0.000000e+00   0.000000e+00
     1152000   1.151999e-05   4.233554e+00   1.364594e+01   2.382362e-01  -1.852896e+06   1.076225e+06  -2.963643e+05   4.022783e+12  -1.938760e+13  -9.587886e+13   2.163173e+06   1.598260e-16   0.000000e+00   0.000000e+00
     1160000   1.159999e-05   4.182155e+00   1.356687e+01   1.889346e-01  -3.429128e+05  -1.235357e+06   1.744436e+06  -4.179406e+13   7.359040e+13   4.395095e+13   2.164891e+06   1.518820e-16   0.000000e+00   0.000000e+00
     1168000   1.167999e-05   4.073972e+00   1.358256e+01   1.985824e-01  -6.805884e+05  -1.161677e+06  -1.697376e+06   4.655549e+13  -7.296252e+13   3.121821e+13   2.166513e+06   1.415984e-16   0.000000e+00   0.000000e+00
     1176000   1.175999e-05   4.030444e+00   1.349272e+01   2.514843e-01  -1.752475e+06   8.641870e+05   9.393639e+05  -2.660117e+13   3.220544e+13  -7.916982e+13   2.168038e+06   1.342126e-16   0.000000e+00   0.000000e+00
     1184000   1.183999e-05   3.943739e+00   1.345266e+01   1.845358e-01  -7.147881e+03  -2.134964e+06   3.852879e+05  -3.221322e+12   1.533185e+13   8.509162e+13   2.169463e+06   1.255554e-16   0.000000e+00   0.000000e+00
     1192000   1.191999e-05   3.851155e+00   1.343547e+01   2.587395e-01  -1.782047e+06   4.805799e+05  -1.142683e+06   2.542521e+13  -5.095068e+13  -6.114084e+13   2.170800e+06   1.172239e-16   0.000000e+00   0.000000e+00
     1200000   1.199999e-05   3.801276e+00   1.332855e+01   2.226760e-01  -5.976001e+05  -1.095067e+06   1.778049e+06  -3.811038e+13   6.573162e+13   2.771080e+13   2.172039e+06   1.099658e-16   0.000000e+00   0.000000e+00
     1208000   1.207999e-05   3.677267e+00   1.334454e+01   2.419862e-01  -1.136040e+06  -7.906749e+05  -1.675415e+06   4.063728e+13  -6.574358e+13   3.435785e+12   2.173193e+06   1.007336e-16   0.000000e+00   0.000000e+00
     1216000   1.215999e-05   3.634787e+00   1.322435e+01   2.655029e-01  -1.274302e+06  -9.865900e+04   1.758927e+06  -3.890551e+13   5.878616e+13  -2.485704e+13   2.174259e+06   9.412612e-17   0.000000e+00   0.000000e+00
     1224000   1.223999e-05   3.504912e+00   1.323189e+01   2.384731e-01  -7.451706e+05  -1.518519e+06  -1.367658e+06   3.452218e+13  -5.016830e+13   3.685565e+13   2.175239e+06   8.543705e-17   0.000000e+00   0.000000e+00
     1232000   1.231999e-05   3.455410e+00   1.311900e+01   2.953188e-01  -1.580037e+06   2.436164e+05   1.476390e+06  -3.215637e+13   4.399183e+13  -4.164099e+13   2.176142e+06   7.937061e-17   0.000000e+00   0.000000e+00
     1240000   1.239999e-05   3.323298e+00   1.311631e+01   2.525635e-01  -7.171565e+05  -1.675241e+06  -1.190977e+06   3.001026e+13  -4.145811e+13   4.020893e+13   2.176964e+06   7.154130e-17   0.000000e+00   0.000000e+00
     1248000   1.247999e-05   3.271055e+00   1.300009e+01   3.142128e-01  -1.551807e+06   1.049708e+05   1.524245e+06  -3.078939e+13   4.224608e+13  -3.422990e+13   2.177715e+06   6.598448e-17   0.000000e+00   0.000000e+00
     1256000   1.255999e-05   3.129711e+00   1.300326e+01   2.842405e-01  -1.010930e+06  -1.384841e+06  -1.343741e+06   3.077547e+13  -4.480615e+13   2.299752e+13   2.178395e+06   5.890974e-17   0.000000e+00   0.000000e+00
     1264000   1.263999e-05   3.080126e+00   1.286936e+01   3.194134e-01  -1.180209e+06  -5.319419e+05   1.752777e+06  -3.057809e+13   4.719437e+13  -6.248289e+12   2.179009e+06   5.416762e-17   0.000000e+00   0.000000e+00
     1272000   1.271999e-05   2.932416e+00   1.288270e+01   3.400073e-01  -1.640083e+06  -5.513709e+05  -1.325372e+06   2.588474e+13  -4.449472e+13  -1.354214e+13   2.179563e+06   4.796237e-17   0.000000e+00   0.000000e+00
     1280000   1.279999e-05   2.868911e+00   1.274757e+01   3.104734e-01  -5.937525e+05  -1.642073e+06   1.305255e+06  -1.616287e+13   3.335672e+13   3.463167e+13   2.180055e+06   4.358152e-17   0.000000e+00   0.000000e+00
     1288000   1.287999e-05   2.749312e+00   1.272605e+01   4.056714e-01  -2.143438e+06   3.793406e+05  -1.278297e+05   2.827874e+11  -1.367913e+13  -4.551189e+13   2.180497e+06   3.826679e-17   0.000000e+00   0.000000e+00
     1296000   1.295999e-05   2.627675e+00   1.265936e+01   3.329775e-01  -6.868374e+05  -2.026027e+06  -4.239370e+05   1.504929e+13  -1.339945e+13   3.960844e+13   2.180884e+06   3.347213e-17   0.000000e+00   0.000000e+00
     1304000   1.303999e-05   2.566335e+00   1.253703e+01   4.124675e-01  -1.407943e+06  -3.594122e+05   1.626741e+06  -2.339042e+13   3.241029e+13  -1.307278e+13   2.181230e+06   2.998337e-17   0.000000e+00   0.000000e+00
     1312000   1.311999e-05   2.409388e+00   1.254438e+01   4.450485e-01  -1.953643e+06  -3.763857e+05  -8.948131e+05   1.488615e+13  -3.026156e+13  -1.978905e+13   2.181531e+06   2.593032e-17   0.000000e+00   0.000000e+00
     1320000   1.319999e-05   2.312586e+00   1.242653e+01   3.898691e-01  -6.164135e+05  -2.068994e+06   3.154561e+05   5.026807e+12   3.990306e+12   3.603642e+13   2.181791e+06   2.272761e-17   0.000000e+00   0.000000e+00
     1328000   1.327999e-05   2.240264e+00   1.232301e+01   4.935609e-01  -1.536352e+06  -2.436148e+05   1.530196e+06  -1.923847e+13   2.332028e+13  -1.559560e+13   2.182023e+06   1.963397e-17   0.000000e+00   0.000000e+00
     1336000   1.335999e-05   2.079634e+00   1.232514e+01   5.322753e-01  -2.066459e+06  -3.721411e+05  -5.944184e+05   9.566600e+12  -2.341338e+13  -1.861613e+13   2.182218e+06   1.673699e-17   0.000000e+00   0.000000e+00
     1344000   1.343999e-05   1.961613e+00   1.222006e+01   4.800312e-01  -8.612354e+05  -2.003542e+06  -8.305506e+04   1.154051e+13  -6.046037e+12   2.607783e+13   2.182385e+06   1.442312e-17   0.000000e+00   0.000000e+00
     1352000   1.351999e-05   1.901989e+00   1.208247e+01   5.542100e-01  -9.694955e+05  -1.028915e+06   1.662787e+06  -1.283022e+13   2.301025e+13   6.762231e+12   2.182532e+06   1.255843e-17   0.000000e+00   0.000000e+00
     1360000   1.359999e-05   1.778163e+00   1.205781e+01   6.661759e-01  -2.057413e+06   5.208270e+04   7.268474e+05  -8.054933e+12  -2.353594e+12  -2.262363e+13   2.182652e+06   9.884753e-18   0.000000e+00   0.000000e+00
     1368000   1.367999e-05   1.611725e+00   1.202495e+01   6.647771e-01  -1.826161e+06  -1.102641e+06  -4.623047e+05   1.192287e+13  -1.914462e+13  -1.446108e+12   2.182752e+06   8.671892e-18   0.000000e+00   0.000000e+00
     1376000   1.375999e-05   1.507442e+00   1.189099e+01   6.525432e-01  -8.236363e+05  -1.972880e+06   4.406321e+05   9.027399e+12   5.501492e+11   1.934774e+13   2.182840e+06   7.744916e-18   0.000000e+00   0.000000e+00
     1384000   1.383999e-05   1.453764e+00   1.175834e+01   7.454006e-01  -7.345289e+05  -1.118472e+06   1.724709e+06  -6.763564e+12   1.692041e+13   8.094668e+12   2.182919e+06   6.751190e-18   0.000000e+00   0.000000e+00
     1392000   1.391999e-05   1.363168e+00   1.171702e+01   8.849893e-01  -1.593861e+06  -8.561728e+04   1.489190e+06  -1.137658e+13   4.572473e+12  -1.191136e+13   2.182982e+06   4.962443e-18   0.000000e+00   0.000000e+00
     1400000   1.399999e-05   1.209985e+00   1.170182e+01   9.621073e-01  -2.059274e+06  -5.426678e+05   4.801352e+05   1.424624e+12  -1.346629e+13  -9.104457e+12   2.183032e+06   4.521731e-18   0.000000e+00   0.000000e+00
     1408000   1.407999e-05   1.064504e+00   1.161357e+01   9.877176e-01  -1.428760e+06  -1.609091e+06   3.678561e+05   1.240278e+13  -9.618526e+12   6.106570e+12   2.183082e+06   4.816993e-18   0.000000e+00   0.000000e+00
     1416000   1.415999e-05   9.905611e-01   1.147025e+01   1.047269e+00  -4.589088e+05  -1.758322e+06   1.209869e+06   9.527224e+12   6.255254e+12   1.270699e+13   2.183135e+06   4.948518e-18   0.000000e+00   0.000000e+00
     1424000   1.423999e-05   9.717716e-01   1.136330e+01   1.180544e+00  -1.901112e+05  -7.900003e+05   2.026343e+06  -3.682849e+12   1.541406e+13   5.665277e+12   2.183188e+06   4.811029e-18   0.000000e+00   0.000000e+00
     1432000   1.431999e-05   9.314059e-01   1.134371e+01   1.346801e+00  -9.461023e+05   1.571785e+05   1.961301e+06  -1.289620e+13   4.896678e+12  -6.612157e+12   2.183236e+06   3.974905e-18   0.000000e+00   0.000000e+00
     1440000   1.439999e-05   8.192009e-01   1.135107e+01   1.477812e+00  -1.733336e+06  -2.170185e+05   1.309636e+06  -3.682630e+12  -1.281422e+13  -6.995755e+12   2.183276e+06   3.850777e-18   0.000000e+00   0.000000e+00
     1448000   1.447999e-05   6.879643e-01   1.128794e+01   1.569754e+00  -1.315247e+06  -1.333956e+06   1.121424e+06   1.331185e+13  -1.089340e+13   2.657412e+12   2.183324e+06   5.145766e-18   0.000000e+00   0.000000e+00
     1456000   1.455999e-05   6.327666e-01   1.116517e+01   1.676137e+00  -4.810230e+04  -1.470471e+06   1.613248e+06   1.444736e+13   8.503584e+12   8.183930e+12   2.183384e+06   5.911947e-18   0.000000e+00   0.000000e+00
     1464000   1.463999e-05   6.578380e-01   1.109192e+01   1.828884e+00   4.035165e+05  -2.178545e+05   2.134754e+06  -5.400682e+12   1.871582e+13   2.932642e+12   2.183452e+06   6.592465e-18   0.000000e+00   0.000000e+00
     1472000   1.471999e-05   6.512740e-01   1.112067e+01   1.997296e+00  -7.561034e+05   6.610831e+05   1.938829e+06  -1.880517e+13  -1.365946e+12  -6.865807e+12   2.183525e+06   6.840873e-18   0.000000e+00   0.000000e+00
     1480000   1.479999e-05   5.454496e-01   1.114036e+01   2.130011e+00  -1.589251e+06  -4.437344e+05   1.430210e+06   2.920897e+12  -2.101821e+13  -3.272146e+12   2.183602e+06   7.832804e-18   0.000000e+00   0.000000e+00
     1488000   1.487999e-05   4.575340e-01   1.105058e+01   2.244443e+00  -3.294776e+05  -1.502379e+06   1.550107e+06   2.294050e+13   5.660932e+11   5.428289e+12   2.183696e+06   9.448747e-18   0.000000e+00   0.000000e+00
     1496000   1.495999e-05   4.900030e-01   1.096645e+01   2.387796e+00   8.074140e+05  -2.632584e+05   2.011908e+06  -1.274025e+12   2.467687e+13   3.743363e+12   2.183804e+06   1.061421e-17   0.000000e+00   0.000000e+00
     1504000   1.503999e-05   5.129085e-01   1.100876e+01   2.549427e+00  -5.787991e+05   9.351995e+05   1.886777e+06  -2.553031e+13  -3.148091e+12  -6.267734e+12   2.183926e+06   1.191419e-17   0.000000e+00   0.000000e+00
     1512000   1.511999e-05   4.106256e-01   1.103242e+01   2.680786e+00  -1.470903e+06  -6.722198e+05   1.467886e+06   1.057131e+13  -2.618554e+13  -1.393212e+12   2.184061e+06   1.358779e-17   0.000000e+00   0.000000e+00
     1520000   1.519999e-05   3.627391e-01   1.093028e+01   2.803883e+00   4.730444e+05  -1.279702e+06   1.705698e+06   2.445316e+13   1.651114e+13   5.611149e+12   2.184219e+06   1.533566e-17   0.000000e+00   0.000000e+00
     1528000   1.527999e-05   4.306069e-01   1.091015e+01   2.954279e+00   5.227866e+05   8.335795e+05   1.950236e+06  -2.503135e+13   2.003843e+13  -1.849651e+12   2.184395e+06   1.753941e-17   0.000000e+00   0.000000e+00
     1536000   1.535999e-05   3.802140e-01   1.097974e+01   3.095452e+00  -1.540133e+06   1.497814e+05   1.542077e+06  -7.565362e+12  -3.258599e+13  -4.383377e+12   2.184593e+06   1.935830e-17   0.000000e+00   0.000000e+00
     1544000   1.543999e-05   2.991107e-01   1.090297e+01   3.215642e+00   1.210104e+05  -1.492042e+06   1.591410e+06   3.452847e+13   7.800234e+12   4.695661e+12   2.184816e+06   2.168965e-17   0.000000e+00   0.000000e+00
     1552000   1.551999e-05   3.703191e-01   1.086391e+01   3.357192e+00   7.906561e+05   8.063102e+05   1.870619e+06  -2.593185e+13   2.742370e+13  -8.524342e+11   2.185060e+06   2.424867e-17   0.000000e+00   0.000000e+00
     1560000   1.559999e-05   3.276130e-01   1.093928e+01   3.493956e+00  -1.583623e+06   1.075072e+05   1.502087e+06  -6.418100e+12  -3.890739e+13  -3.971355e+12   2.185335e+06   2.673096e-17   0.000000e+00   0.000000e+00
     1568000   1.567999e-05   2.620558e-01   1.085391e+01   3.613029e+00   5.671742e+05  -1.378171e+06   1.598741e+06   3.583247e+13   2.027661e+13   4.777862e+12   2.185638e+06   2.924419e-17   0.000000e+00   0.000000e+00
     1576000   1.575999e-05   3.404201e-01   1.085382e+01   3.751904e+00   2.518814e+05   1.282865e+06   1.751934e+06  -4.169986e+13   1.312101e+13  -3.601637e+12   2.185969e+06   3.276191e-17   0.000000e+00   0.000000e+00
     1584000   1.583999e-05   2.552857e-01   1.090054e+01   3.876605e+00  -1.401125e+06  -8.953457e+05   1.419602e+06   2.449584e+13  -3.875457e+13  -2.507593e+11   2.186336e+06   3.580511e-17   0.000000e+00   0.000000e+00
     1592000   1.591999e-05   2.653105e-01   1.080274e+01   3.998564e+00   1.370531e+06  -2.712371e+05   1.682224e+06   5.186467e+12   4.693465e+13   3.355451e+12   2.186733e+06   3.818648e-17   0.000000e+00   0.000000e+00
     1600000   1.599999e-05   2.907206e-01   1.087847e+01   4.131498e+00  -1.309507e+06   8.962590e+05   1.505195e+06  -3.197811e+13  -3.780363e+13  -5.294280e+12   2.187167e+06   4.227129e-17   0.000000e+00   0.000000e+00
     1608000   1.607999e-05   2.067247e-01   1.081904e+01   4.245464e+00   4.326348e+05  -1.547155e+06   1.484893e+06   4.832123e+13   1.752003e+13   4.193795e+12   2.187640e+06   4.535507e-17   0.000000e+00   0.000000e+00
     1616000   1.615999e-05   2.882034e-01   1.082270e+01   4.374081e+00   5.316033e+04   1.484491e+06   1.606687e+06  -5.340428e+13   6.353998e+12  -4.085659e+12   2.188146e+06   4.963446e-17   0.000000e+00   0.000000e+00
     1624000   1.623999e-05   1.934063e-01   1.084317e+01   4.489286e+00  -8.376869e+05  -1.485521e+06   1.371825e+06   4.939076e+13  -2.611456e+13   1.903680e+12   2.188697e+06   5.334620e-17   0.000000e+00   0.000000e+00
     1632000   1.631999e-05   2.575667e-01   1.078247e+01   4.609629e+00   1.075229e+06   1.033203e+06   1.602912e+06  -3.943178e+13   4.217783e+13  -7.154036e+11   2.189281e+06   5.694906e-17   0.000000e+00   0.000000e+00
     1640000   1.639999e-05   1.972329e-01   1.084914e+01   4.726322e+00  -1.518069e+06  -8.620994e+05   1.322113e+06   2.935835e+13  -5.242477e+13  -4.472141e+11   2.189916e+06   6.170123e-17   0.000000e+00   0.000000e+00
     1648000   1.647999e-05   2.260130e-01   1.076222e+01   4.839788e+00   1.488097e+06   4.401906e+05   1.546117e+06  -1.883855e+13   5.865562e+13   1.456505e+12   2.190589e+06   6.493690e-17   0.000000e+00   0.000000e+00
     1656000   1.655999e-05   1.974194e-01   1.084249e+01   4.955686e+00  -1.724384e+06  -3.793537e+05   1.297862e+06   1.244971e+13  -6.285501e+13  -1.799195e+12   2.191313e+06   7.031021e-17   0.000000e+00   0.000000e+00
     1664000   1.663999e-05   2.054702e-01   1.075143e+01   5.064655e+00   1.603214e+06   1.537754e+05   1.487033e+06  -8.196806e+12   6.499894e+13   2.144517e+12   2.192079e+06   7.357259e-17   0.000000e+00   0.000000e+00
     1672000   1.671999e-05   1.886367e-01   1.083283e+01   5.177687e+00  -1.768679e+06  -2.750292e+05   1.266861e+06   8.989626e+12  -6.750493e+13  -2.067824e+12   2.192898e+06   7.954594e-17   0.000000e+00   0.000000e+00
     1680000   1.679999e-05   1.970168e-01   1.074375e+01   5.283620e+00   1.630471e+06   2.670665e+05   1.443201e+06  -1.285069e+13   6.835528e+13   1.902503e+12   2.193762e+06   8.302447e-17   0.000000e+00   0.000000e+00
     1688000   1.687999e-05   1.709487e-01   1.082209e+01   5.392530e+00  -1.725018e+06  -5.834886e+05   1.224940e+06   2.228913e+13  -6.863090e+13  -1.260555e+12   2.194681e+06   8.940044e-17   0.000000e+00   0.000000e+00
     1696000   1.695999e-05   1.989548e-01   1.074058e+01   5.496599e+00   1.495251e+06   7.732740e+05   1.409655e+06  -3.427131e+13   6.520013e+13   6.249005e+11   2.195645e+06   9.321276e-17   0.000000e+00   0.000000e+00
     1704000   1.703999e-05   1.467849e-01   1.080535e+01   5.600310e+00  -1.381423e+06  -1.229445e+06   1.185537e+06   5.081860e+13  -5.670535e+13   4.587382e+11   2.196671e+06   9.970188e-17   0.000000e+00   0.000000e+00
     1712000   1.711999e-05   2.056717e-01   1.074880e+01   5.703319e+00   8.835125e+05   1.483847e+06   1.359290e+06  -6.608860e+13   4.111070e+13  -1.876921e+12   2.197741e+06   1.043265e-16   0.000000e+00   0.000000e+00
     1720000   1.719999e-05   1.258522e-01   1.077536e+01   5.801345e+00  -3.960899e+05  -1.815180e+06   1.176135e+06   7.825056e+13  -1.550992e+13   2.469669e+12   2.198877e+06   1.097506e-16   0.000000e+00   0.000000e+00
     1728000   1.727999e-05   2.025249e-01   1.077238e+01   5.903295e+00  -4.245462e+05   1.752417e+06   1.260573e+06  -8.017767e+13  -1.624986e+13  -4.359512e+12   2.200056e+06   1.157617e-16   0.000000e+00   0.000000e+00
     1736000   1.735999e-05   1.269789e-01   1.073609e+01   5.996386e+00   1.098615e+06  -1.479574e+06   1.204007e+06   6.529065e+13   5.137149e+13   3.611127e+12   2.201301e+06   1.194060e-16   0.000000e+00   0.000000e+00
     1744000   1.743999e-05   1.708107e-01   1.079554e+01   6.095368e+00  -1.764933e+06   6.758018e+05   1.131256e+06  -3.272890e+13  -7.920230e+13  -3.682350e+12   2.202598e+06   1.272014e-16   0.000000e+00   0.000000e+00
     1752000   1.751999e-05   1.590504e-01   1.071607e+01   6.186645e+00   1.798386e+06   2.861615e+05   1.241499e+06  -1.486193e+13   8.567126e+13   1.842368e+12   2.203951e+06   1.309246e-16   0.000000e+00   0.000000e+00
     1760000   1.759999e-05   1.205179e-01   1.078084e+01   6.279451e+00  -1.358480e+06  -1.376574e+06   1.059826e+06   6.386029e+13  -6.259743e+13   6.254900e+11   2.205370e+06   1.386011e-16   0.000000e+00   0.000000e+00
     1768000   1.767999e-05   1.852949e-01   1.074572e+01   6.371731e+00   1.737206e+05   1.854827e+06   1.183031e+06  -9.052516e+13   1.078236e+13  -3.541824e+12   2.206836e+06   1.444534e-16   0.000000e+00   0.000000e+00
     1776000   1.775999e-05   1.106894e-01   1.072537e+01   6.457647e+00   1.058731e+06  -1.596774e+06   1.098324e+06   7.591751e+13   5.271703e+13   3.538578e+12   2.208374e+06   1.486786e-16   0.000000e+00   0.000000e+00
     1784000   1.783999e-05   1.479598e-01   1.078384e+01   6.547888e+00  -1.927084e+06   3.503358e+05   1.023504e+06  -1.857415e+13  -9.316024e+13  -2.995843e+12   2.209965e+06   1.572067e-16   0.000000e+00   0.000000e+00
     1792000   1.791999e-05   1.602701e-01   1.071137e+01   6.632356e+00   1.549269e+06   1.089070e+06   1.142337e+06  -5.534787e+13   7.880359e+13   1.645928e+10   2.211615e+06   1.616342e-16   0.000000e+00   0.000000e+00
     1800000   1.799999e-05   9.664125e-02   1.074476e+01   6.715316e+00  -2.051597e+05  -1.968160e+06   9.915223e+05   9.778034e+13  -8.991032e+12   2.482318e+12   2.213337e+06   1.684273e-16   0.000000e+00   0.000000e+00
     1808000   1.807999e-05   1.596332e-01   1.076707e+01   6.800326e+00  -1.457834e+06   1.332657e+06   1.002719e+06  -6.927823e+13  -7.250401e+13  -4.260854e+12   2.215107e+06   1.761525e-16   0.000000e+00   0.000000e+00
     1816000   1.815999e-05   1.380898e-01   1.069940e+01   6.878964e+00   1.911719e+06   3.465870e+05   1.067728e+06  -1.892564e+13   9.948376e+13   1.688923e+12   2.216943e+06   1.796595e-16   0.000000e+00   0.000000e+00
     1824000   1.823999e-05   9.314591e-02   1.074970e+01   6.957917e+00  -7.700912e+05  -1.868040e+06   9.168838e+05   9.608236e+13  -3.879251e+13   1.781732e+12   2.218849e+06   1.884231e-16   0.000000e+00   0.000000e+00
     1832000   1.831999e-05   1.570600e-01   1.075651e+01   7.037442e+00  -1.241192e+06   1.576530e+06   9.518254e+05  -8.418918e+13  -6.354132e+13  -4.421698e+12   2.220805e+06   1.958727e-16   0.000000e+00   0.000000e+00
     1840000   1.839999e-05   1.307240e-01   1.069418e+01   7.111015e+00   1.963206e+06   2.929790e+05   1.000478e+06  -1.653742e+13   1.051104e+14   1.783626e+12   2.222830e+06   1.993986e-16   0.000000e+00   0.000000e+00
     1848000   1.847999e-05   8.658859e-02   1.074092e+01   7.184857e+00  -6.009826e+05  -1.962191e+06   8.595976e+05   1.039886e+14  -3.103264e+13   2.002332e+12   2.224923e+06   2.078169e-16   0.000000e+00   0.000000e+00
     1856000   1.855999e-05   1.456162e-01   1.075711e+01   7.259261e+00  -1.579423e+06   1.305494e+06   8.723142e+05  -7.178951e+13  -8.393562e+13  -4.226019e+12   2.227066e+06   2.159242e-16   0.000000e+00   0.000000e+00
     1864000   1.863999e-05   1.372718e-01   1.069366e+01   7.328256e+00   1.784043e+06   9.481570e+05   9.422643e+05  -5.251383e+13   9.840386e+13   5.402012e+11   2.229276e+06   2.203286e-16   0.000000e+00   0.000000e+00
     1872000   1.871999e-05   8.085203e-02   1.071930e+01   7.396201e+00   3.165128e+05  -2.050924e+06   8.206016e+05   1.116438e+14   1.833129e+13   2.909396e+12   2.231559e+06   2.273045e-16   0.000000e+00   0.000000e+00
     1880000   1.879999e-05   1.213770e-01   1.076094e+01   7.465377e+00  -2.077960e+06   2.619763e+05   7.769959e+05  -1.547820e+13  -1.143295e+14  -2.674787e+12   2.233892e+06   2.368323e-16   0.000000e+00   0.000000e+00
     1888000   1.887999e-05   1.493543e-01   1.070805e+01   7.530724e+00   7.868962e+05   1.904061e+06   8.696599e+05  -1.072924e+14   4.547952e+13  -2.336508e+12   2.236283e+06   2.421065e-16   0.000000e+00   0.000000e+00
     1896000   1.895999e-05   9.204231e-02   1.069088e+01   7.592759e+00   1.688949e+06  -1.228865e+06   8.058131e+05   6.812749e+13   9.565464e+13   3.252421e+12   2.238748e+06   2.465044e-16   0.000000e+00   0.000000e+00
     1904000   1.903999e-05   8.665169e-02   1.074671e+01   7.655784e+00  -1.536992e+06  -1.472744e+06   7.014072e+05   8.294957e+13  -8.642918e+13   4.966066e+11   2.241270e+06   2.568907e-16   0.000000e+00   0.000000e+00
     1912000   1.911999e-05   1.416330e-01   1.073963e+01   7.717512e+00  -1.219188e+06   1.730828e+06   7.434001e+05  -1.000523e+14  -6.852852e+13  -4.337213e+12   2.243842e+06   2.641994e-16   0.000000e+00   0.000000e+00
     1920000   1.919999e-05   1.270114e-01   1.068465e+01   7.774823e+00   1.870638e+06   9.614477e+05   7.893034e+05  -5.592793e+13   1.084836e+14   5.935855e+11   2.246479e+06   2.679051e-16   0.000000e+00   0.000000e+00
     1928000   1.927999e-05   7.474325e-02   1.070242e+01   7.830899e+00   7.944469e+05  -1.989300e+06   6.858282e+05   1.142385e+14   4.662106e+13   3.119177e+12   2.249182e+06   2.746227e-16   0.000000e+00   0.000000e+00
     1936000   1.935999e-05   9.611864e-02   1.075010e+01   7.887541e+00  -2.050193e+06  -6.978727e+05   6.171677e+05   4.012187e+13  -1.190106e+14  -1.035234e+12   2.251936e+06   2.850655e-16   0.000000e+00   0.000000e+00
     1944000   1.943999e-05   1.421169e-01   1.072456e+01   7.941836e+00  -6.271333e+05   2.056303e+06   6.798341e+05  -1.216512e+14  -3.563287e+13  -4.204970e+12   2.254740e+06   2.914280e-16   0.000000e+00   0.000000e+00
     1952000   1.951999e-05   1.162830e-01   1.067790e+01   7.992206e+00   2.063920e+06   5.925370e+05   6.970866e+05  -3.548477e+13   1.223291e+14   1.313266e+12   2.257608e+06   2.946925e-16   0.000000e+00   0.000000e+00
     1960000   1.959999e-05   7.025242e-02   1.070100e+01   8.041764e+00   6.530926e+05  -2.080148e+06   5.970624e+05   1.225934e+14   3.925741e+13   2.951467e+12   2.260538e+06   3.019010e-16   0.000000e+00   0.000000e+00
     1968000   1.967999e-05   9.153105e-02   1.074550e+01   8.091456e+00  -2.057965e+06  -7.760525e+05   5.347946e+05   4.585384e+13  -1.224439e+14  -9.093810e+11   2.263511e+06   3.121326e-16   0.000000e+00   0.000000e+00
     1976000   1.975999e-05   1.368600e-01   1.072549e+01   8.138975e+00  -9.224364e+05   1.986116e+06   5.844792e+05  -1.200724e+14  -5.442138e+13  -4.273891e+12   2.266531e+06   3.184829e-16   0.000000e+00   0.000000e+00
     1984000   1.983999e-05   1.212892e-01   1.067789e+01   8.182819e+00   1.891382e+06   1.093574e+06   6.147320e+05  -6.627736e+13   1.145806e+14   3.721200e+11   2.269609e+06   3.216277e-16   0.000000e+00   0.000000e+00
     1992000   1.991999e-05   7.327582e-02   1.068653e+01   8.225173e+00   1.331070e+06  -1.764271e+06   5.300700e+05   1.060479e+14   8.088000e+13   3.235605e+12   2.272746e+06   3.276127e-16   0.000000e+00   0.000000e+00
     2000000   1.999999e-05   7.558339e-02   1.073331e+01   8.267511e+00  -1.557508e+06  -1.597531e+06   4.493408e+05   9.688427e+13  -9.440307e+13   5.991221e+11   2.275927e+06   3.377724e-16   0.000000e+00   0.000000e+00
     2008000   2.007999e-05   1.219485e-01   1.073694e+01   8.308454e+00  -1.836760e+06   1.267414e+06   4.631318e+05  -7.828458e+13  -1.118700e+14  -3.924917e+12   2.279148e+06   3.453898e-16   0.000000e+00   0.000000e+00
     2016000   2.015999e-05   1.338222e-01   1.069141e+01   8.346085e+00   9.092559e+05   2.027679e+06   5.207699e+05  -1.248785e+14   5.666372e+13  -2.229885e+12   2.282418e+06   3.491947e-16   0.000000e+00   0.000000e+00
     2024000   2.023999e-05   9.247707e-02   1.067011e+01   8.381126e+00   2.181631e+06  -4.825991e+05   4.818709e+05   2.921976e+13   1.343865e+14   2.692195e+12   2.285742e+06   3.522696e-16   0.000000e+00   0.000000e+00
     2032000   2.031999e-05   6.336773e-02   1.070445e+01   8.415599e+00   3.060276e+04  -2.255868e+06   3.874936e+05   1.389559e+14   2.242525e+12   2.579679e+12   2.289111e+06   3.607740e-16   0.000000e+00   0.000000e+00
     2040000   2.039999e-05   9.001289e-02   1.073952e+01   8.449400e+00  -2.189797e+06  -5.875003e+05   3.394985e+05   3.616829e+13  -1.358747e+14  -1.259162e+12   2.292515e+06   3.702976e-16   0.000000e+00   0.000000e+00
     2048000   2.047999e-05   1.305957e-01   1.072181e+01   8.480911e+00  -1.130079e+06   1.962480e+06   3.781641e+05  -1.229934e+14  -6.988167e+13  -4.364760e+12   2.295957e+06   3.762592e-16   0.000000e+00   0.000000e+00
     2056000   2.055999e-05   1.247560e-01   1.067778e+01   8.509072e+00   1.582681e+06   1.616141e+06   4.130926e+05  -1.011162e+14   9.934311e+13  -7.669322e+11   2.299443e+06   3.786127e-16   0.000000e+00   0.000000e+00
     2064000   2.063999e-05   8.177342e-02   1.067038e+01   8.535206e+00   2.017292e+06  -1.053219e+06   3.534925e+05   6.548177e+13   1.262686e+14   3.098154e+12   2.302975e+06   3.825592e-16   0.000000e+00   0.000000e+00
     2072000   2.071999e-05   6.242377e-02   1.070826e+01   8.560751e+00  -3.847757e+05  -2.258750e+06   2.648207e+05   1.415459e+14  -2.394164e+13   2.233180e+12   2.306541e+06   3.908037e-16   0.000000e+00   0.000000e+00
     2080000   2.079999e-05   9.261775e-02   1.073765e+01   8.585381e+00  -2.271775e+06  -3.522360e+05   2.273528e+05   2.195161e+13  -1.432507e+14  -1.666417e+12   2.310134e+06   3.994752e-16   0.000000e+00   0.000000e+00
     2088000   2.087999e-05   1.302369e-01   1.071813e+01   8.607669e+00  -1.070713e+06   2.033669e+06   2.668924e+05  -1.290646e+14  -6.726004e+13  -4.475608e+12   2.313756e+06   4.044702e-16   0.000000e+00   0.000000e+00
     2096000   2.095999e-05   1.247552e-01   1.067615e+01   8.626772e+00   1.557522e+06   1.689571e+06   2.997980e+05  -1.069466e+14   9.887798e+13  -9.256716e+11   2.317413e+06   4.060108e-16   0.000000e+00   0.000000e+00
     2104000   2.103999e-05   8.419425e-02   1.066664e+01   8.643832e+00   2.136299e+06  -8.738642e+05   2.451986e+05   5.501372e+13   1.351062e+14   3.065198e+12   2.321107e+06   4.087347e-16   0.000000e+00   0.000000e+00
     2112000   2.111999e-05   6.145650e-02   1.070075e+01   8.660143e+00  -4.455974e+04  -2.319094e+06   1.569520e+05   1.469510e+14  -2.741937e+12   2.582805e+12   2.324826e+06   4.161958e-16   0.000000e+00   0.000000e+00
     2120000   2.119999e-05   8.536319e-02   1.073395e+01   8.675566e+00  -2.181747e+06  -8.063920e+05   1.091401e+05   5.126230e+13  -1.390915e+14  -9.269361e+11   2.328561e+06   4.246124e-16   0.000000e+00   0.000000e+00
     2128000   2.127999e-05   1.252844e-01   1.072374e+01   8.688914e+00  -1.554126e+06   1.733722e+06   1.363513e+05  -1.109887e+14  -9.901045e+13  -4.490910e+12   2.332315e+06   4.292094e-16   0.000000e+00   0.000000e+00
     2136000   2.135999e-05   1.310751e-01   1.068301e+01   8.699147e+00   1.026409e+06   2.090775e+06   1.801994e+05  -1.333430e+14   6.575676e+13  -2.203078e+12   2.336092e+06   4.299666e-16   0.000000e+00   0.000000e+00
     2144000   2.143999e-05   9.616189e-02   1.066228e+01   8.706936e+00   2.330687e+06  -1.469639e+05   1.463139e+05   9.292035e+12   1.483128e+14   2.465113e+12   2.339895e+06   4.309780e-16   0.000000e+00   0.000000e+00
     2152000   2.151999e-05   6.402228e-02   1.068646e+01   8.713654e+00   7.772465e+05  -2.210304e+06   5.876652e+04   1.407816e+14   4.948914e+13   3.179488e+12   2.343717e+06   4.361018e-16   0.000000e+00   0.000000e+00
     2160000   2.159999e-05   7.418500e-02   1.072557e+01   8.719566e+00  -1.735338e+06  -1.580984e+06  -7.858109e+03   1.011672e+14  -1.111895e+14   4.562963e+11   2.347546e+06   4.438005e-16   0.000000e+00   0.000000e+00
     2168000   2.167999e-05   1.146090e-01   1.073158e+01   8.723793e+00  -2.133479e+06   9.885438e+05  -5.968822e+03  -6.352297e+13  -1.368877e+14  -3.766893e+12   2.351379e+06   4.489825e-16   0.000000e+00   0.000000e+00
     2176000   2.175999e-05   1.363212e-01   1.069688e+01   8.725095e+00   8.028134e+04   2.353430e+06   4.468467e+04  -1.506597e+14   5.308436e+12  -3.814787e+12   2.355223e+06   4.495297e-16   0.000000e+00   0.000000e+00
     2184000   2.183999e-05   1.133176e-01   1.066358e+01   8.723470e+00   2.198860e+06   8.534774e+05   4.303453e+04  -5.433224e+13   1.401917e+14   1.036819e+12   2.359080e+06   4.483411e-16   0.000000e+00   0.000000e+00
     2192000   2.191999e-05   7.398790e-02   1.067196e+01   8.720290e+00   1.657806e+06  -1.683447e+06  -3.472478e+04   1.072799e+14   1.054395e+14   3.483329e+12   2.362947e+06   4.504482e-16   0.000000e+00   0.000000e+00
     2200000   2.199999e-05   6.660655e-02   1.071197e+01   8.716342e+00  -8.991747e+05  -2.186185e+06  -1.178205e+05   1.397577e+14  -5.768555e+13   1.833524e+12   2.366812e+06   4.564084e-16   0.000000e+00   0.000000e+00
     2208000   2.207999e-05   1.011961e-01   1.073487e+01   8.711126e+00  -2.366193e+06  -7.174634e+03  -1.454290e+05   5.070784e+11  -1.518465e+14  -2.345020e+12   2.370669e+06   4.618992e-16   0.000000e+00   0.000000e+00
     2216000   2.215999e-05   1.362050e-01   1.071206e+01   8.703351e+00  -9.048030e+05   2.193023e+06  -1.016405e+05  -1.401380e+14  -5.793185e+13  -4.710303e+12   2.374521e+06   4.624712e-16   0.000000e+00   0.000000e+00
     2224000   2.223999e-05   1.287710e-01   1.067137e+01   8.692332e+00   1.690548e+06   1.671345e+06  -7.286585e+04  -1.060964e+14   1.074184e+14  -7.662268e+11   2.378372e+06   4.595136e-16   0.000000e+00   0.000000e+00
     2232000   2.231999e-05   8.846692e-02   1.066354e+01   8.679211e+00   2.187389e+06  -9.343039e+05  -1.318804e+05   5.939343e+13   1.383469e+14   3.273822e+12   2.382223e+06   4.586277e-16   0.000000e+00   0.000000e+00
     2240000   2.239999e-05   6.646067e-02   1.069902e+01   8.665263e+00  -5.950657e+04  -2.374731e+06  -2.245280e+05   1.508377e+14  -4.133528e+12   2.727587e+12   2.386064e+06   4.621058e-16   0.000000e+00   0.000000e+00
     2248000   2.247999e-05   9.221332e-02   1.073349e+01   8.650382e+00  -2.240454e+06  -7.852009e+05  -2.745376e+05   5.013215e+13  -1.429719e+14  -1.044252e+12   2.389884e+06   4.672249e-16   0.000000e+00   0.000000e+00
     2256000   2.255999e-05   1.343892e-01   1.072221e+01   8.633300e+00  -1.510046e+06   1.841325e+06  -2.429176e+05  -1.167228e+14  -9.622709e+13  -4.765276e+12   2.393685e+06   4.677144e-16   0.000000e+00   0.000000e+00
     2264000   2.263999e-05   1.387228e-01   1.067921e+01   8.612854e+00   1.223518e+06   2.052375e+06  -1.965557e+05  -1.292127e+14   7.695171e+13  -1.966276e+12   2.397473e+06   4.633527e-16   0.000000e+00   0.000000e+00
     2272000   2.271999e-05   9.973167e-02   1.066152e+01   8.589878e+00   2.343613e+06  -4.638803e+05  -2.414352e+05   2.943342e+13   1.467100e+14   2.902176e+12   2.401250e+06   4.602386e-16   0.000000e+00   0.000000e+00
     2280000   2.279999e-05   7.043849e-02   1.069406e+01   8.566009e+00   3.131517e+05  -2.360316e+06  -3.389559e+05   1.483844e+14   1.915402e+13   3.048583e+12   2.405005e+06   4.615896e-16   0.000000e+00   0.000000e+00
     2288000   2.287999e-05   9.298475e-02   1.073367e+01   8.541409e+00  -2.153154e+06  -1.003423e+06  -3.988076e+05   6.336092e+13  -1.359113e+14  -6.875906e+11   2.408729e+06   4.649403e-16   0.000000e+00   0.000000e+00
     2296000   2.295999e-05   1.385732e-01   1.072488e+01   8.514688e+00  -1.574590e+06   1.790268e+06  -3.679362e+05  -1.118938e+14  -9.927380e+13  -4.793874e+12   2.412420e+06   4.645284e-16   0.000000e+00   0.000000e+00
     2304000   2.303999e-05   1.434700e-01   1.067931e+01   8.484342e+00   1.293001e+06   2.016026e+06  -3.182138e+05  -1.249631e+14   7.995531e+13  -1.903015e+12   2.416087e+06   4.579060e-16   0.000000e+00   0.000000e+00
     2312000   2.311999e-05   1.008588e-01   1.066355e+01   8.451299e+00   2.284945e+06  -7.046947e+05  -3.708506e+05   4.398801e+13   1.406288e+14   3.215836e+12   2.419731e+06   4.532295e-16   0.000000e+00   0.000000e+00
     2320000   2.319999e-05   7.501506e-02   1.070283e+01   8.417532e+00  -1.209780e+05  -2.373148e+06  -4.755163e+05   1.469586e+14  -8.139859e+12   2.779345e+12   2.423341e+06   4.535192e-16   0.000000e+00   0.000000e+00
     2328000   2.327999e-05   1.083071e-01   1.073928e+01   8.383032e+00  -2.337285e+06  -3.892246e+05  -5.248603e+05   2.450130e+13  -1.452488e+14  -1.808330e+12   2.426906e+06   4.554839e-16   0.000000e+00   0.000000e+00
     2336000   2.335999e-05   1.522396e-01   1.071565e+01   8.345857e+00  -8.421734e+05   2.231061e+06  -4.691471e+05  -1.366487e+14  -5.252113e+13  -4.924846e+12   2.430429e+06   4.516420e-16   0.000000e+00   0.000000e+00
     2344000   2.343999e-05   1.378936e-01   1.066903e+01   8.304755e+00   2.039259e+06   1.254349e+06  -4.381806e+05  -7.579854e+13   1.235029e+14   3.033792e+11   2.433921e+06   4.432917e-16   0.000000e+00   0.000000e+00
     2352000   2.351999e-05   8.942624e-02   1.067702e+01   8.261797e+00   1.577873e+06  -1.780228e+06  -5.309573e+05   1.083547e+14   9.479206e+13   3.787746e+12   2.437378e+06   4.390958e-16   0.000000e+00   0.000000e+00
     2360000   2.359999e-05   9.067251e-02   1.072907e+01   8.218785e+00  -1.536292e+06  -1.789326e+06  -6.289358e+05   1.089395e+14  -9.397200e+13   9.167923e+11   2.440787e+06   4.394509e-16   0.000000e+00   0.000000e+00
     2368000   2.367999e-05   1.442229e-01   1.073659e+01   8.174368e+00  -1.938876e+06   1.355380e+06  -6.144284e+05  -8.124793e+13  -1.181463e+14  -4.572192e+12   2.444139e+06   4.381287e-16   0.000000e+00   0.000000e+00
     2376000   2.375999e-05   1.580117e-01   1.068532e+01   8.125872e+00   1.186611e+06   2.071140e+06  -5.406780e+05  -1.231138e+14   7.006943e+13  -2.155199e+12   2.447448e+06   4.284430e-16   0.000000e+00   0.000000e+00
     2384000   2.383999e-05   1.079879e-01   1.066973e+01   8.074365e+00   2.146697e+06  -1.016692e+06  -6.033618e+05   6.092501e+13   1.263072e+14   3.605138e+12   2.450718e+06   4.211796e-16   0.000000e+00   0.000000e+00
     2392000   2.391999e-05   9.041195e-02   1.072233e+01   8.022917e+00  -9.241022e+05  -2.155316e+06  -7.228092e+05   1.282522e+14  -5.573038e+13   1.940897e+12   2.453937e+06   4.197113e-16   0.000000e+00   0.000000e+00
     2400000   2.399999e-05   1.446580e-01   1.074408e+01   7.970784e+00  -2.146428e+06   9.466990e+05  -7.306887e+05  -5.513170e+13  -1.280228e+14  -4.184157e+12   2.457092e+06   4.183923e-16   0.000000e+00   0.000000e+00
     2408000   2.407999e-05   1.673651e-01   1.069136e+01   7.914401e+00   1.007639e+06   2.151121e+06  -6.402267e+05  -1.247684e+14   5.774291e+13  -2.653055e+12   2.460193e+06   4.078339e-16   0.000000e+00   0.000000e+00
     2416000   2.415999e-05   1.141068e-01   1.067322e+01   7.854444e+00   2.102544e+06  -1.072256e+06  -7.051057e+05   6.275458e+13   1.203665e+14   3.823704e+12   2.463250e+06   3.987407e-16   0.000000e+00   0.000000e+00
     2424000   2.423999e-05   1.005667e-01   1.073193e+01   7.795010e+00  -1.228552e+06  -1.968033e+06  -8.365836e+05   1.143146e+14  -7.210921e+13   1.541067e+12   2.466245e+06   3.960080e-16   0.000000e+00   0.000000e+00
     2432000   2.431999e-05   1.630115e-01   1.074294e+01   7.734787e+00  -1.782931e+06   1.501464e+06  -8.145865e+05  -8.526854e+13  -1.038629e+14  -5.032448e+12   2.469168e+06   3.928950e-16   0.000000e+00   0.000000e+00
     2440000   2.439999e-05   1.667849e-01   1.068182e+01   7.669367e+00   1.766665e+06   1.567550e+06  -7.298220e+05  -8.776881e+13   9.876355e+13  -5.698392e+11   2.472036e+06   3.801833e-16   0.000000e+00   0.000000e+00
     2448000   2.447999e-05   1.064813e-01   1.069221e+01   7.601481e+00   1.231894e+06  -1.971552e+06  -8.487158e+05   1.115358e+14   6.785795e+13   4.058132e+12   2.474853e+06   3.723979e-16   0.000000e+00   0.000000e+00
     2456000   2.455999e-05   1.312154e-01   1.075436e+01   7.534941e+00  -2.173416e+06  -7.135232e+05  -9.516494e+05   4.102865e+13  -1.234413e+14  -1.327521e+12   2.477598e+06   3.701952e-16   0.000000e+00   0.000000e+00
     2464000   2.463999e-05   1.885694e-01   1.071855e+01   7.465359e+00  -8.704919e+04   2.329858e+06  -8.461125e+05  -1.280325e+14  -6.458693e+12  -4.807018e+12   2.480266e+06   3.607795e-16   0.000000e+00   0.000000e+00
     2472000   2.471999e-05   1.393474e-01   1.067701e+01   7.390108e+00   2.262164e+06  -5.462836e+05  -8.653880e+05   3.092914e+13   1.220387e+14   3.628954e+12   2.482883e+06   3.484957e-16   0.000000e+00   0.000000e+00
     2480000   2.479999e-05   1.173149e-01   1.074274e+01   7.316096e+00  -1.240940e+06  -1.892440e+06  -1.027677e+06   1.040799e+14  -6.916563e+13   1.536165e+12   2.485434e+06   3.438350e-16   0.000000e+00   0.000000e+00
     2488000   2.487999e-05   1.906055e-01   1.074475e+01   7.241761e+00  -1.242314e+06   1.923475e+06  -9.729110e+05  -1.025004e+14  -6.903620e+13  -5.760881e+12   2.487902e+06   3.376031e-16   0.000000e+00   0.000000e+00
     2496000   2.495999e-05   1.655116e-01   1.068043e+01   7.160258e+00   2.281982e+06   3.942890e+05  -9.158214e+05  -1.963821e+13   1.193515e+14   2.291475e+12   2.490308e+06   3.234542e-16   0.000000e+00   0.000000e+00
     2504000   2.503999e-05   1.206405e-01   1.073726e+01   7.078870e+00  -6.381213e+05  -2.143748e+06  -1.100209e+06   1.142143e+14  -3.540145e+13   2.605129e+12   2.492652e+06   3.167420e-16   0.000000e+00   0.000000e+00
     2512000   2.511999e-05   1.968421e-01   1.075581e+01   6.998637e+00  -1.492801e+06   1.688179e+06  -1.070592e+06  -8.684655e+13  -8.039529e+13  -5.807455e+12   2.494909e+06   3.114241e-16   0.000000e+00   0.000000e+00
     2520000   2.519999e-05   1.765875e-01   1.068544e+01   6.910431e+00   2.250058e+06   4.342360e+05  -9.920656e+05  -2.090308e+13   1.136737e+14   2.211991e+12   2.497102e+06   2.969533e-16   0.000000e+00   0.000000e+00
     2528000   2.527999e-05   1.322513e-01   1.074839e+01   6.822592e+00  -8.728302e+05  -2.015607e+06  -1.192329e+06   1.041420e+14  -4.649505e+13   2.253837e+12   2.499230e+06   2.896462e-16   0.000000e+00   0.000000e+00
     2536000   2.535999e-05   2.151996e-01   1.075326e+01   6.735906e+00  -9.870515e+05   2.004508e+06  -1.124289e+06  -9.959165e+13  -5.230872e+13  -5.939793e+12   2.501269e+06   2.829271e-16   0.000000e+00   0.000000e+00
     2544000   2.543999e-05   1.702941e-01   1.069142e+01   6.640339e+00   2.203947e+06  -4.609819e+05  -1.093788e+06   2.432071e+13   1.069966e+14   3.801050e+12   2.503250e+06   2.691797e-16   0.000000e+00   0.000000e+00
     2552000   2.551999e-05   1.593355e-01   1.077460e+01   6.547859e+00  -1.777262e+06  -1.197598e+06  -1.297278e+06   6.060771e+13  -8.991809e+13  -1.138351e+11   2.505161e+06   2.629804e-16   0.000000e+00   0.000000e+00
     2560000   2.559999e-05   2.328413e-01   1.072991e+01   6.453265e+00   5.488824e+05   2.170349e+06  -1.128397e+06  -1.032571e+14   2.398388e+13  -4.196374e+12   2.506984e+06   2.520788e-16   0.000000e+00   0.000000e+00
     2568000   2.567999e-05   1.532644e-01   1.072144e+01   6.350817e+00   1.069005e+06  -1.887501e+06  -1.260318e+06   9.140679e+13   4.849748e+13   4.814640e+12   2.508751e+06   2.406727e-16   0.000000e+00   0.000000e+00
     2576000   2.575999e-05   2.179696e-01   1.078744e+01   6.254872e+00  -1.896033e+06   9.605360e+05  -1.335933e+06  -4.328946e+13  -9.271913e+13  -5.304754e+12   2.510436e+06   2.357980e-16   0.000000e+00   0.000000e+00
     2584000   2.583999e-05   2.108307e-01   1.070307e+01   6.148606e+00   2.181582e+06   3.656330e+05  -1.190544e+06  -1.493537e+13   9.794418e+13   2.629610e+12   2.512047e+06   2.209009e-16   0.000000e+00   0.000000e+00
     2592000   2.591999e-05   1.793225e-01   1.078817e+01   6.044496e+00  -1.573031e+06  -1.320710e+06  -1.448951e+06   6.237159e+13  -7.480322e+13   4.044908e+11   2.513595e+06   2.135837e-16   0.000000e+00   0.000000e+00
     2600000   2.599999e-05   2.581238e-01   1.073702e+01   5.939010e+00   9.123785e+05   1.987884e+06  -1.241527e+06  -8.692574e+13   3.784169e+13  -3.362213e+12   2.515056e+06   2.028625e-16   0.000000e+00   0.000000e+00
     2608000   2.607999e-05   1.732913e-01   1.075839e+01   5.825608e+00   1.068918e+05  -2.053085e+06  -1.451211e+06   9.233331e+13   1.855343e+12   4.117281e+12   2.516465e+06   1.928562e-16   0.000000e+00   0.000000e+00
     2616000   2.615999e-05   2.720359e-01   1.078044e+01   5.719713e+00  -6.613295e+05   2.001993e+06  -1.376200e+06  -8.443795e+13  -3.240476e+13  -6.623343e+12   2.517789e+06   1.857805e-16   0.000000e+00   0.000000e+00
     2624000   2.623999e-05   1.959518e-01   1.073729e+01   5.599413e+00   1.351743e+06  -1.571501e+06  -1.431369e+06   6.870063e+13   5.414158e+13   5.383112e+12   2.519056e+06   1.736751e-16   0.000000e+00   0.000000e+00
     2632000   2.631999e-05   2.720848e-01   1.080999e+01   5.490170e+00  -1.497853e+06   1.351417e+06  -1.510548e+06  -5.386425e+13  -6.689200e+13  -6.482702e+12   2.520247e+06   1.679054e-16   0.000000e+00   0.000000e+00
     2640000   2.639999e-05   2.247256e-01   1.073325e+01   5.365190e+00   1.852135e+06  -9.366730e+05  -1.431634e+06   4.046546e+13   7.195009e+13   5.228545e+12   2.521376e+06   1.549996e-16   0.000000e+00   0.000000e+00
     2648000   2.647999e-05   2.771344e-01   1.082746e+01   5.251425e+00  -1.734075e+06   8.825463e+05  -1.605237e+06  -3.247858e+13  -7.420790e+13  -5.754646e+12   2.522437e+06   1.495337e-16   0.000000e+00   0.000000e+00
     2656000   2.655999e-05   2.465906e-01   1.073980e+01   5.122130e+00   1.941095e+06  -6.808392e+05  -1.461620e+06   2.913715e+13   7.195237e+13   5.137765e+12   2.523435e+06   1.373466e-16   0.000000e+00   0.000000e+00
     2664000   2.663999e-05   2.956213e-01   1.083944e+01   5.004635e+00  -1.675890e+06   8.891745e+05  -1.665296e+06  -3.095852e+13  -6.939732e+13  -5.933693e+12   2.524371e+06   1.319327e-16   0.000000e+00   0.000000e+00
     2672000   2.671999e-05   2.582094e-01   1.075371e+01   4.869906e+00   1.791604e+06  -9.119117e+05  -1.528214e+06   3.673963e+13   6.258883e+13   5.689252e+12   2.525246e+06   1.204323e-16   0.000000e+00   0.000000e+00
     2680000   2.679999e-05   3.293608e-01   1.084504e+01   4.750213e+00  -1.313748e+06   1.357196e+06  -1.677219e+06  -4.613994e+13  -5.349234e+13  -7.174841e+12   2.526060e+06   1.146489e-16   0.000000e+00   0.000000e+00
     2688000   2.687999e-05   2.625009e-01   1.078176e+01   4.608872e+00   1.211588e+06  -1.475356e+06  -1.655353e+06   5.522601e+13   3.847398e+13   6.103055e+12   2.526819e+06   1.039240e-16   0.000000e+00   0.000000e+00
     2696000   2.695999e-05   3.700907e-01   1.083420e+01   4.486521e+00  -3.424253e+05   1.914554e+06  -1.614177e+06  -6.272053e+13  -1.738384e+13  -7.340028e+12   2.527516e+06   9.766400e-17   0.000000e+00   0.000000e+00
     2704000   2.703999e-05   2.768803e-01   1.083436e+01   4.340852e+00  -6.879955e+04  -1.733458e+06  -1.839029e+06   6.182408e+13  -7.396957e+12   4.638239e+12   2.528169e+06   8.879786e-17   0.000000e+00   0.000000e+00
     2712000   2.711999e-05   3.906396e-01   1.080429e+01   4.210877e+00   1.233678e+06   1.607464e+06  -1.512855e+06  -4.858583e+13   3.481492e+13  -2.651490e+12   2.528761e+06   8.157540e-17   0.000000e+00   0.000000e+00
     2720000   2.719999e-05   3.379788e-01   1.089785e+01   4.069887e+00  -1.449558e+06  -5.874361e+05  -1.987742e+06   2.327715e+13  -5.266231e+13  -1.428259e+12   2.529312e+06   7.562703e-17   0.000000e+00   0.000000e+00
     2728000   2.727999e-05   3.640874e-01   1.080018e+01   3.921438e+00   1.920813e+06  -2.792188e+05  -1.622479e+06   1.243820e+13   5.298432e+13   5.588553e+12   2.529807e+06   6.826877e-17   0.000000e+00   0.000000e+00
     2736000   2.735999e-05   4.416314e-01   1.090180e+01   3.792380e+00  -7.834053e+05   1.572823e+06  -1.820635e+06  -4.181933e+13  -3.074175e+13  -8.578063e+12   2.530258e+06   6.314136e-17   0.000000e+00   0.000000e+00
     2744000   2.743999e-05   3.562364e-01   1.088900e+01   3.630790e+00  -2.003701e+04  -1.530617e+06  -2.015218e+06   4.854059e+13  -7.440917e+12   5.156864e+12   2.530671e+06   5.564567e-17   0.000000e+00   0.000000e+00
     2752000   2.751999e-05   4.663873e-01   1.084043e+01   3.490317e+00   1.724674e+06   1.009782e+06  -1.553061e+06  -2.302300e+13   4.078266e+13   9.352519e+11   2.531039e+06   5.009190e-17   0.000000e+00   0.000000e+00
     2760000   2.759999e-05   4.843186e-01   1.096389e+01   3.351173e+00  -1.186119e+06   8.875515e+05  -2.052611e+06  -1.736235e+13  -4.074706e+13  -7.595926e+12   2.531371e+06   4.611588e-17   0.000000e+00   0.000000e+00
     2768000   2.767999e-05   4.242084e-01   1.091654e+01   3.178949e+00   5.163190e+05  -1.397983e+06  -2.046557e+06   4.093287e+13   5.008063e+12   6.897315e+12   2.531667e+06   3.992932e-17   0.000000e+00   0.000000e+00
     2776000   2.775999e-05   5.480327e-01   1.088614e+01   3.038322e+00   1.707224e+06   1.041276e+06  -1.552995e+06  -1.987403e+13   3.376428e+13   7.811631e+11   2.531929e+06   3.508235e-17   0.000000e+00   0.000000e+00
     2784000   2.783999e-05   5.846170e-01   1.101242e+01   2.898988e+00  -8.009630e+05   1.210019e+06  -2.075124e+06  -2.084539e+13  -2.951132e+13  -9.168977e+12   2.532158e+06   3.175018e-17   0.000000e+00   0.000000e+00
     2792000   2.791999e-05   5.213698e-01   1.100485e+01   2.717170e+00  -2.898495e+04  -1.130323e+06  -2.265920e+06   3.230840e+13  -1.129713e+13   5.216845e+12   2.532363e+06   2.739386e-17   0.000000e+00   0.000000e+00
     2800000   2.799999e-05   6.138570e-01   1.093761e+01   2.560986e+00   1.953727e+06   4.902909e+04  -1.610692e+06   5.106671e+12   3.172881e+13   7.153345e+12   2.532544e+06   2.477616e-17   0.000000e+00   0.000000e+00
     2808000   2.807999e-05   7.357480e-01   1.102868e+01   2.439048e+00   6.208851e+05   1.806146e+06  -1.663402e+06  -2.865867e+13   1.746544e+12  -8.806197e+12   2.532700e+06   2.061747e-17   0.000000e+00   0.000000e+00
     2816000   2.815999e-05   7.158606e-01   1.113173e+01   2.273613e+00  -6.578027e+05   3.599163e+05  -2.419300e+06   3.857819e+12  -2.773821e+13  -5.178865e+12   2.532836e+06   1.854376e-17   0.000000e+00   0.000000e+00
     2824000   2.823999e-05   7.121123e-01   1.109312e+01   2.080868e+00   8.586752e+05  -9.193168e+05  -2.198500e+06   2.541610e+13   1.180554e+12   9.429841e+12   2.532957e+06   1.683457e-17   0.000000e+00   0.000000e+00
     2832000   2.831999e-05   8.445463e-01   1.105735e+01   1.939641e+00   2.117814e+06   3.438867e+05  -1.346493e+06   1.294621e+12   2.448719e+13   8.285141e+12   2.533069e+06   1.531923e-17   0.000000e+00   0.000000e+00
     2840000   2.839999e-05   9.864697e-01   1.115422e+01   1.841444e+00   1.126806e+06   1.825956e+06  -1.346519e+06  -2.059983e+13   6.209870e+12  -8.821619e+12   2.533164e+06   1.236560e-17   0.000000e+00   0.000000e+00
     2848000   2.847999e-05   1.021267e+00   1.128563e+01   1.696631e+00   2.385815e+03   1.093569e+06  -2.285046e+06  -2.046860e+12  -2.019140e+13  -9.667476e+12   2.533246e+06   1.155675e-17   0.000000e+00   0.000000e+00
     2856000   2.855999e-05   1.043546e+00   1.130995e+01   1.500812e+00   8.445458e+05  -3.445034e+05  -2.363431e+06   1.911466e+13  -1.021292e+13   8.316809e+12   2.533327e+06   1.232346e-17   0.000000e+00   0.000000e+00
     2864000   2.863999e-05   1.170879e+00   1.127639e+01   1.352949e+00   2.218369e+06  -1.614776e+05  -1.212834e+06   1.033095e+13   1.423866e+13   1.699545e+13   2.533418e+06   1.368471e-17   0.000000e+00   0.000000e+00
     2872000   2.871999e-05   1.355425e+00   1.132355e+01   1.299030e+00   2.067351e+06   1.418259e+06  -3.650688e+05  -1.348141e+13   1.968065e+13   9.798423e+10   2.533510e+06   1.301732e-17   0.000000e+00   0.000000e+00
     2880000   2.879999e-05   1.468447e+00   1.147671e+01   1.243381e+00   7.797281e+05   2.034017e+06  -1.293800e+06  -1.178900e+13  -7.549655e+12  -1.897813e+13   2.533598e+06   1.272207e-17   0.000000e+00   0.000000e+00
     2888000   2.887999e-05   1.521321e+00   1.158976e+01   1.089565e+00   9.080095e+05   6.044634e+05  -2.286862e+06   1.445618e+13  -2.117067e+13   1.411894e+11   2.533692e+06   1.503433e-17   0.000000e+00   0.000000e+00
     2896000   2.895999e-05   1.649688e+00   1.159038e+01   9.405067e-01   2.276604e+06  -2.347531e+05  -1.087271e+06   1.265506e+13   4.643131e+12   2.548790e+13   2.533810e+06   1.902016e-17   0.000000e+00   0.000000e+00
     2904000   2.903999e-05   1.842768e+00   1.161938e+01   9.267705e-01   2.152520e+06   1.262481e+06   4.401165e+05  -1.589024e+13   2.598909e+13   3.187104e+12   2.533950e+06   2.146489e-17   0.000000e+00   0.000000e+00
     2912000   2.911999e-05   1.955253e+00   1.177873e+01   9.245893e-01   7.551223e+05   2.220576e+06  -9.594405e+05  -8.779302e+12  -9.701468e+12  -2.937403e+13   2.534106e+06   2.366315e-17   0.000000e+00   0.000000e+00
     2920000   2.919999e-05   2.027472e+00   1.188883e+01   7.817698e-01   1.484193e+06   3.193556e+05  -2.029228e+06   2.172045e+13  -2.475011e+13   1.198534e+13   2.534281e+06   2.810524e-17   0.000000e+00   0.000000e+00
     2928000   2.927999e-05   2.202355e+00   1.188009e+01   7.025842e-01   2.510991e+06   1.464122e+05   3.117103e+05  -5.072448e+12   2.388154e+13   2.969133e+13   2.534497e+06   3.382492e-17   0.000000e+00   0.000000e+00
     2936000   2.935999e-05   2.350556e+00   1.198681e+01   7.572621e-01   9.766070e+05   2.335835e+06   1.227636e+05  -1.961966e+13   1.005550e+13  -3.510897e+13   2.534750e+06   3.935100e-17   0.000000e+00   0.000000e+00
     2944000   2.943999e-05   2.415435e+00   1.213349e+01   6.566907e-01   1.298616e+06   6.612828e+05  -2.074297e+06   2.518024e+13  -3.615634e+13   4.228083e+12   2.535036e+06   4.486733e-17   0.000000e+00   0.000000e+00
     2952000   2.951999e-05   2.585934e+00   1.212458e+01   5.813418e-01   2.445306e+06   7.745642e+04   6.652911e+05  -1.069620e+13   3.055974e+13   3.579146e+13   2.535376e+06   5.335846e-17   0.000000e+00   0.000000e+00
     2960000   2.959999e-05   2.709163e+00   1.224486e+01   6.470911e-01   6.048214e+05   2.444210e+06  -3.002952e+05  -1.192599e+13  -3.214581e+12  -5.027389e+13   2.535774e+06   6.141169e-17   0.000000e+00   0.000000e+00
     2968000   2.967999e-05   2.789648e+00   1.234824e+01   5.202481e-01   1.997476e+06  -2.343666e+05  -1.545180e+06   2.714091e+13  -2.799835e+13   3.931226e+13   2.536221e+06   7.027989e-17   0.000000e+00   0.000000e+00
     2976000   2.975999e-05   2.967095e+00   1.235127e+01   5.451844e-01   1.519882e+06   1.460344e+06   1.411528e+06  -3.380796e+13   4.738668e+13  -1.259718e+13   2.536741e+06   8.134303e-17   0.000000e+00   0.000000e+00
     2984000   2.983999e-05   3.026434e+00   1.251568e+01   5.206350e-01   9.541144e+05   1.120931e+06  -2.066694e+06   3.104349e+13  -5.252070e+13  -1.417350e+13   2.537331e+06   9.000380e-17   0.000000e+00   0.000000e+00
     2992000   2.991999e-05   3.186658e+00   1.250391e+01   4.557891e-01   2.189404e+06   1.365760e+05   1.276429e+06  -2.519322e+13   4.919316e+13   3.798451e+13   2.537994e+06   1.032377e-16   0.000000e+00   0.000000e+00
     3000000   2.999999e-05   3.265216e+00   1.264688e+01   5.030701e-01   4.479215e+05   1.978187e+06  -1.526888e+06   1.869396e+13  -4.420441e+13  -5.181847e+13   2.538749e+06   1.145810e-16   0.000000e+00   0.000000e+00
     3008000   3.007999e-05   3.398584e+00   1.265706e+01   4.037432e-01   2.347622e+06  -4.310281e+05   8.673933e+05  -1.575300e+13   3.897853e+13   6.207003e+13   2.539584e+06   1.291704e-16   0.000000e+00   0.000000e+00
     3016000   3.015999e-05   3.485023e+00   1.277773e+01   4.704897e-01   2.939743e+05   2.170449e+06  -1.287241e+06   1.531130e+13  -4.094907e+13  -6.559677e+13   2.540523e+06   1.429299e-16   0.000000e+00   0.000000e+00
     3024000   3.023999e-05   3.610835e+00   1.279006e+01   3.736139e-01   2.270990e+06  -4.698307e+05   1.039885e+06  -2.068270e+13   4.608138e+13   6.605521e+13   2.541554e+06   1.591666e-16   0.000000e+00   0.000000e+00
     3032000   3.031999e-05   3.683696e+00   1.291466e+01   4.302135e-01   3.596459e+05   1.841902e+06  -1.715632e+06   2.906965e+13  -5.888741e+13  -5.717185e+13   2.542703e+06   1.746753e-16   0.000000e+00   0.000000e+00
     3040000   3.039999e-05   3.819659e+00   1.290589e+01   3.647080e-01   1.852526e+06   1.330069e+05   1.738439e+06  -4.124873e+13   7.215294e+13   3.848360e+13   2.543956e+06   1.934603e-16   0.000000e+00   0.000000e+00
     3048000   3.047999e-05   3.868442e+00   1.304418e+01   3.736598e-01   9.543550e+05   6.703594e+05  -2.262423e+06   5.064513e+13  -8.065984e+13  -2.576187e+12   2.545335e+06   2.095800e-16   0.000000e+00   0.000000e+00
     3056000   3.055999e-05   4.010027e+00   1.302790e+01   3.819845e-01   7.766340e+05   1.648704e+06   1.779036e+06  -5.182966e+13   7.296578e+13  -4.493781e+13   2.546833e+06   2.318355e-16   0.000000e+00   0.000000e+00
     3064000   3.063999e-05   4.060237e+00   1.313508e+01   3.099026e-01   2.038746e+06  -9.867420e+05  -1.168112e+06   3.334524e+13  -3.821089e+13   9.038459e+13   2.548457e+06   2.486018e-16   0.000000e+00   0.000000e+00
     3072000   3.071999e-05   4.160360e+00   1.318198e+01   3.851441e-01  -1.365642e+05   2.484640e+06  -5.581507e+05   2.231846e+12  -2.348111e+13  -1.052822e+14   2.550220e+06   2.697907e-16   0.000000e+00   0.000000e+00
     3080000   3.079999e-05   4.262715e+00   1.319111e+01   3.065329e-01   1.814923e+06  -3.325428e+05   1.763155e+06  -4.527952e+13   8.135997e+13   6.202502e+13   2.552106e+06   2.905230e-16   0.000000e+00   0.000000e+00
     3088000   3.087999e-05   4.300708e+00   1.330975e+01   3.100667e-01   1.175600e+06  -5.112319e+04  -2.266931e+06   6.090024e+13  -9.226951e+13   3.360399e+13   2.554138e+06   3.103971e-16   0.000000e+00   0.000000e+00
     3096000   3.095999e-05   4.410883e+00   1.331222e+01   3.575557e-01  -1.818160e+05   2.480855e+06   5.890957e+05  -2.779742e+13   2.508656e+13  -1.139818e+14   2.556313e+06   3.351968e-16   0.000000e+00   0.000000e+00
     3104000   3.103999e-05   4.487715e+00   1.334050e+01   2.760938e-01   1.899802e+06  -8.260383e+05   1.501649e+06  -3.897663e+13   7.456730e+13   9.043120e+13   2.558620e+06   3.559424e-16   0.000000e+00   0.000000e+00
     3112000   3.111999e-05   4.521072e+00   1.344527e+01   2.879149e-01   1.098443e+06  -1.861573e+05  -2.306054e+06   6.612926e+13  -1.008195e+14   3.956822e+13   2.561077e+06   3.764022e-16   0.000000e+00   0.000000e+00
     3120000   3.119999e-05   4.613951e+00   1.345231e+01   3.385199e-01  -4.405019e+05   2.525545e+06   4.205740e+03  -1.157727e+13  -1.734460e+12  -1.303285e+14   2.563677e+06   4.010419e-16   0.000000e+00   0.000000e+00
     3128000   3.127999e-05   4.694160e+00   1.345572e+01   2.763257e-01   1.301027e+06  -7.688597e+04   2.210849e+06  -6.493417e+13   1.096791e+14   4.210785e+13   2.566405e+06   4.229354e-16   0.000000e+00   0.000000e+00
     3136000   3.135999e-05   4.719665e+00   1.354468e+01   2.476328e-01   1.758409e+06  -1.376210e+06  -1.270924e+06   4.280023e+13  -5.477265e+13   1.183789e+14   2.569281e+06   4.433260e-16   0.000000e+00   0.000000e+00
     3144000   3.143999e-05   4.773299e+00   1.359185e+01   3.058068e-01  -2.277326e+05   1.628000e+06  -1.978498e+06   5.270479e+13  -9.743854e+13  -8.634315e+13   2.572295e+06   4.651596e-16   0.000000e+00   0.000000e+00
     3152000   3.151999e-05   4.858761e+00   1.357179e+01   3.063704e-01  -2.244299e+05   2.001436e+06   1.605232e+06  -5.778886e+13   7.867565e+13  -1.060445e+14   2.575439e+06   4.910605e-16   0.000000e+00   0.000000e+00
     3160000   3.159999e-05   4.905568e+00   1.359824e+01   2.423442e-01   1.587523e+06  -1.029286e+06   1.752160e+06  -5.074002e+13   9.341721e+13   1.009719e+14   2.578706e+06   5.094108e-16   0.000000e+00   0.000000e+00
     3168000   3.167999e-05   4.920632e+00   1.367557e+01   2.361115e-01   1.449949e+06  -1.317993e+06  -1.681608e+06   5.714791e+13  -8.020485e+13   1.120050e+14   2.582104e+06   5.285080e-16   0.000000e+00   0.000000e+00
     3176000   3.175999e-05   4.962403e+00   1.370861e+01   2.884826e-01  -3.799081e+05   1.487686e+06  -2.080364e+06   5.948748e+13  -1.081496e+14  -8.831278e+13   2.585625e+06   5.487836e-16   0.000000e+00   0.000000e+00
     3184000   3.183999e-05   5.029329e+00   1.368729e+01   2.979402e-01  -6.566557e+05   2.231691e+06   1.136916e+06  -4.573427e+13   5.625818e+13  -1.366356e+14   2.589251e+06   5.716274e-16   0.000000e+00   0.000000e+00
     3192000   3.191999e-05   5.072044e+00   1.368962e+01   2.463194e-01   9.298179e+05  -3.113581e+05   2.400425e+06  -7.637967e+13   1.287904e+14   4.639380e+13   2.592980e+06   5.887827e-16   0.000000e+00   0.000000e+00
     3200000   3.199999e-05   5.079249e+00   1.374402e+01   2.149650e-01   1.692778e+06  -1.957308e+06  -2.165177e+05   1.352762e+13  -5.885100e+12   1.578024e+14   2.596812e+06   6.036470e-16   0.000000e+00   0.000000e+00
     3208000   3.207999e-05   5.088635e+00   1.379367e+01   2.463837e-01   4.414244e+05  -2.909652e+05  -2.546431e+06   8.373349e+13  -1.333292e+14   2.964915e+13   2.600735e+06   6.186789e-16   0.000000e+00   0.000000e+00
     3216000   3.215999e-05   5.125904e+00   1.379102e+01   2.888162e-01  -9.922184e+05   2.085451e+06  -1.204589e+06   3.083203e+13  -6.818838e+13  -1.436657e+14   2.604734e+06   6.344398e-16   0.000000e+00   0.000000e+00
     3224000   3.223999e-05   5.170541e+00   1.376207e+01   2.799003e-01  -6.447523e+05   1.766522e+06   1.808178e+06  -6.678040e+13   9.442023e+13  -1.159090e+14   2.608795e+06   6.502339e-16   0.000000e+00   0.000000e+00
     3232000   3.231999e-05   5.188667e+00   1.376353e+01   2.316899e-01   8.828784e+05  -7.801256e+05   2.332222e+06  -7.453316e+13   1.284806e+14   7.130803e+13   2.612916e+06   6.605019e-16   0.000000e+00   0.000000e+00
     3240000   3.239999e-05   5.178619e+00   1.380532e+01   2.075235e-01   1.481381e+06  -2.142657e+06  -2.523815e+05   1.535682e+13  -8.896342e+12   1.645806e+14   2.617090e+06   6.688254e-16   0.000000e+00   0.000000e+00
     3248000   3.247999e-05   5.170105e+00   1.384196e+01   2.364657e-01   3.377339e+05  -6.319697e+05  -2.521470e+06   8.559567e+13  -1.350976e+14   4.521566e+13   2.621309e+06   6.763898e-16   0.000000e+00   0.000000e+00
     3256000   3.255999e-05   5.184939e+00   1.383387e+01   2.798189e-01  -1.130183e+06   1.748047e+06  -1.600175e+06   4.604928e+13  -9.112851e+13  -1.322482e+14   2.625556e+06   6.857608e-16   0.000000e+00   0.000000e+00
     3264000   3.263999e-05   5.210541e+00   1.379527e+01   2.823499e-01  -1.122889e+06   1.965442e+06   1.338688e+06  -5.256697e+13   6.821696e+13  -1.440378e+14   2.629815e+06   6.941285e-16   0.000000e+00   0.000000e+00
     3272000   3.271999e-05   5.216386e+00   1.377546e+01   2.404557e-01   2.863739e+05  -3.065590e+05   2.600456e+06  -8.568198e+13   1.419293e+14   2.627560e+13   2.634077e+06   6.966757e-16   0.000000e+00   0.000000e+00
     3280000   3.279999e-05   5.191901e+00   1.379765e+01   2.066660e-01   1.271205e+06  -2.239089e+06   5.756118e+05  -1.176831e+13   3.510249e+13   1.630213e+14   2.638335e+06   6.932471e-16   0.000000e+00   0.000000e+00
     3288000   3.287999e-05   5.159869e+00   1.382915e+01   2.246747e-01   5.060478e+05  -1.395271e+06  -2.186402e+06   7.689136e+13  -1.160939e+14   9.175581e+13   2.642578e+06   6.920608e-16   0.000000e+00   0.000000e+00
     3296000   3.295999e-05   5.149049e+00   1.382101e+01   2.732418e-01  -1.126069e+06   1.150486e+06  -2.100912e+06   6.456764e+13  -1.172503e+14  -9.894728e+13   2.646787e+06   6.917229e-16   0.000000e+00   0.000000e+00
     3304000   3.303999e-05   5.156453e+00   1.377108e+01   2.893177e-01  -1.517391e+06   2.013714e+06   8.185561e+05  -3.522542e+13   3.768709e+13  -1.576758e+14   2.650953e+06   6.892846e-16   0.000000e+00   0.000000e+00
     3312000   3.311999e-05   5.148320e+00   1.373154e+01   2.505496e-01  -1.521217e+05  -1.134585e+05   2.648274e+06  -8.658928e+13   1.404406e+14   1.145767e+12   2.655065e+06   6.838811e-16   0.000000e+00   0.000000e+00
     3320000   3.319999e-05   5.104952e+00   1.374076e+01   2.117464e-01   1.020432e+06  -2.345632e+06   7.263897e+05  -1.591054e+13   4.165253e+13   1.572217e+14   2.659119e+06   6.729716e-16   0.000000e+00   0.000000e+00
     3328000   3.327999e-05   5.051460e+00   1.376432e+01   2.331340e-01   1.812139e+05  -1.420624e+06  -2.245245e+06   7.724300e+13  -1.171688e+14   8.025358e+13   2.663107e+06   6.605607e-16   0.000000e+00   0.000000e+00
     3336000   3.335999e-05   5.025520e+00   1.373845e+01   2.881672e-01  -1.553483e+06   1.330323e+06  -1.711686e+06   4.930568e+13  -9.537858e+13  -1.190270e+14   2.667009e+06   6.513441e-16   0.000000e+00   0.000000e+00
     3344000   3.343999e-05   5.017755e+00   1.366850e+01   2.924060e-01  -1.467822e+06   1.488531e+06   1.662231e+06  -5.919978e+13   7.985032e+13  -1.236307e+14   2.670813e+06   6.397215e-16   0.000000e+00   0.000000e+00
     3352000   3.351999e-05   4.979138e+00   1.363283e+01   2.389273e-01   3.004974e+05  -1.429368e+06   2.240451e+06  -6.579675e+13   1.154328e+14   8.257823e+13   2.674511e+06   6.238504e-16   0.000000e+00   0.000000e+00
     3360000   3.359999e-05   4.903548e+00   1.365302e+01   2.263464e-01   5.561941e+05  -2.345931e+06  -1.165978e+06   4.424894e+13  -5.693351e+13   1.354550e+14   2.678105e+06   6.018690e-16   0.000000e+00   0.000000e+00
     3368000   3.367999e-05   4.848222e+00   1.364080e+01   2.881837e-01  -1.376315e+06   5.241197e+05  -2.240967e+06   6.660082e+13  -1.170061e+14  -6.837090e+13   2.681582e+06   5.842988e-16   0.000000e+00   0.000000e+00
     3376000   3.375999e-05   4.829111e+00   1.355707e+01   3.104180e-01  -1.776735e+06   1.517500e+06   1.322593e+06  -4.685950e+13   5.759447e+13  -1.288646e+14   2.684929e+06   5.682457e-16   0.000000e+00   0.000000e+00
     3384000   3.383999e-05   4.776712e+00   1.350778e+01   2.499584e-01   1.851156e+05  -1.662447e+06   2.104305e+06  -5.737382e+13   1.025459e+14   8.616152e+13   2.688140e+06   5.467418e-16   0.000000e+00   0.000000e+00
     3392000   3.391999e-05   4.680149e+00   1.352837e+01   2.499553e-01   4.013733e+04  -2.027677e+06  -1.769066e+06   5.954607e+13  -8.407001e+13   9.759692e+13   2.691223e+06   5.197978e-16   0.000000e+00   0.000000e+00
     3400000   3.399999e-05   4.626084e+00   1.348237e+01   3.256478e-01  -2.059121e+06   1.301522e+06  -1.150902e+06   2.769890e+13  -6.286781e+13  -1.208204e+14   2.694163e+06   4.996859e-16   0.000000e+00   0.000000e+00
     3408000   3.407999e-05   4.592322e+00   1.338177e+01   2.999170e-01  -9.470016e+05  -6.781786e+04   2.524313e+06  -7.237393e+13   1.122444e+14  -2.406274e+13   2.696955e+06   4.773578e-16   0.000000e+00   0.000000e+00
     3416000   3.415999e-05   4.488247e+00   1.338221e+01   2.527026e-01   3.273439e+05  -2.635121e+06  -4.866501e+05   2.323181e+13  -2.078395e+13   1.278124e+14   2.699601e+06   4.495135e-16   0.000000e+00   0.000000e+00
     3424000   3.423999e-05   4.404942e+00   1.335931e+01   3.351636e-01  -1.943894e+06   6.840626e+05  -1.747774e+06   4.500111e+13  -8.565152e+13  -8.366759e+13   2.702106e+06   4.257327e-16   0.000000e+00   0.000000e+00
     3432000   3.431999e-05   4.368163e+00   1.324027e+01   3.241534e-01  -1.187585e+06   1.437826e+04   2.429710e+06  -6.616027e+13   9.994444e+13  -3.286544e+13   2.704450e+06   4.026124e-16   0.000000e+00   0.000000e+00
     3440000   3.439999e-05   4.247405e+00   1.324035e+01   2.752442e-01   5.546939e+04  -2.571947e+06  -8.413901e+05   3.188267e+13  -3.522213e+13   1.095987e+14   2.706645e+06   3.725299e-16   0.000000e+00   0.000000e+00
     3448000   3.447999e-05   4.167426e+00   1.319035e+01   3.724378e-01  -2.336030e+06   1.105292e+06  -8.113813e+05   1.566717e+13  -4.437944e+13  -1.057273e+14   2.708698e+06   3.501995e-16   0.000000e+00   0.000000e+00
     3456000   3.455999e-05   4.106617e+00   1.307662e+01   3.151030e-01  -4.230401e+05  -1.514894e+06   2.207590e+06  -4.971019e+13   8.660261e+13   4.995905e+13   2.710594e+06   3.264367e-16   0.000000e+00   0.000000e+00
     3464000   3.463999e-05   3.964162e+00   1.309713e+01   3.399689e-01  -1.194459e+06  -1.151970e+06  -2.145484e+06   5.740918e+13  -8.831706e+13   1.540552e+13   2.712355e+06   2.971317e-16   0.000000e+00   0.000000e+00
     3472000   3.471999e-05   3.919036e+00   1.296145e+01   3.885403e-01  -1.809350e+06   4.746161e+05   1.966375e+06  -4.963519e+13   6.567708e+13  -6.147011e+13   2.713970e+06   2.770809e-16   0.000000e+00   0.000000e+00
     3480000   3.479999e-05   3.776599e+00   1.294926e+01   3.256748e-01  -3.286445e+05  -2.509529e+06  -9.838258e+05   3.325651e+13  -3.724004e+13   8.378545e+13   2.715448e+06   2.499767e-16   0.000000e+00   0.000000e+00
     3488000   3.487999e-05   3.702589e+00   1.285605e+01   4.337408e-01  -2.423704e+06   1.002855e+06   7.077785e+05  -2.124391e+13   1.246870e+13  -9.029047e+13   2.716801e+06   2.304022e-16   0.000000e+00   0.000000e+00
     3496000   3.495999e-05   3.577203e+00   1.279422e+01   3.442755e-01  -1.948142e+05  -2.710942e+06   2.161701e+04   1.115225e+13  -1.290581e+11   8.795641e+13   2.718018e+06   2.069540e-16   0.000000e+00   0.000000e+00
     3504000   3.503999e-05   3.480076e+00   1.272711e+01   4.668532e-01  -2.555999e+06   9.001274e+05   2.242572e+05  -9.658753e+12  -6.526755e+12  -8.357212e+13   2.719127e+06   1.876119e-16   0.000000e+00   0.000000e+00
     3512000   3.511999e-05   3.353527e+00   1.264852e+01   3.749914e-01  -3.048847e+05  -2.701687e+06   8.328434e+04   1.064168e+13   1.207202e+12   7.887835e+13   2.720111e+06   1.670819e-16   0.000000e+00   0.000000e+00
     3520000   3.519999e-05   3.258765e+00   1.256808e+01   5.034362e-01  -2.509742e+06   7.683900e+05   7.173634e+05  -1.851506e+13   7.408315e+12  -7.263230e+13   2.720999e+06   1.496894e-16   0.000000e+00   0.000000e+00
     3528000   3.527999e-05   3.104679e+00   1.251540e+01   4.197253e-01  -6.643385e+05  -2.538566e+06  -7.227836e+05   2.597567e+13  -2.411826e+13   6.076463e+13   2.721779e+06   1.306507e-16   0.000000e+00   0.000000e+00
     3536000   3.535999e-05   3.035818e+00   1.238007e+01   5.279054e-01  -1.977173e+06   1.388038e+05   1.866383e+06  -3.479265e+13   4.035118e+13  -3.983519e+13   2.722474e+06   1.168991e-16   0.000000e+00   0.000000e+00
     3544000   3.543999e-05   2.846262e+00   1.238214e+01   5.098537e-01  -1.708711e+06  -1.446433e+06  -1.550257e+06   3.465917e+13  -5.027181e+13   8.678737e+12   2.723079e+06   1.005207e-16   0.000000e+00   0.000000e+00
     3552000   3.551999e-05   2.780025e+00   1.220027e+01   5.160232e-01  -8.174732e+05  -1.677340e+06   1.984009e+06  -2.341249e+13   4.518292e+13   2.856948e+13   2.723605e+06   9.003815e-17   0.000000e+00   0.000000e+00
     3560000   3.559999e-05   2.625194e+00   1.218505e+01   6.366287e-01  -2.705073e+06   3.006448e+05  -1.127264e+05  -2.691231e+11  -2.082407e+13  -4.933472e+13   2.724062e+06   7.583489e-17   0.000000e+00   0.000000e+00
     3568000   3.567999e-05   2.464870e+00   1.209440e+01   5.595025e-01  -9.858132e+05  -2.489714e+06  -5.021227e+05   2.222492e+13  -1.699492e+13   4.058483e+13   2.724450e+06   6.427721e-17   0.000000e+00   0.000000e+00
     3576000   3.575999e-05   2.401480e+00   1.192657e+01   6.517629e-01  -1.283072e+06  -9.052643e+05   2.226814e+06  -2.544869e+13   3.850521e+13   9.997312e+11   2.724789e+06   5.639291e-17   0.000000e+00   0.000000e+00
     3584000   3.583999e-05   2.225415e+00   1.192460e+01   7.561224e-01  -2.721994e+06  -4.025795e+04  -1.230394e+05   1.913534e+12  -2.312410e+13  -3.490968e+13   2.725071e+06   4.650049e-17   0.000000e+00   0.000000e+00
     3592000   3.591999e-05   2.054277e+00   1.182400e+01   6.992244e-01  -1.283375e+06  -2.367339e+06  -4.194703e+05   2.169171e+13  -1.656749e+13   2.709958e+13   2.725307e+06   3.915865e-17   0.000000e+00   0.000000e+00
     3600000   3.599999e-05   1.989708e+00   1.163950e+01   7.698466e-01  -8.025636e+05  -1.603193e+06   2.052825e+06  -1.190519e+13   2.913191e+13   1.810314e+13   2.725514e+06   3.489539e-17   0.000000e+00   0.000000e+00
     3608000   3.607999e-05   1.867042e+00   1.159552e+01   9.340788e-01  -2.328526e+06   1.185548e+05   1.411833e+06  -1.652997e+13   2.080209e+12  -2.743015e+13   2.725685e+06   2.727066e-17   0.000000e+00   0.000000e+00
     3616000   3.615999e-05   1.660461e+00   1.156596e+01   9.661268e-01  -2.405659e+06  -1.246938e+06  -2.967813e+05   1.422108e+13  -2.610938e+13  -5.605001e+12   2.725827e+06   2.423795e-17   0.000000e+00   0.000000e+00
     3624000   3.623999e-05   1.526394e+00   1.140220e+01   9.646792e-01  -9.241912e+05  -2.476502e+06   6.660603e+05   1.610755e+13   4.444413e+11   2.401506e+13   2.725954e+06   2.214854e-17   0.000000e+00   0.000000e+00
     3632000   3.631999e-05   1.480983e+00   1.123897e+01   1.092204e+00  -5.378851e+05  -1.279678e+06   2.346184e+06  -7.751139e+12   2.398004e+13   1.130565e+13   2.726073e+06   2.020596e-17   0.000000e+00   0.000000e+00
     3640000   3.639999e-05   1.393613e+00   1.120312e+01   1.283280e+00  -1.788379e+06   1.040464e+05   2.054966e+06  -1.789616e+13   3.811092e+12  -1.576465e+13   2.726172e+06   1.545012e-17   0.000000e+00   0.000000e+00
     3648000   3.647999e-05   1.211094e+00   1.118857e+01   1.394242e+00  -2.469311e+06  -8.196160e+05   8.143649e+05   4.141165e+12  -2.161747e+13  -9.193062e+12   2.726253e+06   1.507035e-17   0.000000e+00   0.000000e+00
     3656000   3.655999e-05   1.051803e+00   1.105951e+01   1.453975e+00  -1.277340e+06  -2.207424e+06   9.636528e+05   2.140111e+13  -7.322425e+12   1.160094e+13   2.726343e+06   1.711721e-17   0.000000e+00   0.000000e+00
     3664000   3.663999e-05   1.012650e+00   1.089042e+01   1.577628e+00   1.280693e+05  -1.648446e+06   2.167879e+06   8.866426e+12   1.982373e+13   1.455324e+13   2.726441e+06   1.810351e-17   0.000000e+00   0.000000e+00
     3672000   3.671999e-05   1.020779e+00   1.083236e+01   1.782311e+00  -3.067301e+05   1.808633e+05   2.703191e+06  -1.882097e+13   1.828124e+13  -3.356170e+12   2.726543e+06   1.853708e-17   0.000000e+00   0.000000e+00
     3680000   3.679999e-05   9.271215e-01   1.086962e+01   1.970193e+00  -1.974757e+06   2.513632e+05   1.863258e+06  -1.424963e+13  -1.755287e+13  -1.273076e+13   2.726642e+06   1.783680e-17   0.000000e+00   0.000000e+00
     3688000   3.687999e-05   7.613314e-01   1.081529e+01   2.091869e+00  -1.675843e+06  -1.636125e+06   1.396359e+06   2.134689e+13  -1.945859e+13   2.825746e+12   2.726752e+06   2.231809e-17   0.000000e+00   0.000000e+00
     3696000   3.695999e-05   7.105886e-01   1.066089e+01   2.227140e+00   4.009061e+05  -1.683758e+06   2.107162e+06   2.070079e+13   1.959877e+13   1.172669e+13   2.726884e+06   2.517817e-17   0.000000e+00   0.000000e+00
     3704000   3.703999e-05   7.662374e-01   1.061265e+01   2.424537e+00   3.888207e+05   5.496592e+05   2.642614e+06  -2.255077e+13   2.420541e+13  -1.712528e+12   2.727034e+06   2.908260e-17   0.000000e+00   0.000000e+00
     3712000   3.711999e-05   7.053560e-01   1.068311e+01   2.612787e+00  -1.858316e+06   4.912662e+05   1.934668e+06  -1.831204e+13  -2.688963e+13  -1.075525e+13   2.727200e+06   3.111871e-17   0.000000e+00   0.000000e+00
     3720000   3.719999e-05   5.587309e-01   1.062134e+01   2.748202e+00  -1.065873e+06  -1.867322e+06   1.677997e+06   3.413038e+13  -1.474848e+13   5.275693e+12   2.727390e+06   3.738379e-17   0.000000e+00   0.000000e+00
     3728000   3.727999e-05   5.801940e-01   1.049139e+01   2.908631e+00   1.207982e+06  -6.297823e+05   2.363047e+06   5.712222e+12   3.843668e+13   7.330416e+12   2.727606e+06   4.145952e-17   0.000000e+00   0.000000e+00
     3736000   3.735999e-05   6.238929e-01   1.054568e+01   3.102644e+00  -7.823432e+05   1.348630e+06   2.238376e+06  -4.051007e+13  -7.059051e+12  -9.897732e+12   2.727854e+06   4.743726e-17   0.000000e+00   0.000000e+00
     3744000   3.743999e-05   4.853637e-01   1.056285e+01   3.252864e+00  -1.697057e+06  -1.331550e+06   1.670232e+06   2.807553e+13  -3.524416e+13   4.410831e+11   2.728131e+06   5.385766e-17   0.000000e+00   0.000000e+00
     3752000   3.751999e-05   4.754022e-01   1.042604e+01   3.402865e+00   1.315344e+06  -9.698129e+05   2.184888e+06   1.837216e+13   4.259918e+13   7.858376e+12   2.728443e+06   5.873556e-17   0.000000e+00   0.000000e+00
     3760000   3.759999e-05   5.407550e-01   1.047785e+01   3.586350e+00  -6.694393e+05   1.540754e+06   2.150407e+06  -4.900724e+13  -8.341960e+12  -9.267500e+12   2.728795e+06   6.785849e-17   0.000000e+00   0.000000e+00
     3768000   3.767999e-05   4.046828e-01   1.048915e+01   3.732348e+00  -1.403018e+06  -1.636582e+06   1.673804e+06   4.167327e+13  -3.349023e+13   2.203038e+12   2.729190e+06   7.599846e-17   0.000000e+00   0.000000e+00
     3776000   3.775999e-05   4.399728e-01   1.036833e+01   3.885263e+00   1.628448e+06  -7.796350e+04   2.189275e+06  -3.804347e+12   5.535239e+13   4.815139e+12   2.729623e+06   8.235304e-17   0.000000e+00   0.000000e+00
     3784000   3.783999e-05   4.544568e-01   1.046513e+01   4.054798e+00  -1.758440e+06   9.948112e+05   1.836230e+06  -3.556295e+13  -4.627402e+13  -8.967563e+12   2.730110e+06   9.260633e-17   0.000000e+00   0.000000e+00
     3792000   3.791999e-05   3.408016e-01   1.038642e+01   4.190404e+00   3.386568e+05  -2.034123e+06   1.789997e+06   5.903578e+13   1.601553e+13   7.051749e+12   2.730647e+06   1.007486e-16   0.000000e+00   0.000000e+00
     3800000   3.799999e-05   4.425802e-01   1.037054e+01   4.352367e+00   3.974998e+05   1.728147e+06   2.077285e+06  -6.142443e+13   2.067254e+13  -5.423763e+12   2.731229e+06   1.124418e-16   0.000000e+00   0.000000e+00
     3808000   3.807999e-05   3.284699e-01   1.042062e+01   4.495080e+00  -1.589246e+06  -1.542333e+06   1.599577e+06   4.783417e+13  -4.812259e+13   1.153581e+12   2.731875e+06   1.224822e-16   0.000000e+00   0.000000e+00
     3816000   3.815999e-05   3.780019e-01   1.031145e+01   4.639256e+00   1.743600e+06   5.605618e+05   2.027940e+06  -2.390853e+13   6.593080e+13   2.356023e+12   2.732565e+06   1.310266e-16   0.000000e+00   0.000000e+00
     3824000   3.823999e-05   3.443196e-01   1.041507e+01   4.788344e+00  -2.219713e+06  -1.413300e+05   1.588703e+06   1.428282e+12  -7.352818e+13  -4.511276e+12   2.733327e+06   1.445393e-16   0.000000e+00   0.000000e+00
     3832000   3.831999e-05   3.193143e-01   1.029209e+01   4.920563e+00   1.886216e+06  -6.537160e+05   1.868259e+06   1.953539e+13   7.282558e+13   5.789599e+12   2.734144e+06   1.523494e-16   0.000000e+00   0.000000e+00
     3840000   3.839999e-05   3.486893e-01   1.038987e+01   5.068453e+00  -2.042830e+06   8.409182e+05   1.612480e+06  -3.495492e+13  -7.105777e+13  -7.187653e+12   2.735030e+06   1.685499e-16   0.000000e+00   0.000000e+00
     3848000   3.847999e-05   2.829403e-01   1.028413e+01   5.194379e+00   1.676392e+06  -1.281048e+06   1.741900e+06   4.482758e+13   6.747702e+13   6.520897e+12   2.735981e+06   1.762027e-16   0.000000e+00   0.000000e+00
     3856000   3.855999e-05   3.381797e-01   1.036775e+01   5.337339e+00  -1.866540e+06   1.217717e+06   1.588823e+06  -5.105706e+13  -6.794915e+13  -7.857615e+12   2.737000e+06   1.944999e-16   0.000000e+00   0.000000e+00
     3864000   3.863999e-05   2.640271e-01   1.027165e+01   5.458766e+00   1.680428e+06  -1.376624e+06   1.666800e+06   5.110911e+13   7.019794e+13   6.495573e+12   2.738093e+06   2.025757e-16   0.000000e+00   0.000000e+00
     3872000   3.871999e-05   3.168098e-01   1.035591e+01   5.595568e+00  -2.010455e+06   1.083121e+06   1.512763e+06  -4.731654e+13  -7.757327e+13  -7.286932e+12   2.739258e+06   2.222009e-16   0.000000e+00   0.000000e+00
     3880000   3.879999e-05   2.599160e-01   1.025324e+01   5.713375e+00   1.980236e+06  -9.537636e+05   1.636864e+06   3.621839e+13   8.515440e+13   5.853994e+12   2.740497e+06   2.301034e-16   0.000000e+00   0.000000e+00
     3888000   3.887999e-05   2.842065e-01   1.034977e+01   5.843268e+00  -2.323968e+06   3.602759e+05   1.409576e+06  -1.794840e+13  -9.485603e+13  -5.280786e+12   2.741812e+06   2.504275e-16   0.000000e+00   0.000000e+00
     3896000   3.895999e-05   2.722581e-01   1.023852e+01   5.959181e+00   2.203902e+06   1.163629e+05   1.629234e+06  -7.867499e+12   9.791380e+13   3.708670e+12   2.743196e+06   2.591284e-16   0.000000e+00   0.000000e+00
     3904000   3.903999e-05   2.401206e-01   1.033472e+01   6.080272e+00  -2.193520e+06  -1.007658e+06   1.306259e+06   4.191690e+13  -9.314562e+13  -1.384896e+12   2.744671e+06   2.801422e-16   0.000000e+00   0.000000e+00
     3912000   3.911999e-05   2.938734e-01   1.024499e+01   6.195874e+00   1.535904e+06   1.625163e+06   1.594209e+06  -7.514405e+13   7.240579e+13  -1.347541e+12   2.746208e+06   2.927089e-16   0.000000e+00   0.000000e+00
     3920000   3.919999e-05   2.005003e-01   1.029196e+01   6.306594e+00  -7.568086e+05  -2.311710e+06   1.278248e+06   1.024176e+14  -3.157687e+13   3.621359e+12   2.747850e+06   3.094381e-16   0.000000e+00   0.000000e+00
     3928000   3.927999e-05   2.958081e-01   1.028244e+01   6.422037e+00  -5.643648e+05   2.280722e+06   1.428232e+06  -1.078701e+14  -2.205921e+13  -7.313519e+12   2.749554e+06   3.280448e-16   0.000000e+00   0.000000e+00
     3936000   3.935999e-05   2.040383e-01   1.023141e+01   6.523836e+00   1.640481e+06  -1.748716e+06   1.349368e+06   7.902645e+13   7.871775e+13   6.031218e+12   2.751360e+06   3.366247e-16   0.000000e+00   0.000000e+00
     3944000   3.943999e-05   2.441090e-01   1.031395e+01   6.634431e+00  -2.455266e+06   3.433200e+05   1.197549e+06  -1.842012e+13  -1.140211e+14  -4.965920e+12   2.753239e+06   3.610376e-16   0.000000e+00   0.000000e+00
     3952000   3.951999e-05   2.568003e-01   1.021542e+01   6.734604e+00   2.071469e+06   1.148435e+06   1.407557e+06  -5.720761e+13   1.022073e+14   8.969689e+11   2.755195e+06   3.711546e-16   0.000000e+00   0.000000e+00
     3960000   3.959999e-05   1.799256e-01   1.027223e+01   6.833760e+00  -8.214547e+05  -2.376172e+06   1.132021e+06   1.138587e+14  -3.787132e+13   3.255315e+12   2.757254e+06   3.903760e-16   0.000000e+00   0.000000e+00
     3968000   3.967999e-05   2.693747e-01   1.027461e+01   6.935745e+00  -1.138541e+06   2.193249e+06   1.227814e+06  -1.106358e+14  -5.321401e+13  -7.411927e+12   2.759374e+06   4.104642e-16   0.000000e+00   0.000000e+00
     3976000   3.975999e-05   2.065361e-01   1.020152e+01   7.026062e+00   2.347358e+06  -7.453780e+05   1.249282e+06   3.511530e+13   1.187685e+14   5.005197e+12   2.761591e+06   4.175701e-16   0.000000e+00   0.000000e+00
     3984000   3.983999e-05   1.893564e-01   1.028756e+01   7.120882e+00  -2.125508e+06  -1.447541e+06   1.012900e+06   7.178209e+13  -1.056544e+14  -1.999914e+11   2.763897e+06   4.441726e-16   0.000000e+00   0.000000e+00
     3992000   3.991999e-05   2.636413e-01   1.024043e+01   7.212639e+00   1.000500e+05   2.494332e+06   1.191868e+06  -1.295487e+14   8.047824e+12  -5.825965e+12   2.766271e+06   4.603680e-16   0.000000e+00   0.000000e+00
     4000000   3.999999e-05   1.812925e-01   1.020134e+01   7.295692e+00   1.987053e+06  -1.578865e+06   1.106693e+06   7.950282e+13   1.039046e+14   5.644303e+12   2.768748e+06   4.684944e-16   0.000000e+00   0.000000e+00
     4008000   4.007999e-05   1.909453e-01   1.028367e+01   7.383408e+00  -2.435022e+06  -9.461137e+05   9.250179e+05   4.816562e+13  -1.257407e+14  -1.620831e+12   2.771303e+06   4.963071e-16   0.000000e+00   0.000000e+00
     4016000   4.015999e-05   2.541932e-01   1.022759e+01   7.466768e+00   3.592666e+05   2.519249e+06   1.104076e+06  -1.347324e+14   2.161774e+13  -5.315889e+12   2.773927e+06   5.113690e-16   0.000000e+00   0.000000e+00
     4024000   4.023999e-05   1.750712e-01   1.019303e+01   7.542545e+00   2.079697e+06  -1.536640e+06   1.011638e+06   7.991493e+13   1.117426e+14   5.632793e+12   2.776655e+06   5.194167e-16   0.000000e+00   0.000000e+00
     4032000   4.031999e-05   1.768542e-01   1.027238e+01   7.621982e+00  -2.295097e+06  -1.330955e+06   8.285415e+05   7.051340e+13  -1.221613e+14  -6.724333e+11   2.779459e+06   5.477638e-16   0.000000e+00   0.000000e+00
     4040000   4.039999e-05   2.470087e-01   1.023389e+01   7.698070e+00  -3.555465e+05   2.581982e+06   9.738092e+05  -1.417838e+14  -1.699925e+13  -6.484499e+12   2.782327e+06   5.637247e-16   0.000000e+00   0.000000e+00
     4048000   4.047999e-05   1.859874e-01   1.017880e+01   7.766276e+00   2.541127e+06  -6.252637e+05   9.537141e+05   3.269748e+13   1.397790e+14   4.735788e+12   2.785292e+06   5.703479e-16   0.000000e+00   0.000000e+00
     4056000   4.055999e-05   1.538149e-01   1.024873e+01   7.836316e+00  -1.396218e+06  -2.295811e+06   7.447537e+05   1.255732e+14  -7.576223e+13   2.157812e+12   2.788339e+06   5.960811e-16   0.000000e+00   0.000000e+00
     4064000   4.063999e-05   2.287608e-01   1.025403e+01   7.905793e+00  -1.823896e+06   1.955952e+06   7.998793e+05  -1.103965e+14  -9.989546e+13  -7.174701e+12   2.791442e+06   6.169748e-16   0.000000e+00   0.000000e+00
     4072000   4.071999e-05   2.140441e-01   1.017753e+01   7.967262e+00   2.345713e+06   1.226259e+06   8.965885e+05  -6.955948e+13   1.324918e+14   1.027442e+12   2.794629e+06   6.232716e-16   0.000000e+00   0.000000e+00
     4080000   4.079999e-05   1.440505e-01   1.020536e+01   8.027049e+00   7.056686e+05  -2.612717e+06   7.099429e+05   1.457313e+14   4.063709e+13   5.020618e+12   2.797906e+06   6.392642e-16   0.000000e+00   0.000000e+00
     4088000   4.087999e-05   1.848248e-01   1.026399e+01   8.088502e+00  -2.721381e+06  -2.396405e+05   6.193450e+05   1.270637e+13  -1.537701e+14  -3.281678e+12   2.801237e+06   6.660446e-16   0.000000e+00   0.000000e+00
     4096000   4.095999e-05   2.349212e-01   1.021085e+01   8.145029e+00   2.071909e+05   2.691528e+06   7.607182e+05  -1.548629e+14   1.357691e+13  -5.540161e+12   2.804629e+06   6.783078e-16   0.000000e+00   0.000000e+00
     4104000   4.103999e-05   1.762590e-01   1.016684e+01   8.195516e+00   2.648054e+06  -5.954718e+05   7.201950e+05   3.308911e+13   1.522594e+14   4.564601e+12   2.808106e+06   6.828350e-16   0.000000e+00   0.000000e+00
     4112000   4.111999e-05   1.400748e-01   1.022661e+01   8.246672e+00  -8.612433e+05  -2.622905e+06   5.329359e+05   1.505869e+14  -4.890882e+13   3.113959e+12   2.811653e+06   7.065291e-16   0.000000e+00   0.000000e+00
     4120000   4.119999e-05   2.026556e-01   1.025414e+01   8.297559e+00  -2.556054e+06   1.057029e+06   5.242815e+05  -6.248993e+13  -1.479470e+14  -5.884406e+12   2.815243e+06   7.295065e-16   0.000000e+00   0.000000e+00
     4128000   4.127999e-05   2.258740e-01   1.018815e+01   8.342309e+00   1.210388e+06   2.460342e+06   6.540984e+05  -1.442770e+14   7.197939e+13  -3.367625e+12   2.818895e+06   7.365015e-16   0.000000e+00   0.000000e+00
     4136000   4.135999e-05   1.604008e-01   1.016616e+01   8.382545e+00   2.433271e+06  -1.315905e+06   5.610677e+05   7.598095e+13   1.425781e+14   5.343814e+12   2.822625e+06   7.419205e-16   0.000000e+00   0.000000e+00
     4144000   4.143999e-05   1.404100e-01   1.022940e+01   8.423530e+00  -1.340222e+06  -2.457798e+06   3.893868e+05   1.441683e+14  -7.834646e+13   2.380460e+12   2.826409e+06   7.666391e-16   0.000000e+00   0.000000e+00
     4152000   4.151999e-05   2.037881e-01   1.024717e+01   8.463310e+00  -2.471638e+06   1.320247e+06   3.976772e+05  -7.904517e+13  -1.458806e+14  -6.278942e+12   2.830229e+06   7.869884e-16   0.000000e+00   0.000000e+00
     4160000   4.159999e-05   2.229163e-01   1.018306e+01   8.497008e+00   1.268259e+06   2.481422e+06   5.159427e+05  -1.477601e+14   7.633141e+13  -3.363792e+12   2.834102e+06   7.920632e-16   0.000000e+00   0.000000e+00
     4168000   4.167999e-05   1.608732e-01   1.016067e+01   8.526342e+00   2.547645e+06  -1.174763e+06   4.288435e+05   6.904099e+13   1.514026e+14   5.240682e+12   2.838040e+06   7.955930e-16   0.000000e+00   0.000000e+00
     4176000   4.175999e-05   1.360134e-01   1.021972e+01   8.556013e+00  -1.014600e+06  -2.642002e+06   2.598080e+05   1.573024e+14  -6.022207e+13   2.986816e+12   2.842021e+06   8.169108e-16   0.000000e+00   0.000000e+00
     4184000   4.183999e-05   1.937072e-01   1.024706e+01   8.584770e+00  -2.713175e+06   8.243523e+05   2.428829e+05  -5.001512e+13  -1.626672e+14  -5.413073e+12   2.846027e+06   8.368700e-16   0.000000e+00   0.000000e+00
     4192000   4.191999e-05   2.258282e-01   1.019097e+01   8.608197e+00   6.077084e+05   2.760721e+06   3.633130e+05  -1.662526e+14   3.735886e+13  -4.992185e+12   2.850068e+06   8.412427e-16   0.000000e+00   0.000000e+00
     4200000   4.199999e-05   1.740784e-01   1.015354e+01   8.626631e+00   2.815029e+06  -3.458952e+05   3.196991e+05   2.036265e+13   1.688718e+14   4.316570e+12   2.854161e+06   8.404843e-16   0.000000e+00   0.000000e+00
     4208000   4.207999e-05   1.324305e-01   1.020028e+01   8.644547e+00  -2.518564e+04  -2.854402e+06   1.469137e+05   1.714581e+14  -1.389879e+12   4.391695e+12   2.858292e+06   8.565568e-16   0.000000e+00   0.000000e+00
     4216000   4.215999e-05   1.749221e-01   1.024628e+01   8.662108e+00  -2.845538e+06  -3.009530e+05   7.657557e+04   1.804302e+13  -1.724177e+14  -3.223792e+12   2.862433e+06   8.778636e-16   0.000000e+00   0.000000e+00
     4224000   4.223999e-05   2.262261e-01   1.020908e+01   8.675390e+00  -6.263830e+05   2.791408e+06   1.817561e+05  -1.694346e+14  -3.744977e+13  -7.107109e+12   2.866592e+06   8.832579e-16   0.000000e+00   0.000000e+00
     4232000   4.231999e-05   1.965647e-01   1.015371e+01   8.682753e+00   2.693678e+06   9.707197e+05   2.078583e+05  -5.864312e+13   1.626269e+14   1.921778e+12   2.870785e+06   8.778899e-16   0.000000e+00   0.000000e+00
     4240000   4.239999e-05   1.387668e-01   1.017582e+01   8.688256e+00   1.338516e+06  -2.543935e+06   4.932941e+04   1.532980e+14   8.064994e+13   5.610491e+12   2.875006e+06   8.847815e-16   0.000000e+00   0.000000e+00
     4248000   4.247999e-05   1.537315e-01   1.023627e+01   8.693871e+00  -2.342921e+06  -1.671719e+06  -7.772479e+04   1.015483e+14  -1.425025e+14  -2.348256e+10   2.879230e+06   9.046047e-16   0.000000e+00   0.000000e+00
     4256000   4.255999e-05   2.166648e-01   1.022964e+01   8.696725e+00  -1.959148e+06   2.115532e+06  -2.310223e+04  -1.287566e+14  -1.191753e+14  -7.546489e+12   2.883448e+06   9.137374e-16   0.000000e+00   0.000000e+00
     4264000   4.263999e-05   2.192934e-01   1.016676e+01   8.693434e+00   1.842170e+06   2.222654e+06   7.006558e+04  -1.343279e+14   1.115299e+14  -1.894729e+12   2.887679e+06   9.059731e-16   0.000000e+00   0.000000e+00
     4272000   4.271999e-05   1.582170e-01   1.015632e+01   8.686486e+00   2.461625e+06  -1.517253e+06  -3.995201e+04   9.142685e+13   1.479838e+14   5.676443e+12   2.891929e+06   9.028018e-16   0.000000e+00   0.000000e+00
     4280000   4.279999e-05   1.405087e-01   1.021644e+01   8.679562e+00  -1.172828e+06  -2.639977e+06  -2.069090e+05   1.598747e+14  -7.136863e+13   2.896323e+12   2.896172e+06   9.165644e-16   0.000000e+00   0.000000e+00
     4288000   4.287999e-05   1.992345e-01   1.024264e+01   8.671359e+00  -2.760817e+06   8.604016e+05  -2.233191e+05  -5.203053e+13  -1.680768e+14  -5.716761e+12   2.900392e+06   9.290609e-16   0.000000e+00   0.000000e+00
