     timestep     time              x             y              z              vx             vy             vz             ax             ay             az         v_magnitude      ELoss        Electronic      Nuclear
           0   0.000000e+00   1.000000e-01   1.398577e+01   1.911031e+01   7.416804e+04   4.401924e+04   1.195706e+05   0.000000e+00   0.000000e+00   0.000000e+00   1.474304e+05   0.000000e+00   0.000000e+00   0.000000e+00
        8000   7.999000e-08   1.059334e-01   1.398929e+01   1.911987e+01   7.416804e+04   4.401924e+04   1.195706e+05   0.000000e+00   0.000000e+00   0.000000e+00   1.474304e+05   0.000000e+00   0.000000e+00   0.000000e+00
       16000   1.599900e-07   1.118669e-01   1.399281e+01   1.912944e+01   7.416804e+04   4.401924e+04   1.195706e+05   0.000000e+00   0.000000e+00   0.000000e+00   1.474304e+05   0.000000e+00   0.000000e+00   0.000000e+00
       24000   2.399900e-07   1.178003e-01   1.399633e+01   1.913900e+01   7.416804e+04   4.401924e+04   1.195706e+05   0.000000e+00   0.000000e+00   0.000000e+00   1.474304e+05   0.000000e+00   0.000000e+00   0.000000e+00
       32000   3.199900e-07   1.237338e-01   1.399985e+01   1.914857e+01   7.416804e+04   4.401924e+04   1.195706e+05   0.000000e+00   0.000000e+00   0.000000e+00   1.474304e+05   0.000000e+00   0.000000e+00   0.000000e+00
       40000   3.999900e-07   1.296672e-01   1.400337e+01   1.915814e+01   7.416804e+04   4.401924e+04   1.195706e+05   0.000000e+00   0.000000e+00   0.000000e+00   1.474304e+05   0.000000e+00   0.000000e+00   0.000000e+00
       48000   4.799900e-07   1.356007e-01   1.400689e+01   1.916770e+01   7.416804e+04   4.401924e+04   1.195706e+05   0.000000e+00   0.000000e+00   0.000000e+00   1.474304e+05   0.000000e+00   0.000000e+00   0.000000e+00
       56000   5.599900e-07   1.415341e-01   1.401042e+01   1.917727e+01   7.416804e+04   4.401924e+04   1.195706e+05   0.000000e+00   0.000000e+00   0.000000e+00   1.474304e+05   0.000000e+00   0.000000e+00   0.000000e+00
       64000   6.399900e-07   1.474675e-01   1.401394e+01   1.918683e+01   7.416804e+04   4.401924e+04   1.195706e+05   0.000000e+00   0.000000e+00   0.000000e+00   1.474304e+05   0.000000e+00   0.000000e+00   0.000000e+00
       72000   7.199900e-07   1.534010e-01   1.401746e+01   1.919640e+01   7.416804e+04   4.401924e+04   1.195706e+05   0.000000e+00   0.000000e+00   0.000000e+00   1.474304e+05   0.000000e+00   0.000000e+00   0.000000e+00
       80000   7.999900e-07   1.593344e-01   1.402098e+01   1.920596e+01   7.416804e+04   4.401924e+04   1.195706e+05   0.000000e+00   0.000000e+00   0.000000e+00   1.474304e+05   0.000000e+00   0.000000e+00   0.000000e+00
       88000   8.799900e-07   1.652679e-01   1.402450e+01   1.921553e+01   7.416804e+04   4.401924e+04   1.195706e+05   0.000000e+00   0.000000e+00   0.000000e+00   1.474304e+05   0.000000e+00   0.000000e+00   0.000000e+00
       96000   9.599900e-07   1.712013e-01   1.402802e+01   1.922510e+01   7.416804e+04   4.401924e+04   1.195706e+05   0.000000e+00   0.000000e+00   0.000000e+00   1.474304e+05   0.000000e+00   0.000000e+00   0.000000e+00
      104000   1.039990e-06   1.771348e-01   1.403155e+01   1.923466e+01   7.416804e+04   4.401924e+04   1.195706e+05   0.000000e+00   0.000000e+00   0.000000e+00   1.474304e+05   0.000000e+00   0.000000e+00   0.000000e+00
      112000   1.119990e-06   1.830682e-01   1.403507e+01   1.924423e+01   7.416804e+04   4.401924e+04   1.195706e+05   0.000000e+00   0.000000e+00   0.000000e+00   1.474304e+05   0.000000e+00   0.000000e+00   0.000000e+00
      120000   1.199990e-06   1.890016e-01   1.403859e+01   1.925379e+01   7.416804e+04   4.401924e+04   1.195706e+05   0.000000e+00   0.000000e+00   0.000000e+00   1.474304e+05   0.000000e+00   0.000000e+00   0.000000e+00
      128000   1.279990e-06   1.949351e-01   1.404211e+01   1.926336e+01   7.416804e+04   4.401924e+04   1.195706e+05   0.000000e+00   0.000000e+00   0.000000e+00   1.474304e+05   0.000000e+00   0.000000e+00   0.000000e+00
      136000   1.359990e-06   2.008685e-01   1.404563e+01   1.927292e+01   7.416804e+04   4.401924e+04   1.195706e+05   0.000000e+00   0.000000e+00   0.000000e+00   1.474304e+05   0.000000e+00   0.000000e+00   0.000000e+00
      144000   1.439990e-06   2.068020e-01   1.404915e+01   1.928249e+01   7.416804e+04   4.401924e+04   1.195706e+05   0.000000e+00   0.000000e+00   0.000000e+00   1.474304e+05   0.000000e+00   0.000000e+00   0.000000e+00
      152000   1.519990e-06   2.127354e-01   1.405267e+01   1.929206e+01   7.416804e+04   4.401924e+04   1.195706e+05   0.000000e+00   0.000000e+00   0.000000e+00   1.474304e+05   0.000000e+00   0.000000e+00   0.000000e+00
      160000   1.599990e-06   2.186689e-01   1.405620e+01   1.930162e+01   7.416804e+04   4.401924e+04   1.195706e+05   0.000000e+00   0.000000e+00   0.000000e+00   1.474304e+05   0.000000e+00   0.000000e+00   0.000000e+00
      168000   1.679990e-06   2.246023e-01   1.405972e+01   1.931119e+01   7.416804e+04   4.401924e+04   1.195706e+05   0.000000e+00   0.000000e+00   0.000000e+00   1.474304e+05   0.000000e+00   0.000000e+00   0.000000e+00
      176000   1.759990e-06   2.305357e-01   1.406324e+01   1.932075e+01   7.416804e+04   4.401924e+04   1.195706e+05   0.000000e+00   0.000000e+00   0.000000e+00   1.474304e+05   0.000000e+00   0.000000e+00   0.000000e+00
      184000   1.839990e-06   2.364692e-01   1.406676e+01   1.933032e+01   7.416804e+04   4.401924e+04   1.195706e+05   0.000000e+00   0.000000e+00   0.000000e+00   1.474304e+05   0.000000e+00   0.000000e+00   0.000000e+00
      192000   1.919990e-06   2.424026e-01   1.407028e+01   1.933988e+01   7.416804e+04   4.401924e+04   1.195706e+05   0.000000e+00   0.000000e+00   0.000000e+00   1.474304e+05   0.000000e+00   0.000000e+00   0.000000e+00
      200000   1.999990e-06   2.483361e-01   1.407380e+01   1.934945e+01   7.416804e+04   4.401924e+04   1.195706e+05   0.000000e+00   0.000000e+00   0.000000e+00   1.474304e+05   0.000000e+00   0.000000e+00   0.000000e+00
      208000   2.079990e-06   2.542695e-01   1.407733e+01   1.935901e+01   7.416804e+04   4.401924e+04   1.195706e+05   0.000000e+00   0.000000e+00   0.000000e+00   1.474304e+05   0.000000e+00   0.000000e+00   0.000000e+00
      216000   2.159990e-06   2.602030e-01   1.408085e+01   1.936858e+01   7.416804e+04   4.401924e+04   1.195706e+05   0.000000e+00   0.000000e+00   0.000000e+00   1.474304e+05   0.000000e+00   0.000000e+00   0.000000e+00
      224000   2.239990e-06   2.661364e-01   1.408437e+01   1.937815e+01   7.416804e+04   4.401924e+04   1.195706e+05   0.000000e+00   0.000000e+00   0.000000e+00   1.474304e+05   0.000000e+00   0.000000e+00   0.000000e+00
      232000   2.319990e-06   2.720698e-01   1.408789e+01   1.938771e+01   7.416804e+04   4.401924e+04   1.195706e+05   0.000000e+00   0.000000e+00   0.000000e+00   1.474304e+05   0.000000e+00   0.000000e+00   0.000000e+00
      240000   2.399990e-06   2.780033e-01   1.409141e+01   1.939728e+01   7.416804e+04   4.401924e+04   1.195706e+05   0.000000e+00   0.000000e+00   0.000000e+00   1.474304e+05   0.000000e+00   0.000000e+00   0.000000e+00
      248000   2.479990e-06   2.839367e-01   1.409493e+01   1.940684e+01   7.416804e+04   4.401924e+04   1.195706e+05   0.000000e+00   0.000000e+00   0.000000e+00   1.474304e+05   0.000000e+00   0.000000e+00   0.000000e+00
      256000   2.559990e-06   2.898702e-01   1.409845e+01   1.941641e+01   7.416804e+04   4.401924e+04   1.195706e+05   0.000000e+00   0.000000e+00   0.000000e+00   1.474304e+05   0.000000e+00   0.000000e+00   0.000000e+00
      264000   2.639990e-06   2.958036e-01   1.410198e+01   1.942597e+01   7.416804e+04   4.401924e+04   1.195706e+05   0.000000e+00   0.000000e+00   0.000000e+00   1.474304e+05   0.000000e+00   0.000000e+00   0.000000e+00
      272000   2.719990e-06   3.017371e-01   1.410550e+01   1.943554e+01   7.416804e+04   4.401924e+04   1.195706e+05   0.000000e+00   0.000000e+00   0.000000e+00   1.474304e+05   0.000000e+00   0.000000e+00   0.000000e+00
      280000   2.799990e-06   3.076705e-01   1.410902e+01   1.944511e+01   7.416804e+04   4.401924e+04   1.195706e+05   0.000000e+00   0.000000e+00   0.000000e+00   1.474304e+05   0.000000e+00   0.000000e+00   0.000000e+00
      288000   2.879990e-06   3.136040e-01   1.411254e+01   1.945467e+01   7.416804e+04   4.401924e+04   1.195706e+05   0.000000e+00   0.000000e+00   0.000000e+00   1.474304e+05   0.000000e+00   0.000000e+00   0.000000e+00
      296000   2.959990e-06   3.195374e-01   1.411606e+01   1.946424e+01   7.416804e+04   4.401924e+04   1.195706e+05   0.000000e+00   0.000000e+00   0.000000e+00   1.474304e+05   0.000000e+00   0.000000e+00   0.000000e+00
      304000   3.039990e-06   3.254708e-01   1.411958e+01   1.947380e+01   7.416804e+04   4.401924e+04   1.195706e+05   0.000000e+00   0.000000e+00   0.000000e+00   1.474304e+05   0.000000e+00   0.000000e+00   0.000000e+00
      312000   3.119990e-06   3.314043e-01   1.412311e+01   1.948337e+01   7.416804e+04   4.401924e+04   1.195706e+05   0.000000e+00   0.000000e+00   0.000000e+00   1.474304e+05   0.000000e+00   0.000000e+00   0.000000e+00
      320000   3.199990e-06   3.373377e-01   1.412663e+01   1.949293e+01   7.416804e+04   4.401924e+04   1.195706e+05   0.000000e+00   0.000000e+00   0.000000e+00   1.474304e+05   0.000000e+00   0.000000e+00   0.000000e+00
      328000   3.279990e-06   3.432712e-01   1.413015e+01   1.950250e+01   7.416804e+04   4.401924e+04   1.195706e+05   0.000000e+00   0.000000e+00   0.000000e+00   1.474304e+05   0.000000e+00   0.000000e+00   0.000000e+00
      336000   3.359990e-06   3.492046e-01   1.413367e+01   1.951207e+01   7.416804e+04   4.401924e+04   1.195706e+05   0.000000e+00   0.000000e+00   0.000000e+00   1.474304e+05   0.000000e+00   0.000000e+00   0.000000e+00
      344000   3.439990e-06   3.551381e-01   1.413719e+01   1.952163e+01   7.416804e+04   4.401924e+04   1.195706e+05   0.000000e+00   0.000000e+00   0.000000e+00   1.474304e+05   0.000000e+00   0.000000e+00   0.000000e+00
      352000   3.519990e-06   3.610715e-01   1.414071e+01   1.953120e+01   7.416804e+04   4.401924e+04   1.195706e+05   0.000000e+00   0.000000e+00   0.000000e+00   1.474304e+05   0.000000e+00   0.000000e+00   0.000000e+00
      360000   3.599990e-06   3.670049e-01   1.414423e+01   1.954076e+01   7.416804e+04   4.401924e+04   1.195706e+05   0.000000e+00   0.000000e+00   0.000000e+00   1.474304e+05   0.000000e+00   0.000000e+00   0.000000e+00
      368000   3.679990e-06   3.729384e-01   1.414776e+01   1.955033e+01   7.416804e+04   4.401924e+04   1.195706e+05   0.000000e+00   0.000000e+00   0.000000e+00   1.474304e+05   0.000000e+00   0.000000e+00   0.000000e+00
      376000   3.759990e-06   3.788718e-01   1.415128e+01   1.955989e+01   7.416804e+04   4.401924e+04   1.195706e+05   0.000000e+00   0.000000e+00   0.000000e+00   1.474304e+05   0.000000e+00   0.000000e+00   0.000000e+00
      384000   3.839990e-06   3.848053e-01   1.415480e+01   1.956946e+01   7.416804e+04   4.401924e+04   1.195706e+05   0.000000e+00   0.000000e+00   0.000000e+00   1.474304e+05   0.000000e+00   0.000000e+00   0.000000e+00
      392000   3.919990e-06   3.907387e-01   1.415832e+01   1.957902e+01   7.416804e+04   4.401924e+04   1.195706e+05   0.000000e+00   0.000000e+00   0.000000e+00   1.474304e+05   0.000000e+00   0.000000e+00   0.000000e+00
      400000   3.999990e-06   3.966722e-01   1.416184e+01   1.958859e+01   7.416804e+04   4.401924e+04   1.195706e+05   0.000000e+00   0.000000e+00   0.000000e+00   1.474304e+05   0.000000e+00   0.000000e+00   0.000000e+00
      408000   4.079990e-06   4.026056e-01   1.416536e+01   1.959816e+01   7.416796e+04   4.401942e+04   1.195706e+05  -2.322744e+06   5.269187e+06  -4.990642e+05   1.474304e+05   2.587340e-33   0.000000e+00   0.000000e+00
      416000   4.159990e-06   4.085390e-01   1.416889e+01   1.960772e+01   7.416787e+04   4.401962e+04   1.195705e+05  -9.031315e+05   2.048770e+06  -1.940508e+05   1.474304e+05   3.911431e-34   0.000000e+00   0.000000e+00
      424000   4.239990e-06   4.144725e-01   1.417241e+01   1.961729e+01   7.416779e+04   4.401981e+04   1.195705e+05  -1.136414e+06   2.577977e+06  -2.441797e+05   1.474304e+05   6.193168e-34   0.000000e+00   0.000000e+00
      432000   4.319990e-06   4.204059e-01   1.417593e+01   1.962685e+01   7.416769e+04   4.402003e+04   1.195705e+05  -1.369697e+06   3.107182e+06  -2.943119e+05   1.474304e+05   8.996886e-34   0.000000e+00   0.000000e+00
      440000   4.399990e-06   4.263393e-01   1.417945e+01   1.963642e+01   7.416757e+04   4.402030e+04   1.195705e+05  -1.602978e+06   3.636386e+06  -3.444479e+05   1.474304e+05   1.232258e-33   0.000000e+00   0.000000e+00
      448000   4.479990e-06   4.322727e-01   1.418297e+01   1.964598e+01   7.416743e+04   4.402061e+04   1.195704e+05  -1.836260e+06   4.165589e+06  -3.945885e+05   1.474304e+05   1.617025e-33   0.000000e+00   0.000000e+00
      456000   4.559990e-06   4.382061e-01   1.418649e+01   1.965555e+01   7.416728e+04   4.402097e+04   1.195704e+05  -2.069540e+06   4.694790e+06  -4.447342e+05   1.474304e+05   2.053989e-33   0.000000e+00   0.000000e+00
      464000   4.639990e-06   4.441394e-01   1.419001e+01   1.966512e+01   7.416710e+04   4.402137e+04   1.195704e+05  -2.302820e+06   5.223990e+06  -4.948858e+05   1.474304e+05   2.543150e-33   0.000000e+00   0.000000e+00
      472000   4.719990e-06   4.500728e-01   1.419354e+01   1.967468e+01   7.416691e+04   4.402180e+04   1.195703e+05  -2.536099e+06   5.753188e+06  -5.450439e+05   1.474304e+05   3.084506e-33   0.000000e+00   0.000000e+00
      480000   4.799990e-06   4.560062e-01   1.419706e+01   1.968425e+01   7.416670e+04   4.402229e+04   1.195703e+05  -2.769377e+06   6.282383e+06  -5.952091e+05   1.474304e+05   3.678058e-33   0.000000e+00   0.000000e+00
      488000   4.879990e-06   4.619395e-01   1.420058e+01   1.969381e+01   7.416628e+04   4.402323e+04   1.195702e+05  -1.696409e+07   3.882959e+07  -3.773855e+06   1.474304e+05   1.401574e-31   0.000000e+00   0.000000e+00
      496000   4.959990e-06   4.678727e-01   1.420410e+01   1.970338e+01   7.416509e+04   4.402595e+04   1.195699e+05  -9.933229e+06   2.270522e+07  -2.198880e+06   1.474304e+05   4.794283e-32   0.000000e+00   0.000000e+00
      504000   5.039990e-06   4.738059e-01   1.420762e+01   1.971294e+01   7.416431e+04   4.402773e+04   1.195698e+05  -9.516473e+06   2.175237e+07  -2.106926e+06   1.474304e+05   4.400359e-32   0.000000e+00   0.000000e+00
      512000   5.119990e-06   4.797390e-01   1.421115e+01   1.972251e+01   7.416357e+04   4.402943e+04   1.195696e+05  -9.099711e+06   2.079950e+07  -2.014920e+06   1.474304e+05   4.023313e-32   0.000000e+00   0.000000e+00
      520000   5.199990e-06   4.856721e-01   1.421467e+01   1.973207e+01   7.416286e+04   4.403106e+04   1.195694e+05  -8.682943e+06   1.984662e+07  -1.922866e+06   1.474304e+05   3.663146e-32   0.000000e+00   0.000000e+00
      528000   5.279990e-06   4.916051e-01   1.421819e+01   1.974164e+01   7.416218e+04   4.403261e+04   1.195693e+05  -8.266170e+06   1.889373e+07  -1.830764e+06   1.474304e+05   3.319858e-32   0.000000e+00   0.000000e+00
      536000   5.359990e-06   4.975380e-01   1.422171e+01   1.975121e+01   7.416153e+04   4.403408e+04   1.195691e+05  -7.849390e+06   1.794083e+07  -1.738618e+06   1.474304e+05   2.993451e-32   0.000000e+00   0.000000e+00
      544000   5.439990e-06   5.034709e-01   1.422524e+01   1.976077e+01   7.416050e+04   4.403644e+04   1.195689e+05  -1.717580e+07   3.925147e+07  -3.803072e+06   1.474304e+05   1.432849e-31   0.000000e+00   0.000000e+00
      552000   5.519990e-06   5.094037e-01   1.422876e+01   1.977034e+01   7.415905e+04   4.403977e+04   1.195686e+05  -1.922841e+07   4.393542e+07  -4.256514e+06   1.474304e+05   1.795315e-31   0.000000e+00   0.000000e+00
      560000   5.599990e-06   5.153364e-01   1.423228e+01   1.977990e+01   7.415742e+04   4.404347e+04   1.195682e+05  -2.128101e+07   4.861936e+07  -4.710452e+06   1.474304e+05   2.198610e-31   0.000000e+00   0.000000e+00
      568000   5.679990e-06   5.212689e-01   1.423581e+01   1.978947e+01   7.415564e+04   4.404755e+04   1.195678e+05  -2.333360e+07   5.330328e+07  -5.164938e+06   1.474304e+05   2.642736e-31   0.000000e+00   0.000000e+00
      576000   5.759990e-06   5.272013e-01   1.423933e+01   1.979903e+01   7.415369e+04   4.405200e+04   1.195674e+05  -2.538619e+07   5.798719e+07  -5.620025e+06   1.474304e+05   3.127694e-31   0.000000e+00   0.000000e+00
      584000   5.839990e-06   5.331335e-01   1.424286e+01   1.980860e+01   7.415200e+04   4.405588e+04   1.195670e+05  -2.059101e+07   4.708561e+07  -4.579297e+06   1.474304e+05   2.061666e-31   0.000000e+00   0.000000e+00
      592000   5.919990e-06   5.390656e-01   1.424638e+01   1.981816e+01   7.415036e+04   4.405962e+04   1.195667e+05  -2.036160e+07   4.656668e+07  -4.532116e+06   1.474304e+05   2.016418e-31   0.000000e+00   0.000000e+00
      600000   5.999990e-06   5.449975e-01   1.424990e+01   1.982773e+01   7.414874e+04   4.406333e+04   1.195663e+05  -2.013220e+07   4.604776e+07  -4.484879e+06   1.474304e+05   1.971673e-31   0.000000e+00   0.000000e+00
      608000   6.079990e-06   5.509294e-01   1.425343e+01   1.983729e+01   7.414714e+04   4.406699e+04   1.195660e+05  -1.990280e+07   4.552886e+07  -4.437586e+06   1.474304e+05   1.927431e-31   0.000000e+00   0.000000e+00
      616000   6.159990e-06   5.568611e-01   1.425696e+01   1.984686e+01   7.414555e+04   4.407061e+04   1.195656e+05  -1.967340e+07   4.500997e+07  -4.390239e+06   1.474304e+05   1.883692e-31   0.000000e+00   0.000000e+00
      624000   6.239990e-06   5.627927e-01   1.426048e+01   1.985642e+01   7.414399e+04   4.407419e+04   1.195652e+05  -1.944402e+07   4.449111e+07  -4.342837e+06   1.474304e+05   1.840456e-31   0.000000e+00   0.000000e+00
      632000   6.319990e-06   5.687241e-01   1.426401e+01   1.986599e+01   7.414244e+04   4.407773e+04   1.195649e+05  -1.921464e+07   4.397226e+07  -4.295381e+06   1.474304e+05   1.797723e-31   0.000000e+00   0.000000e+00
      640000   6.399990e-06   5.746555e-01   1.426753e+01   1.987556e+01   7.414092e+04   4.408123e+04   1.195646e+05  -1.898527e+07   4.345342e+07  -4.247872e+06   1.474304e+05   1.755493e-31   0.000000e+00   0.000000e+00
      648000   6.479990e-06   5.805867e-01   1.427106e+01   1.988512e+01   7.413941e+04   4.408468e+04   1.195642e+05  -1.875590e+07   4.293460e+07  -4.200311e+06   1.474304e+05   1.713766e-31   0.000000e+00   0.000000e+00
      656000   6.559990e-06   5.865178e-01   1.427459e+01   1.989469e+01   7.413791e+04   4.408810e+04   1.195639e+05  -1.852654e+07   4.241580e+07  -4.152698e+06   1.474304e+05   1.672542e-31   0.000000e+00   0.000000e+00
      664000   6.639990e-06   5.924487e-01   1.427811e+01   1.990425e+01   7.413716e+04   4.408983e+04   1.195637e+05   2.327703e+06  -5.268352e+06   4.994111e+05   1.474304e+05   2.587899e-33   0.000000e+00   0.000000e+00
      672000   6.719990e-06   5.983797e-01   1.428164e+01   1.991382e+01   7.413744e+04   4.408920e+04   1.195638e+05   4.602909e+06  -1.045570e+07   1.001437e+06   1.474304e+05   1.018394e-32   0.000000e+00   0.000000e+00
      680000   6.799990e-06   6.043107e-01   1.428517e+01   1.992338e+01   7.413684e+04   4.409057e+04   1.195636e+05  -1.228583e+07   2.815905e+07  -2.766023e+06   1.474304e+05   7.369245e-32   0.000000e+00   0.000000e+00
      688000   6.879990e-06   6.102416e-01   1.428870e+01   1.993295e+01   7.413584e+04   4.409286e+04   1.195634e+05  -1.271264e+07   2.913115e+07  -2.860518e+06   1.474304e+05   7.887312e-32   0.000000e+00   0.000000e+00
      696000   6.959990e-06   6.161724e-01   1.429222e+01   1.994251e+01   7.413480e+04   4.409523e+04   1.195632e+05  -1.313946e+07   3.010327e+07  -2.955083e+06   1.474304e+05   8.422990e-32   0.000000e+00   0.000000e+00
      704000   7.039990e-06   6.221032e-01   1.429575e+01   1.995208e+01   7.413374e+04   4.409768e+04   1.195629e+05  -1.356629e+07   3.107541e+07  -3.049721e+06   1.474304e+05   8.976281e-32   0.000000e+00   0.000000e+00
      712000   7.119990e-06   6.280338e-01   1.429928e+01   1.996164e+01   7.413263e+04   4.410021e+04   1.195627e+05  -1.399312e+07   3.204757e+07  -3.144434e+06   1.474304e+05   9.547187e-32   0.000000e+00   0.000000e+00
      720000   7.199990e-06   6.339644e-01   1.430281e+01   1.997121e+01   7.413230e+04   4.410096e+04   1.195626e+05  -6.843962e+05   1.555957e+06  -1.495729e+05   1.474304e+05   2.256980e-34   0.000000e+00   0.000000e+00
      728000   7.279990e-06   6.398950e-01   1.430634e+01   1.998077e+01   7.413234e+04   4.410088e+04   1.195626e+05   1.592010e+06  -3.661594e+06   3.634923e+05   1.474304e+05   1.244437e-33   0.000000e+00   0.000000e+00
      736000   7.359990e-06   6.458256e-01   1.430986e+01   1.999034e+01   7.413256e+04   4.410038e+04   1.195627e+05   3.868416e+06  -8.879146e+06   8.765117e+05   1.474304e+05   7.323290e-33   0.000000e+00   0.000000e+00
      744000   7.439990e-06   6.517562e-01   1.431339e+01   1.999990e+01   7.413296e+04   4.409946e+04   1.195628e+05   6.144825e+06  -1.409670e+07   1.389420e+06   1.474304e+05   1.846224e-32   0.000000e+00   0.000000e+00
      752000   7.519990e-06   6.576869e-01   1.431692e+01   2.000947e+01   7.413296e+04   4.409945e+04   1.195628e+05   1.259987e+00  -1.361573e+00  -2.790329e-01   1.474304e+05   2.725196e-46   0.000000e+00   0.000000e+00
      760000   7.599990e-06   6.636175e-01   1.432045e+01   2.001903e+01   7.413296e+04   4.409945e+04   1.195628e+05   1.492593e+00  -2.802857e+00   1.083457e-01   1.474304e+05   7.817905e-46   0.000000e+00   0.000000e+00
      768000   7.679990e-06   6.695481e-01   1.432398e+01   2.002860e+01   7.413296e+04   4.409945e+04   1.195628e+05   1.725199e+00  -4.244141e+00   4.957243e-01   1.474304e+05   1.644449e-45   0.000000e+00   0.000000e+00
      776000   7.759990e-06   6.754788e-01   1.432750e+01   2.003816e+01   7.413296e+04   4.409945e+04   1.195628e+05   1.957805e+00  -5.685425e+00   8.831030e-01   1.474304e+05   2.860494e-45   0.000000e+00   0.000000e+00
      784000   7.839990e-06   6.814094e-01   1.433103e+01   2.004773e+01   7.413296e+04   4.409945e+04   1.195628e+05   2.190410e+00  -7.126709e+00   1.270482e+00   1.474304e+05   4.429927e-45   0.000000e+00   0.000000e+00
      792000   7.919990e-06   6.873401e-01   1.433456e+01   2.005729e+01   7.413296e+04   4.409945e+04   1.195628e+05   2.423016e+00  -8.567993e+00   1.657860e+00   1.474304e+05   6.352747e-45   0.000000e+00   0.000000e+00
      800000   7.999990e-06   6.932707e-01   1.433809e+01   2.006686e+01   7.413296e+04   4.409945e+04   1.195628e+05   2.655622e+00  -1.000928e+01   2.045239e+00   1.474304e+05   8.628954e-45   0.000000e+00   0.000000e+00
      808000   8.079990e-06   6.992013e-01   1.434162e+01   2.007642e+01   7.413296e+04   4.409945e+04   1.195628e+05   2.888228e+00  -1.145056e+01   2.432617e+00   1.474304e+05   1.125855e-44   0.000000e+00   0.000000e+00
      816000   8.159990e-06   7.051320e-01   1.434514e+01   2.008599e+01   7.413296e+04   4.409945e+04   1.195628e+05   1.769402e+00  -4.236522e+00   4.655067e-01   1.474304e+05   1.649277e-45   0.000000e+00   0.000000e+00
      824000   8.239990e-06   7.110626e-01   1.434867e+01   2.009555e+01   7.413296e+04   4.409945e+04   1.195628e+05   1.847986e+00  -4.342969e+00   4.560435e-01   1.474304e+05   1.741347e-45   0.000000e+00   0.000000e+00
      832000   8.319990e-06   7.169932e-01   1.435220e+01   2.010512e+01   7.413296e+04   4.409945e+04   1.195628e+05   1.101863e+00  -1.869345e+00   6.295317e-03   1.474304e+05   3.646801e-46   0.000000e+00   0.000000e+00
      840000   8.399990e-06   7.229239e-01   1.435573e+01   2.011468e+01   7.413296e+04   4.409945e+04   1.195628e+05   9.632859e-01  -1.623754e+00   1.634278e-03   1.474304e+05   2.760714e-46   0.000000e+00   0.000000e+00
      848000   8.479990e-06   7.288545e-01   1.435925e+01   2.012425e+01   7.413296e+04   4.409945e+04   1.195628e+05   8.247085e-01  -1.378162e+00  -3.026761e-03   1.474304e+05   1.997831e-46   0.000000e+00   0.000000e+00
      856000   8.559990e-06   7.347851e-01   1.436278e+01   2.013381e+01   7.413296e+04   4.409945e+04   1.195628e+05   6.861310e-01  -1.132571e+00  -7.687800e-03   1.474304e+05   1.358152e-46   0.000000e+00   0.000000e+00
      864000   8.639990e-06   7.407158e-01   1.436631e+01   2.014338e+01   7.413296e+04   4.409945e+04   1.195628e+05   5.475536e-01  -8.869796e-01  -1.234884e-02   1.474304e+05   8.416778e-47   0.000000e+00   0.000000e+00
      872000   8.719990e-06   7.466464e-01   1.436984e+01   2.015294e+01   7.413296e+04   4.409945e+04   1.195628e+05   4.089762e-01  -6.413883e-01  -1.700988e-02   1.474304e+05   4.484074e-47   0.000000e+00   0.000000e+00
      880000   8.799990e-06   7.525771e-01   1.437337e+01   2.016251e+01   7.413296e+04   4.409945e+04   1.195628e+05   2.703988e-01  -3.957970e-01  -2.167092e-02   1.474304e+05   1.783412e-47   0.000000e+00   0.000000e+00
      888000   8.879990e-06   7.585077e-01   1.437689e+01   2.017207e+01   7.413296e+04   4.409945e+04   1.195628e+05   1.318213e-01  -1.502056e-01  -2.633196e-02   1.474304e+05   3.147904e-48   0.000000e+00   0.000000e+00
      896000   8.959990e-06   7.644383e-01   1.438042e+01   2.018164e+01   7.413296e+04   4.409945e+04   1.195628e+05  -6.756102e-03   9.538574e-02  -3.099299e-02   1.474304e+05   7.821043e-49   0.000000e+00   0.000000e+00
      904000   9.039990e-06   7.703690e-01   1.438395e+01   2.019120e+01   7.413296e+04   4.409945e+04   1.195628e+05  -1.453335e-01   3.409771e-01  -3.565403e-02   1.474304e+05   1.073672e-47   0.000000e+00   0.000000e+00
      912000   9.119990e-06   7.762996e-01   1.438748e+01   2.020077e+01   7.413296e+04   4.409945e+04   1.195628e+05   2.374089e+00  -3.990939e+00  -7.608030e-23   1.474304e+05   1.670038e-45   0.000000e+00   0.000000e+00
      920000   9.199990e-06   7.822302e-01   1.439101e+01   2.021033e+01   7.413296e+04   4.409945e+04   1.195628e+05   2.537675e+00  -4.265935e+00   1.623669e-23   1.474304e+05   1.908117e-45   0.000000e+00   0.000000e+00
      928000   9.279990e-06   7.881609e-01   1.439453e+01   2.021990e+01   7.413296e+04   4.409945e+04   1.195628e+05   2.701261e+00  -4.540930e+00  -8.227464e-23   1.474304e+05   2.162054e-45   0.000000e+00   0.000000e+00
      936000   9.359990e-06   7.940915e-01   1.439806e+01   2.022946e+01   7.413296e+04   4.409945e+04   1.195628e+05   2.864847e+00  -4.815925e+00   1.004434e-23   1.474304e+05   2.431850e-45   0.000000e+00   0.000000e+00
      944000   9.439990e-06   8.000222e-01   1.440159e+01   2.023903e+01   7.413296e+04   4.409945e+04   1.195628e+05  -1.866649e+00   3.137914e+00   3.678609e-23   1.474304e+05   1.032447e-45   0.000000e+00   0.000000e+00
      952000   9.519990e-06   8.059528e-01   1.440512e+01   2.024859e+01   7.413296e+04   4.409945e+04   1.195628e+05  -1.827619e+00   3.072302e+00  -2.750857e-23   1.474304e+05   9.897230e-46   0.000000e+00   0.000000e+00
      960000   9.599990e-06   8.118834e-01   1.440865e+01   2.025816e+01   7.413296e+04   4.409945e+04   1.195628e+05  -1.788588e+00   3.006690e+00   7.516934e-23   1.474304e+05   9.479015e-46   0.000000e+00   0.000000e+00
      968000   9.679990e-06   8.178141e-01   1.441217e+01   2.026772e+01   7.413296e+04   4.409945e+04   1.195628e+05  -1.749558e+00   2.941078e+00   3.472740e-23   1.474304e+05   9.069828e-46   0.000000e+00   0.000000e+00
      976000   9.759990e-06   8.237447e-01   1.441570e+01   2.027729e+01   7.413296e+04   4.409945e+04   1.195628e+05  -1.710527e+00   2.875466e+00  -2.956806e-23   1.474304e+05   8.669669e-46   0.000000e+00   0.000000e+00
      984000   9.839990e-06   8.296753e-01   1.441923e+01   2.028685e+01   7.413296e+04   4.409945e+04   1.195628e+05  -1.671497e+00   2.809854e+00   1.549252e-24   1.474304e+05   8.278537e-46   0.000000e+00   0.000000e+00
      992000   9.919990e-06   8.356060e-01   1.442276e+01   2.029642e+01   7.413296e+04   4.409945e+04   1.195628e+05  -1.632466e+00   2.744242e+00   3.266630e-23   1.474304e+05   7.896434e-46   0.000000e+00   0.000000e+00
     1000000   9.999990e-06   8.415366e-01   1.442629e+01   2.030598e+01   7.413296e+04   4.409945e+04   1.195628e+05  -1.424517e-01   2.394672e-01  -5.771850e-25   1.474304e+05   6.017281e-48   0.000000e+00   0.000000e+00
     1008000   1.007999e-05   8.474673e-01   1.442981e+01   2.031555e+01   7.413296e+04   4.409945e+04   1.195628e+05   2.836364e-01  -4.768043e-01  -1.339450e-24   1.474304e+05   2.382872e-47   0.000000e+00   0.000000e+00
     1016000   1.015999e-05   8.533979e-01   1.443334e+01   2.032511e+01   7.413296e+04   4.409945e+04   1.195628e+05   7.097244e-01  -1.193076e+00  -1.104006e-23   1.474304e+05   1.492294e-46   0.000000e+00   0.000000e+00
     1024000   1.023999e-05   8.593285e-01   1.443687e+01   2.033468e+01   7.413296e+04   4.409945e+04   1.195628e+05   1.135813e+00  -1.909347e+00  -1.479162e-23   1.474304e+05   3.822194e-46   0.000000e+00   0.000000e+00
     1032000   1.031999e-05   8.652592e-01   1.444040e+01   2.034424e+01   7.413296e+04   4.409945e+04   1.195628e+05   1.561901e+00  -2.625619e+00   1.723831e-23   1.474304e+05   7.227986e-46   0.000000e+00   0.000000e+00
     1040000   1.039999e-05   8.711898e-01   1.444393e+01   2.035381e+01   7.413296e+04   4.409945e+04   1.195628e+05   1.987989e+00  -3.341890e+00   1.574177e-24   1.474304e+05   1.170967e-45   0.000000e+00   0.000000e+00
     1048000   1.047999e-05   8.771204e-01   1.444745e+01   2.036337e+01   7.413296e+04   4.409945e+04   1.195628e+05   2.414077e+00  -4.058161e+00  -1.410470e-23   1.474304e+05   1.726725e-45   0.000000e+00   0.000000e+00
     1056000   1.055999e-05   8.830511e-01   1.445098e+01   2.037294e+01   7.413296e+04   4.409945e+04   1.195628e+05   2.840165e+00  -4.774433e+00  -2.980113e-23   1.474304e+05   2.390072e-45   0.000000e+00   0.000000e+00
     1064000   1.063999e-05   8.889817e-01   1.445451e+01   2.038250e+01   7.413296e+04   4.409945e+04   1.195628e+05   3.266253e+00  -5.490704e+00  -4.547927e-23   1.474304e+05   3.161008e-45   0.000000e+00   0.000000e+00
     1072000   1.071999e-05   8.949124e-01   1.445804e+01   2.039207e+01   7.413296e+04   4.409945e+04   1.195628e+05   3.692341e+00  -6.206976e+00   3.427056e-23   1.474304e+05   4.039533e-45   0.000000e+00   0.000000e+00
     1080000   1.079999e-05   9.008430e-01   1.446157e+01   2.040163e+01   7.413296e+04   4.409945e+04   1.195628e+05   1.771344e-01  -2.977701e-01  -3.961536e-26   1.474304e+05   9.290774e-48   0.000000e+00   0.000000e+00
     1088000   1.087999e-05   9.067736e-01   1.446509e+01   2.041120e+01   7.413296e+04   4.409945e+04   1.195628e+05   6.564045e-01  -1.103443e+00  -2.176679e-23   1.474304e+05   1.276450e-46   0.000000e+00   0.000000e+00
     1096000   1.095999e-05   9.127043e-01   1.446862e+01   2.042076e+01   7.413296e+04   4.409945e+04   1.195628e+05   1.135675e+00  -1.909115e+00  -1.368708e-23   1.474304e+05   3.821221e-46   0.000000e+00   0.000000e+00
     1104000   1.103999e-05   9.186349e-01   1.447215e+01   2.043033e+01   7.413296e+04   4.409945e+04   1.195628e+05   1.614945e+00  -2.714788e+00  -5.607162e-24   1.474304e+05   7.727220e-46   0.000000e+00   0.000000e+00
     1112000   1.111999e-05   9.245655e-01   1.447568e+01   2.043989e+01   7.413296e+04   4.409945e+04   1.195628e+05   2.094215e+00  -3.520461e+00  -4.521823e-23   1.474304e+05   1.299445e-45   0.000000e+00   0.000000e+00
     1120000   1.119999e-05   9.304962e-01   1.447921e+01   2.044946e+01   7.413296e+04   4.409945e+04   1.195628e+05   2.573485e+00  -4.326133e+00  -3.715429e-23   1.474304e+05   1.962290e-45   0.000000e+00   0.000000e+00
     1128000   1.127999e-05   9.364268e-01   1.448273e+01   2.045902e+01   7.413296e+04   4.409945e+04   1.195628e+05   3.052755e+00  -5.131806e+00  -5.294120e-23   1.474304e+05   2.761258e-45   0.000000e+00   0.000000e+00
     1136000   1.135999e-05   9.423574e-01   1.448626e+01   2.046859e+01   7.413296e+04   4.409945e+04   1.195628e+05   3.532025e+00  -5.937479e+00  -2.099562e-23   1.474304e+05   3.696349e-45   0.000000e+00   0.000000e+00
     1144000   1.143999e-05   9.482881e-01   1.448979e+01   2.047815e+01   7.413296e+04   4.409945e+04   1.195628e+05   4.011296e+00  -6.743151e+00  -3.680682e-23   1.474304e+05   4.767563e-45   0.000000e+00   0.000000e+00
     1152000   1.151999e-05   9.542187e-01   1.449332e+01   2.048772e+01   7.413296e+04   4.409945e+04   1.195628e+05   4.490566e+00  -7.548824e+00  -1.480294e-22   1.474304e+05   5.974900e-45   0.000000e+00   0.000000e+00
     1160000   1.159999e-05   9.601494e-01   1.449685e+01   2.049728e+01   7.413296e+04   4.409945e+04   1.195628e+05   4.969836e+00  -8.354497e+00  -2.068297e-23   1.474304e+05   7.318359e-45   0.000000e+00   0.000000e+00
     1168000   1.167999e-05   9.660800e-01   1.450037e+01   2.050685e+01   7.413296e+04   4.409945e+04   1.195628e+05   1.541395e+00  -2.591148e+00  -1.751015e-24   1.474304e+05   7.040368e-46   0.000000e+00   0.000000e+00
     1176000   1.175999e-05   9.720106e-01   1.450390e+01   2.051641e+01   7.413296e+04   4.409945e+04   1.195628e+05   1.156076e+00  -1.943411e+00  -4.169688e-23   1.474304e+05   3.960492e-46   0.000000e+00   0.000000e+00
     1184000   1.183999e-05   9.779413e-01   1.450743e+01   2.052598e+01   7.413296e+04   4.409945e+04   1.195628e+05   7.707569e-01  -1.295674e+00   1.841370e-24   1.474304e+05   1.760473e-46   0.000000e+00   0.000000e+00
     1192000   1.191999e-05   9.838719e-01   1.451096e+01   2.053554e+01   7.413296e+04   4.409945e+04   1.195628e+05   3.854377e-01  -6.479365e-01  -8.274744e-24   1.474304e+05   4.403085e-47   0.000000e+00   0.000000e+00
     1200000   1.199999e-05   9.898025e-01   1.451448e+01   2.054511e+01   7.413296e+04   4.409945e+04   1.195628e+05   1.184820e-04  -1.991730e-04  -1.333405e-27   1.474304e+05   8.228759e-54   0.000000e+00   0.000000e+00
     1208000   1.207999e-05   9.957332e-01   1.451801e+01   2.055467e+01   7.413296e+04   4.409945e+04   1.195628e+05  -3.852007e-01   6.475381e-01   1.322500e-23   1.474304e+05   4.395474e-47   0.000000e+00   0.000000e+00
     1216000   1.215999e-05   1.001664e+00   1.452154e+01   2.056424e+01   7.413296e+04   4.409945e+04   1.195628e+05  -3.604374e-01   6.059099e-01   1.917265e-24   1.474304e+05   3.848881e-47   0.000000e+00   0.000000e+00
     1224000   1.223999e-05   1.007594e+00   1.452507e+01   2.057380e+01   7.413296e+04   4.409945e+04   1.195628e+05  -5.769156e-01   9.698187e-01   1.148673e-23   1.474304e+05   9.861069e-47   0.000000e+00   0.000000e+00
     1232000   1.231999e-05   1.013525e+00   1.452860e+01   2.058337e+01   7.413296e+04   4.409945e+04   1.195628e+05  -7.933939e-01   1.333727e+00   2.105700e-23   1.474304e+05   1.865040e-46   0.000000e+00   0.000000e+00
     1240000   1.239999e-05   1.019456e+00   1.453212e+01   2.059293e+01   7.413296e+04   4.409945e+04   1.195628e+05  -1.009872e+00   1.697636e+00  -5.167903e-24   1.474304e+05   3.021688e-46   0.000000e+00   0.000000e+00
     1248000   1.247999e-05   1.025386e+00   1.453565e+01   2.060250e+01   7.413296e+04   4.409945e+04   1.195628e+05   2.185276e-01  -3.673539e-01   3.838593e-24   1.474304e+05   1.414904e-47   0.000000e+00   0.000000e+00
     1256000   1.255999e-05   1.031317e+00   1.453918e+01   2.061206e+01   7.413296e+04   4.409945e+04   1.195628e+05   2.707042e-01  -4.550648e-01  -1.149773e-24   1.474304e+05   2.171247e-47   0.000000e+00   0.000000e+00
     1264000   1.263999e-05   1.037248e+00   1.454271e+01   2.062163e+01   7.413296e+04   4.409945e+04   1.195628e+05   3.228808e-01  -5.427758e-01  -1.739935e-25   1.474304e+05   3.088923e-47   0.000000e+00   0.000000e+00
     1272000   1.271999e-05   1.043178e+00   1.454624e+01   2.063119e+01   7.413296e+04   4.409945e+04   1.195628e+05   3.750574e-01  -6.304868e-01  -5.160699e-24   1.474304e+05   4.167931e-47   0.000000e+00   0.000000e+00
     1280000   1.279999e-05   1.049109e+00   1.454976e+01   2.064076e+01   7.413296e+04   4.409945e+04   1.195628e+05   4.272340e-01  -7.181978e-01   7.743373e-24   1.474304e+05   5.408271e-47   0.000000e+00   0.000000e+00
     1288000   1.287999e-05   1.055040e+00   1.455329e+01   2.065032e+01   7.413296e+04   4.409945e+04   1.195628e+05   4.794106e-01  -8.059087e-01   8.721645e-24   1.474304e+05   6.809944e-47   0.000000e+00   0.000000e+00
     1296000   1.295999e-05   1.060970e+00   1.455682e+01   2.065989e+01   7.413296e+04   4.409945e+04   1.195628e+05   5.315872e-01  -8.936197e-01  -1.415252e-23   1.474304e+05   8.372949e-47   0.000000e+00   0.000000e+00
     1304000   1.303999e-05   1.066901e+00   1.456035e+01   2.066945e+01   7.413296e+04   4.409945e+04   1.195628e+05   5.837638e-01  -9.813307e-01  -2.509921e-23   1.474304e+05   1.009729e-46   0.000000e+00   0.000000e+00
     1312000   1.311999e-05   1.072831e+00   1.456388e+01   2.067902e+01   7.413296e+04   4.409945e+04   1.195628e+05   6.359404e-01  -1.069042e+00  -1.219182e-23   1.474304e+05   1.198296e-46   0.000000e+00   0.000000e+00
     1320000   1.319999e-05   1.078762e+00   1.456740e+01   2.068858e+01   7.413296e+04   4.409945e+04   1.195628e+05   6.881170e-01  -1.156753e+00   7.204881e-25   1.474304e+05   1.402996e-46   0.000000e+00   0.000000e+00
     1328000   1.327999e-05   1.084693e+00   1.457093e+01   2.069815e+01   7.413296e+04   4.409945e+04   1.195628e+05   7.402935e-01  -1.244464e+00   1.703999e-24   1.474304e+05   1.623829e-46   0.000000e+00   0.000000e+00
     1336000   1.335999e-05   1.090623e+00   1.457446e+01   2.070771e+01   7.413296e+04   4.409945e+04   1.195628e+05  -2.499672e+00   4.202050e+00   8.402053e-24   1.474304e+05   1.851385e-45   0.000000e+00   0.000000e+00
     1344000   1.343999e-05   1.096554e+00   1.457799e+01   2.071728e+01   7.413296e+04   4.409945e+04   1.195628e+05  -2.716150e+00   4.565959e+00   1.792073e-23   1.474304e+05   2.185944e-45   0.000000e+00   0.000000e+00
     1352000   1.351999e-05   1.102485e+00   1.458152e+01   2.072684e+01   7.413296e+04   4.409945e+04   1.195628e+05  -2.825784e-01   4.750258e-01   9.322924e-24   1.474304e+05   2.365667e-47   0.000000e+00   0.000000e+00
     1360000   1.359999e-05   1.108415e+00   1.458504e+01   2.073641e+01   7.413296e+04   4.409945e+04   1.195628e+05  -4.504647e-01   7.572495e-01   7.375578e-24   1.474304e+05   6.012030e-47   0.000000e+00   0.000000e+00
     1368000   1.367999e-05   1.114346e+00   1.458857e+01   2.074597e+01   7.413296e+04   4.409945e+04   1.195628e+05  -6.183510e-01   1.039473e+00   1.139422e-23   1.474304e+05   1.132872e-46   0.000000e+00   0.000000e+00
     1376000   1.375999e-05   1.120277e+00   1.459210e+01   2.075554e+01   7.413296e+04   4.409945e+04   1.195628e+05  -7.862373e-01   1.321697e+00   3.486209e-24   1.474304e+05   1.831573e-46   0.000000e+00   0.000000e+00
     1384000   1.383999e-05   1.126207e+00   1.459563e+01   2.076510e+01   7.413296e+04   4.409945e+04   1.195628e+05  -9.541236e-01   1.603921e+00  -4.436523e-24   1.474304e+05   2.697306e-46   0.000000e+00   0.000000e+00
     1392000   1.391999e-05   1.132138e+00   1.459916e+01   2.077467e+01   7.413296e+04   4.409945e+04   1.195628e+05  -1.122010e+00   1.886144e+00   2.341857e-23   1.474304e+05   3.730072e-46   0.000000e+00   0.000000e+00
     1400000   1.399999e-05   1.138068e+00   1.460268e+01   2.078423e+01   7.413296e+04   4.409945e+04   1.195628e+05   1.789552e+00  -3.008310e+00  -5.085958e-23   1.474304e+05   9.488715e-46   0.000000e+00   0.000000e+00
     1408000   1.407999e-05   1.143999e+00   1.460621e+01   2.079380e+01   7.413296e+04   4.409945e+04   1.195628e+05   2.140464e+00  -3.598207e+00  -4.362947e-23   1.474304e+05   1.357495e-45   0.000000e+00   0.000000e+00
     1416000   1.415999e-05   1.149930e+00   1.460974e+01   2.080336e+01   7.413296e+04   4.409945e+04   1.195628e+05   1.052012e+00  -1.768475e+00   1.069068e-23   1.474304e+05   3.279326e-46   0.000000e+00   0.000000e+00
     1424000   1.423999e-05   1.155860e+00   1.461327e+01   2.081293e+01   7.413296e+04   4.409945e+04   1.195628e+05   1.022066e+00  -1.718134e+00   1.113871e-23   1.474304e+05   3.095286e-46   0.000000e+00   0.000000e+00
     1432000   1.431999e-05   1.161791e+00   1.461680e+01   2.082249e+01   7.413296e+04   4.409945e+04   1.195628e+05   9.921191e-01  -1.667793e+00   1.158749e-23   1.474304e+05   2.916561e-46   0.000000e+00   0.000000e+00
     1440000   1.439999e-05   1.167722e+00   1.462032e+01   2.083206e+01   7.413296e+04   4.409945e+04   1.195628e+05   9.621727e-01  -1.617451e+00  -1.181625e-23   1.474304e+05   2.743150e-46   0.000000e+00   0.000000e+00
     1448000   1.447999e-05   1.173652e+00   1.462385e+01   2.084162e+01   7.413296e+04   4.409945e+04   1.195628e+05   9.322262e-01  -1.567110e+00  -2.329261e-23   1.474304e+05   2.575053e-46   0.000000e+00   0.000000e+00
     1456000   1.455999e-05   1.179583e+00   1.462738e+01   2.085119e+01   7.413296e+04   4.409945e+04   1.195628e+05   9.022797e-01  -1.516769e+00   1.293831e-23   1.474304e+05   2.412271e-46   0.000000e+00   0.000000e+00
     1464000   1.463999e-05   1.185514e+00   1.463091e+01   2.086075e+01   7.413296e+04   4.409945e+04   1.195628e+05   8.723333e-01  -1.466428e+00   1.463446e-24   1.474304e+05   2.254804e-46   0.000000e+00   0.000000e+00
     1472000   1.471999e-05   1.191444e+00   1.463444e+01   2.087032e+01   7.413296e+04   4.409945e+04   1.195628e+05   8.423868e-01  -1.416087e+00  -1.001067e-23   1.474304e+05   2.102651e-46   0.000000e+00   0.000000e+00
     1480000   1.479999e-05   1.197375e+00   1.463796e+01   2.087988e+01   7.413296e+04   4.409945e+04   1.195628e+05   8.124404e-01  -1.365745e+00   2.369230e-24   1.474304e+05   1.955812e-46   0.000000e+00   0.000000e+00
     1488000   1.487999e-05   1.203305e+00   1.464149e+01   2.088945e+01   7.413296e+04   4.409945e+04   1.195628e+05   1.612706e+00  -2.711024e+00   6.693060e-24   1.474304e+05   7.706346e-46   0.000000e+00   0.000000e+00
     1496000   1.495999e-05   1.209236e+00   1.464502e+01   2.089901e+01   7.413296e+04   4.409945e+04   1.195628e+05   1.639682e+00  -2.756372e+00   1.544999e-23   1.474304e+05   7.966317e-46   0.000000e+00   0.000000e+00
     1504000   1.503999e-05   1.215167e+00   1.464855e+01   2.090858e+01   7.413296e+04   4.409945e+04   1.195628e+05  -5.639191e-01   9.479709e-01  -4.330231e-24   1.474304e+05   9.420318e-47   0.000000e+00   0.000000e+00
     1512000   1.511999e-05   1.221097e+00   1.465208e+01   2.091814e+01   7.413296e+04   4.409945e+04   1.195628e+05  -1.125344e+00   1.891749e+00   1.786935e-23   1.474304e+05   3.751945e-46   0.000000e+00   0.000000e+00
     1520000   1.519999e-05   1.227028e+00   1.465560e+01   2.092771e+01   7.413296e+04   4.409945e+04   1.195628e+05  -1.686769e+00   2.835527e+00  -7.638418e-24   1.474304e+05   8.429756e-46   0.000000e+00   0.000000e+00
     1528000   1.527999e-05   1.232959e+00   1.465913e+01   2.093727e+01   7.413296e+04   4.409945e+04   1.195628e+05  -2.248193e+00   3.779305e+00   3.842580e-23   1.474304e+05   1.497547e-45   0.000000e+00   0.000000e+00
     1536000   1.535999e-05   1.238889e+00   1.466266e+01   2.094684e+01   7.413296e+04   4.409945e+04   1.195628e+05  -2.809618e+00   4.723083e+00   6.059864e-23   1.474304e+05   2.338907e-45   0.000000e+00   0.000000e+00
     1544000   1.543999e-05   1.244820e+00   1.466619e+01   2.095640e+01   7.413296e+04   4.409945e+04   1.195628e+05  -3.371043e+00   5.666860e+00  -6.032144e-23   1.474304e+05   3.367058e-45   0.000000e+00   0.000000e+00
     1552000   1.551999e-05   1.250751e+00   1.466972e+01   2.096597e+01   7.413296e+04   4.409945e+04   1.195628e+05  -3.932468e+00   6.610638e+00   5.727190e-23   1.474304e+05   4.581998e-45   0.000000e+00   0.000000e+00
     1560000   1.559999e-05   1.256681e+00   1.467324e+01   2.097553e+01   7.413296e+04   4.409945e+04   1.195628e+05  -4.493893e+00   7.554416e+00  -1.113957e-22   1.474304e+05   5.983729e-45   0.000000e+00   0.000000e+00
     1568000   1.567999e-05   1.262612e+00   1.467677e+01   2.098510e+01   7.413296e+04   4.409945e+04   1.195628e+05  -5.055317e+00   8.498194e+00  -1.368978e-22   1.474304e+05   7.572249e-45   0.000000e+00   0.000000e+00
     1576000   1.575999e-05   1.268542e+00   1.468030e+01   2.099466e+01   7.413296e+04   4.409945e+04   1.195628e+05  -5.616742e+00   9.441972e+00   2.833939e-23   1.474304e+05   9.347559e-45   0.000000e+00   0.000000e+00
     1584000   1.583999e-05   1.274473e+00   1.468383e+01   2.100423e+01   7.413296e+04   4.409945e+04   1.195628e+05  -1.098484e+00   1.846596e+00  -1.303681e-23   1.474304e+05   3.575445e-46   0.000000e+00   0.000000e+00
     1592000   1.591999e-05   1.280404e+00   1.468735e+01   2.101379e+01   7.413296e+04   4.409945e+04   1.195628e+05  -1.071507e+00   1.801248e+00  -4.292584e-24   1.474304e+05   3.401991e-46   0.000000e+00   0.000000e+00
     1600000   1.599999e-05   1.286334e+00   1.469088e+01   2.102336e+01   7.413296e+04   4.409945e+04   1.195628e+05  -1.044531e+00   1.755899e+00  -7.479637e-24   1.474304e+05   3.232850e-46   0.000000e+00   0.000000e+00
     1608000   1.607999e-05   1.292265e+00   1.469441e+01   2.103292e+01   7.413296e+04   4.409945e+04   1.195628e+05  -1.017555e+00   1.710551e+00   1.260619e-24   1.474304e+05   3.068022e-46   0.000000e+00   0.000000e+00
     1616000   1.615999e-05   1.298196e+00   1.469794e+01   2.104249e+01   7.413296e+04   4.409945e+04   1.195628e+05  -9.905783e-01   1.665203e+00   2.192817e-23   1.474304e+05   2.907507e-46   0.000000e+00   0.000000e+00
     1624000   1.623999e-05   1.304126e+00   1.470147e+01   2.105205e+01   7.413296e+04   4.409945e+04   1.195628e+05   8.641815e-01  -1.452724e+00   1.496830e-23   1.474304e+05   2.212895e-46   0.000000e+00   0.000000e+00
     1632000   1.631999e-05   1.310057e+00   1.470499e+01   2.106162e+01   7.413296e+04   4.409945e+04   1.195628e+05   7.784235e-01  -1.308562e+00   2.530716e-23   1.474304e+05   1.795494e-46   0.000000e+00   0.000000e+00
     1640000   1.639999e-05   1.315988e+00   1.470852e+01   2.107118e+01   7.413296e+04   4.409945e+04   1.195628e+05   6.926655e-01  -1.164399e+00   1.180291e-23   1.474304e+05   1.421676e-46   0.000000e+00   0.000000e+00
     1648000   1.647999e-05   1.321918e+00   1.471205e+01   2.108075e+01   7.413296e+04   4.409945e+04   1.195628e+05   6.069075e-01  -1.020236e+00  -1.361998e-23   1.474304e+05   1.091441e-46   0.000000e+00   0.000000e+00
     1656000   1.655999e-05   1.327849e+00   1.471558e+01   2.109031e+01   7.413296e+04   4.409945e+04   1.195628e+05   5.211495e-01  -8.760735e-01   2.696181e-24   1.474304e+05   8.047900e-47   0.000000e+00   0.000000e+00
     1664000   1.663999e-05   1.333779e+00   1.471911e+01   2.109988e+01   7.413296e+04   4.409945e+04   1.195628e+05   4.353915e-01  -7.319108e-01   1.304766e-23   1.474304e+05   5.617218e-47   0.000000e+00   0.000000e+00
     1672000   1.671999e-05   1.339710e+00   1.472263e+01   2.110944e+01   7.413296e+04   4.409945e+04   1.195628e+05   1.096106e+00  -1.842598e+00  -3.313252e-24   1.474304e+05   3.559895e-46   0.000000e+00   0.000000e+00
     1680000   1.679999e-05   1.345641e+00   1.472616e+01   2.111901e+01   7.413296e+04   4.409945e+04   1.195628e+05   1.175261e+00  -1.975662e+00  -5.543422e-24   1.474304e+05   4.092622e-46   0.000000e+00   0.000000e+00
     1688000   1.687999e-05   1.351571e+00   1.472969e+01   2.112857e+01   7.413296e+04   4.409945e+04   1.195628e+05   1.254417e+00  -2.108726e+00  -7.774309e-24   1.474304e+05   4.662481e-46   0.000000e+00   0.000000e+00
     1696000   1.695999e-05   1.357502e+00   1.473322e+01   2.113814e+01   7.413296e+04   4.409945e+04   1.195628e+05   1.333573e+00  -2.241790e+00  -5.771244e-23   1.474304e+05   5.269470e-46   0.000000e+00   0.000000e+00
     1704000   1.703999e-05   1.363433e+00   1.473675e+01   2.114770e+01   7.413296e+04   4.409945e+04   1.195628e+05   1.412728e+00  -2.374854e+00  -3.609150e-23   1.474304e+05   5.913590e-46   0.000000e+00   0.000000e+00
     1712000   1.711999e-05   1.369363e+00   1.474027e+01   2.115727e+01   7.413296e+04   4.409945e+04   1.195628e+05   1.491884e+00  -2.507917e+00  -1.447128e-23   1.474304e+05   6.594841e-46   0.000000e+00   0.000000e+00
     1720000   1.719999e-05   1.375294e+00   1.474380e+01   2.116683e+01   7.413296e+04   4.409945e+04   1.195628e+05   1.571039e+00  -2.640981e+00  -1.669616e-23   1.474304e+05   7.313223e-46   0.000000e+00   0.000000e+00
     1728000   1.727999e-05   1.381225e+00   1.474733e+01   2.117640e+01   7.413296e+04   4.409945e+04   1.195628e+05   1.650195e+00  -2.774045e+00   2.878947e-23   1.474304e+05   8.068735e-46   0.000000e+00   0.000000e+00
     1736000   1.735999e-05   1.387155e+00   1.475086e+01   2.118596e+01   7.413296e+04   4.409945e+04   1.195628e+05   1.729351e+00  -2.907109e+00   2.715859e-24   1.474304e+05   8.861378e-46   0.000000e+00   0.000000e+00
     1744000   1.743999e-05   1.393086e+00   1.475439e+01   2.119553e+01   7.413296e+04   4.409945e+04   1.195628e+05   1.808506e+00  -3.040173e+00   4.960524e-25   1.474304e+05   9.691151e-46   0.000000e+00   0.000000e+00
     1752000   1.751999e-05   1.399017e+00   1.475791e+01   2.120509e+01   7.413296e+04   4.409945e+04   1.195628e+05   1.355036e-01  -2.277870e-01  -2.292609e-25   1.474304e+05   5.441394e-48   0.000000e+00   0.000000e+00
     1760000   1.759999e-05   1.404947e+00   1.476144e+01   2.121466e+01   7.413296e+04   4.409945e+04   1.195628e+05   3.561118e-01  -5.986384e-01  -7.577578e-24   1.474304e+05   3.757753e-47   0.000000e+00   0.000000e+00
     1768000   1.767999e-05   1.410878e+00   1.476497e+01   2.122422e+01   7.413296e+04   4.409945e+04   1.195628e+05   3.055053e-01  -5.135668e-01   9.870489e-24   1.474304e+05   2.765640e-47   0.000000e+00   0.000000e+00
     1776000   1.775999e-05   1.416808e+00   1.476850e+01   2.123379e+01   7.413296e+04   4.409945e+04   1.195628e+05   2.548988e-01  -4.284953e-01  -5.480484e-24   1.474304e+05   1.925295e-47   0.000000e+00   0.000000e+00
     1784000   1.783999e-05   1.422739e+00   1.477203e+01   2.124335e+01   7.413296e+04   4.409945e+04   1.195628e+05   2.042923e-01  -3.434237e-01  -5.924363e-24   1.474304e+05   1.236719e-47   0.000000e+00   0.000000e+00
     1792000   1.791999e-05   1.428670e+00   1.477555e+01   2.125292e+01   7.413296e+04   4.409945e+04   1.195628e+05   1.536858e-01  -2.583521e-01  -4.064697e-25   1.474304e+05   6.999118e-48   0.000000e+00   0.000000e+00
     1800000   1.799999e-05   1.434600e+00   1.477908e+01   2.126248e+01   7.413296e+04   4.409945e+04   1.195628e+05   1.030793e-01  -1.732805e-01   2.129766e-24   1.474304e+05   3.148737e-48   0.000000e+00   0.000000e+00
     1808000   1.807999e-05   1.440531e+00   1.478261e+01   2.127205e+01   7.413296e+04   4.409945e+04   1.195628e+05   5.247280e-02  -8.820891e-02  -5.519010e-25   1.474304e+05   8.160434e-49   0.000000e+00   0.000000e+00
     1816000   1.815999e-05   1.446462e+00   1.478614e+01   2.128161e+01   7.413296e+04   4.409945e+04   1.195628e+05   1.866300e-03  -3.137326e-03   2.762154e-26   1.474304e+05   1.039063e-51   0.000000e+00   0.000000e+00
     1824000   1.823999e-05   1.452392e+00   1.478967e+01   2.129118e+01   7.413296e+04   4.409945e+04   1.195628e+05  -4.874020e-02   8.193426e-02  -6.973312e-25   1.474304e+05   7.037234e-49   0.000000e+00   0.000000e+00
     1832000   1.831999e-05   1.458323e+00   1.479319e+01   2.130074e+01   7.413296e+04   4.409945e+04   1.195628e+05  -3.469156e+00   5.831792e+00   9.079518e-23   1.474304e+05   3.565946e-45   0.000000e+00   0.000000e+00
     1840000   1.839999e-05   1.464254e+00   1.479672e+01   2.131031e+01   7.413296e+04   4.409945e+04   1.195628e+05  -3.881199e+00   6.524454e+00   1.086748e-22   1.474304e+05   4.463345e-45   0.000000e+00   0.000000e+00
     1848000   1.847999e-05   1.470184e+00   1.480025e+01   2.131987e+01   7.413296e+04   4.409945e+04   1.195628e+05  -1.292572e-01   2.172867e-01   4.554115e-25   1.474304e+05   4.954713e-48   0.000000e+00   0.000000e+00
     1856000   1.855999e-05   1.476115e+00   1.480378e+01   2.132944e+01   7.413296e+04   4.409945e+04   1.195628e+05   3.097905e-01  -5.207704e-01   1.275164e-24   1.474304e+05   2.842643e-47   0.000000e+00   0.000000e+00
     1864000   1.863999e-05   1.482045e+00   1.480731e+01   2.133900e+01   7.413296e+04   4.409945e+04   1.195628e+05   7.488382e-01  -1.258827e+00  -6.843555e-24   1.474304e+05   1.661317e-46   0.000000e+00   0.000000e+00
     1872000   1.871999e-05   1.487976e+00   1.481083e+01   2.134857e+01   7.413296e+04   4.409945e+04   1.195628e+05   1.187886e+00  -1.996885e+00   2.080246e-23   1.474304e+05   4.180704e-46   0.000000e+00   0.000000e+00
     1880000   1.879999e-05   1.493907e+00   1.481436e+01   2.135813e+01   7.413296e+04   4.409945e+04   1.195628e+05   1.626934e+00  -2.734942e+00  -1.118082e-23   1.474304e+05   7.842427e-46   0.000000e+00   0.000000e+00
     1888000   1.887999e-05   1.499837e+00   1.481789e+01   2.136770e+01   7.413296e+04   4.409945e+04   1.195628e+05   2.065981e+00  -3.472999e+00  -1.929637e-23   1.474304e+05   1.264648e-45   0.000000e+00   0.000000e+00
     1896000   1.895999e-05   1.505768e+00   1.482142e+01   2.137726e+01   7.413296e+04   4.409945e+04   1.195628e+05   1.153844e+00  -1.939658e+00  -1.419941e-23   1.474304e+05   3.944691e-46   0.000000e+00   0.000000e+00
     1904000   1.903999e-05   1.511699e+00   1.482495e+01   2.138683e+01   7.413296e+04   4.409945e+04   1.195628e+05   1.376709e+00  -2.314305e+00   2.358419e-23   1.474304e+05   5.615742e-46   0.000000e+00   0.000000e+00
     1912000   1.911999e-05   1.517629e+00   1.482847e+01   2.139639e+01   7.413296e+04   4.409945e+04   1.195628e+05   1.599575e+00  -2.688951e+00  -3.404245e-23   1.474304e+05   7.581138e-46   0.000000e+00   0.000000e+00
     1920000   1.919999e-05   1.523560e+00   1.483200e+01   2.140596e+01   7.413296e+04   4.409945e+04   1.195628e+05   9.291472e-01  -1.561934e+00   6.862570e-24   1.474304e+05   2.558107e-46   0.000000e+00   0.000000e+00
     1928000   1.927999e-05   1.529491e+00   1.483553e+01   2.141552e+01   7.413296e+04   4.409945e+04   1.195628e+05   8.465421e-01  -1.423072e+00   3.024257e-23   1.474304e+05   2.123478e-46   0.000000e+00   0.000000e+00
     1936000   1.935999e-05   1.535421e+00   1.483906e+01   2.142509e+01   7.413296e+04   4.409945e+04   1.195628e+05   7.639370e-01  -1.284209e+00   5.918114e-24   1.474304e+05   1.729287e-46   0.000000e+00   0.000000e+00
     1944000   1.943999e-05   1.541352e+00   1.484258e+01   2.143465e+01   7.413296e+04   4.409945e+04   1.195628e+05   6.813320e-01  -1.145347e+00  -1.839345e-23   1.474304e+05   1.375532e-46   0.000000e+00   0.000000e+00
     1952000   1.951999e-05   1.547282e+00   1.484611e+01   2.144422e+01   7.413296e+04   4.409945e+04   1.195628e+05   5.987269e-01  -1.006484e+00  -6.921100e-24   1.474304e+05   1.062215e-46   0.000000e+00   0.000000e+00
     1960000   1.959999e-05   1.553213e+00   1.484964e+01   2.145378e+01   7.413296e+04   4.409945e+04   1.195628e+05   5.161218e-01  -8.676218e-01  -7.378810e-24   1.474304e+05   7.893360e-47   0.000000e+00   0.000000e+00
     1968000   1.967999e-05   1.559144e+00   1.485317e+01   2.146335e+01   7.413296e+04   4.409945e+04   1.195628e+05   4.335168e-01  -7.287593e-01  -7.837835e-24   1.474304e+05   5.568940e-47   0.000000e+00   0.000000e+00
     1976000   1.975999e-05   1.565074e+00   1.485670e+01   2.147291e+01   7.413296e+04   4.409945e+04   1.195628e+05   3.509117e-01  -5.898968e-01  -8.298175e-24   1.474304e+05   3.648895e-47   0.000000e+00   0.000000e+00
     1984000   1.983999e-05   1.571005e+00   1.486022e+01   2.148248e+01   7.413296e+04   4.409945e+04   1.195628e+05   2.683066e-01  -4.510343e-01   1.851430e-25   1.474304e+05   2.133223e-47   0.000000e+00   0.000000e+00
     1992000   1.991999e-05   1.576936e+00   1.486375e+01   2.149204e+01   7.413296e+04   4.409945e+04   1.195628e+05   1.857015e-01  -3.121719e-01  -2.783768e-25   1.474304e+05   1.021926e-47   0.000000e+00   0.000000e+00
     2000000   1.999999e-05   1.582866e+00   1.486728e+01   2.150161e+01   7.413296e+04   4.409945e+04   1.195628e+05   2.512053e+00  -4.222863e+00   1.246402e-23   1.474304e+05   1.869769e-45   0.000000e+00   0.000000e+00
     2008000   2.007999e-05   1.588797e+00   1.487081e+01   2.151117e+01   7.413296e+04   4.409945e+04   1.195628e+05   2.734919e+00  -4.597510e+00   2.525288e-24   1.474304e+05   2.216257e-45   0.000000e+00   0.000000e+00
     2016000   2.015999e-05   1.594728e+00   1.487434e+01   2.152074e+01   7.413296e+04   4.409945e+04   1.195628e+05   2.957785e+00  -4.972156e+00   4.030429e-23   1.474304e+05   2.592179e-45   0.000000e+00   0.000000e+00
     2024000   2.023999e-05   1.600658e+00   1.487786e+01   2.153030e+01   7.413296e+04   4.409945e+04   1.195628e+05  -1.206444e+00   2.028081e+00   3.336648e-23   1.474304e+05   4.312368e-46   0.000000e+00   0.000000e+00
     2032000   2.031999e-05   1.606589e+00   1.488139e+01   2.153987e+01   7.413296e+04   4.409945e+04   1.195628e+05  -1.635713e+00   2.749700e+00  -1.007609e-23   1.474304e+05   7.927308e-46   0.000000e+00   0.000000e+00
     2040000   2.039999e-05   1.612519e+00   1.488492e+01   2.154943e+01   7.413296e+04   4.409945e+04   1.195628e+05  -2.064982e+00   3.471318e+00  -5.797801e-24   1.474304e+05   1.263426e-45   0.000000e+00   0.000000e+00
     2048000   2.047999e-05   1.618450e+00   1.488845e+01   2.155900e+01   7.413296e+04   4.409945e+04   1.195628e+05  -2.494251e+00   4.192937e+00  -1.546426e-24   1.474304e+05   1.843324e-45   0.000000e+00   0.000000e+00
     2056000   2.055999e-05   1.624381e+00   1.489198e+01   2.156856e+01   7.413296e+04   4.409945e+04   1.195628e+05  -2.923519e+00   4.914555e+00   2.699122e-24   1.474304e+05   2.532422e-45   0.000000e+00   0.000000e+00
     2064000   2.063999e-05   1.630311e+00   1.489550e+01   2.157813e+01   7.413296e+04   4.409945e+04   1.195628e+05  -3.352788e+00   5.636174e+00   5.467164e-23   1.474304e+05   3.330723e-45   0.000000e+00   0.000000e+00
     2072000   2.071999e-05   1.636242e+00   1.489903e+01   2.158769e+01   7.413296e+04   4.409945e+04   1.195628e+05  -3.782057e+00   6.357792e+00   5.893217e-23   1.474304e+05   4.238225e-45   0.000000e+00   0.000000e+00
     2080000   2.079999e-05   1.642173e+00   1.490256e+01   2.159726e+01   7.413296e+04   4.409945e+04   1.195628e+05  -1.376199e+00   2.313446e+00   1.760581e-23   1.474304e+05   5.611900e-46   0.000000e+00   0.000000e+00
     2088000   2.087999e-05   1.648103e+00   1.490609e+01   2.160682e+01   7.413296e+04   4.409945e+04   1.195628e+05  -8.241965e-01   1.385508e+00   1.810624e-23   1.474304e+05   2.012926e-46   0.000000e+00   0.000000e+00
     2096000   2.095999e-05   1.654034e+00   1.490962e+01   2.161639e+01   7.413296e+04   4.409945e+04   1.195628e+05  -6.257738e-01   1.051951e+00   7.390067e-24   1.474304e+05   1.160404e-46   0.000000e+00   0.000000e+00
     2104000   2.103999e-05   1.659965e+00   1.491314e+01   2.162595e+01   7.413296e+04   4.409945e+04   1.195628e+05  -4.273511e-01   7.183946e-01  -1.525028e-23   1.474304e+05   5.412030e-47   0.000000e+00   0.000000e+00
     2112000   2.111999e-05   1.665895e+00   1.491667e+01   2.163552e+01   7.413296e+04   4.409945e+04   1.195628e+05  -2.289284e-01   3.848380e-01  -2.113889e-24   1.474304e+05   1.553222e-47   0.000000e+00   0.000000e+00
     2120000   2.119999e-05   1.671826e+00   1.492020e+01   2.164508e+01   7.413296e+04   4.409945e+04   1.195628e+05  -3.050572e-02   5.128136e-02  -1.621019e-25   1.474304e+05   2.761904e-49   0.000000e+00   0.000000e+00
     2128000   2.127999e-05   1.677756e+00   1.492373e+01   2.165465e+01   7.413296e+04   4.409945e+04   1.195628e+05   1.679170e-01  -2.822753e-01   2.987411e-25   1.474304e+05   8.352203e-48   0.000000e+00   0.000000e+00
     2136000   2.135999e-05   1.683687e+00   1.492726e+01   2.166421e+01   7.413296e+04   4.409945e+04   1.195628e+05   3.663397e-01  -6.158319e-01   7.470518e-24   1.474304e+05   3.976026e-47   0.000000e+00   0.000000e+00
     2144000   2.143999e-05   1.689618e+00   1.493078e+01   2.167378e+01   7.413296e+04   4.409945e+04   1.195628e+05   5.647624e-01  -9.493886e-01   2.719149e-24   1.474304e+05   9.450037e-47   0.000000e+00   0.000000e+00
     2152000   2.151999e-05   1.695548e+00   1.493431e+01   2.168334e+01   7.413296e+04   4.409945e+04   1.195628e+05   7.631851e-01  -1.282945e+00  -1.991941e-23   1.474304e+05   1.725725e-46   0.000000e+00   0.000000e+00
     2160000   2.159999e-05   1.701479e+00   1.493784e+01   2.169291e+01   7.413296e+04   4.409945e+04   1.195628e+05   4.592390e-02  -7.719995e-02  -4.905808e-25   1.474304e+05   6.248586e-49   0.000000e+00   0.000000e+00
     2168000   2.167999e-05   1.707410e+00   1.494137e+01   2.170248e+01   7.413296e+04   4.409945e+04   1.195628e+05   4.460650e-01  -7.498534e-01  -1.993145e-24   1.474304e+05   5.894876e-47   0.000000e+00   0.000000e+00
     2176000   2.175999e-05   1.713340e+00   1.494490e+01   2.171204e+01   7.413296e+04   4.409945e+04   1.195628e+05   6.993911e-01  -1.175705e+00   3.922375e-24   1.474304e+05   1.449242e-46   0.000000e+00   0.000000e+00
     2184000   2.183999e-05   1.719271e+00   1.494842e+01   2.172161e+01   7.413296e+04   4.409945e+04   1.195628e+05   9.527172e-01  -1.601556e+00   3.861441e-24   1.474304e+05   2.689300e-46   0.000000e+00   0.000000e+00
     2192000   2.191999e-05   1.725202e+00   1.495195e+01   2.173117e+01   7.413296e+04   4.409945e+04   1.195628e+05   1.206043e+00  -2.027408e+00  -2.005660e-23   1.474304e+05   4.309661e-46   0.000000e+00   0.000000e+00
     2200000   2.199999e-05   1.731132e+00   1.495548e+01   2.174074e+01   7.413296e+04   4.409945e+04   1.195628e+05   1.459369e+00  -2.453259e+00  -4.397307e-23   1.474304e+05   6.310325e-46   0.000000e+00   0.000000e+00
     2208000   2.207999e-05   1.737063e+00   1.495901e+01   2.175030e+01   7.413296e+04   4.409945e+04   1.195628e+05   1.712695e+00  -2.879111e+00  -4.402792e-23   1.474304e+05   8.691292e-46   0.000000e+00   0.000000e+00
     2216000   2.215999e-05   1.742993e+00   1.496254e+01   2.175987e+01   7.413296e+04   4.409945e+04   1.195628e+05   1.966022e+00  -3.304962e+00  -4.407736e-23   1.474304e+05   1.145256e-45   0.000000e+00   0.000000e+00
     2224000   2.223999e-05   1.748924e+00   1.496606e+01   2.176943e+01   7.413296e+04   4.409945e+04   1.195628e+05   2.219348e+00  -3.730814e+00   3.589050e-24   1.474304e+05   1.459414e-45   0.000000e+00   0.000000e+00
     2232000   2.231999e-05   1.754855e+00   1.496959e+01   2.177900e+01   7.413296e+04   4.409945e+04   1.195628e+05   2.472674e+00  -4.156665e+00   3.499672e-24   1.474304e+05   1.811601e-45   0.000000e+00   0.000000e+00
     2240000   2.239999e-05   1.760785e+00   1.497312e+01   2.178856e+01   7.413296e+04   4.409945e+04   1.195628e+05   2.726000e+00  -4.582517e+00   3.416945e-24   1.474304e+05   2.201819e-45   0.000000e+00   0.000000e+00
     2248000   2.247999e-05   1.766716e+00   1.497665e+01   2.179813e+01   7.413296e+04   4.409945e+04   1.195628e+05   2.979326e+00  -5.008368e+00   3.345155e-24   1.474304e+05   2.630068e-45   0.000000e+00   0.000000e+00
     2256000   2.255999e-05   1.772647e+00   1.498018e+01   2.180769e+01   7.413296e+04   4.409945e+04   1.195628e+05   1.437290e+00  -2.416142e+00   2.787745e-23   1.474304e+05   6.121072e-46   0.000000e+00   0.000000e+00
     2264000   2.263999e-05   1.778577e+00   1.498370e+01   2.181726e+01   7.413296e+04   4.409945e+04   1.195628e+05   1.452473e+00  -2.441667e+00  -2.702629e-23   1.474304e+05   6.251083e-46   0.000000e+00   0.000000e+00
     2272000   2.271999e-05   1.784508e+00   1.498723e+01   2.182682e+01   7.413296e+04   4.409945e+04   1.195628e+05   1.467657e+00  -2.467191e+00   1.348288e-23   1.474304e+05   6.382461e-46   0.000000e+00   0.000000e+00
     2280000   2.279999e-05   1.790439e+00   1.499076e+01   2.183639e+01   7.413296e+04   4.409945e+04   1.195628e+05   1.482841e+00  -2.492716e+00   5.399192e-23   1.474304e+05   6.515204e-46   0.000000e+00   0.000000e+00
     2288000   2.287999e-05   1.796369e+00   1.499429e+01   2.184595e+01   7.413296e+04   4.409945e+04   1.195628e+05   1.498024e+00  -2.518240e+00  -2.476551e-23   1.474304e+05   6.649314e-46   0.000000e+00   0.000000e+00
     2296000   2.295999e-05   1.802300e+00   1.499781e+01   2.185552e+01   7.413296e+04   4.409945e+04   1.195628e+05  -4.118769e-01   6.923819e-01   5.124944e-24   1.474304e+05   5.026925e-47   0.000000e+00   0.000000e+00
     2304000   2.303999e-05   1.808230e+00   1.500134e+01   2.186508e+01   7.413296e+04   4.409945e+04   1.195628e+05  -4.416927e-01   7.425034e-01   5.842186e-25   1.474304e+05   5.781649e-47   0.000000e+00   0.000000e+00
     2312000   2.311999e-05   1.814161e+00   1.500487e+01   2.187465e+01   7.413296e+04   4.409945e+04   1.195628e+05  -1.523993e-01   2.561894e-01  -2.436344e-24   1.474304e+05   6.885126e-48   0.000000e+00   0.000000e+00
     2320000   2.319999e-05   1.820092e+00   1.500840e+01   2.188421e+01   7.413296e+04   4.409945e+04   1.195628e+05   1.368942e-01  -2.301247e-01  -2.477986e-24   1.474304e+05   5.549843e-48   0.000000e+00   0.000000e+00
     2328000   2.327999e-05   1.826022e+00   1.501193e+01   2.189378e+01   7.413296e+04   4.409945e+04   1.195628e+05   4.261876e-01  -7.164388e-01  -5.498826e-24   1.474304e+05   5.381063e-47   0.000000e+00   0.000000e+00
     2336000   2.335999e-05   1.831953e+00   1.501545e+01   2.190334e+01   7.413296e+04   4.409945e+04   1.195628e+05   1.202125e-01  -2.020821e-01  -2.179505e-24   1.474304e+05   4.281382e-48   0.000000e+00   0.000000e+00
     2344000   2.343999e-05   1.837884e+00   1.501898e+01   2.191291e+01   7.413296e+04   4.409945e+04   1.195628e+05   1.814549e-01  -3.050331e-01  -2.943862e-24   1.474304e+05   9.755307e-48   0.000000e+00   0.000000e+00
     2352000   2.351999e-05   1.843814e+00   1.502251e+01   2.192247e+01   7.413296e+04   4.409945e+04   1.195628e+05   2.426973e-01  -4.079841e-01  -7.257323e-25   1.474304e+05   1.745190e-47   0.000000e+00   0.000000e+00
     2360000   2.359999e-05   1.849745e+00   1.502604e+01   2.193204e+01   7.413296e+04   4.409945e+04   1.195628e+05   3.039398e-01  -5.109351e-01   1.494197e-24   1.474304e+05   2.737116e-47   0.000000e+00   0.000000e+00
     2368000   2.367999e-05   1.855676e+00   1.502957e+01   2.194160e+01   7.413296e+04   4.409945e+04   1.195628e+05   3.651822e-01  -6.138861e-01  -8.211531e-24   1.474304e+05   3.951310e-47   0.000000e+00   0.000000e+00
     2376000   2.375999e-05   1.861606e+00   1.503309e+01   2.195117e+01   7.413296e+04   4.409945e+04   1.195628e+05   4.264246e-01  -7.168371e-01  -5.989651e-24   1.474304e+05   5.387770e-47   0.000000e+00   0.000000e+00
     2384000   2.383999e-05   1.867537e+00   1.503662e+01   2.196073e+01   7.413296e+04   4.409945e+04   1.195628e+05   4.876670e-01  -8.197881e-01  -3.766798e-24   1.474304e+05   7.046497e-47   0.000000e+00   0.000000e+00
     2392000   2.391999e-05   1.873467e+00   1.504015e+01   2.197030e+01   7.413296e+04   4.409945e+04   1.195628e+05   5.489094e-01  -9.227391e-01  -1.346960e-23   1.474304e+05   8.927491e-47   0.000000e+00   0.000000e+00
     2400000   2.399999e-05   1.879398e+00   1.504368e+01   2.197986e+01   7.413296e+04   4.409945e+04   1.195628e+05   6.101519e-01  -1.025690e+00   6.818353e-25   1.474304e+05   1.103075e-46   0.000000e+00   0.000000e+00
     2408000   2.407999e-05   1.885329e+00   1.504721e+01   2.198943e+01   7.413296e+04   4.409945e+04   1.195628e+05   6.713943e-01  -1.128641e+00  -9.017084e-24   1.474304e+05   1.335628e-46   0.000000e+00   0.000000e+00
     2416000   2.415999e-05   1.891259e+00   1.505073e+01   2.199899e+01   7.413296e+04   4.409945e+04   1.195628e+05   7.326367e-01  -1.231592e+00  -6.786034e-24   1.474304e+05   1.590407e-46   0.000000e+00   0.000000e+00
     2424000   2.423999e-05   1.897190e+00   1.505426e+01   2.200856e+01   7.413296e+04   4.409945e+04   1.195628e+05   2.663020e+00  -4.476646e+00  -1.889603e-23   1.474304e+05   2.101248e-45   0.000000e+00   0.000000e+00
     2432000   2.431999e-05   1.903121e+00   1.505779e+01   2.201812e+01   7.413296e+04   4.409945e+04   1.195628e+05   1.469871e+00  -2.470912e+00   3.454281e-23   1.474304e+05   6.401864e-46   0.000000e+00   0.000000e+00
     2440000   2.439999e-05   1.909051e+00   1.506132e+01   2.202769e+01   7.413296e+04   4.409945e+04   1.195628e+05   1.358713e+00  -2.284053e+00   1.819523e-23   1.474304e+05   5.470220e-46   0.000000e+00   0.000000e+00
     2448000   2.447999e-05   1.914982e+00   1.506485e+01   2.203725e+01   7.413296e+04   4.409945e+04   1.195628e+05   1.247556e+00  -2.097193e+00   2.570193e-23   1.474304e+05   4.611797e-46   0.000000e+00   0.000000e+00
     2456000   2.455999e-05   1.920913e+00   1.506837e+01   2.204682e+01   7.413296e+04   4.409945e+04   1.195628e+05   1.136399e+00  -1.910334e+00   3.320964e-23   1.474304e+05   3.826597e-46   0.000000e+00   0.000000e+00
     2464000   2.463999e-05   1.926843e+00   1.507190e+01   2.205638e+01   7.413296e+04   4.409945e+04   1.195628e+05   1.025242e+00  -1.723474e+00  -1.891899e-23   1.474304e+05   3.114619e-46   0.000000e+00   0.000000e+00
     2472000   2.471999e-05   1.932774e+00   1.507543e+01   2.206595e+01   7.413296e+04   4.409945e+04   1.195628e+05   9.140853e-01  -1.536615e+00   1.243717e-23   1.474304e+05   2.475864e-46   0.000000e+00   0.000000e+00
     2480000   2.479999e-05   1.938704e+00   1.507896e+01   2.207551e+01   7.413296e+04   4.409945e+04   1.195628e+05   8.029283e-01  -1.349755e+00  -2.776369e-23   1.474304e+05   1.910331e-46   0.000000e+00   0.000000e+00
     2488000   2.487999e-05   1.944635e+00   1.508249e+01   2.208508e+01   7.413296e+04   4.409945e+04   1.195628e+05   6.917713e-01  -1.162896e+00  -8.322275e-24   1.474304e+05   1.418021e-46   0.000000e+00   0.000000e+00
     2496000   2.495999e-05   1.950566e+00   1.508601e+01   2.209464e+01   7.413296e+04   4.409945e+04   1.195628e+05   5.806142e-01  -9.760362e-01  -7.984271e-25   1.474304e+05   9.989327e-47   0.000000e+00   0.000000e+00
     2504000   2.503999e-05   1.956496e+00   1.508954e+01   2.210421e+01   7.413296e+04   4.409945e+04   1.195628e+05   1.075265e+00  -1.807565e+00  -1.103921e-23   1.474304e+05   3.425869e-46   0.000000e+00   0.000000e+00
     2512000   2.511999e-05   1.962427e+00   1.509307e+01   2.211377e+01   7.413296e+04   4.409945e+04   1.195628e+05   1.082194e+00  -1.819211e+00  -4.225682e-23   1.474304e+05   3.470158e-46   0.000000e+00   0.000000e+00
     2520000   2.519999e-05   1.968358e+00   1.509660e+01   2.212334e+01   7.413296e+04   4.409945e+04   1.195628e+05   1.089122e+00  -1.830858e+00  -1.906302e-24   1.474304e+05   3.514732e-46   0.000000e+00   0.000000e+00
     2528000   2.527999e-05   1.974288e+00   1.510013e+01   2.213290e+01   7.413296e+04   4.409945e+04   1.195628e+05   1.251319e-01  -2.103519e-01  -4.212084e-24   1.474304e+05   4.642080e-48   0.000000e+00   0.000000e+00
     2536000   2.535999e-05   1.980219e+00   1.510365e+01   2.214247e+01   7.413296e+04   4.409945e+04   1.195628e+05  -1.470690e-01   2.472290e-01   7.879500e-24   1.474304e+05   6.405918e-48   0.000000e+00   0.000000e+00
     2544000   2.543999e-05   1.986150e+00   1.510718e+01   2.215203e+01   7.413296e+04   4.409945e+04   1.195628e+05  -4.192699e-01   7.048098e-01   5.927944e-25   1.474304e+05   5.207833e-47   0.000000e+00   0.000000e+00
     2552000   2.551999e-05   1.992080e+00   1.511071e+01   2.216160e+01   7.413296e+04   4.409945e+04   1.195628e+05  -6.914709e-01   1.162391e+00   2.256546e-24   1.474304e+05   1.416593e-46   0.000000e+00   0.000000e+00
     2560000   2.559999e-05   1.998011e+00   1.511424e+01   2.217116e+01   7.413296e+04   4.409945e+04   1.195628e+05  -9.636718e-01   1.619972e+00   1.583467e-23   1.474304e+05   2.751489e-46   0.000000e+00   0.000000e+00
     2568000   2.567999e-05   2.003941e+00   1.511777e+01   2.218073e+01   7.413296e+04   4.409945e+04   1.195628e+05  -1.270827e+00   2.136311e+00  -7.869761e-24   1.474304e+05   4.785266e-46   0.000000e+00   0.000000e+00
     2576000   2.575999e-05   2.009872e+00   1.512129e+01   2.219029e+01   7.413296e+04   4.409945e+04   1.195628e+05  -1.348263e+00   2.266485e+00   5.187067e-23   1.474304e+05   5.386207e-46   0.000000e+00   0.000000e+00
     2584000   2.583999e-05   2.015803e+00   1.512482e+01   2.219986e+01   7.413296e+04   4.409945e+04   1.195628e+05  -1.425699e+00   2.396658e+00   1.619735e-23   1.474304e+05   6.022683e-46   0.000000e+00   0.000000e+00
     2592000   2.591999e-05   2.021733e+00   1.512835e+01   2.220942e+01   7.413296e+04   4.409945e+04   1.195628e+05  -5.387336e-01   9.056331e-01   1.220184e-23   1.474304e+05   8.600886e-47   0.000000e+00   0.000000e+00
     2600000   2.599999e-05   2.027664e+00   1.513188e+01   2.221899e+01   7.413296e+04   4.409945e+04   1.195628e+05  -2.660943e-01   4.473154e-01  -6.453115e-25   1.474304e+05   2.098566e-47   0.000000e+00   0.000000e+00
     2608000   2.607999e-05   2.033595e+00   1.513541e+01   2.222855e+01   7.413296e+04   4.409945e+04   1.195628e+05   6.544948e-03  -1.100232e-02   1.387855e-26   1.474304e+05   1.256082e-50   0.000000e+00   0.000000e+00
     2616000   2.615999e-05   2.039525e+00   1.513893e+01   2.223812e+01   7.413296e+04   4.409945e+04   1.195628e+05   2.791842e-01  -4.693200e-01  -8.458134e-24   1.474304e+05   2.308957e-47   0.000000e+00   0.000000e+00
     2624000   2.623999e-05   2.045456e+00   1.514246e+01   2.224768e+01   7.413296e+04   4.409945e+04   1.195628e+05   5.518235e-01  -9.276378e-01   2.043813e-23   1.474304e+05   9.021668e-47   0.000000e+00   0.000000e+00
     2632000   2.631999e-05   2.051387e+00   1.514599e+01   2.225725e+01   7.413296e+04   4.409945e+04   1.195628e+05   8.244628e-01  -1.385955e+00  -1.029852e-23   1.474304e+05   2.013939e-46   0.000000e+00   0.000000e+00
     2640000   2.639999e-05   2.057317e+00   1.514952e+01   2.226681e+01   7.413296e+04   4.409945e+04   1.195628e+05   1.097102e+00  -1.844273e+00   6.656489e-24   1.474304e+05   3.566212e-46   0.000000e+00   0.000000e+00
     2648000   2.647999e-05   2.063248e+00   1.515304e+01   2.227638e+01   7.413296e+04   4.409945e+04   1.195628e+05   1.369741e+00  -2.302591e+00   2.361522e-23   1.474304e+05   5.558986e-46   0.000000e+00   0.000000e+00
     2656000   2.655999e-05   2.069178e+00   1.515657e+01   2.228594e+01   7.413296e+04   4.409945e+04   1.195628e+05   1.642381e+00  -2.760909e+00   1.672434e-23   1.474304e+05   7.992262e-46   0.000000e+00   0.000000e+00
     2664000   2.663999e-05   2.075109e+00   1.516010e+01   2.229551e+01   7.413296e+04   4.409945e+04   1.195628e+05   1.915020e+00  -3.219226e+00  -6.171866e-23   1.474304e+05   1.086604e-45   0.000000e+00   0.000000e+00
     2672000   2.671999e-05   2.081040e+00   1.516363e+01   2.230507e+01   7.413296e+04   4.409945e+04   1.195628e+05   9.750822e-02  -1.639153e-01   4.948782e-25   1.474304e+05   2.817791e-48   0.000000e+00   0.000000e+00
     2680000   2.679999e-05   2.086970e+00   1.516716e+01   2.231464e+01   7.413296e+04   4.409945e+04   1.195628e+05   2.007189e-02  -3.374166e-02   2.356487e-25   1.474304e+05   1.194910e-49   0.000000e+00   0.000000e+00
     2688000   2.687999e-05   2.092901e+00   1.517068e+01   2.232420e+01   7.413296e+04   4.409945e+04   1.195628e+05  -5.736444e-02   9.643196e-02  -7.689960e-25   1.474304e+05   9.747182e-49   0.000000e+00   0.000000e+00
     2696000   2.695999e-05   2.098832e+00   1.517421e+01   2.233377e+01   7.413296e+04   4.409945e+04   1.195628e+05  -1.348008e-01   2.266056e-01   2.326140e-24   1.474304e+05   5.383472e-48   0.000000e+00   0.000000e+00
     2704000   2.703999e-05   2.104762e+00   1.517774e+01   2.234333e+01   7.413296e+04   4.409945e+04   1.195628e+05   4.449117e-01  -7.479147e-01  -1.523799e-24   1.474304e+05   5.865481e-47   0.000000e+00   0.000000e+00
     2712000   2.711999e-05   2.110693e+00   1.518127e+01   2.235290e+01   7.413296e+04   4.409945e+04   1.195628e+05   3.799330e-01  -6.386828e-01  -7.535616e-25   1.474304e+05   4.277329e-47   0.000000e+00   0.000000e+00
     2720000   2.719999e-05   2.116624e+00   1.518480e+01   2.236246e+01   7.413296e+04   4.409945e+04   1.195628e+05   3.149542e-01  -5.294509e-01   1.564297e-26   1.474304e+05   2.939391e-47   0.000000e+00   0.000000e+00
     2728000   2.727999e-05   2.122554e+00   1.518832e+01   2.237203e+01   7.413296e+04   4.409945e+04   1.195628e+05   2.499755e-01  -4.202189e-01  -2.197846e-24   1.474304e+05   1.851668e-47   0.000000e+00   0.000000e+00
     2736000   2.735999e-05   2.128485e+00   1.519185e+01   2.238159e+01   7.413296e+04   4.409945e+04   1.195628e+05   1.849967e-01  -3.109870e-01   1.550235e-24   1.474304e+05   1.014160e-47   0.000000e+00   0.000000e+00
     2744000   2.743999e-05   2.134415e+00   1.519538e+01   2.239116e+01   7.413296e+04   4.409945e+04   1.195628e+05   1.200180e-01  -2.017551e-01   8.248015e-25   1.474304e+05   4.268659e-48   0.000000e+00   0.000000e+00
     2752000   2.751999e-05   2.140346e+00   1.519891e+01   2.240072e+01   7.413296e+04   4.409945e+04   1.195628e+05   2.358109e+00  -3.964077e+00   1.316996e-23   1.474304e+05   1.647647e-45   0.000000e+00   0.000000e+00
     2760000   2.759999e-05   2.146277e+00   1.520244e+01   2.241029e+01   7.413296e+04   4.409945e+04   1.195628e+05   1.200240e+00  -2.017653e+00   2.729259e-24   1.474304e+05   4.268919e-46   0.000000e+00   0.000000e+00
     2768000   2.767999e-05   2.152207e+00   1.520596e+01   2.241985e+01   7.413296e+04   4.409945e+04   1.195628e+05   7.437113e-01  -1.250209e+00  -2.959521e-24   1.474304e+05   1.639138e-46   0.000000e+00   0.000000e+00
     2776000   2.775999e-05   2.158138e+00   1.520949e+01   2.242942e+01   7.413296e+04   4.409945e+04   1.195628e+05   2.871821e-01  -4.827649e-01  -2.669999e-24   1.474304e+05   2.444711e-47   0.000000e+00   0.000000e+00
     2784000   2.783999e-05   2.164069e+00   1.521302e+01   2.243898e+01   7.413296e+04   4.409945e+04   1.195628e+05  -1.693470e-01   2.846792e-01   3.576233e-24   1.474304e+05   8.491853e-48   0.000000e+00   0.000000e+00
     2792000   2.791999e-05   2.169999e+00   1.521655e+01   2.244855e+01   7.413296e+04   4.409945e+04   1.195628e+05  -6.258762e-01   1.052123e+00   1.578990e-23   1.474304e+05   1.160480e-46   0.000000e+00   0.000000e+00
     2800000   2.799999e-05   2.175930e+00   1.522008e+01   2.245811e+01   7.413296e+04   4.409945e+04   1.195628e+05  -1.082405e+00   1.819567e+00  -1.821331e-24   1.474304e+05   3.471156e-46   0.000000e+00   0.000000e+00
     2808000   2.807999e-05   2.181861e+00   1.522360e+01   2.246768e+01   7.413296e+04   4.409945e+04   1.195628e+05  -1.538934e+00   2.587012e+00   1.634512e-23   1.474304e+05   7.016946e-46   0.000000e+00   0.000000e+00
     2816000   2.815999e-05   2.187791e+00   1.522713e+01   2.247724e+01   7.413296e+04   4.409945e+04   1.195628e+05  -1.995464e+00   3.354456e+00  -1.255386e-24   1.474304e+05   1.179785e-45   0.000000e+00   0.000000e+00
     2824000   2.823999e-05   2.193722e+00   1.523066e+01   2.248681e+01   7.413296e+04   4.409945e+04   1.195628e+05  -2.451993e+00   4.121900e+00   4.980728e-24   1.474304e+05   1.781387e-45   0.000000e+00   0.000000e+00
     2832000   2.831999e-05   2.199653e+00   1.523419e+01   2.249637e+01   7.413296e+04   4.409945e+04   1.195628e+05  -2.908522e+00   4.889344e+00   5.891006e-23   1.474304e+05   2.506500e-45   0.000000e+00   0.000000e+00
     2840000   2.839999e-05   2.205583e+00   1.523772e+01   2.250594e+01   7.413296e+04   4.409945e+04   1.195628e+05   8.896643e-01  -1.495562e+00   7.336440e-24   1.474304e+05   2.345395e-46   0.000000e+00   0.000000e+00
     2848000   2.847999e-05   2.211514e+00   1.524124e+01   2.251550e+01   7.413296e+04   4.409945e+04   1.195628e+05   6.961842e-01  -1.170314e+00  -6.105453e-24   1.474304e+05   1.436212e-46   0.000000e+00   0.000000e+00
     2856000   2.855999e-05   2.217444e+00   1.524477e+01   2.252507e+01   7.413296e+04   4.409945e+04   1.195628e+05   5.027041e-01  -8.450660e-01   4.317899e-24   1.474304e+05   7.488705e-47   0.000000e+00   0.000000e+00
     2864000   2.863999e-05   2.223375e+00   1.524830e+01   2.253463e+01   7.413296e+04   4.409945e+04   1.195628e+05   3.092240e-01  -5.198181e-01   2.810196e-24   1.474304e+05   2.833703e-47   0.000000e+00   0.000000e+00
     2872000   2.871999e-05   2.229306e+00   1.525183e+01   2.254420e+01   7.413296e+04   4.409945e+04   1.195628e+05   1.157438e-01  -1.945701e-01  -1.682724e-24   1.474304e+05   3.971159e-48   0.000000e+00   0.000000e+00
     2880000   2.879999e-05   2.235236e+00   1.525536e+01   2.255376e+01   7.413296e+04   4.409945e+04   1.195628e+05  -7.773629e-02   1.306779e-01  -1.704339e-24   1.474304e+05   1.789441e-48   0.000000e+00   0.000000e+00
     2888000   2.887999e-05   2.241167e+00   1.525888e+01   2.256333e+01   7.413296e+04   4.409945e+04   1.195628e+05  -2.712164e-01   4.559258e-01  -4.707000e-24   1.474304e+05   2.179188e-47   0.000000e+00   0.000000e+00
     2896000   2.895999e-05   2.247098e+00   1.526241e+01   2.257289e+01   7.413296e+04   4.409945e+04   1.195628e+05  -4.646965e-01   7.811738e-01   8.692981e-24   1.474304e+05   6.397846e-47   0.000000e+00   0.000000e+00
     2904000   2.903999e-05   2.253028e+00   1.526594e+01   2.258246e+01   7.413296e+04   4.409945e+04   1.195628e+05  -6.581767e-01   1.106422e+00  -4.738639e-24   1.474304e+05   1.283492e-46   0.000000e+00   0.000000e+00
     2912000   2.911999e-05   2.258959e+00   1.526947e+01   2.259202e+01   7.413296e+04   4.409945e+04   1.195628e+05  -8.516568e-01   1.431670e+00   5.677182e-24   1.474304e+05   2.149041e-46   0.000000e+00   0.000000e+00
     2920000   2.919999e-05   2.264890e+00   1.527300e+01   2.260159e+01   7.413296e+04   4.409945e+04   1.195628e+05  -7.038352e-01   1.183176e+00   3.046744e-24   1.474304e+05   1.467867e-46   0.000000e+00   0.000000e+00
     2928000   2.927999e-05   2.270820e+00   1.527652e+01   2.261115e+01   7.413296e+04   4.409945e+04   1.195628e+05  -6.744039e-01   1.133700e+00  -2.380996e-23   1.474304e+05   1.347675e-46   0.000000e+00   0.000000e+00
     2936000   2.935999e-05   2.276751e+00   1.528005e+01   2.262072e+01   7.413296e+04   4.409945e+04   1.195628e+05  -6.449727e-01   1.084225e+00   8.964807e-24   1.474304e+05   1.232616e-46   0.000000e+00   0.000000e+00
     2944000   2.943999e-05   2.282681e+00   1.528358e+01   2.263028e+01   7.413296e+04   4.409945e+04   1.195628e+05  -6.155414e-01   1.034750e+00  -5.972009e-24   1.474304e+05   1.122690e-46   0.000000e+00   0.000000e+00
     2952000   2.951999e-05   2.288612e+00   1.528711e+01   2.263985e+01   7.413296e+04   4.409945e+04   1.195628e+05  -5.861101e-01   9.852750e-01   1.487060e-23   1.474304e+05   1.017897e-46   0.000000e+00   0.000000e+00
     2960000   2.959999e-05   2.294543e+00   1.529064e+01   2.264941e+01   7.413296e+04   4.409945e+04   1.195628e+05  -5.566789e-01   9.357999e-01  -6.714927e-26   1.474304e+05   9.182381e-47   0.000000e+00   0.000000e+00
     2968000   2.967999e-05   2.300473e+00   1.529416e+01   2.265898e+01   7.413296e+04   4.409945e+04   1.195628e+05   5.925331e-01  -9.960723e-01  -6.377079e-24   1.474304e+05   1.040218e-46   0.000000e+00   0.000000e+00
     2976000   2.975999e-05   2.306404e+00   1.529769e+01   2.266854e+01   7.413296e+04   4.409945e+04   1.195628e+05   8.170267e-01  -1.373455e+00  -2.688846e-23   1.474304e+05   1.977802e-46   0.000000e+00   0.000000e+00
     2984000   2.983999e-05   2.312335e+00   1.530122e+01   2.267811e+01   7.413296e+04   4.409945e+04   1.195628e+05   2.403701e-02  -4.040720e-02  -4.503873e-25   1.474304e+05   1.709614e-49   0.000000e+00   0.000000e+00
     2992000   2.991999e-05   2.318265e+00   1.530475e+01   2.268767e+01   7.413296e+04   4.409945e+04   1.195628e+05   1.575129e-01  -2.647856e-01  -1.845242e-24   1.474304e+05   7.349882e-48   0.000000e+00   0.000000e+00
     3000000   2.999999e-05   2.324196e+00   1.530827e+01   2.269724e+01   7.413296e+04   4.409945e+04   1.195628e+05   2.909888e-01  -4.891640e-01  -5.847754e-24   1.474304e+05   2.508666e-47   0.000000e+00   0.000000e+00
     3008000   3.007999e-05   2.330127e+00   1.531180e+01   2.270680e+01   7.413296e+04   4.409945e+04   1.195628e+05   5.925626e-01  -9.961218e-01   2.720706e-24   1.474304e+05   1.040335e-46   0.000000e+00   0.000000e+00
     3016000   3.015999e-05   2.336057e+00   1.531533e+01   2.271637e+01   7.413296e+04   4.409945e+04   1.195628e+05   7.858272e-01  -1.321008e+00  -1.823069e-23   1.474304e+05   1.829648e-46   0.000000e+00   0.000000e+00
     3024000   3.023999e-05   2.341988e+00   1.531886e+01   2.272593e+01   7.413296e+04   4.409945e+04   1.195628e+05   9.790919e-01  -1.645893e+00  -1.534403e-23   1.474304e+05   2.840309e-46   0.000000e+00   0.000000e+00
     3032000   3.031999e-05   2.347918e+00   1.532239e+01   2.273550e+01   7.413296e+04   4.409945e+04   1.195628e+05   1.172357e+00  -1.970779e+00  -5.312014e-25   1.474304e+05   4.072317e-46   0.000000e+00   0.000000e+00
     3040000   3.039999e-05   2.353849e+00   1.532591e+01   2.274506e+01   7.413296e+04   4.409945e+04   1.195628e+05   1.365621e+00  -2.295665e+00   2.357393e-24   1.474304e+05   5.525674e-46   0.000000e+00   0.000000e+00
     3048000   3.047999e-05   2.359780e+00   1.532944e+01   2.275463e+01   7.413296e+04   4.409945e+04   1.195628e+05   1.558886e+00  -2.620551e+00   2.910032e-23   1.474304e+05   7.200377e-46   0.000000e+00   0.000000e+00
     3056000   3.055999e-05   2.365710e+00   1.533297e+01   2.276419e+01   7.413296e+04   4.409945e+04   1.195628e+05   1.752150e+00  -2.945436e+00  -6.341334e-23   1.474304e+05   9.096429e-46   0.000000e+00   0.000000e+00
     3064000   3.063999e-05   2.371641e+00   1.533650e+01   2.277376e+01   7.413296e+04   4.409945e+04   1.195628e+05   1.945415e+00  -3.270322e+00  -1.280610e-23   1.474304e+05   1.121383e-45   0.000000e+00   0.000000e+00
     3072000   3.071999e-05   2.377572e+00   1.534003e+01   2.278332e+01   7.413296e+04   4.409945e+04   1.195628e+05   2.138680e+00  -3.595208e+00   1.396602e-23   1.474304e+05   1.355257e-45   0.000000e+00   0.000000e+00
     3080000   3.079999e-05   2.383502e+00   1.534355e+01   2.279289e+01   7.413296e+04   4.409945e+04   1.195628e+05   2.331944e+00  -3.920094e+00   4.069161e-23   1.474304e+05   1.611267e-45   0.000000e+00   0.000000e+00
     3088000   3.087999e-05   2.389433e+00   1.534708e+01   2.280245e+01   7.413296e+04   4.409945e+04   1.195628e+05   2.034905e+00  -3.420758e+00  -2.988509e-23   1.474304e+05   1.226934e-45   0.000000e+00   0.000000e+00
     3096000   3.095999e-05   2.395364e+00   1.535061e+01   2.281202e+01   7.413296e+04   4.409945e+04   1.195628e+05   2.168381e+00  -3.645136e+00   2.874937e-23   1.474304e+05   1.393171e-45   0.000000e+00   0.000000e+00
     3104000   3.103999e-05   2.401294e+00   1.535414e+01   2.282158e+01   7.413296e+04   4.409945e+04   1.195628e+05   1.367013e+00  -2.298004e+00   4.684837e-24   1.474304e+05   5.537206e-46   0.000000e+00   0.000000e+00
     3112000   3.111999e-05   2.407225e+00   1.535767e+01   2.283115e+01   7.413296e+04   4.409945e+04   1.195628e+05   1.297480e+00  -2.181117e+00   1.371530e-23   1.474304e+05   4.988241e-46   0.000000e+00   0.000000e+00
     3120000   3.119999e-05   2.413155e+00   1.536119e+01   2.284071e+01   7.413296e+04   4.409945e+04   1.195628e+05   1.227948e+00  -2.064230e+00  -2.496014e-23   1.474304e+05   4.467927e-46   0.000000e+00   0.000000e+00
     3128000   3.127999e-05   2.419086e+00   1.536472e+01   2.285028e+01   7.413296e+04   4.409945e+04   1.195628e+05   1.158415e+00  -1.947344e+00   3.177810e-23   1.474304e+05   3.976265e-46   0.000000e+00   0.000000e+00
     3136000   3.135999e-05   2.425017e+00   1.536825e+01   2.285984e+01   7.413296e+04   4.409945e+04   1.195628e+05   1.088883e+00  -1.830457e+00  -1.882271e-23   1.474304e+05   3.513254e-46   0.000000e+00   0.000000e+00
     3144000   3.143999e-05   2.430947e+00   1.537178e+01   2.286941e+01   7.413296e+04   4.409945e+04   1.195628e+05   1.019351e+00  -1.713570e+00  -2.172368e-23   1.474304e+05   3.078894e-46   0.000000e+00   0.000000e+00
     3152000   3.151999e-05   2.436878e+00   1.537531e+01   2.287897e+01   7.413296e+04   4.409945e+04   1.195628e+05   9.498183e-01  -1.596683e+00  -1.269713e-23   1.474304e+05   2.673186e-46   0.000000e+00   0.000000e+00
     3160000   3.159999e-05   2.442809e+00   1.537883e+01   2.288854e+01   7.413296e+04   4.409945e+04   1.195628e+05   8.802859e-01  -1.479797e+00  -3.668845e-24   1.474304e+05   2.296129e-46   0.000000e+00   0.000000e+00
     3168000   3.167999e-05   2.448739e+00   1.538236e+01   2.289810e+01   7.413296e+04   4.409945e+04   1.195628e+05   8.107536e-01  -1.362910e+00   5.361178e-24   1.474304e+05   1.947723e-46   0.000000e+00   0.000000e+00
     3176000   3.175999e-05   2.454670e+00   1.538589e+01   2.290767e+01   7.413296e+04   4.409945e+04   1.195628e+05  -1.273826e+00   2.141353e+00  -1.644361e-24   1.474304e+05   4.807725e-46   0.000000e+00   0.000000e+00
     3184000   3.183999e-05   2.460601e+00   1.538942e+01   2.291723e+01   7.413296e+04   4.409945e+04   1.195628e+05  -1.512742e+00   2.542981e+00   4.372351e-23   1.474304e+05   6.780360e-46   0.000000e+00   0.000000e+00
     3192000   3.191999e-05   2.466531e+00   1.539295e+01   2.292680e+01   7.413296e+04   4.409945e+04   1.195628e+05  -1.751659e+00   2.944610e+00  -3.016329e-23   1.474304e+05   9.091264e-46   0.000000e+00   0.000000e+00
     3200000   3.199999e-05   2.472462e+00   1.539647e+01   2.293636e+01   7.413296e+04   4.409945e+04   1.195628e+05  -1.990575e+00   3.346238e+00   1.522082e-23   1.474304e+05   1.174044e-45   0.000000e+00   0.000000e+00
     3208000   3.207999e-05   2.478392e+00   1.540000e+01   2.294593e+01   7.413296e+04   4.409945e+04   1.195628e+05  -2.955216e-01   4.967838e-01  -1.193812e-23   1.474304e+05   2.587786e-47   0.000000e+00   0.000000e+00
     3216000   3.215999e-05   2.484323e+00   1.540353e+01   2.295549e+01   7.413296e+04   4.409945e+04   1.195628e+05  -2.683742e-01   4.511480e-01   1.949160e-24   1.474304e+05   2.134188e-47   0.000000e+00   0.000000e+00
     3224000   3.223999e-05   2.490254e+00   1.540706e+01   2.296506e+01   7.413296e+04   4.409945e+04   1.195628e+05  -2.412269e-01   4.055122e-01  -2.053938e-24   1.474304e+05   1.724264e-47   0.000000e+00   0.000000e+00
     3232000   3.231999e-05   2.496184e+00   1.541059e+01   2.297462e+01   7.413296e+04   4.409945e+04   1.195628e+05  -2.140796e-01   3.598765e-01   2.887360e-24   1.474304e+05   1.358014e-47   0.000000e+00   0.000000e+00
     3240000   3.239999e-05   2.502115e+00   1.541411e+01   2.298419e+01   7.413296e+04   4.409945e+04   1.195628e+05  -7.340503e-01   1.233968e+00   1.626435e-23   1.474304e+05   1.596711e-46   0.000000e+00   0.000000e+00
     3248000   3.247999e-05   2.508046e+00   1.541764e+01   2.299375e+01   7.413296e+04   4.409945e+04   1.195628e+05  -4.997902e-01   8.401677e-01  -2.889467e-24   1.474304e+05   7.402298e-47   0.000000e+00   0.000000e+00
     3256000   3.255999e-05   2.513976e+00   1.542117e+01   2.300332e+01   7.413296e+04   4.409945e+04   1.195628e+05  -2.146951e-01   3.609112e-01  -3.536858e-24   1.474304e+05   1.366203e-47   0.000000e+00   0.000000e+00
     3264000   3.263999e-05   2.519907e+00   1.542470e+01   2.301288e+01   7.413296e+04   4.409945e+04   1.195628e+05   4.380197e-02  -7.363290e-02   2.521091e-25   1.474304e+05   5.676576e-49   0.000000e+00   0.000000e+00
     3272000   3.271999e-05   2.525838e+00   1.542823e+01   2.302245e+01   7.413296e+04   4.409945e+04   1.195628e+05   3.022991e-01  -5.081770e-01   2.551049e-24   1.474304e+05   2.707203e-47   0.000000e+00   0.000000e+00
     3280000   3.279999e-05   2.531768e+00   1.543175e+01   2.303201e+01   7.413296e+04   4.409945e+04   1.195628e+05   5.607961e-01  -9.427211e-01  -1.079937e-23   1.474304e+05   9.317515e-47   0.000000e+00   0.000000e+00
     3288000   3.287999e-05   2.537699e+00   1.543528e+01   2.304158e+01   7.413296e+04   4.409945e+04   1.195628e+05   8.192932e-01  -1.377265e+00  -1.818632e-23   1.474304e+05   1.988770e-46   0.000000e+00   0.000000e+00
     3296000   3.295999e-05   2.543629e+00   1.543881e+01   2.305114e+01   7.413296e+04   4.409945e+04   1.195628e+05   1.077790e+00  -1.811809e+00  -1.366185e-23   1.474304e+05   3.441776e-46   0.000000e+00   0.000000e+00
     3304000   3.303999e-05   2.549560e+00   1.544234e+01   2.306071e+01   7.413296e+04   4.409945e+04   1.195628e+05   1.336287e+00  -2.246353e+00  -2.106001e-23   1.474304e+05   5.290769e-46   0.000000e+00   0.000000e+00
     3312000   3.311999e-05   2.555491e+00   1.544587e+01   2.307027e+01   7.413296e+04   4.409945e+04   1.195628e+05   1.594784e+00  -2.680898e+00  -1.652982e-23   1.474304e+05   7.535750e-46   0.000000e+00   0.000000e+00
     3320000   3.319999e-05   2.561421e+00   1.544939e+01   2.307984e+01   7.413296e+04   4.409945e+04   1.195628e+05   1.853282e+00  -3.115442e+00   3.571602e-23   1.474304e+05   1.017672e-45   0.000000e+00   0.000000e+00
     3328000   3.327999e-05   2.567352e+00   1.545292e+01   2.308940e+01   7.413296e+04   4.409945e+04   1.195628e+05   2.111779e+00  -3.549986e+00  -3.129201e-23   1.474304e+05   1.321367e-45   0.000000e+00   0.000000e+00
     3336000   3.335999e-05   2.573283e+00   1.545645e+01   2.309897e+01   7.413296e+04   4.409945e+04   1.195628e+05   2.370276e+00  -3.984530e+00  -9.833761e-23   1.474304e+05   1.664662e-45   0.000000e+00   0.000000e+00
     3344000   3.343999e-05   2.579213e+00   1.545998e+01   2.310853e+01   7.413296e+04   4.409945e+04   1.195628e+05   2.601415e+00  -4.373084e+00  -6.867992e-23   1.474304e+05   2.005162e-45   0.000000e+00   0.000000e+00
     3352000   3.351999e-05   2.585144e+00   1.546351e+01   2.311810e+01   7.413296e+04   4.409945e+04   1.195628e+05   2.835675e+00  -4.766885e+00  -1.630958e-23   1.474304e+05   2.382561e-45   0.000000e+00   0.000000e+00
     3360000   3.359999e-05   2.591075e+00   1.546703e+01   2.312766e+01   7.413296e+04   4.409945e+04   1.195628e+05   3.069935e+00  -5.160686e+00   3.607897e-23   1.474304e+05   2.792481e-45   0.000000e+00   0.000000e+00
     3368000   3.367999e-05   2.597005e+00   1.547056e+01   2.313723e+01   7.413296e+04   4.409945e+04   1.195628e+05   3.304195e+00  -5.554486e+00  -6.939531e-24   1.474304e+05   3.234921e-45   0.000000e+00   0.000000e+00
     3376000   3.375999e-05   2.602936e+00   1.547409e+01   2.314679e+01   7.413296e+04   4.409945e+04   1.195628e+05  -4.278656e-01   7.192595e-01  -1.365410e-23   1.474304e+05   5.423692e-47   0.000000e+00   0.000000e+00
     3384000   3.383999e-05   2.608866e+00   1.547762e+01   2.315636e+01   7.413296e+04   4.409945e+04   1.195628e+05  -6.635897e-01   1.115521e+00  -9.822536e-25   1.474304e+05   1.304670e-46   0.000000e+00   0.000000e+00
     3392000   3.391999e-05   2.614797e+00   1.548114e+01   2.316592e+01   7.413296e+04   4.409945e+04   1.195628e+05  -8.993138e-01   1.511783e+00   5.718367e-24   1.474304e+05   2.396261e-46   0.000000e+00   0.000000e+00
     3400000   3.399999e-05   2.620728e+00   1.548467e+01   2.317549e+01   7.413296e+04   4.409945e+04   1.195628e+05  -1.135038e+00   1.908045e+00   4.833774e-25   1.474304e+05   3.817142e-46   0.000000e+00   0.000000e+00
     3408000   3.407999e-05   2.626658e+00   1.548820e+01   2.318505e+01   7.413296e+04   4.409945e+04   1.195628e+05  -1.370762e+00   2.304307e+00   3.103170e-23   1.474304e+05   5.567313e-46   0.000000e+00   0.000000e+00
     3416000   3.415999e-05   2.632589e+00   1.549173e+01   2.319462e+01   7.413296e+04   4.409945e+04   1.195628e+05  -1.606486e+00   2.700569e+00   1.387632e-23   1.474304e+05   7.646773e-46   0.000000e+00   0.000000e+00
     3424000   3.423999e-05   2.638520e+00   1.549526e+01   2.320418e+01   7.413296e+04   4.409945e+04   1.195628e+05  -3.670064e-01   6.169528e-01   4.998362e-24   1.474304e+05   3.990853e-47   0.000000e+00   0.000000e+00
     3432000   3.431999e-05   2.644450e+00   1.549878e+01   2.321375e+01   7.413296e+04   4.409945e+04   1.195628e+05  -4.402333e-01   7.400500e-01   9.179925e-24   1.474304e+05   5.742325e-47   0.000000e+00   0.000000e+00
     3440000   3.439999e-05   2.650381e+00   1.550231e+01   2.322331e+01   7.413296e+04   4.409945e+04   1.195628e+05  -8.521445e-01   1.432490e+00   2.541123e-23   1.474304e+05   2.151486e-46   0.000000e+00   0.000000e+00
     3448000   3.447999e-05   2.656312e+00   1.550584e+01   2.323288e+01   7.413296e+04   4.409945e+04   1.195628e+05  -1.073030e+00   1.803807e+00   1.812288e-23   1.474304e+05   3.411467e-46   0.000000e+00   0.000000e+00
     3456000   3.455999e-05   2.662242e+00   1.550937e+01   2.324244e+01   7.413296e+04   4.409945e+04   1.195628e+05  -1.293915e+00   2.175123e+00  -1.087743e-24   1.474304e+05   4.960585e-46   0.000000e+00   0.000000e+00
     3464000   3.463999e-05   2.668173e+00   1.551290e+01   2.325201e+01   7.413296e+04   4.409945e+04   1.195628e+05  -1.514800e+00   2.546440e+00   3.553242e-24   1.474304e+05   6.798840e-46   0.000000e+00   0.000000e+00
     3472000   3.471999e-05   2.674103e+00   1.551642e+01   2.326157e+01   7.413296e+04   4.409945e+04   1.195628e+05  -1.735685e+00   2.917757e+00   8.206037e-24   1.474304e+05   8.926231e-46   0.000000e+00   0.000000e+00
     3480000   3.479999e-05   2.680034e+00   1.551995e+01   2.327114e+01   7.413296e+04   4.409945e+04   1.195628e+05  -1.956570e+00   3.289074e+00  -1.099229e-23   1.474304e+05   1.134276e-45   0.000000e+00   0.000000e+00
     3488000   3.487999e-05   2.685965e+00   1.552348e+01   2.328070e+01   7.413296e+04   4.409945e+04   1.195628e+05  -2.177455e+00   3.660391e+00   1.753421e-23   1.474304e+05   1.404842e-45   0.000000e+00   0.000000e+00
     3496000   3.495999e-05   2.691895e+00   1.552701e+01   2.329027e+01   7.413296e+04   4.409945e+04   1.195628e+05  -2.398340e+00   4.031708e+00   2.214752e-23   1.474304e+05   1.704322e-45   0.000000e+00   0.000000e+00
     3504000   3.503999e-05   2.697826e+00   1.553054e+01   2.329983e+01   7.413296e+04   4.409945e+04   1.195628e+05  -2.619226e+00   4.403025e+00   5.062453e-23   1.474304e+05   2.032716e-45   0.000000e+00   0.000000e+00
     3512000   3.511999e-05   2.703757e+00   1.553406e+01   2.330940e+01   7.413296e+04   4.409945e+04   1.195628e+05  -8.752925e-01   1.471402e+00   2.216534e-23   1.474304e+05   2.270319e-46   0.000000e+00   0.000000e+00
     3520000   3.519999e-05   2.709687e+00   1.553759e+01   2.331896e+01   7.413296e+04   4.409945e+04   1.195628e+05  -5.505152e-01   9.254384e-01   2.417778e-23   1.474304e+05   8.981374e-47   0.000000e+00   0.000000e+00
     3528000   3.527999e-05   2.715618e+00   1.554112e+01   2.332853e+01   7.413296e+04   4.409945e+04   1.195628e+05  -2.257379e-01   3.794746e-01  -6.434122e-25   1.474304e+05   1.510446e-47   0.000000e+00   0.000000e+00
     3536000   3.535999e-05   2.721549e+00   1.554465e+01   2.333809e+01   7.413296e+04   4.409945e+04   1.195628e+05   9.903941e-02  -1.664893e-01  -1.615744e-24   1.474304e+05   2.904023e-48   0.000000e+00   0.000000e+00
     3544000   3.543999e-05   2.727479e+00   1.554818e+01   2.334766e+01   7.413296e+04   4.409945e+04   1.195628e+05   4.238167e-01  -7.124532e-01   3.956801e-25   1.474304e+05   5.321243e-47   0.000000e+00   0.000000e+00
     3552000   3.551999e-05   2.733410e+00   1.555170e+01   2.335722e+01   7.413296e+04   4.409945e+04   1.195628e+05   7.485940e-01  -1.258417e+00  -1.547693e-23   1.474304e+05   1.660297e-46   0.000000e+00   0.000000e+00
     3560000   3.559999e-05   2.739340e+00   1.555523e+01   2.336679e+01   7.413296e+04   4.409945e+04   1.195628e+05   1.073371e+00  -1.804381e+00   3.422989e-23   1.474304e+05   3.413557e-46   0.000000e+00   0.000000e+00
     3568000   3.567999e-05   2.745271e+00   1.555876e+01   2.337635e+01   7.413296e+04   4.409945e+04   1.195628e+05   1.398149e+00  -2.350345e+00   4.530043e-25   1.474304e+05   5.791907e-46   0.000000e+00   0.000000e+00
     3576000   3.575999e-05   2.751202e+00   1.556229e+01   2.338592e+01   7.413296e+04   4.409945e+04   1.195628e+05   1.722926e+00  -2.896309e+00  -9.464548e-24   1.474304e+05   8.795344e-46   0.000000e+00   0.000000e+00
     3584000   3.583999e-05   2.757132e+00   1.556582e+01   2.339548e+01   7.413296e+04   4.409945e+04   1.195628e+05   2.047703e+00  -3.442272e+00  -1.937085e-23   1.474304e+05   1.242387e-45   0.000000e+00   0.000000e+00
     3592000   3.591999e-05   2.763063e+00   1.556934e+01   2.340505e+01   7.413296e+04   4.409945e+04   1.195628e+05   1.763802e+00  -2.965023e+00   1.209059e-23   1.474304e+05   9.217863e-46   0.000000e+00   0.000000e+00
     3600000   3.599999e-05   2.768994e+00   1.557287e+01   2.341461e+01   7.413296e+04   4.409945e+04   1.195628e+05   1.917308e+00  -3.223074e+00   1.230200e-23   1.474304e+05   1.089219e-45   0.000000e+00   0.000000e+00
     3608000   3.607999e-05   2.774924e+00   1.557640e+01   2.342418e+01   7.413296e+04   4.409945e+04   1.195628e+05   2.070815e+00  -3.481124e+00  -3.517885e-23   1.474304e+05   1.270617e-45   0.000000e+00   0.000000e+00
     3616000   3.615999e-05   2.780855e+00   1.557993e+01   2.343374e+01   7.413296e+04   4.409945e+04   1.195628e+05   2.224322e+00  -3.739175e+00  -3.496374e-23   1.474304e+05   1.465979e-45   0.000000e+00   0.000000e+00
     3624000   3.623999e-05   2.786786e+00   1.558346e+01   2.344331e+01   7.413296e+04   4.409945e+04   1.195628e+05   2.377828e+00  -3.997226e+00   8.446954e-23   1.474304e+05   1.675305e-45   0.000000e+00   0.000000e+00
     3632000   3.631999e-05   2.792716e+00   1.558698e+01   2.345287e+01   7.413296e+04   4.409945e+04   1.195628e+05   2.531335e+00  -4.255277e+00  -3.461525e-23   1.474304e+05   1.898596e-45   0.000000e+00   0.000000e+00
     3640000   3.639999e-05   2.798647e+00   1.559051e+01   2.346244e+01   7.413296e+04   4.409945e+04   1.195628e+05   2.684841e+00  -4.513327e+00  -1.058291e-23   1.474304e+05   2.135852e-45   0.000000e+00   0.000000e+00
     3648000   3.647999e-05   2.804577e+00   1.559404e+01   2.347200e+01   7.413296e+04   4.409945e+04   1.195628e+05  -3.415109e-01   5.740937e-01   8.480426e-24   1.474304e+05   3.455979e-47   0.000000e+00   0.000000e+00
     3656000   3.655999e-05   2.810508e+00   1.559757e+01   2.348157e+01   7.413296e+04   4.409945e+04   1.195628e+05  -2.725710e-01   4.582030e-01   3.450838e-24   1.474304e+05   2.201542e-47   0.000000e+00   0.000000e+00
     3664000   3.663999e-05   2.816439e+00   1.560110e+01   2.349113e+01   7.413296e+04   4.409945e+04   1.195628e+05   7.503140e-01  -1.261308e+00  -6.811889e-24   1.474304e+05   1.667990e-46   0.000000e+00   0.000000e+00
     3672000   3.671999e-05   2.822369e+00   1.560462e+01   2.350070e+01   7.413296e+04   4.409945e+04   1.195628e+05   6.488754e-01  -1.090786e+00   8.056669e-24   1.474304e+05   1.247646e-46   0.000000e+00   0.000000e+00
     3680000   3.679999e-05   2.828300e+00   1.560815e+01   2.351026e+01   7.413296e+04   4.409945e+04   1.195628e+05   4.774252e-01  -8.025712e-01  -1.275163e-24   1.474304e+05   6.754447e-47   0.000000e+00   0.000000e+00
     3688000   3.687999e-05   2.834231e+00   1.561168e+01   2.351983e+01   7.413296e+04   4.409945e+04   1.195628e+05   3.059750e-01  -5.143564e-01  -4.646409e-24   1.474304e+05   2.774423e-47   0.000000e+00   0.000000e+00
     3696000   3.695999e-05   2.840161e+00   1.561521e+01   2.352939e+01   7.413296e+04   4.409945e+04   1.195628e+05   1.345247e-01  -2.261415e-01  -2.057579e-24   1.474304e+05   5.363925e-48   0.000000e+00   0.000000e+00
     3704000   3.703999e-05   2.846092e+00   1.561874e+01   2.353896e+01   7.413296e+04   4.409945e+04   1.195628e+05  -3.692551e-02   6.207329e-02  -2.154373e-25   1.474304e+05   4.035421e-49   0.000000e+00   0.000000e+00
     3712000   3.711999e-05   2.852023e+00   1.562226e+01   2.354852e+01   7.413296e+04   4.409945e+04   1.195628e+05  -2.083757e-01   3.502881e-01   3.117534e-24   1.474304e+05   1.286308e-47   0.000000e+00   0.000000e+00
     3720000   3.719999e-05   2.857953e+00   1.562579e+01   2.355809e+01   7.413296e+04   4.409945e+04   1.195628e+05  -3.798260e-01   6.385029e-01   5.707973e-24   1.474304e+05   4.274255e-47   0.000000e+00   0.000000e+00
     3728000   3.727999e-05   2.863884e+00   1.562932e+01   2.356765e+01   7.413296e+04   4.409945e+04   1.195628e+05  -5.512762e-01   9.267178e-01  -1.555205e-23   1.474304e+05   9.004194e-47   0.000000e+00   0.000000e+00
     3736000   3.735999e-05   2.869814e+00   1.563285e+01   2.357722e+01   7.413296e+04   4.409945e+04   1.195628e+05  -7.227265e-01   1.214933e+00   2.878961e-23   1.474304e+05   1.547613e-46   0.000000e+00   0.000000e+00
     3744000   3.743999e-05   2.875745e+00   1.563637e+01   2.358678e+01   7.413296e+04   4.409945e+04   1.195628e+05  -8.941767e-01   1.503147e+00   1.554754e-24   1.474304e+05   2.369005e-46   0.000000e+00   0.000000e+00
     3752000   3.751999e-05   2.881676e+00   1.563990e+01   2.359635e+01   7.413296e+04   4.409945e+04   1.195628e+05  -1.065627e+00   1.791362e+00   2.202156e-23   1.474304e+05   3.364597e-46   0.000000e+00   0.000000e+00
     3760000   3.759999e-05   2.887606e+00   1.564343e+01   2.360591e+01   7.413296e+04   4.409945e+04   1.195628e+05   5.608815e-01  -9.428646e-01  -3.219415e-24   1.474304e+05   9.320485e-47   0.000000e+00   0.000000e+00
     3768000   3.767999e-05   2.893537e+00   1.564696e+01   2.361548e+01   7.413296e+04   4.409945e+04   1.195628e+05   7.871000e-01  -1.323147e+00   1.195470e-23   1.474304e+05   1.835560e-46   0.000000e+00   0.000000e+00
     3776000   3.775999e-05   2.899468e+00   1.565049e+01   2.362504e+01   7.413296e+04   4.409945e+04   1.195628e+05   1.013318e+00  -1.703430e+00  -4.444663e-23   1.474304e+05   3.042340e-46   0.000000e+00   0.000000e+00
     3784000   3.783999e-05   2.905398e+00   1.565401e+01   2.363461e+01   7.413296e+04   4.409945e+04   1.195628e+05   3.948596e-01  -6.637751e-01   2.131298e-24   1.474304e+05   4.619837e-47   0.000000e+00   0.000000e+00
     3792000   3.791999e-05   2.911329e+00   1.565754e+01   2.364417e+01   7.413296e+04   4.409945e+04   1.195628e+05   3.907294e-01  -6.568321e-01   3.159637e-24   1.474304e+05   4.523697e-47   0.000000e+00   0.000000e+00
     3800000   3.799999e-05   2.917260e+00   1.566107e+01   2.365374e+01   7.413296e+04   4.409945e+04   1.195628e+05   3.865993e-01  -6.498891e-01   1.015123e-23   1.474304e+05   4.428568e-47   0.000000e+00   0.000000e+00
     3808000   3.807999e-05   2.923190e+00   1.566460e+01   2.366330e+01   7.413296e+04   4.409945e+04   1.195628e+05   3.824691e-01  -6.429461e-01  -7.471981e-25   1.474304e+05   4.334450e-47   0.000000e+00   0.000000e+00
     3816000   3.815999e-05   2.929121e+00   1.566813e+01   2.367287e+01   7.413296e+04   4.409945e+04   1.195628e+05   3.783389e-01  -6.360031e-01   6.244260e-24   1.474304e+05   4.241342e-47   0.000000e+00   0.000000e+00
     3824000   3.823999e-05   2.935052e+00   1.567165e+01   2.368243e+01   7.413296e+04   4.409945e+04   1.195628e+05   3.742087e-01  -6.290601e-01  -4.654296e-24   1.474304e+05   4.149245e-47   0.000000e+00   0.000000e+00
     3832000   3.831999e-05   2.940982e+00   1.567518e+01   2.369200e+01   7.413296e+04   4.409945e+04   1.195628e+05   3.700785e-01  -6.221171e-01  -9.589601e-24   1.474304e+05   4.058160e-47   0.000000e+00   0.000000e+00
     3840000   3.839999e-05   2.946913e+00   1.567871e+01   2.370156e+01   7.413296e+04   4.409945e+04   1.195628e+05  -1.160558e+00   1.950946e+00   7.864574e-24   1.474304e+05   3.990747e-46   0.000000e+00   0.000000e+00
     3848000   3.847999e-05   2.952843e+00   1.568224e+01   2.371113e+01   7.413296e+04   4.409945e+04   1.195628e+05  -1.371343e+00   2.305283e+00   4.421681e-23   1.474304e+05   5.572054e-46   0.000000e+00   0.000000e+00
     3856000   3.855999e-05   2.958774e+00   1.568577e+01   2.372069e+01   7.413296e+04   4.409945e+04   1.195628e+05  -1.582127e+00   2.659620e+00   9.011366e-24   1.474304e+05   7.416659e-46   0.000000e+00   0.000000e+00
     3864000   3.863999e-05   2.964705e+00   1.568929e+01   2.373026e+01   7.413296e+04   4.409945e+04   1.195628e+05  -1.792911e+00   3.013957e+00   2.152133e-23   1.474304e+05   9.524561e-46   0.000000e+00   0.000000e+00
     3872000   3.871999e-05   2.970635e+00   1.569282e+01   2.373982e+01   7.413296e+04   4.409945e+04   1.195628e+05  -2.003696e+00   3.368294e+00   1.018371e-23   1.474304e+05   1.189576e-45   0.000000e+00   0.000000e+00
     3880000   3.879999e-05   2.976566e+00   1.569635e+01   2.374939e+01   7.413296e+04   4.409945e+04   1.195628e+05  -2.214480e+00   3.722631e+00  -1.148084e-24   1.474304e+05   1.453026e-45   0.000000e+00   0.000000e+00
     3888000   3.887999e-05   2.982497e+00   1.569988e+01   2.375895e+01   7.413296e+04   4.409945e+04   1.195628e+05  -2.425264e+00   4.076968e+00   1.132194e-23   1.474304e+05   1.742805e-45   0.000000e+00   0.000000e+00
     3896000   3.895999e-05   2.988427e+00   1.570341e+01   2.376852e+01   7.413296e+04   4.409945e+04   1.195628e+05   1.036016e+00  -1.741586e+00  -3.073370e-23   1.474304e+05   3.180213e-46   0.000000e+00   0.000000e+00
     3904000   3.903999e-05   2.994358e+00   1.570693e+01   2.377808e+01   7.413296e+04   4.409945e+04   1.195628e+05   1.199491e+00  -2.016393e+00  -9.738916e-24   1.474304e+05   4.263039e-46   0.000000e+00   0.000000e+00
     3912000   3.911999e-05   3.000289e+00   1.571046e+01   2.378765e+01   7.413296e+04   4.409945e+04   1.195628e+05  -5.278032e-01   8.872586e-01   1.237650e-23   1.474304e+05   8.253706e-47   0.000000e+00   0.000000e+00
     3920000   3.919999e-05   3.006219e+00   1.571399e+01   2.379721e+01   7.413296e+04   4.409945e+04   1.195628e+05  -6.983754e-01   1.173997e+00   3.814059e-24   1.474304e+05   1.445078e-46   0.000000e+00   0.000000e+00
     3928000   3.927999e-05   3.012150e+00   1.571752e+01   2.380678e+01   7.413296e+04   4.409945e+04   1.195628e+05  -2.166225e-01   3.641512e-01  -2.784652e-24   1.474304e+05   1.390648e-47   0.000000e+00   0.000000e+00
     3936000   3.935999e-05   3.018080e+00   1.572105e+01   2.381634e+01   7.413296e+04   4.409945e+04   1.195628e+05  -7.679683e-02   1.290986e-01   9.322361e-25   1.474304e+05   1.748334e-48   0.000000e+00   0.000000e+00
     3944000   3.943999e-05   3.024011e+00   1.572457e+01   2.382591e+01   7.413296e+04   4.409945e+04   1.195628e+05   6.302881e-02  -1.059540e-01   1.766353e-25   1.474304e+05   1.176461e-48   0.000000e+00   0.000000e+00
     3952000   3.951999e-05   3.029942e+00   1.572810e+01   2.383547e+01   7.413296e+04   4.409945e+04   1.195628e+05   2.028544e-01  -3.410066e-01  -2.069795e-24   1.474304e+05   1.219086e-47   0.000000e+00   0.000000e+00
     3960000   3.959999e-05   3.035872e+00   1.573163e+01   2.384504e+01   7.413296e+04   4.409945e+04   1.195628e+05   3.426801e-01  -5.760592e-01  -5.804591e-24   1.474304e+05   3.479153e-47   0.000000e+00   0.000000e+00
     3968000   3.967999e-05   3.041803e+00   1.573516e+01   2.385460e+01   7.413296e+04   4.409945e+04   1.195628e+05   4.825057e-01  -8.111118e-01  -3.573688e-24   1.474304e+05   6.897847e-47   0.000000e+00   0.000000e+00
     3976000   3.975999e-05   3.047734e+00   1.573869e+01   2.386417e+01   7.413296e+04   4.409945e+04   1.195628e+05   6.223313e-01  -1.046164e+00   1.058607e-23   1.474304e+05   1.147517e-46   0.000000e+00   0.000000e+00
     3984000   3.983999e-05   3.053664e+00   1.574221e+01   2.387373e+01   7.413296e+04   4.409945e+04   1.195628e+05   7.621570e-01  -1.281217e+00   8.943415e-25   1.474304e+05   1.721112e-46   0.000000e+00   0.000000e+00
     3992000   3.991999e-05   3.059595e+00   1.574574e+01   2.388330e+01   7.413296e+04   4.409945e+04   1.195628e+05   9.019826e-01  -1.516270e+00   3.113392e-24   1.474304e+05   2.410569e-46   0.000000e+00   0.000000e+00
     4000000   3.999999e-05   3.065526e+00   1.574927e+01   2.389287e+01   7.413296e+04   4.409945e+04   1.195628e+05   1.041808e+00  -1.751322e+00  -1.852431e-23   1.474304e+05   3.215890e-46   0.000000e+00   0.000000e+00
     4008000   4.007999e-05   3.071456e+00   1.575280e+01   2.390243e+01   7.413296e+04   4.409945e+04   1.195628e+05  -2.733025e-01   4.594326e-01   3.642692e-24   1.474304e+05   2.212888e-47   0.000000e+00   0.000000e+00
     4016000   4.015999e-05   3.077387e+00   1.575633e+01   2.391200e+01   7.413296e+04   4.409945e+04   1.195628e+05  -4.438747e-01   7.461714e-01  -1.684671e-23   1.474304e+05   5.837396e-47   0.000000e+00   0.000000e+00
     4024000   4.023999e-05   3.083317e+00   1.575985e+01   2.392156e+01   7.413296e+04   4.409945e+04   1.195628e+05  -6.144469e-01   1.032910e+00  -1.553501e-24   1.474304e+05   1.118610e-46   0.000000e+00   0.000000e+00
     4032000   4.031999e-05   3.089248e+00   1.576338e+01   2.393113e+01   7.413296e+04   4.409945e+04   1.195628e+05  -7.850191e-01   1.319649e+00   1.970321e-23   1.474304e+05   1.825900e-46   0.000000e+00   0.000000e+00
     4040000   4.039999e-05   3.095179e+00   1.576691e+01   2.394069e+01   7.413296e+04   4.409945e+04   1.195628e+05  -9.555914e-01   1.606388e+00  -6.761459e-24   1.474304e+05   2.705610e-46   0.000000e+00   0.000000e+00
     4048000   4.047999e-05   3.101109e+00   1.577044e+01   2.395026e+01   7.413296e+04   4.409945e+04   1.195628e+05  -1.267623e+00   2.130927e+00   2.945387e-23   1.474304e+05   4.760926e-46   0.000000e+00   0.000000e+00
     4056000   4.055999e-05   3.107040e+00   1.577397e+01   2.395982e+01   7.413296e+04   4.409945e+04   1.195628e+05  -1.608038e+00   2.703177e+00  -2.555152e-23   1.474304e+05   7.661425e-46   0.000000e+00   0.000000e+00
     4064000   4.063999e-05   3.112971e+00   1.577749e+01   2.396939e+01   7.413296e+04   4.409945e+04   1.195628e+05  -1.948452e+00   3.275427e+00   6.257237e-23   1.474304e+05   1.124865e-45   0.000000e+00   0.000000e+00
     4072000   4.071999e-05   3.118901e+00   1.578102e+01   2.397895e+01   7.413296e+04   4.409945e+04   1.195628e+05  -2.288866e+00   3.847677e+00   1.029900e-22   1.474304e+05   1.552261e-45   0.000000e+00   0.000000e+00
     4080000   4.079999e-05   3.124832e+00   1.578455e+01   2.398852e+01   7.413296e+04   4.409945e+04   1.195628e+05  -2.629280e+00   4.419927e+00   2.536428e-25   1.474304e+05   2.048329e-45   0.000000e+00   0.000000e+00
     4088000   4.087999e-05   3.130763e+00   1.578808e+01   2.399808e+01   7.413296e+04   4.409945e+04   1.195628e+05  -2.969694e+00   4.992177e+00   4.064646e-23   1.474304e+05   2.613071e-45   0.000000e+00   0.000000e+00
     4096000   4.095999e-05   3.136693e+00   1.579160e+01   2.400765e+01   7.413296e+04   4.409945e+04   1.195628e+05   1.071592e+00  -1.801389e+00   1.835101e-23   1.474304e+05   3.402382e-46   0.000000e+00   0.000000e+00
     4104000   4.103999e-05   3.142624e+00   1.579513e+01   2.401721e+01   7.413296e+04   4.409945e+04   1.195628e+05   1.226285e+00  -2.061435e+00   6.484821e-24   1.474304e+05   4.455630e-46   0.000000e+00   0.000000e+00
     4112000   4.111999e-05   3.148554e+00   1.579866e+01   2.402678e+01   7.413296e+04   4.409945e+04   1.195628e+05   1.380978e+00  -2.321480e+00  -1.730883e-23   1.474304e+05   5.650689e-46   0.000000e+00   0.000000e+00
     4120000   4.119999e-05   3.154485e+00   1.580219e+01   2.403634e+01   7.413296e+04   4.409945e+04   1.195628e+05  -5.653731e-02   9.504151e-02   1.023650e-24   1.474304e+05   9.458126e-49   0.000000e+00   0.000000e+00
     4128000   4.127999e-05   3.160416e+00   1.580572e+01   2.404591e+01   7.413296e+04   4.409945e+04   1.195628e+05  -3.715809e-01   6.246427e-01   1.205011e-23   1.474304e+05   4.090298e-47   0.000000e+00   0.000000e+00
     4136000   4.135999e-05   3.166346e+00   1.580924e+01   2.405547e+01   7.413296e+04   4.409945e+04   1.195628e+05  -6.866246e-01   1.154244e+00  -1.866075e-23   1.474304e+05   1.396783e-46   0.000000e+00   0.000000e+00
     4144000   4.143999e-05   3.172277e+00   1.581277e+01   2.406504e+01   7.413296e+04   4.409945e+04   1.195628e+05  -1.001668e+00   1.683845e+00  -3.745709e-23   1.474304e+05   2.972718e-46   0.000000e+00   0.000000e+00
     4152000   4.151999e-05   3.178208e+00   1.581630e+01   2.407460e+01   7.413296e+04   4.409945e+04   1.195628e+05  -1.316712e+00   2.213446e+00  -8.549510e-24   1.474304e+05   5.136835e-46   0.000000e+00   0.000000e+00
     4160000   4.159999e-05   3.184138e+00   1.581983e+01   2.408417e+01   7.413296e+04   4.409945e+04   1.195628e+05  -1.631756e+00   2.743047e+00  -3.491197e-24   1.474304e+05   7.889134e-46   0.000000e+00   0.000000e+00
     4168000   4.167999e-05   3.190069e+00   1.582336e+01   2.409373e+01   7.413296e+04   4.409945e+04   1.195628e+05  -1.946799e+00   3.272649e+00   4.928240e-23   1.474304e+05   1.122961e-45   0.000000e+00   0.000000e+00
     4176000   4.175999e-05   3.196000e+00   1.582688e+01   2.410330e+01   7.413296e+04   4.409945e+04   1.195628e+05   2.187970e+00  -3.678066e+00   1.286934e-23   1.474304e+05   1.418398e-45   0.000000e+00   0.000000e+00
     4184000   4.183999e-05   3.201930e+00   1.583041e+01   2.411286e+01   7.413296e+04   4.409945e+04   1.195628e+05   4.582583e-01  -7.703508e-01  -1.082753e-23   1.474304e+05   6.223339e-47   0.000000e+00   0.000000e+00
     4192000   4.191999e-05   3.207861e+00   1.583394e+01   2.412243e+01   7.413296e+04   4.409945e+04   1.195628e+05   1.935098e-01  -3.252979e-01  -2.584734e-24   1.474304e+05   1.109928e-47   0.000000e+00   0.000000e+00
     4200000   4.199999e-05   3.213791e+00   1.583747e+01   2.413199e+01   7.413296e+04   4.409945e+04   1.195628e+05  -7.123861e-02   1.197550e-01  -1.799418e-24   1.474304e+05   1.502337e-48   0.000000e+00   0.000000e+00
     4208000   4.207999e-05   3.219722e+00   1.584100e+01   2.414156e+01   7.413296e+04   4.409945e+04   1.195628e+05  -3.359870e-01   5.648079e-01   7.932080e-24   1.474304e+05   3.344257e-47   0.000000e+00   0.000000e+00
     4216000   4.215999e-05   3.225653e+00   1.584452e+01   2.415112e+01   7.413296e+04   4.409945e+04   1.195628e+05  -6.007355e-01   1.009861e+00   4.250643e-24   1.474304e+05   1.069200e-46   0.000000e+00   0.000000e+00
     4224000   4.223999e-05   3.231583e+00   1.584805e+01   2.416069e+01   7.413296e+04   4.409945e+04   1.195628e+05  -8.654839e-01   1.454914e+00   5.662436e-25   1.474304e+05   2.219345e-46   0.000000e+00   0.000000e+00
     4232000   4.231999e-05   3.237514e+00   1.585158e+01   2.417025e+01   7.413296e+04   4.409945e+04   1.195628e+05  -1.130232e+00   1.899967e+00   3.264946e-23   1.474304e+05   3.784863e-46   0.000000e+00   0.000000e+00
     4240000   4.239999e-05   3.243445e+00   1.585511e+01   2.417982e+01   7.413296e+04   4.409945e+04   1.195628e+05  -1.394981e+00   2.345020e+00  -6.823883e-24   1.474304e+05   5.765752e-46   0.000000e+00   0.000000e+00
     4248000   4.247999e-05   3.249375e+00   1.585864e+01   2.418938e+01   7.413296e+04   4.409945e+04   1.195628e+05  -1.659729e+00   2.790072e+00  -2.243913e-23   1.474304e+05   8.162013e-46   0.000000e+00   0.000000e+00
     4256000   4.255999e-05   3.255306e+00   1.586216e+01   2.419895e+01   7.413296e+04   4.409945e+04   1.195628e+05  -1.924478e+00   3.235125e+00   9.658997e-24   1.474304e+05   1.097365e-45   0.000000e+00   0.000000e+00
     4264000   4.263999e-05   3.261237e+00   1.586569e+01   2.420851e+01   7.413296e+04   4.409945e+04   1.195628e+05   3.516454e-01  -5.911303e-01  -2.801723e-24   1.474304e+05   3.663683e-47   0.000000e+00   0.000000e+00
     4272000   4.271999e-05   3.267167e+00   1.586922e+01   2.421808e+01   7.413296e+04   4.409945e+04   1.195628e+05   4.558951e-01  -7.663783e-01  -8.340723e-24   1.474304e+05   6.158078e-47   0.000000e+00   0.000000e+00
     4280000   4.279999e-05   3.273098e+00   1.587275e+01   2.422764e+01   7.413296e+04   4.409945e+04   1.195628e+05   5.601449e-01  -9.416263e-01   4.011881e-24   1.474304e+05   9.296525e-47   0.000000e+00   0.000000e+00
     4288000   4.287999e-05   3.279028e+00   1.587628e+01   2.423721e+01   7.413296e+04   4.409945e+04   1.195628e+05   6.643946e-01  -1.116874e+00  -1.344966e-23   1.474304e+05   1.307902e-46   0.000000e+00   0.000000e+00
