     timestep     time              x             y              z              vx             vy             vz             ax             ay             az         v_magnitude      ELoss        Electronic      Nuclear
           0   0.000000e+00   1.000000e-01   8.316143e+00   2.051860e+01  -2.183393e+04  -3.956821e+04   1.403330e+05   0.000000e+00   0.000000e+00   0.000000e+00   1.474304e+05   0.000000e+00   0.000000e+00   0.000000e+00
        8000   7.999000e-08   9.825332e-02   8.312978e+00   2.052982e+01  -2.183316e+04  -3.956863e+04   1.403330e+05   9.581788e+06  -5.287035e+06   1.047963e-17   1.474304e+05   9.275377e-33   0.000000e+00   0.000000e+00
       16000   1.599900e-07   9.650669e-02   8.309812e+00   2.054105e+01  -2.183240e+04  -3.956905e+04   1.403330e+05   9.518596e+06  -5.251927e+06  -3.655122e-17   1.474304e+05   9.153243e-33   0.000000e+00   0.000000e+00
       24000   2.399900e-07   9.476013e-02   8.306646e+00   2.055227e+01  -2.183164e+04  -3.956947e+04   1.403330e+05   9.455401e+06  -5.216823e+06   4.877380e-17   1.474304e+05   9.031917e-33   0.000000e+00   0.000000e+00
       32000   3.199900e-07   9.301363e-02   8.303481e+00   2.056350e+01  -2.183089e+04  -3.956989e+04   1.403330e+05   9.392202e+06  -5.181721e+06   4.640183e-17   1.474304e+05   8.911397e-33   0.000000e+00   0.000000e+00
       40000   3.999900e-07   9.126719e-02   8.300315e+00   2.057473e+01  -2.183014e+04  -3.957030e+04   1.403330e+05   9.329000e+06  -5.146622e+06  -1.359840e-17   1.474304e+05   8.791684e-33   0.000000e+00   0.000000e+00
       48000   4.799900e-07   8.952080e-02   8.297150e+00   2.058595e+01  -2.182951e+04  -3.957064e+04   1.403330e+05   7.759254e+06  -4.280464e+06  -3.871415e-17   1.474304e+05   6.081771e-33   0.000000e+00   0.000000e+00
       56000   5.599900e-07   8.777447e-02   8.293984e+00   2.059718e+01  -2.182888e+04  -3.957099e+04   1.403330e+05   8.000739e+06  -4.413515e+06   9.590660e-18   1.474304e+05   6.466106e-33   0.000000e+00   0.000000e+00
       64000   6.399900e-07   8.602819e-02   8.290818e+00   2.060841e+01  -2.182817e+04  -3.957138e+04   1.403330e+05   9.149024e+06  -5.046739e+06  -1.296563e-16   1.474304e+05   8.455271e-33   0.000000e+00   0.000000e+00
       72000   7.199900e-07   8.428196e-02   8.287653e+00   2.061963e+01  -2.182744e+04  -3.957179e+04   1.403330e+05   9.086019e+06  -5.011766e+06   1.422831e-17   1.474304e+05   8.339048e-33   0.000000e+00   0.000000e+00
       80000   7.999900e-07   8.253580e-02   8.284487e+00   2.063086e+01  -2.182672e+04  -3.957219e+04   1.403330e+05   9.023010e+06  -4.976796e+06   1.446516e-16   1.474304e+05   8.223626e-33   0.000000e+00   0.000000e+00
       88000   8.799900e-07   8.078969e-02   8.281321e+00   2.064209e+01  -2.182600e+04  -3.957258e+04   1.403330e+05   8.959999e+06  -4.941828e+06   1.417521e-16   1.474304e+05   8.109006e-33   0.000000e+00   0.000000e+00
       96000   9.599900e-07   7.904364e-02   8.278155e+00   2.065331e+01  -2.182528e+04  -3.957298e+04   1.403330e+05   8.896984e+06  -4.906863e+06  -1.428305e-17   1.474304e+05   7.995189e-33   0.000000e+00   0.000000e+00
      104000   1.039990e-06   7.729764e-02   8.274989e+00   2.066454e+01  -2.182457e+04  -3.957337e+04   1.403330e+05   8.833966e+06  -4.871901e+06   6.902801e-18   1.474304e+05   7.882173e-33   0.000000e+00   0.000000e+00
      112000   1.119990e-06   7.555170e-02   8.271823e+00   2.067577e+01  -2.182387e+04  -3.957376e+04   1.403330e+05   8.770945e+06  -4.836942e+06  -1.146427e-16   1.474304e+05   7.769960e-33   0.000000e+00   0.000000e+00
      120000   1.199990e-06   7.380582e-02   8.268658e+00   2.068699e+01  -2.182317e+04  -3.957414e+04   1.403330e+05   8.707921e+06  -4.801985e+06   1.464807e-18   1.474304e+05   7.658549e-33   0.000000e+00   0.000000e+00
      128000   1.279990e-06   7.206000e-02   8.265492e+00   2.069822e+01  -2.182248e+04  -3.957452e+04   1.403330e+05   8.644894e+06  -4.767031e+06   3.527646e-17   1.474304e+05   7.547940e-33   0.000000e+00   0.000000e+00
      136000   1.359990e-06   7.031422e-02   8.262326e+00   2.070945e+01  -2.182186e+04  -3.957486e+04   1.403330e+05   7.575052e+06  -4.176938e+06  -4.295846e-17   1.474304e+05   5.795203e-33   0.000000e+00   0.000000e+00
      144000   1.439990e-06   6.856850e-02   8.259160e+00   2.072067e+01  -2.182125e+04  -3.957520e+04   1.403330e+05   7.816509e+06  -4.309921e+06  -4.276444e-18   1.474304e+05   6.170436e-33   0.000000e+00   0.000000e+00
      152000   1.519990e-06   6.682282e-02   8.255994e+00   2.073190e+01  -2.182061e+04  -3.957555e+04   1.403330e+05   8.057969e+06  -4.442890e+06   1.060690e-16   1.474304e+05   6.557431e-33   0.000000e+00   0.000000e+00
      160000   1.599990e-06   6.507720e-02   8.252828e+00   2.074313e+01  -2.181996e+04  -3.957591e+04   1.403330e+05   8.299431e+06  -4.575845e+06   4.330282e-18   1.474304e+05   6.956190e-33   0.000000e+00   0.000000e+00
      168000   1.679990e-06   6.333163e-02   8.249661e+00   2.075435e+01  -2.181928e+04  -3.957628e+04   1.403330e+05   8.540896e+06  -4.708786e+06   5.714841e-17   1.474304e+05   7.366709e-33   0.000000e+00   0.000000e+00
      176000   1.759990e-06   6.158612e-02   8.246495e+00   2.076558e+01  -2.181859e+04  -3.957667e+04   1.403330e+05   8.782363e+06  -4.841711e+06   8.098152e-17   1.474304e+05   7.788990e-33   0.000000e+00   0.000000e+00
      184000   1.839990e-06   5.984066e-02   8.243329e+00   2.077681e+01  -2.181788e+04  -3.957706e+04   1.403330e+05   9.023833e+06  -4.974622e+06  -5.760561e-17   1.474304e+05   8.223030e-33   0.000000e+00   0.000000e+00
      192000   1.919990e-06   5.809526e-02   8.240163e+00   2.078803e+01  -2.181715e+04  -3.957746e+04   1.403330e+05   9.265305e+06  -5.107516e+06   8.275838e-18   1.474304e+05   8.668829e-33   0.000000e+00   0.000000e+00
      200000   1.999990e-06   5.634991e-02   8.236997e+00   2.079926e+01  -2.181640e+04  -3.957788e+04   1.403330e+05   9.506779e+06  -5.240394e+06   1.453629e-16   1.474304e+05   9.126387e-33   0.000000e+00   0.000000e+00
      208000   2.079990e-06   5.460464e-02   8.233831e+00   2.081049e+01  -2.181553e+04  -3.957835e+04   1.403330e+05   1.085536e+07  -5.983459e+06   1.199845e-16   1.474304e+05   1.189908e-32   0.000000e+00   0.000000e+00
      216000   2.159990e-06   5.285943e-02   8.230664e+00   2.082171e+01  -2.181467e+04  -3.957883e+04   1.403330e+05   1.079236e+07  -5.948425e+06  -6.587755e-17   1.474304e+05   1.176108e-32   0.000000e+00   0.000000e+00
      224000   2.239990e-06   5.111429e-02   8.227498e+00   2.083294e+01  -2.181381e+04  -3.957930e+04   1.403330e+05   1.072935e+07  -5.913394e+06   1.898547e-17   1.474304e+05   1.162388e-32   0.000000e+00   0.000000e+00
      232000   2.319990e-06   4.936922e-02   8.224332e+00   2.084417e+01  -2.181295e+04  -3.957978e+04   1.403330e+05   1.066634e+07  -5.878367e+06   4.530677e-18   1.474304e+05   1.148748e-32   0.000000e+00   0.000000e+00
      240000   2.399990e-06   4.762422e-02   8.221165e+00   2.085539e+01  -2.181210e+04  -3.958024e+04   1.403330e+05   1.060333e+07  -5.843342e+06  -1.291174e-16   1.474304e+05   1.135189e-32   0.000000e+00   0.000000e+00
      248000   2.479990e-06   4.587928e-02   8.217999e+00   2.086662e+01  -2.181125e+04  -3.958071e+04   1.403330e+05   1.054031e+07  -5.808321e+06  -1.517117e-16   1.474304e+05   1.121709e-32   0.000000e+00   0.000000e+00
      256000   2.559990e-06   4.413442e-02   8.214832e+00   2.087785e+01  -2.181041e+04  -3.958117e+04   1.403330e+05   1.047729e+07  -5.773303e+06   1.692495e-17   1.474304e+05   1.108310e-32   0.000000e+00   0.000000e+00
      264000   2.639990e-06   4.238962e-02   8.211666e+00   2.088907e+01  -2.180958e+04  -3.958163e+04   1.403330e+05   1.041427e+07  -5.738288e+06  -4.326708e-17   1.474304e+05   1.094991e-32   0.000000e+00   0.000000e+00
      272000   2.719990e-06   4.064488e-02   8.208499e+00   2.090030e+01  -2.180875e+04  -3.958209e+04   1.403330e+05   8.839034e+06  -4.870089e+06  -9.622557e-18   1.474304e+05   7.887674e-33   0.000000e+00   0.000000e+00
      280000   2.799990e-06   3.890021e-02   8.205333e+00   2.091153e+01  -2.180803e+04  -3.958248e+04   1.403330e+05   9.080473e+06  -5.002901e+06  -6.471983e-17   1.474304e+05   8.324300e-33   0.000000e+00   0.000000e+00
      288000   2.879990e-06   3.715560e-02   8.202166e+00   2.092275e+01  -2.180730e+04  -3.958289e+04   1.403330e+05   9.321915e+06  -5.135698e+06   6.791488e-17   1.474304e+05   8.772679e-33   0.000000e+00   0.000000e+00
      296000   2.959990e-06   3.541105e-02   8.198999e+00   2.093398e+01  -2.180653e+04  -3.958332e+04   1.403330e+05   1.016775e+07  -5.601433e+06  -9.311009e-17   1.474304e+05   1.043676e-32   0.000000e+00   0.000000e+00
      304000   3.039990e-06   3.366656e-02   8.195833e+00   2.094521e+01  -2.180572e+04  -3.958376e+04   1.403330e+05   1.010492e+07  -5.566549e+06  -1.255820e-16   1.474304e+05   1.030794e-32   0.000000e+00   0.000000e+00
      312000   3.119990e-06   3.192213e-02   8.192666e+00   2.095643e+01  -2.180491e+04  -3.958421e+04   1.403330e+05   1.004208e+07  -5.531668e+06  -1.425783e-17   1.474304e+05   1.017991e-32   0.000000e+00   0.000000e+00
      320000   3.199990e-06   3.017777e-02   8.189499e+00   2.096766e+01  -2.180411e+04  -3.958465e+04   1.403330e+05   9.979241e+06  -5.496789e+06  -7.900543e-17   1.474304e+05   1.005268e-32   0.000000e+00   0.000000e+00
      328000   3.279990e-06   2.843347e-02   8.186332e+00   2.097889e+01  -2.180331e+04  -3.958509e+04   1.403330e+05   9.916398e+06  -5.461914e+06  -8.942805e-17   1.474304e+05   9.926249e-33   0.000000e+00   0.000000e+00
      336000   3.359990e-06   2.668924e-02   8.183166e+00   2.099011e+01  -2.180252e+04  -3.958552e+04   1.403330e+05   9.853551e+06  -5.427041e+06  -6.524633e-17   1.474304e+05   9.800613e-33   0.000000e+00   0.000000e+00
      344000   3.439990e-06   2.494507e-02   8.179999e+00   2.100134e+01  -2.180172e+04  -3.958596e+04   1.403330e+05   1.101990e+07  -6.069141e+06   3.867419e-17   1.474304e+05   1.225773e-32   0.000000e+00   0.000000e+00
      352000   3.519990e-06   2.320097e-02   8.176832e+00   2.101257e+01  -2.180083e+04  -3.958645e+04   1.403330e+05   1.126048e+07  -6.201310e+06   1.467011e-16   1.474304e+05   1.279847e-32   0.000000e+00   0.000000e+00
      360000   3.599990e-06   2.145694e-02   8.173665e+00   2.102379e+01  -2.179992e+04  -3.958695e+04   1.403330e+05   1.150107e+07  -6.333460e+06  -2.503377e-18   1.474304e+05   1.335087e-32   0.000000e+00   0.000000e+00
      368000   3.679990e-06   1.971298e-02   8.170498e+00   2.103502e+01  -2.179899e+04  -3.958746e+04   1.403330e+05   1.174166e+07  -6.465589e+06  -3.826872e-17   1.474304e+05   1.391492e-32   0.000000e+00   0.000000e+00
      376000   3.759990e-06   1.796910e-02   8.167331e+00   2.104625e+01  -2.179804e+04  -3.958799e+04   1.403330e+05   1.198225e+07  -6.597698e+06  -4.002927e-17   1.474304e+05   1.449063e-32   0.000000e+00   0.000000e+00
      384000   3.839990e-06   1.622529e-02   8.164164e+00   2.105747e+01  -2.179708e+04  -3.958852e+04   1.403330e+05   1.222284e+07  -6.729786e+06   1.294118e-17   1.474304e+05   1.507800e-32   0.000000e+00   0.000000e+00
      392000   3.919990e-06   1.448157e-02   8.160997e+00   2.106870e+01  -2.179609e+04  -3.958906e+04   1.403330e+05   1.246344e+07  -6.861852e+06  -5.861144e-17   1.474304e+05   1.567701e-32   0.000000e+00   0.000000e+00
      400000   3.999990e-06   1.273792e-02   8.157830e+00   2.107993e+01  -2.179508e+04  -3.958962e+04   1.403330e+05   1.270405e+07  -6.993897e+06   1.664630e-16   1.474304e+05   1.628768e-32   0.000000e+00   0.000000e+00
      408000   4.079990e-06   1.099435e-02   8.154662e+00   2.109115e+01  -2.179406e+04  -3.959018e+04   1.403330e+05   1.294465e+07  -7.125920e+06   5.893246e-17   1.474304e+05   1.690999e-32   0.000000e+00   0.000000e+00
      416000   4.159990e-06   9.250872e-03   8.151495e+00   2.110238e+01  -2.179303e+04  -3.959075e+04   1.403330e+05   1.205686e+07  -6.636790e+06  -1.502592e-16   1.474304e+05   1.466970e-32   0.000000e+00   0.000000e+00
      424000   4.239990e-06   7.507468e-03   8.148328e+00   2.111361e+01  -2.179207e+04  -3.959128e+04   1.403330e+05   1.199404e+07  -6.601829e+06  -2.099933e-17   1.474304e+05   1.451684e-32   0.000000e+00   0.000000e+00
      432000   4.319990e-06   5.764141e-03   8.145161e+00   2.112483e+01  -2.179111e+04  -3.959180e+04   1.403330e+05   1.193121e+07  -6.566871e+06  -5.828556e-17   1.474304e+05   1.436477e-32   0.000000e+00   0.000000e+00
      440000   4.399990e-06   4.020890e-03   8.141993e+00   2.113606e+01  -2.179016e+04  -3.959233e+04   1.403330e+05   1.186838e+07  -6.531918e+06   1.182723e-16   1.474304e+05   1.421350e-32   0.000000e+00   0.000000e+00
      448000   4.479990e-06   2.277716e-03   8.138826e+00   2.114729e+01  -2.178921e+04  -3.959285e+04   1.403330e+05   1.180554e+07  -6.496968e+06   8.868423e-17   1.474304e+05   1.406302e-32   0.000000e+00   0.000000e+00
      456000   4.559990e-06   5.346163e-04   8.135658e+00   2.115851e+01  -2.178827e+04  -3.959337e+04   1.403330e+05   1.174270e+07  -6.462021e+06  -1.677462e-17   1.474304e+05   1.391335e-32   0.000000e+00   0.000000e+00
