     timestep     time              x             y              z              vx             vy             vz             ax             ay             az         v_magnitude      ELoss        Electronic      Nuclear
           0   0.000000e+00   1.000000e-01   6.464269e+00   4.124898e+00   1.112013e+05  -8.894023e+04  -1.348125e+05   0.000000e+00   0.000000e+00   0.000000e+00   1.960880e+05   0.000000e+00   0.000000e+00   0.000000e+00
        8000   7.999000e-08   1.088961e-01   6.457154e+00   4.114113e+00   1.112013e+05  -8.894023e+04  -1.348125e+05   0.000000e+00   0.000000e+00   0.000000e+00   1.960880e+05   0.000000e+00   0.000000e+00   0.000000e+00
       16000   1.599900e-07   1.177922e-01   6.450039e+00   4.103328e+00   1.112013e+05  -8.894023e+04  -1.348125e+05   0.000000e+00   0.000000e+00   0.000000e+00   1.960880e+05   0.000000e+00   0.000000e+00   0.000000e+00
       24000   2.399900e-07   1.266883e-01   6.442923e+00   4.092543e+00   1.112013e+05  -8.894023e+04  -1.348125e+05   0.000000e+00   0.000000e+00   0.000000e+00   1.960880e+05   0.000000e+00   0.000000e+00   0.000000e+00
       32000   3.199900e-07   1.355844e-01   6.435808e+00   4.081758e+00   1.112013e+05  -8.894023e+04  -1.348125e+05   0.000000e+00   0.000000e+00   0.000000e+00   1.960880e+05   0.000000e+00   0.000000e+00   0.000000e+00
       40000   3.999900e-07   1.444805e-01   6.428693e+00   4.070973e+00   1.112013e+05  -8.894023e+04  -1.348125e+05   0.000000e+00   0.000000e+00   0.000000e+00   1.960880e+05   0.000000e+00   0.000000e+00   0.000000e+00
       48000   4.799900e-07   1.533766e-01   6.421578e+00   4.060188e+00   1.112013e+05  -8.894023e+04  -1.348125e+05   0.000000e+00   0.000000e+00   0.000000e+00   1.960880e+05   0.000000e+00   0.000000e+00   0.000000e+00
       56000   5.599900e-07   1.622727e-01   6.414462e+00   4.049403e+00   1.112013e+05  -8.894023e+04  -1.348125e+05   0.000000e+00   0.000000e+00   0.000000e+00   1.960880e+05   0.000000e+00   0.000000e+00   0.000000e+00
       64000   6.399900e-07   1.711688e-01   6.407347e+00   4.038618e+00   1.112013e+05  -8.894023e+04  -1.348125e+05   0.000000e+00   0.000000e+00   0.000000e+00   1.960880e+05   0.000000e+00   0.000000e+00   0.000000e+00
       72000   7.199900e-07   1.800649e-01   6.400232e+00   4.027833e+00   1.112013e+05  -8.894023e+04  -1.348125e+05   0.000000e+00   0.000000e+00   0.000000e+00   1.960880e+05   0.000000e+00   0.000000e+00   0.000000e+00
       80000   7.999900e-07   1.889610e-01   6.393117e+00   4.017048e+00   1.112013e+05  -8.894023e+04  -1.348125e+05   0.000000e+00   0.000000e+00   0.000000e+00   1.960880e+05   0.000000e+00   0.000000e+00   0.000000e+00
       88000   8.799900e-07   1.978571e-01   6.386002e+00   4.006263e+00   1.112013e+05  -8.894023e+04  -1.348125e+05   0.000000e+00   0.000000e+00   0.000000e+00   1.960880e+05   0.000000e+00   0.000000e+00   0.000000e+00
       96000   9.599900e-07   2.067532e-01   6.378886e+00   3.995478e+00   1.112013e+05  -8.894023e+04  -1.348125e+05   0.000000e+00   0.000000e+00   0.000000e+00   1.960880e+05   0.000000e+00   0.000000e+00   0.000000e+00
      104000   1.039990e-06   2.156493e-01   6.371771e+00   3.984693e+00   1.112013e+05  -8.894023e+04  -1.348125e+05   0.000000e+00   0.000000e+00   0.000000e+00   1.960880e+05   0.000000e+00   0.000000e+00   0.000000e+00
      112000   1.119990e-06   2.245454e-01   6.364656e+00   3.973908e+00   1.112013e+05  -8.894023e+04  -1.348125e+05   0.000000e+00   0.000000e+00   0.000000e+00   1.960880e+05   0.000000e+00   0.000000e+00   0.000000e+00
      120000   1.199990e-06   2.334415e-01   6.357541e+00   3.963123e+00   1.112013e+05  -8.894023e+04  -1.348125e+05   0.000000e+00   0.000000e+00   0.000000e+00   1.960880e+05   0.000000e+00   0.000000e+00   0.000000e+00
      128000   1.279990e-06   2.423376e-01   6.350426e+00   3.952338e+00   1.112013e+05  -8.894023e+04  -1.348125e+05   0.000000e+00   0.000000e+00   0.000000e+00   1.960880e+05   0.000000e+00   0.000000e+00   0.000000e+00
      136000   1.359990e-06   2.512337e-01   6.343310e+00   3.941553e+00   1.112013e+05  -8.894023e+04  -1.348125e+05   0.000000e+00   0.000000e+00   0.000000e+00   1.960880e+05   0.000000e+00   0.000000e+00   0.000000e+00
      144000   1.439990e-06   2.601298e-01   6.336195e+00   3.930768e+00   1.112013e+05  -8.894023e+04  -1.348125e+05   0.000000e+00   0.000000e+00   0.000000e+00   1.960880e+05   0.000000e+00   0.000000e+00   0.000000e+00
      152000   1.519990e-06   2.690259e-01   6.329080e+00   3.919983e+00   1.112013e+05  -8.894023e+04  -1.348125e+05   0.000000e+00   0.000000e+00   0.000000e+00   1.960880e+05   0.000000e+00   0.000000e+00   0.000000e+00
      160000   1.599990e-06   2.779220e-01   6.321965e+00   3.909198e+00   1.112013e+05  -8.894023e+04  -1.348125e+05   0.000000e+00   0.000000e+00   0.000000e+00   1.960880e+05   0.000000e+00   0.000000e+00   0.000000e+00
      168000   1.679990e-06   2.868181e-01   6.314849e+00   3.898413e+00   1.112013e+05  -8.894023e+04  -1.348125e+05   0.000000e+00   0.000000e+00   0.000000e+00   1.960880e+05   0.000000e+00   0.000000e+00   0.000000e+00
      176000   1.759990e-06   2.957142e-01   6.307734e+00   3.887628e+00   1.112013e+05  -8.894023e+04  -1.348125e+05   0.000000e+00   0.000000e+00   0.000000e+00   1.960880e+05   0.000000e+00   0.000000e+00   0.000000e+00
      184000   1.839990e-06   3.046103e-01   6.300619e+00   3.876843e+00   1.112013e+05  -8.894023e+04  -1.348125e+05   0.000000e+00   0.000000e+00   0.000000e+00   1.960880e+05   0.000000e+00   0.000000e+00   0.000000e+00
      192000   1.919990e-06   3.135064e-01   6.293504e+00   3.866058e+00   1.112013e+05  -8.894023e+04  -1.348125e+05   0.000000e+00   0.000000e+00   0.000000e+00   1.960880e+05   0.000000e+00   0.000000e+00   0.000000e+00
      200000   1.999990e-06   3.224025e-01   6.286389e+00   3.855273e+00   1.112013e+05  -8.894023e+04  -1.348125e+05   0.000000e+00   0.000000e+00   0.000000e+00   1.960880e+05   0.000000e+00   0.000000e+00   0.000000e+00
      208000   2.079990e-06   3.312986e-01   6.279273e+00   3.844488e+00   1.112013e+05  -8.894023e+04  -1.348125e+05   0.000000e+00   0.000000e+00   0.000000e+00   1.960880e+05   0.000000e+00   0.000000e+00   0.000000e+00
      216000   2.159990e-06   3.401947e-01   6.272158e+00   3.833703e+00   1.112013e+05  -8.894023e+04  -1.348125e+05   0.000000e+00   0.000000e+00   0.000000e+00   1.960880e+05   0.000000e+00   0.000000e+00   0.000000e+00
      224000   2.239990e-06   3.490908e-01   6.265043e+00   3.822918e+00   1.112013e+05  -8.894023e+04  -1.348125e+05   0.000000e+00   0.000000e+00   0.000000e+00   1.960880e+05   0.000000e+00   0.000000e+00   0.000000e+00
      232000   2.319990e-06   3.579869e-01   6.257928e+00   3.812133e+00   1.112013e+05  -8.894023e+04  -1.348125e+05   0.000000e+00   0.000000e+00   0.000000e+00   1.960880e+05   0.000000e+00   0.000000e+00   0.000000e+00
      240000   2.399990e-06   3.668830e-01   6.250812e+00   3.801348e+00   1.112013e+05  -8.894023e+04  -1.348125e+05   0.000000e+00   0.000000e+00   0.000000e+00   1.960880e+05   0.000000e+00   0.000000e+00   0.000000e+00
      248000   2.479990e-06   3.757792e-01   6.243697e+00   3.790563e+00   1.112013e+05  -8.894023e+04  -1.348125e+05   0.000000e+00   0.000000e+00   0.000000e+00   1.960880e+05   0.000000e+00   0.000000e+00   0.000000e+00
      256000   2.559990e-06   3.846753e-01   6.236582e+00   3.779778e+00   1.112013e+05  -8.894023e+04  -1.348125e+05   0.000000e+00   0.000000e+00   0.000000e+00   1.960880e+05   0.000000e+00   0.000000e+00   0.000000e+00
      264000   2.639990e-06   3.935714e-01   6.229467e+00   3.768993e+00   1.112013e+05  -8.894023e+04  -1.348125e+05   0.000000e+00   0.000000e+00   0.000000e+00   1.960880e+05   0.000000e+00   0.000000e+00   0.000000e+00
      272000   2.719990e-06   4.024675e-01   6.222352e+00   3.758208e+00   1.112013e+05  -8.894023e+04  -1.348125e+05   0.000000e+00   0.000000e+00   0.000000e+00   1.960880e+05   0.000000e+00   0.000000e+00   0.000000e+00
      280000   2.799990e-06   4.113636e-01   6.215236e+00   3.747423e+00   1.112013e+05  -8.894023e+04  -1.348125e+05   0.000000e+00   0.000000e+00   0.000000e+00   1.960880e+05   0.000000e+00   0.000000e+00   0.000000e+00
      288000   2.879990e-06   4.202597e-01   6.208121e+00   3.736638e+00   1.112013e+05  -8.894023e+04  -1.348125e+05   0.000000e+00   0.000000e+00   0.000000e+00   1.960880e+05   0.000000e+00   0.000000e+00   0.000000e+00
      296000   2.959990e-06   4.291558e-01   6.201006e+00   3.725853e+00   1.112013e+05  -8.894023e+04  -1.348125e+05   0.000000e+00   0.000000e+00   0.000000e+00   1.960880e+05   0.000000e+00   0.000000e+00   0.000000e+00
      304000   3.039990e-06   4.380519e-01   6.193891e+00   3.715068e+00   1.112013e+05  -8.894023e+04  -1.348125e+05   0.000000e+00   0.000000e+00   0.000000e+00   1.960880e+05   0.000000e+00   0.000000e+00   0.000000e+00
      312000   3.119990e-06   4.469480e-01   6.186775e+00   3.704283e+00   1.112013e+05  -8.894023e+04  -1.348125e+05   0.000000e+00   0.000000e+00   0.000000e+00   1.960880e+05   0.000000e+00   0.000000e+00   0.000000e+00
      320000   3.199990e-06   4.558441e-01   6.179660e+00   3.693498e+00   1.112013e+05  -8.894023e+04  -1.348125e+05   0.000000e+00   0.000000e+00   0.000000e+00   1.960880e+05   0.000000e+00   0.000000e+00   0.000000e+00
      328000   3.279990e-06   4.647402e-01   6.172545e+00   3.682713e+00   1.112013e+05  -8.894023e+04  -1.348125e+05   0.000000e+00   0.000000e+00   0.000000e+00   1.960880e+05   0.000000e+00   0.000000e+00   0.000000e+00
      336000   3.359990e-06   4.736363e-01   6.165430e+00   3.671928e+00   1.112013e+05  -8.894023e+04  -1.348125e+05   0.000000e+00   0.000000e+00   0.000000e+00   1.960880e+05   0.000000e+00   0.000000e+00   0.000000e+00
      344000   3.439990e-06   4.825324e-01   6.158315e+00   3.661143e+00   1.112013e+05  -8.894023e+04  -1.348125e+05   0.000000e+00   0.000000e+00   0.000000e+00   1.960880e+05   0.000000e+00   0.000000e+00   0.000000e+00
      352000   3.519990e-06   4.914285e-01   6.151199e+00   3.650358e+00   1.112013e+05  -8.894023e+04  -1.348125e+05   0.000000e+00   0.000000e+00   0.000000e+00   1.960880e+05   0.000000e+00   0.000000e+00   0.000000e+00
      360000   3.599990e-06   5.003246e-01   6.144084e+00   3.639573e+00   1.112013e+05  -8.894023e+04  -1.348125e+05   0.000000e+00   0.000000e+00   0.000000e+00   1.960880e+05   0.000000e+00   0.000000e+00   0.000000e+00
      368000   3.679990e-06   5.092207e-01   6.136969e+00   3.628788e+00   1.112013e+05  -8.894023e+04  -1.348125e+05   0.000000e+00   0.000000e+00   0.000000e+00   1.960880e+05   0.000000e+00   0.000000e+00   0.000000e+00
      376000   3.759990e-06   5.181168e-01   6.129854e+00   3.618003e+00   1.112013e+05  -8.894023e+04  -1.348125e+05   0.000000e+00   0.000000e+00   0.000000e+00   1.960880e+05   0.000000e+00   0.000000e+00   0.000000e+00
      384000   3.839990e-06   5.270129e-01   6.122739e+00   3.607218e+00   1.112013e+05  -8.894023e+04  -1.348125e+05   0.000000e+00   0.000000e+00   0.000000e+00   1.960880e+05   0.000000e+00   0.000000e+00   0.000000e+00
      392000   3.919990e-06   5.359090e-01   6.115623e+00   3.596433e+00   1.112013e+05  -8.894023e+04  -1.348125e+05   0.000000e+00   0.000000e+00   0.000000e+00   1.960880e+05   0.000000e+00   0.000000e+00   0.000000e+00
      400000   3.999990e-06   5.448051e-01   6.108508e+00   3.585648e+00   1.112013e+05  -8.894023e+04  -1.348125e+05   0.000000e+00   0.000000e+00   0.000000e+00   1.960880e+05   0.000000e+00   0.000000e+00   0.000000e+00
      408000   4.079990e-06   5.537012e-01   6.101393e+00   3.574863e+00   1.112013e+05  -8.894023e+04  -1.348125e+05   0.000000e+00   0.000000e+00   0.000000e+00   1.960880e+05   0.000000e+00   0.000000e+00   0.000000e+00
      416000   4.159990e-06   5.625973e-01   6.094278e+00   3.564078e+00   1.112013e+05  -8.894023e+04  -1.348125e+05   0.000000e+00   0.000000e+00   0.000000e+00   1.960880e+05   0.000000e+00   0.000000e+00   0.000000e+00
      424000   4.239990e-06   5.714934e-01   6.087162e+00   3.553293e+00   1.112013e+05  -8.894023e+04  -1.348125e+05   0.000000e+00   0.000000e+00   0.000000e+00   1.960880e+05   0.000000e+00   0.000000e+00   0.000000e+00
      432000   4.319990e-06   5.803895e-01   6.080047e+00   3.542508e+00   1.112013e+05  -8.894023e+04  -1.348125e+05   0.000000e+00   0.000000e+00   0.000000e+00   1.960880e+05   0.000000e+00   0.000000e+00   0.000000e+00
      440000   4.399990e-06   5.892856e-01   6.072932e+00   3.531723e+00   1.112013e+05  -8.894023e+04  -1.348125e+05   0.000000e+00   0.000000e+00   0.000000e+00   1.960880e+05   0.000000e+00   0.000000e+00   0.000000e+00
      448000   4.479990e-06   5.981817e-01   6.065817e+00   3.520938e+00   1.112013e+05  -8.894023e+04  -1.348125e+05   0.000000e+00   0.000000e+00   0.000000e+00   1.960880e+05   0.000000e+00   0.000000e+00   0.000000e+00
      456000   4.559990e-06   6.070778e-01   6.058702e+00   3.510153e+00   1.112013e+05  -8.894023e+04  -1.348125e+05   0.000000e+00   0.000000e+00   0.000000e+00   1.960880e+05   0.000000e+00   0.000000e+00   0.000000e+00
      464000   4.639990e-06   6.159739e-01   6.051586e+00   3.499368e+00   1.112013e+05  -8.894023e+04  -1.348125e+05   0.000000e+00   0.000000e+00   0.000000e+00   1.960880e+05   0.000000e+00   0.000000e+00   0.000000e+00
      472000   4.719990e-06   6.248700e-01   6.044471e+00   3.488583e+00   1.112013e+05  -8.894023e+04  -1.348125e+05   0.000000e+00   0.000000e+00   0.000000e+00   1.960880e+05   0.000000e+00   0.000000e+00   0.000000e+00
      480000   4.799990e-06   6.337661e-01   6.037356e+00   3.477798e+00   1.112013e+05  -8.894023e+04  -1.348125e+05   0.000000e+00   0.000000e+00   0.000000e+00   1.960880e+05   0.000000e+00   0.000000e+00   0.000000e+00
      488000   4.879990e-06   6.426622e-01   6.030241e+00   3.467013e+00   1.112013e+05  -8.894023e+04  -1.348125e+05   0.000000e+00   0.000000e+00   0.000000e+00   1.960880e+05   0.000000e+00   0.000000e+00   0.000000e+00
      496000   4.959990e-06   6.515583e-01   6.023125e+00   3.456228e+00   1.112013e+05  -8.894023e+04  -1.348125e+05   0.000000e+00   0.000000e+00   0.000000e+00   1.960880e+05   0.000000e+00   0.000000e+00   0.000000e+00
      504000   5.039990e-06   6.604544e-01   6.016010e+00   3.445443e+00   1.112013e+05  -8.894023e+04  -1.348125e+05   0.000000e+00   0.000000e+00   0.000000e+00   1.960880e+05   0.000000e+00   0.000000e+00   0.000000e+00
      512000   5.119990e-06   6.693505e-01   6.008895e+00   3.434658e+00   1.112013e+05  -8.894023e+04  -1.348125e+05   0.000000e+00   0.000000e+00   0.000000e+00   1.960880e+05   0.000000e+00   0.000000e+00   0.000000e+00
      520000   5.199990e-06   6.782466e-01   6.001780e+00   3.423873e+00   1.112013e+05  -8.894023e+04  -1.348125e+05   0.000000e+00   0.000000e+00   0.000000e+00   1.960880e+05   0.000000e+00   0.000000e+00   0.000000e+00
      528000   5.279990e-06   6.871427e-01   5.994665e+00   3.413088e+00   1.112013e+05  -8.894023e+04  -1.348125e+05   0.000000e+00   0.000000e+00   0.000000e+00   1.960880e+05   0.000000e+00   0.000000e+00   0.000000e+00
      536000   5.359990e-06   6.960388e-01   5.987549e+00   3.402303e+00   1.112013e+05  -8.894023e+04  -1.348125e+05   0.000000e+00   0.000000e+00   0.000000e+00   1.960880e+05   0.000000e+00   0.000000e+00   0.000000e+00
      544000   5.439990e-06   7.049349e-01   5.980434e+00   3.391518e+00   1.112013e+05  -8.894023e+04  -1.348125e+05   0.000000e+00   0.000000e+00   0.000000e+00   1.960880e+05   0.000000e+00   0.000000e+00   0.000000e+00
      552000   5.519990e-06   7.138310e-01   5.973319e+00   3.380733e+00   1.112013e+05  -8.894023e+04  -1.348125e+05   0.000000e+00   0.000000e+00   0.000000e+00   1.960880e+05   0.000000e+00   0.000000e+00   0.000000e+00
      560000   5.599990e-06   7.227271e-01   5.966204e+00   3.369948e+00   1.112013e+05  -8.894023e+04  -1.348125e+05   0.000000e+00   0.000000e+00   0.000000e+00   1.960880e+05   0.000000e+00   0.000000e+00   0.000000e+00
      568000   5.679990e-06   7.316232e-01   5.959089e+00   3.359163e+00   1.112013e+05  -8.894023e+04  -1.348125e+05   0.000000e+00   0.000000e+00   0.000000e+00   1.960880e+05   0.000000e+00   0.000000e+00   0.000000e+00
      576000   5.759990e-06   7.405193e-01   5.951973e+00   3.348378e+00   1.112013e+05  -8.894023e+04  -1.348125e+05   0.000000e+00   0.000000e+00   0.000000e+00   1.960880e+05   0.000000e+00   0.000000e+00   0.000000e+00
      584000   5.839990e-06   7.494154e-01   5.944858e+00   3.337593e+00   1.112013e+05  -8.894023e+04  -1.348125e+05   0.000000e+00   0.000000e+00   0.000000e+00   1.960880e+05   0.000000e+00   0.000000e+00   0.000000e+00
      592000   5.919990e-06   7.583115e-01   5.937743e+00   3.326808e+00   1.112013e+05  -8.894023e+04  -1.348125e+05   0.000000e+00   0.000000e+00   0.000000e+00   1.960880e+05   0.000000e+00   0.000000e+00   0.000000e+00
      600000   5.999990e-06   7.672076e-01   5.930628e+00   3.316023e+00   1.112013e+05  -8.894023e+04  -1.348125e+05   0.000000e+00   0.000000e+00   0.000000e+00   1.960880e+05   0.000000e+00   0.000000e+00   0.000000e+00
      608000   6.079990e-06   7.761037e-01   5.923512e+00   3.305238e+00   1.112013e+05  -8.894023e+04  -1.348125e+05   0.000000e+00   0.000000e+00   0.000000e+00   1.960880e+05   0.000000e+00   0.000000e+00   0.000000e+00
      616000   6.159990e-06   7.849998e-01   5.916397e+00   3.294453e+00   1.112013e+05  -8.894023e+04  -1.348125e+05   0.000000e+00   0.000000e+00   0.000000e+00   1.960880e+05   0.000000e+00   0.000000e+00   0.000000e+00
      624000   6.239990e-06   7.938959e-01   5.909282e+00   3.283668e+00   1.112013e+05  -8.894023e+04  -1.348125e+05   0.000000e+00   0.000000e+00   0.000000e+00   1.960880e+05   0.000000e+00   0.000000e+00   0.000000e+00
      632000   6.319990e-06   8.027920e-01   5.902167e+00   3.272883e+00   1.112013e+05  -8.894023e+04  -1.348125e+05   0.000000e+00   0.000000e+00   0.000000e+00   1.960880e+05   0.000000e+00   0.000000e+00   0.000000e+00
      640000   6.399990e-06   8.116881e-01   5.895052e+00   3.262098e+00   1.112013e+05  -8.894023e+04  -1.348125e+05   0.000000e+00   0.000000e+00   0.000000e+00   1.960880e+05   0.000000e+00   0.000000e+00   0.000000e+00
      648000   6.479990e-06   8.205842e-01   5.887936e+00   3.251313e+00   1.112013e+05  -8.894023e+04  -1.348125e+05   0.000000e+00   0.000000e+00   0.000000e+00   1.960880e+05   0.000000e+00   0.000000e+00   0.000000e+00
      656000   6.559990e-06   8.294803e-01   5.880821e+00   3.240528e+00   1.112013e+05  -8.894023e+04  -1.348125e+05   0.000000e+00   0.000000e+00   0.000000e+00   1.960880e+05   0.000000e+00   0.000000e+00   0.000000e+00
      664000   6.639990e-06   8.383764e-01   5.873706e+00   3.229743e+00   1.112013e+05  -8.894023e+04  -1.348125e+05   0.000000e+00   0.000000e+00   0.000000e+00   1.960880e+05   0.000000e+00   0.000000e+00   0.000000e+00
      672000   6.719990e-06   8.472725e-01   5.866591e+00   3.218958e+00   1.112013e+05  -8.894023e+04  -1.348125e+05   0.000000e+00   0.000000e+00   0.000000e+00   1.960880e+05   0.000000e+00   0.000000e+00   0.000000e+00
      680000   6.799990e-06   8.561686e-01   5.859475e+00   3.208173e+00   1.112013e+05  -8.894023e+04  -1.348125e+05   0.000000e+00   0.000000e+00   0.000000e+00   1.960880e+05   0.000000e+00   0.000000e+00   0.000000e+00
      688000   6.879990e-06   8.650647e-01   5.852360e+00   3.197388e+00   1.112013e+05  -8.894023e+04  -1.348125e+05   0.000000e+00   0.000000e+00   0.000000e+00   1.960880e+05   0.000000e+00   0.000000e+00   0.000000e+00
      696000   6.959990e-06   8.739608e-01   5.845245e+00   3.186603e+00   1.112013e+05  -8.894023e+04  -1.348125e+05   0.000000e+00   0.000000e+00   0.000000e+00   1.960880e+05   0.000000e+00   0.000000e+00   0.000000e+00
      704000   7.039990e-06   8.828569e-01   5.838130e+00   3.175818e+00   1.112013e+05  -8.894023e+04  -1.348125e+05   0.000000e+00   0.000000e+00   0.000000e+00   1.960880e+05   0.000000e+00   0.000000e+00   0.000000e+00
      712000   7.119990e-06   8.917530e-01   5.831015e+00   3.165033e+00   1.112013e+05  -8.894023e+04  -1.348125e+05   0.000000e+00   0.000000e+00   0.000000e+00   1.960880e+05   0.000000e+00   0.000000e+00   0.000000e+00
      720000   7.199990e-06   9.006491e-01   5.823899e+00   3.154248e+00   1.112013e+05  -8.894023e+04  -1.348125e+05   0.000000e+00   0.000000e+00   0.000000e+00   1.960880e+05   0.000000e+00   0.000000e+00   0.000000e+00
      728000   7.279990e-06   9.095453e-01   5.816784e+00   3.143463e+00   1.112013e+05  -8.894023e+04  -1.348125e+05   0.000000e+00   0.000000e+00   0.000000e+00   1.960880e+05   0.000000e+00   0.000000e+00   0.000000e+00
      736000   7.359990e-06   9.184414e-01   5.809669e+00   3.132678e+00   1.112013e+05  -8.894023e+04  -1.348125e+05   0.000000e+00   0.000000e+00   0.000000e+00   1.960880e+05   0.000000e+00   0.000000e+00   0.000000e+00
      744000   7.439990e-06   9.273375e-01   5.802554e+00   3.121893e+00   1.112013e+05  -8.894023e+04  -1.348125e+05   0.000000e+00   0.000000e+00   0.000000e+00   1.960880e+05   0.000000e+00   0.000000e+00   0.000000e+00
      752000   7.519990e-06   9.362336e-01   5.795438e+00   3.111108e+00   1.112013e+05  -8.894023e+04  -1.348125e+05   0.000000e+00   0.000000e+00   0.000000e+00   1.960880e+05   0.000000e+00   0.000000e+00   0.000000e+00
      760000   7.599990e-06   9.451297e-01   5.788323e+00   3.100323e+00   1.112013e+05  -8.894023e+04  -1.348125e+05   0.000000e+00   0.000000e+00   0.000000e+00   1.960880e+05   0.000000e+00   0.000000e+00   0.000000e+00
      768000   7.679990e-06   9.540258e-01   5.781208e+00   3.089538e+00   1.112013e+05  -8.894023e+04  -1.348125e+05   0.000000e+00   0.000000e+00   0.000000e+00   1.960880e+05   0.000000e+00   0.000000e+00   0.000000e+00
      776000   7.759990e-06   9.629219e-01   5.774093e+00   3.078753e+00   1.112013e+05  -8.894023e+04  -1.348125e+05   0.000000e+00   0.000000e+00   0.000000e+00   1.960880e+05   0.000000e+00   0.000000e+00   0.000000e+00
      784000   7.839990e-06   9.718180e-01   5.766978e+00   3.067968e+00   1.112013e+05  -8.894023e+04  -1.348125e+05   0.000000e+00   0.000000e+00   0.000000e+00   1.960880e+05   0.000000e+00   0.000000e+00   0.000000e+00
      792000   7.919990e-06   9.807141e-01   5.759862e+00   3.057183e+00   1.112013e+05  -8.894023e+04  -1.348125e+05   0.000000e+00   0.000000e+00   0.000000e+00   1.960880e+05   0.000000e+00   0.000000e+00   0.000000e+00
      800000   7.999990e-06   9.896102e-01   5.752747e+00   3.046398e+00   1.112013e+05  -8.894023e+04  -1.348125e+05   0.000000e+00   0.000000e+00   0.000000e+00   1.960880e+05   0.000000e+00   0.000000e+00   0.000000e+00
      808000   8.079990e-06   9.985063e-01   5.745632e+00   3.035613e+00   1.112013e+05  -8.894023e+04  -1.348125e+05   0.000000e+00   0.000000e+00   0.000000e+00   1.960880e+05   0.000000e+00   0.000000e+00   0.000000e+00
      816000   8.159990e-06   1.007402e+00   5.738517e+00   3.024828e+00   1.112013e+05  -8.894023e+04  -1.348125e+05   0.000000e+00   0.000000e+00   0.000000e+00   1.960880e+05   0.000000e+00   0.000000e+00   0.000000e+00
      824000   8.239990e-06   1.016298e+00   5.731402e+00   3.014043e+00   1.112013e+05  -8.894023e+04  -1.348125e+05   0.000000e+00   0.000000e+00   0.000000e+00   1.960880e+05   0.000000e+00   0.000000e+00   0.000000e+00
      832000   8.319990e-06   1.025195e+00   5.724286e+00   3.003258e+00   1.112013e+05  -8.894023e+04  -1.348125e+05   0.000000e+00   0.000000e+00   0.000000e+00   1.960880e+05   0.000000e+00   0.000000e+00   0.000000e+00
      840000   8.399990e-06   1.034091e+00   5.717171e+00   2.992473e+00   1.112013e+05  -8.894023e+04  -1.348125e+05   0.000000e+00   0.000000e+00   0.000000e+00   1.960880e+05   0.000000e+00   0.000000e+00   0.000000e+00
      848000   8.479990e-06   1.042987e+00   5.710056e+00   2.981688e+00   1.112013e+05  -8.894023e+04  -1.348125e+05   0.000000e+00   0.000000e+00   0.000000e+00   1.960880e+05   0.000000e+00   0.000000e+00   0.000000e+00
      856000   8.559990e-06   1.051883e+00   5.702941e+00   2.970903e+00   1.112013e+05  -8.894023e+04  -1.348125e+05   0.000000e+00   0.000000e+00   0.000000e+00   1.960880e+05   0.000000e+00   0.000000e+00   0.000000e+00
      864000   8.639990e-06   1.060779e+00   5.695825e+00   2.960118e+00   1.112013e+05  -8.894023e+04  -1.348125e+05   0.000000e+00   0.000000e+00   0.000000e+00   1.960880e+05   0.000000e+00   0.000000e+00   0.000000e+00
      872000   8.719990e-06   1.069675e+00   5.688710e+00   2.949333e+00   1.112013e+05  -8.894023e+04  -1.348125e+05   0.000000e+00   0.000000e+00   0.000000e+00   1.960880e+05   0.000000e+00   0.000000e+00   0.000000e+00
      880000   8.799990e-06   1.078571e+00   5.681595e+00   2.938548e+00   1.112013e+05  -8.894023e+04  -1.348125e+05   0.000000e+00   0.000000e+00   0.000000e+00   1.960880e+05   0.000000e+00   0.000000e+00   0.000000e+00
      888000   8.879990e-06   1.087467e+00   5.674480e+00   2.927763e+00   1.112013e+05  -8.894023e+04  -1.348125e+05   0.000000e+00   0.000000e+00   0.000000e+00   1.960880e+05   0.000000e+00   0.000000e+00   0.000000e+00
      896000   8.959990e-06   1.096363e+00   5.667365e+00   2.916978e+00   1.112013e+05  -8.894023e+04  -1.348125e+05   0.000000e+00   0.000000e+00   0.000000e+00   1.960880e+05   0.000000e+00   0.000000e+00   0.000000e+00
      904000   9.039990e-06   1.105259e+00   5.660249e+00   2.906193e+00   1.112013e+05  -8.894023e+04  -1.348125e+05   0.000000e+00   0.000000e+00   0.000000e+00   1.960880e+05   0.000000e+00   0.000000e+00   0.000000e+00
      912000   9.119990e-06   1.114156e+00   5.653134e+00   2.895408e+00   1.112013e+05  -8.894023e+04  -1.348125e+05   0.000000e+00   0.000000e+00   0.000000e+00   1.960880e+05   0.000000e+00   0.000000e+00   0.000000e+00
      920000   9.199990e-06   1.123052e+00   5.646019e+00   2.884623e+00   1.112013e+05  -8.894023e+04  -1.348125e+05   0.000000e+00   0.000000e+00   0.000000e+00   1.960880e+05   0.000000e+00   0.000000e+00   0.000000e+00
      928000   9.279990e-06   1.131948e+00   5.638904e+00   2.873838e+00   1.112013e+05  -8.894023e+04  -1.348125e+05   0.000000e+00   0.000000e+00   0.000000e+00   1.960880e+05   0.000000e+00   0.000000e+00   0.000000e+00
      936000   9.359990e-06   1.140844e+00   5.631788e+00   2.863053e+00   1.112013e+05  -8.894023e+04  -1.348125e+05   0.000000e+00   0.000000e+00   0.000000e+00   1.960880e+05   0.000000e+00   0.000000e+00   0.000000e+00
      944000   9.439990e-06   1.149740e+00   5.624673e+00   2.852268e+00   1.112013e+05  -8.894023e+04  -1.348125e+05   0.000000e+00   0.000000e+00   0.000000e+00   1.960880e+05   0.000000e+00   0.000000e+00   0.000000e+00
      952000   9.519990e-06   1.158636e+00   5.617558e+00   2.841483e+00   1.112013e+05  -8.894023e+04  -1.348125e+05   0.000000e+00   0.000000e+00   0.000000e+00   1.960880e+05   0.000000e+00   0.000000e+00   0.000000e+00
      960000   9.599990e-06   1.167532e+00   5.610443e+00   2.830698e+00   1.112013e+05  -8.894023e+04  -1.348125e+05   0.000000e+00   0.000000e+00   0.000000e+00   1.960880e+05   0.000000e+00   0.000000e+00   0.000000e+00
      968000   9.679990e-06   1.176428e+00   5.603328e+00   2.819913e+00   1.112013e+05  -8.894023e+04  -1.348125e+05   0.000000e+00   0.000000e+00   0.000000e+00   1.960880e+05   0.000000e+00   0.000000e+00   0.000000e+00
      976000   9.759990e-06   1.185324e+00   5.596212e+00   2.809128e+00   1.112013e+05  -8.894023e+04  -1.348125e+05   0.000000e+00   0.000000e+00   0.000000e+00   1.960880e+05   0.000000e+00   0.000000e+00   0.000000e+00
      984000   9.839990e-06   1.194221e+00   5.589097e+00   2.798343e+00   1.112013e+05  -8.894023e+04  -1.348125e+05   0.000000e+00   0.000000e+00   0.000000e+00   1.960880e+05   0.000000e+00   0.000000e+00   0.000000e+00
      992000   9.919990e-06   1.203117e+00   5.581982e+00   2.787558e+00   1.112013e+05  -8.894023e+04  -1.348125e+05   0.000000e+00   0.000000e+00   0.000000e+00   1.960880e+05   0.000000e+00   0.000000e+00   0.000000e+00
     1000000   9.999990e-06   1.212013e+00   5.574867e+00   2.776773e+00   1.112013e+05  -8.894023e+04  -1.348125e+05   0.000000e+00   0.000000e+00   0.000000e+00   1.960880e+05   0.000000e+00   0.000000e+00   0.000000e+00
     1008000   1.007999e-05   1.220909e+00   5.567752e+00   2.765988e+00   1.112013e+05  -8.894023e+04  -1.348125e+05   0.000000e+00   0.000000e+00   0.000000e+00   1.960880e+05   0.000000e+00   0.000000e+00   0.000000e+00
     1016000   1.015999e-05   1.229805e+00   5.560636e+00   2.755203e+00   1.112013e+05  -8.894023e+04  -1.348125e+05   0.000000e+00   0.000000e+00   0.000000e+00   1.960880e+05   0.000000e+00   0.000000e+00   0.000000e+00
     1024000   1.023999e-05   1.238701e+00   5.553521e+00   2.744418e+00   1.112013e+05  -8.894023e+04  -1.348125e+05   0.000000e+00   0.000000e+00   0.000000e+00   1.960880e+05   0.000000e+00   0.000000e+00   0.000000e+00
     1032000   1.031999e-05   1.247597e+00   5.546406e+00   2.733633e+00   1.112013e+05  -8.894023e+04  -1.348125e+05   0.000000e+00   0.000000e+00   0.000000e+00   1.960880e+05   0.000000e+00   0.000000e+00   0.000000e+00
     1040000   1.039999e-05   1.256493e+00   5.539291e+00   2.722848e+00   1.112013e+05  -8.894023e+04  -1.348125e+05   0.000000e+00   0.000000e+00   0.000000e+00   1.960880e+05   0.000000e+00   0.000000e+00   0.000000e+00
     1048000   1.047999e-05   1.265389e+00   5.532175e+00   2.712063e+00   1.112013e+05  -8.894023e+04  -1.348125e+05   0.000000e+00   0.000000e+00   0.000000e+00   1.960880e+05   0.000000e+00   0.000000e+00   0.000000e+00
     1056000   1.055999e-05   1.274285e+00   5.525060e+00   2.701278e+00   1.112013e+05  -8.894023e+04  -1.348125e+05   0.000000e+00   0.000000e+00   0.000000e+00   1.960880e+05   0.000000e+00   0.000000e+00   0.000000e+00
     1064000   1.063999e-05   1.283182e+00   5.517945e+00   2.690493e+00   1.112013e+05  -8.894023e+04  -1.348125e+05   0.000000e+00   0.000000e+00   0.000000e+00   1.960880e+05   0.000000e+00   0.000000e+00   0.000000e+00
     1072000   1.071999e-05   1.292078e+00   5.510830e+00   2.679708e+00   1.112013e+05  -8.894023e+04  -1.348125e+05   0.000000e+00   0.000000e+00   0.000000e+00   1.960880e+05   0.000000e+00   0.000000e+00   0.000000e+00
     1080000   1.079999e-05   1.300974e+00   5.503715e+00   2.668923e+00   1.112013e+05  -8.894023e+04  -1.348125e+05   0.000000e+00   0.000000e+00   0.000000e+00   1.960880e+05   0.000000e+00   0.000000e+00   0.000000e+00
     1088000   1.087999e-05   1.309870e+00   5.496599e+00   2.658138e+00   1.112013e+05  -8.894023e+04  -1.348125e+05   0.000000e+00   0.000000e+00   0.000000e+00   1.960880e+05   0.000000e+00   0.000000e+00   0.000000e+00
     1096000   1.095999e-05   1.318766e+00   5.489484e+00   2.647353e+00   1.112013e+05  -8.894023e+04  -1.348125e+05   0.000000e+00   0.000000e+00   0.000000e+00   1.960880e+05   0.000000e+00   0.000000e+00   0.000000e+00
     1104000   1.103999e-05   1.327662e+00   5.482369e+00   2.636568e+00   1.112013e+05  -8.894023e+04  -1.348125e+05   0.000000e+00   0.000000e+00   0.000000e+00   1.960880e+05   0.000000e+00   0.000000e+00   0.000000e+00
     1112000   1.111999e-05   1.336558e+00   5.475254e+00   2.625783e+00   1.112013e+05  -8.894023e+04  -1.348125e+05   0.000000e+00   0.000000e+00   0.000000e+00   1.960880e+05   0.000000e+00   0.000000e+00   0.000000e+00
     1120000   1.119999e-05   1.345454e+00   5.468138e+00   2.614998e+00   1.112013e+05  -8.894023e+04  -1.348125e+05   0.000000e+00   0.000000e+00   0.000000e+00   1.960880e+05   0.000000e+00   0.000000e+00   0.000000e+00
     1128000   1.127999e-05   1.354350e+00   5.461023e+00   2.604213e+00   1.112013e+05  -8.894023e+04  -1.348125e+05   0.000000e+00   0.000000e+00   0.000000e+00   1.960880e+05   0.000000e+00   0.000000e+00   0.000000e+00
     1136000   1.135999e-05   1.363246e+00   5.453908e+00   2.593428e+00   1.112013e+05  -8.894023e+04  -1.348125e+05   0.000000e+00   0.000000e+00   0.000000e+00   1.960880e+05   0.000000e+00   0.000000e+00   0.000000e+00
     1144000   1.143999e-05   1.372143e+00   5.446793e+00   2.582643e+00   1.112013e+05  -8.894023e+04  -1.348125e+05   0.000000e+00   0.000000e+00   0.000000e+00   1.960880e+05   0.000000e+00   0.000000e+00   0.000000e+00
     1152000   1.151999e-05   1.381039e+00   5.439678e+00   2.571858e+00   1.112013e+05  -8.894023e+04  -1.348125e+05   0.000000e+00   0.000000e+00   0.000000e+00   1.960880e+05   0.000000e+00   0.000000e+00   0.000000e+00
     1160000   1.159999e-05   1.389935e+00   5.432562e+00   2.561073e+00   1.112013e+05  -8.894023e+04  -1.348125e+05   0.000000e+00   0.000000e+00   0.000000e+00   1.960880e+05   0.000000e+00   0.000000e+00   0.000000e+00
     1168000   1.167999e-05   1.398831e+00   5.425447e+00   2.550288e+00   1.112013e+05  -8.894023e+04  -1.348125e+05   0.000000e+00   0.000000e+00   0.000000e+00   1.960880e+05   0.000000e+00   0.000000e+00   0.000000e+00
     1176000   1.175999e-05   1.407727e+00   5.418332e+00   2.539503e+00   1.112013e+05  -8.894023e+04  -1.348125e+05   0.000000e+00   0.000000e+00   0.000000e+00   1.960880e+05   0.000000e+00   0.000000e+00   0.000000e+00
     1184000   1.183999e-05   1.416623e+00   5.411217e+00   2.528718e+00   1.112013e+05  -8.894023e+04  -1.348125e+05   0.000000e+00   0.000000e+00   0.000000e+00   1.960880e+05   0.000000e+00   0.000000e+00   0.000000e+00
     1192000   1.191999e-05   1.425519e+00   5.404102e+00   2.517933e+00   1.112013e+05  -8.894023e+04  -1.348125e+05   0.000000e+00   0.000000e+00   0.000000e+00   1.960880e+05   0.000000e+00   0.000000e+00   0.000000e+00
     1200000   1.199999e-05   1.434415e+00   5.396986e+00   2.507148e+00   1.112013e+05  -8.894023e+04  -1.348125e+05   0.000000e+00   0.000000e+00   0.000000e+00   1.960880e+05   0.000000e+00   0.000000e+00   0.000000e+00
     1208000   1.207999e-05   1.443311e+00   5.389871e+00   2.496363e+00   1.112013e+05  -8.894023e+04  -1.348125e+05   0.000000e+00   0.000000e+00   0.000000e+00   1.960880e+05   0.000000e+00   0.000000e+00   0.000000e+00
     1216000   1.215999e-05   1.452207e+00   5.382756e+00   2.485578e+00   1.112013e+05  -8.894023e+04  -1.348125e+05   0.000000e+00   0.000000e+00   0.000000e+00   1.960880e+05   0.000000e+00   0.000000e+00   0.000000e+00
     1224000   1.223999e-05   1.461104e+00   5.375641e+00   2.474793e+00   1.112013e+05  -8.894023e+04  -1.348125e+05   0.000000e+00   0.000000e+00   0.000000e+00   1.960880e+05   0.000000e+00   0.000000e+00   0.000000e+00
     1232000   1.231999e-05   1.470000e+00   5.368525e+00   2.464008e+00   1.112013e+05  -8.894023e+04  -1.348125e+05   0.000000e+00   0.000000e+00   0.000000e+00   1.960880e+05   0.000000e+00   0.000000e+00   0.000000e+00
     1240000   1.239999e-05   1.478896e+00   5.361410e+00   2.453223e+00   1.112013e+05  -8.894023e+04  -1.348125e+05   0.000000e+00   0.000000e+00   0.000000e+00   1.960880e+05   0.000000e+00   0.000000e+00   0.000000e+00
     1248000   1.247999e-05   1.487792e+00   5.354295e+00   2.442438e+00   1.112013e+05  -8.894023e+04  -1.348125e+05   0.000000e+00   0.000000e+00   0.000000e+00   1.960880e+05   0.000000e+00   0.000000e+00   0.000000e+00
     1256000   1.255999e-05   1.496688e+00   5.347180e+00   2.431653e+00   1.112013e+05  -8.894023e+04  -1.348125e+05   0.000000e+00   0.000000e+00   0.000000e+00   1.960880e+05   0.000000e+00   0.000000e+00   0.000000e+00
     1264000   1.263999e-05   1.505584e+00   5.340065e+00   2.420868e+00   1.112013e+05  -8.894023e+04  -1.348125e+05   0.000000e+00   0.000000e+00   0.000000e+00   1.960880e+05   0.000000e+00   0.000000e+00   0.000000e+00
     1272000   1.271999e-05   1.514480e+00   5.332949e+00   2.410083e+00   1.112013e+05  -8.894023e+04  -1.348125e+05   0.000000e+00   0.000000e+00   0.000000e+00   1.960880e+05   0.000000e+00   0.000000e+00   0.000000e+00
     1280000   1.279999e-05   1.523376e+00   5.325834e+00   2.399298e+00   1.112013e+05  -8.894023e+04  -1.348125e+05   0.000000e+00   0.000000e+00   0.000000e+00   1.960880e+05   0.000000e+00   0.000000e+00   0.000000e+00
     1288000   1.287999e-05   1.532272e+00   5.318719e+00   2.388513e+00   1.112013e+05  -8.894023e+04  -1.348125e+05   0.000000e+00   0.000000e+00   0.000000e+00   1.960880e+05   0.000000e+00   0.000000e+00   0.000000e+00
     1296000   1.295999e-05   1.541168e+00   5.311604e+00   2.377728e+00   1.112013e+05  -8.894023e+04  -1.348125e+05   0.000000e+00   0.000000e+00   0.000000e+00   1.960880e+05   0.000000e+00   0.000000e+00   0.000000e+00
     1304000   1.303999e-05   1.550065e+00   5.304488e+00   2.366943e+00   1.112013e+05  -8.894023e+04  -1.348125e+05   0.000000e+00   0.000000e+00   0.000000e+00   1.960880e+05   0.000000e+00   0.000000e+00   0.000000e+00
     1312000   1.311999e-05   1.558961e+00   5.297373e+00   2.356158e+00   1.112013e+05  -8.894023e+04  -1.348125e+05   0.000000e+00   0.000000e+00   0.000000e+00   1.960880e+05   0.000000e+00   0.000000e+00   0.000000e+00
     1320000   1.319999e-05   1.567857e+00   5.290258e+00   2.345373e+00   1.112013e+05  -8.894023e+04  -1.348125e+05   0.000000e+00   0.000000e+00   0.000000e+00   1.960880e+05   0.000000e+00   0.000000e+00   0.000000e+00
     1328000   1.327999e-05   1.576753e+00   5.283143e+00   2.334588e+00   1.112013e+05  -8.894023e+04  -1.348125e+05   0.000000e+00   0.000000e+00   0.000000e+00   1.960880e+05   0.000000e+00   0.000000e+00   0.000000e+00
     1336000   1.335999e-05   1.585649e+00   5.276028e+00   2.323803e+00   1.112013e+05  -8.894023e+04  -1.348125e+05   0.000000e+00   0.000000e+00   0.000000e+00   1.960880e+05   0.000000e+00   0.000000e+00   0.000000e+00
     1344000   1.343999e-05   1.594545e+00   5.268912e+00   2.313018e+00   1.112013e+05  -8.894023e+04  -1.348125e+05   0.000000e+00   0.000000e+00   0.000000e+00   1.960880e+05   0.000000e+00   0.000000e+00   0.000000e+00
     1352000   1.351999e-05   1.603441e+00   5.261797e+00   2.302233e+00   1.112013e+05  -8.894023e+04  -1.348125e+05   0.000000e+00   0.000000e+00   0.000000e+00   1.960880e+05   0.000000e+00   0.000000e+00   0.000000e+00
     1360000   1.359999e-05   1.612337e+00   5.254682e+00   2.291448e+00   1.112013e+05  -8.894023e+04  -1.348125e+05   0.000000e+00   0.000000e+00   0.000000e+00   1.960880e+05   0.000000e+00   0.000000e+00   0.000000e+00
     1368000   1.367999e-05   1.621233e+00   5.247567e+00   2.280663e+00   1.112013e+05  -8.894023e+04  -1.348125e+05   0.000000e+00   0.000000e+00   0.000000e+00   1.960880e+05   0.000000e+00   0.000000e+00   0.000000e+00
     1376000   1.375999e-05   1.630129e+00   5.240451e+00   2.269878e+00   1.112013e+05  -8.894023e+04  -1.348125e+05   0.000000e+00   0.000000e+00   0.000000e+00   1.960880e+05   0.000000e+00   0.000000e+00   0.000000e+00
     1384000   1.383999e-05   1.639026e+00   5.233336e+00   2.259093e+00   1.112013e+05  -8.894023e+04  -1.348125e+05   0.000000e+00   0.000000e+00   0.000000e+00   1.960880e+05   0.000000e+00   0.000000e+00   0.000000e+00
     1392000   1.391999e-05   1.647922e+00   5.226221e+00   2.248308e+00   1.112013e+05  -8.894023e+04  -1.348125e+05   0.000000e+00   0.000000e+00   0.000000e+00   1.960880e+05   0.000000e+00   0.000000e+00   0.000000e+00
     1400000   1.399999e-05   1.656818e+00   5.219106e+00   2.237523e+00   1.112013e+05  -8.894023e+04  -1.348125e+05   0.000000e+00   0.000000e+00   0.000000e+00   1.960880e+05   0.000000e+00   0.000000e+00   0.000000e+00
     1408000   1.407999e-05   1.665714e+00   5.211991e+00   2.226738e+00   1.112013e+05  -8.894023e+04  -1.348125e+05   0.000000e+00   0.000000e+00   0.000000e+00   1.960880e+05   0.000000e+00   0.000000e+00   0.000000e+00
     1416000   1.415999e-05   1.674610e+00   5.204875e+00   2.215953e+00   1.112013e+05  -8.894023e+04  -1.348125e+05   0.000000e+00   0.000000e+00   0.000000e+00   1.960880e+05   0.000000e+00   0.000000e+00   0.000000e+00
     1424000   1.423999e-05   1.683506e+00   5.197760e+00   2.205168e+00   1.112013e+05  -8.894023e+04  -1.348125e+05   0.000000e+00   0.000000e+00   0.000000e+00   1.960880e+05   0.000000e+00   0.000000e+00   0.000000e+00
     1432000   1.431999e-05   1.692402e+00   5.190645e+00   2.194383e+00   1.112013e+05  -8.894023e+04  -1.348125e+05   0.000000e+00   0.000000e+00   0.000000e+00   1.960880e+05   0.000000e+00   0.000000e+00   0.000000e+00
     1440000   1.439999e-05   1.701298e+00   5.183530e+00   2.183598e+00   1.112013e+05  -8.894023e+04  -1.348125e+05   0.000000e+00   0.000000e+00   0.000000e+00   1.960880e+05   0.000000e+00   0.000000e+00   0.000000e+00
     1448000   1.447999e-05   1.710194e+00   5.176415e+00   2.172813e+00   1.112013e+05  -8.894023e+04  -1.348125e+05   0.000000e+00   0.000000e+00   0.000000e+00   1.960880e+05   0.000000e+00   0.000000e+00   0.000000e+00
     1456000   1.455999e-05   1.719091e+00   5.169299e+00   2.162028e+00   1.112013e+05  -8.894023e+04  -1.348125e+05   0.000000e+00   0.000000e+00   0.000000e+00   1.960880e+05   0.000000e+00   0.000000e+00   0.000000e+00
     1464000   1.463999e-05   1.727987e+00   5.162184e+00   2.151243e+00   1.112013e+05  -8.894023e+04  -1.348125e+05   0.000000e+00   0.000000e+00   0.000000e+00   1.960880e+05   0.000000e+00   0.000000e+00   0.000000e+00
     1472000   1.471999e-05   1.736883e+00   5.155069e+00   2.140458e+00   1.112013e+05  -8.894023e+04  -1.348125e+05   0.000000e+00   0.000000e+00   0.000000e+00   1.960880e+05   0.000000e+00   0.000000e+00   0.000000e+00
     1480000   1.479999e-05   1.745779e+00   5.147954e+00   2.129673e+00   1.112013e+05  -8.894023e+04  -1.348125e+05   0.000000e+00   0.000000e+00   0.000000e+00   1.960880e+05   0.000000e+00   0.000000e+00   0.000000e+00
     1488000   1.487999e-05   1.754675e+00   5.140838e+00   2.118888e+00   1.112013e+05  -8.894023e+04  -1.348125e+05   0.000000e+00   0.000000e+00   0.000000e+00   1.960880e+05   0.000000e+00   0.000000e+00   0.000000e+00
     1496000   1.495999e-05   1.763571e+00   5.133723e+00   2.108103e+00   1.112013e+05  -8.894023e+04  -1.348125e+05   0.000000e+00   0.000000e+00   0.000000e+00   1.960880e+05   0.000000e+00   0.000000e+00   0.000000e+00
     1504000   1.503999e-05   1.772467e+00   5.126608e+00   2.097318e+00   1.112013e+05  -8.894023e+04  -1.348125e+05   0.000000e+00   0.000000e+00   0.000000e+00   1.960880e+05   0.000000e+00   0.000000e+00   0.000000e+00
     1512000   1.511999e-05   1.781363e+00   5.119493e+00   2.086533e+00   1.112013e+05  -8.894023e+04  -1.348125e+05   0.000000e+00   0.000000e+00   0.000000e+00   1.960880e+05   0.000000e+00   0.000000e+00   0.000000e+00
     1520000   1.519999e-05   1.790259e+00   5.112378e+00   2.075748e+00   1.112013e+05  -8.894023e+04  -1.348125e+05   0.000000e+00   0.000000e+00   0.000000e+00   1.960880e+05   0.000000e+00   0.000000e+00   0.000000e+00
     1528000   1.527999e-05   1.799155e+00   5.105262e+00   2.064963e+00   1.112013e+05  -8.894023e+04  -1.348125e+05   0.000000e+00   0.000000e+00   0.000000e+00   1.960880e+05   0.000000e+00   0.000000e+00   0.000000e+00
     1536000   1.535999e-05   1.808052e+00   5.098147e+00   2.054178e+00   1.112013e+05  -8.894023e+04  -1.348125e+05   0.000000e+00   0.000000e+00   0.000000e+00   1.960880e+05   0.000000e+00   0.000000e+00   0.000000e+00
     1544000   1.543999e-05   1.816948e+00   5.091032e+00   2.043393e+00   1.112013e+05  -8.894023e+04  -1.348125e+05   0.000000e+00   0.000000e+00   0.000000e+00   1.960880e+05   0.000000e+00   0.000000e+00   0.000000e+00
     1552000   1.551999e-05   1.825844e+00   5.083917e+00   2.032608e+00   1.112013e+05  -8.894023e+04  -1.348125e+05   0.000000e+00   0.000000e+00   0.000000e+00   1.960880e+05   0.000000e+00   0.000000e+00   0.000000e+00
     1560000   1.559999e-05   1.834740e+00   5.076801e+00   2.021823e+00   1.112013e+05  -8.894023e+04  -1.348125e+05   0.000000e+00   0.000000e+00   0.000000e+00   1.960880e+05   0.000000e+00   0.000000e+00   0.000000e+00
     1568000   1.567999e-05   1.843636e+00   5.069686e+00   2.011038e+00   1.112013e+05  -8.894023e+04  -1.348125e+05   0.000000e+00   0.000000e+00   0.000000e+00   1.960880e+05   0.000000e+00   0.000000e+00   0.000000e+00
     1576000   1.575999e-05   1.852532e+00   5.062571e+00   2.000253e+00   1.112013e+05  -8.894023e+04  -1.348125e+05   0.000000e+00   0.000000e+00   0.000000e+00   1.960880e+05   0.000000e+00   0.000000e+00   0.000000e+00
     1584000   1.583999e-05   1.861428e+00   5.055456e+00   1.989468e+00   1.112013e+05  -8.894023e+04  -1.348125e+05   0.000000e+00   0.000000e+00   0.000000e+00   1.960880e+05   0.000000e+00   0.000000e+00   0.000000e+00
     1592000   1.591999e-05   1.870324e+00   5.048341e+00   1.978683e+00   1.112013e+05  -8.894023e+04  -1.348125e+05   0.000000e+00   0.000000e+00   0.000000e+00   1.960880e+05   0.000000e+00   0.000000e+00   0.000000e+00
     1600000   1.599999e-05   1.879220e+00   5.041225e+00   1.967898e+00   1.112013e+05  -8.894023e+04  -1.348125e+05   0.000000e+00   0.000000e+00   0.000000e+00   1.960880e+05   0.000000e+00   0.000000e+00   0.000000e+00
     1608000   1.607999e-05   1.888116e+00   5.034110e+00   1.957113e+00   1.112013e+05  -8.894023e+04  -1.348125e+05   0.000000e+00   0.000000e+00   0.000000e+00   1.960880e+05   0.000000e+00   0.000000e+00   0.000000e+00
     1616000   1.615999e-05   1.897013e+00   5.026995e+00   1.946328e+00   1.112013e+05  -8.894023e+04  -1.348125e+05   0.000000e+00   0.000000e+00   0.000000e+00   1.960880e+05   0.000000e+00   0.000000e+00   0.000000e+00
     1624000   1.623999e-05   1.905909e+00   5.019880e+00   1.935543e+00   1.112013e+05  -8.894023e+04  -1.348125e+05   0.000000e+00   0.000000e+00   0.000000e+00   1.960880e+05   0.000000e+00   0.000000e+00   0.000000e+00
     1632000   1.631999e-05   1.914805e+00   5.012765e+00   1.924758e+00   1.112013e+05  -8.894023e+04  -1.348125e+05   0.000000e+00   0.000000e+00   0.000000e+00   1.960880e+05   0.000000e+00   0.000000e+00   0.000000e+00
     1640000   1.639999e-05   1.923701e+00   5.005649e+00   1.913973e+00   1.112013e+05  -8.894023e+04  -1.348125e+05   0.000000e+00   0.000000e+00   0.000000e+00   1.960880e+05   0.000000e+00   0.000000e+00   0.000000e+00
     1648000   1.647999e-05   1.932597e+00   4.998534e+00   1.903188e+00   1.112013e+05  -8.894023e+04  -1.348125e+05   0.000000e+00   0.000000e+00   0.000000e+00   1.960880e+05   0.000000e+00   0.000000e+00   0.000000e+00
     1656000   1.655999e-05   1.941493e+00   4.991419e+00   1.892403e+00   1.112013e+05  -8.894023e+04  -1.348125e+05   0.000000e+00   0.000000e+00   0.000000e+00   1.960880e+05   0.000000e+00   0.000000e+00   0.000000e+00
     1664000   1.663999e-05   1.950389e+00   4.984304e+00   1.881618e+00   1.112013e+05  -8.894023e+04  -1.348125e+05   0.000000e+00   0.000000e+00   0.000000e+00   1.960880e+05   0.000000e+00   0.000000e+00   0.000000e+00
     1672000   1.671999e-05   1.959285e+00   4.977188e+00   1.870833e+00   1.112013e+05  -8.894023e+04  -1.348125e+05   0.000000e+00   0.000000e+00   0.000000e+00   1.960880e+05   0.000000e+00   0.000000e+00   0.000000e+00
     1680000   1.679999e-05   1.968181e+00   4.970073e+00   1.860048e+00   1.112013e+05  -8.894023e+04  -1.348125e+05   0.000000e+00   0.000000e+00   0.000000e+00   1.960880e+05   0.000000e+00   0.000000e+00   0.000000e+00
     1688000   1.687999e-05   1.977077e+00   4.962958e+00   1.849263e+00   1.112013e+05  -8.894023e+04  -1.348125e+05   0.000000e+00   0.000000e+00   0.000000e+00   1.960880e+05   0.000000e+00   0.000000e+00   0.000000e+00
     1696000   1.695999e-05   1.985974e+00   4.955843e+00   1.838478e+00   1.112013e+05  -8.894023e+04  -1.348125e+05   0.000000e+00   0.000000e+00   0.000000e+00   1.960880e+05   0.000000e+00   0.000000e+00   0.000000e+00
     1704000   1.703999e-05   1.994870e+00   4.948728e+00   1.827693e+00   1.112013e+05  -8.894023e+04  -1.348125e+05   0.000000e+00   0.000000e+00   0.000000e+00   1.960880e+05   0.000000e+00   0.000000e+00   0.000000e+00
     1712000   1.711999e-05   2.003766e+00   4.941612e+00   1.816908e+00   1.112013e+05  -8.894023e+04  -1.348125e+05   0.000000e+00   0.000000e+00   0.000000e+00   1.960880e+05   0.000000e+00   0.000000e+00   0.000000e+00
     1720000   1.719999e-05   2.012662e+00   4.934497e+00   1.806123e+00   1.112013e+05  -8.894023e+04  -1.348125e+05   0.000000e+00   0.000000e+00   0.000000e+00   1.960880e+05   0.000000e+00   0.000000e+00   0.000000e+00
     1728000   1.727999e-05   2.021558e+00   4.927382e+00   1.795338e+00   1.112013e+05  -8.894023e+04  -1.348125e+05   0.000000e+00   0.000000e+00   0.000000e+00   1.960880e+05   0.000000e+00   0.000000e+00   0.000000e+00
     1736000   1.735999e-05   2.030454e+00   4.920267e+00   1.784553e+00   1.112013e+05  -8.894023e+04  -1.348125e+05   0.000000e+00   0.000000e+00   0.000000e+00   1.960880e+05   0.000000e+00   0.000000e+00   0.000000e+00
     1744000   1.743999e-05   2.039350e+00   4.913151e+00   1.773768e+00   1.112013e+05  -8.894023e+04  -1.348125e+05   0.000000e+00   0.000000e+00   0.000000e+00   1.960880e+05   0.000000e+00   0.000000e+00   0.000000e+00
     1752000   1.751999e-05   2.048246e+00   4.906036e+00   1.762983e+00   1.112013e+05  -8.894023e+04  -1.348125e+05   0.000000e+00   0.000000e+00   0.000000e+00   1.960880e+05   0.000000e+00   0.000000e+00   0.000000e+00
     1760000   1.759999e-05   2.057142e+00   4.898921e+00   1.752198e+00   1.112013e+05  -8.894023e+04  -1.348125e+05   0.000000e+00   0.000000e+00   0.000000e+00   1.960880e+05   0.000000e+00   0.000000e+00   0.000000e+00
     1768000   1.767999e-05   2.066038e+00   4.891806e+00   1.741413e+00   1.112013e+05  -8.894023e+04  -1.348125e+05   0.000000e+00   0.000000e+00   0.000000e+00   1.960880e+05   0.000000e+00   0.000000e+00   0.000000e+00
     1776000   1.775999e-05   2.074935e+00   4.884691e+00   1.730628e+00   1.112013e+05  -8.894023e+04  -1.348125e+05   0.000000e+00   0.000000e+00   0.000000e+00   1.960880e+05   0.000000e+00   0.000000e+00   0.000000e+00
     1784000   1.783999e-05   2.083831e+00   4.877575e+00   1.719843e+00   1.112013e+05  -8.894023e+04  -1.348125e+05   0.000000e+00   0.000000e+00   0.000000e+00   1.960880e+05   0.000000e+00   0.000000e+00   0.000000e+00
     1792000   1.791999e-05   2.092727e+00   4.870460e+00   1.709058e+00   1.112013e+05  -8.894023e+04  -1.348125e+05   0.000000e+00   0.000000e+00   0.000000e+00   1.960880e+05   0.000000e+00   0.000000e+00   0.000000e+00
     1800000   1.799999e-05   2.101623e+00   4.863345e+00   1.698273e+00   1.112013e+05  -8.894023e+04  -1.348125e+05   0.000000e+00   0.000000e+00   0.000000e+00   1.960880e+05   0.000000e+00   0.000000e+00   0.000000e+00
     1808000   1.807999e-05   2.110519e+00   4.856230e+00   1.687488e+00   1.112013e+05  -8.894023e+04  -1.348125e+05   0.000000e+00   0.000000e+00   0.000000e+00   1.960880e+05   0.000000e+00   0.000000e+00   0.000000e+00
     1816000   1.815999e-05   2.119415e+00   4.849114e+00   1.676703e+00   1.112013e+05  -8.894023e+04  -1.348125e+05   0.000000e+00   0.000000e+00   0.000000e+00   1.960880e+05   0.000000e+00   0.000000e+00   0.000000e+00
     1824000   1.823999e-05   2.128311e+00   4.841999e+00   1.665918e+00   1.112013e+05  -8.894023e+04  -1.348125e+05   0.000000e+00   0.000000e+00   0.000000e+00   1.960880e+05   0.000000e+00   0.000000e+00   0.000000e+00
     1832000   1.831999e-05   2.137207e+00   4.834884e+00   1.655133e+00   1.112013e+05  -8.894023e+04  -1.348125e+05   0.000000e+00   0.000000e+00   0.000000e+00   1.960880e+05   0.000000e+00   0.000000e+00   0.000000e+00
     1840000   1.839999e-05   2.146103e+00   4.827769e+00   1.644348e+00   1.112013e+05  -8.894023e+04  -1.348125e+05   0.000000e+00   0.000000e+00   0.000000e+00   1.960880e+05   0.000000e+00   0.000000e+00   0.000000e+00
     1848000   1.847999e-05   2.154999e+00   4.820654e+00   1.633563e+00   1.112013e+05  -8.894023e+04  -1.348125e+05   0.000000e+00   0.000000e+00   0.000000e+00   1.960880e+05   0.000000e+00   0.000000e+00   0.000000e+00
     1856000   1.855999e-05   2.163896e+00   4.813538e+00   1.622778e+00   1.112013e+05  -8.894023e+04  -1.348125e+05   0.000000e+00   0.000000e+00   0.000000e+00   1.960880e+05   0.000000e+00   0.000000e+00   0.000000e+00
     1864000   1.863999e-05   2.172792e+00   4.806423e+00   1.611993e+00   1.112013e+05  -8.894023e+04  -1.348125e+05   0.000000e+00   0.000000e+00   0.000000e+00   1.960880e+05   0.000000e+00   0.000000e+00   0.000000e+00
     1872000   1.871999e-05   2.181688e+00   4.799308e+00   1.601208e+00   1.112013e+05  -8.894023e+04  -1.348125e+05   0.000000e+00   0.000000e+00   0.000000e+00   1.960880e+05   0.000000e+00   0.000000e+00   0.000000e+00
     1880000   1.879999e-05   2.190584e+00   4.792193e+00   1.590423e+00   1.112013e+05  -8.894023e+04  -1.348125e+05   0.000000e+00   0.000000e+00   0.000000e+00   1.960880e+05   0.000000e+00   0.000000e+00   0.000000e+00
     1888000   1.887999e-05   2.199480e+00   4.785078e+00   1.579638e+00   1.112013e+05  -8.894023e+04  -1.348125e+05   0.000000e+00   0.000000e+00   0.000000e+00   1.960880e+05   0.000000e+00   0.000000e+00   0.000000e+00
     1896000   1.895999e-05   2.208376e+00   4.777962e+00   1.568853e+00   1.112013e+05  -8.894023e+04  -1.348125e+05   0.000000e+00   0.000000e+00   0.000000e+00   1.960880e+05   0.000000e+00   0.000000e+00   0.000000e+00
     1904000   1.903999e-05   2.217272e+00   4.770847e+00   1.558068e+00   1.112013e+05  -8.894023e+04  -1.348125e+05   0.000000e+00   0.000000e+00   0.000000e+00   1.960880e+05   0.000000e+00   0.000000e+00   0.000000e+00
     1912000   1.911999e-05   2.226168e+00   4.763732e+00   1.547283e+00   1.112013e+05  -8.894023e+04  -1.348125e+05   0.000000e+00   0.000000e+00   0.000000e+00   1.960880e+05   0.000000e+00   0.000000e+00   0.000000e+00
     1920000   1.919999e-05   2.235064e+00   4.756617e+00   1.536498e+00   1.112013e+05  -8.894023e+04  -1.348125e+05   0.000000e+00   0.000000e+00   0.000000e+00   1.960880e+05   0.000000e+00   0.000000e+00   0.000000e+00
     1928000   1.927999e-05   2.243961e+00   4.749501e+00   1.525713e+00   1.112013e+05  -8.894023e+04  -1.348125e+05   0.000000e+00   0.000000e+00   0.000000e+00   1.960880e+05   0.000000e+00   0.000000e+00   0.000000e+00
     1936000   1.935999e-05   2.252857e+00   4.742386e+00   1.514928e+00   1.112013e+05  -8.894023e+04  -1.348125e+05   0.000000e+00   0.000000e+00   0.000000e+00   1.960880e+05   0.000000e+00   0.000000e+00   0.000000e+00
     1944000   1.943999e-05   2.261753e+00   4.735271e+00   1.504143e+00   1.112013e+05  -8.894023e+04  -1.348125e+05   0.000000e+00   0.000000e+00   0.000000e+00   1.960880e+05   0.000000e+00   0.000000e+00   0.000000e+00
     1952000   1.951999e-05   2.270649e+00   4.728156e+00   1.493358e+00   1.112013e+05  -8.894023e+04  -1.348125e+05   0.000000e+00   0.000000e+00   0.000000e+00   1.960880e+05   0.000000e+00   0.000000e+00   0.000000e+00
     1960000   1.959999e-05   2.279545e+00   4.721041e+00   1.482573e+00   1.112013e+05  -8.894023e+04  -1.348125e+05   0.000000e+00   0.000000e+00   0.000000e+00   1.960880e+05   0.000000e+00   0.000000e+00   0.000000e+00
     1968000   1.967999e-05   2.288441e+00   4.713925e+00   1.471788e+00   1.112013e+05  -8.894023e+04  -1.348125e+05   0.000000e+00   0.000000e+00   0.000000e+00   1.960880e+05   0.000000e+00   0.000000e+00   0.000000e+00
     1976000   1.975999e-05   2.297337e+00   4.706810e+00   1.461003e+00   1.112013e+05  -8.894023e+04  -1.348125e+05   0.000000e+00   0.000000e+00   0.000000e+00   1.960880e+05   0.000000e+00   0.000000e+00   0.000000e+00
     1984000   1.983999e-05   2.306233e+00   4.699695e+00   1.450218e+00   1.112013e+05  -8.894023e+04  -1.348125e+05   0.000000e+00   0.000000e+00   0.000000e+00   1.960880e+05   0.000000e+00   0.000000e+00   0.000000e+00
     1992000   1.991999e-05   2.315129e+00   4.692580e+00   1.439433e+00   1.112013e+05  -8.894023e+04  -1.348125e+05   0.000000e+00   0.000000e+00   0.000000e+00   1.960880e+05   0.000000e+00   0.000000e+00   0.000000e+00
     2000000   1.999999e-05   2.324025e+00   4.685464e+00   1.428648e+00   1.112013e+05  -8.894023e+04  -1.348125e+05   0.000000e+00   0.000000e+00   0.000000e+00   1.960880e+05   0.000000e+00   0.000000e+00   0.000000e+00
     2008000   2.007999e-05   2.332922e+00   4.678349e+00   1.417863e+00   1.112013e+05  -8.894023e+04  -1.348125e+05   0.000000e+00   0.000000e+00   0.000000e+00   1.960880e+05   0.000000e+00   0.000000e+00   0.000000e+00
     2016000   2.015999e-05   2.341818e+00   4.671234e+00   1.407078e+00   1.112013e+05  -8.894023e+04  -1.348125e+05   0.000000e+00   0.000000e+00   0.000000e+00   1.960880e+05   0.000000e+00   0.000000e+00   0.000000e+00
     2024000   2.023999e-05   2.350714e+00   4.664119e+00   1.396293e+00   1.112013e+05  -8.894023e+04  -1.348125e+05   0.000000e+00   0.000000e+00   0.000000e+00   1.960880e+05   0.000000e+00   0.000000e+00   0.000000e+00
     2032000   2.031999e-05   2.359610e+00   4.657004e+00   1.385508e+00   1.112013e+05  -8.894023e+04  -1.348125e+05   0.000000e+00   0.000000e+00   0.000000e+00   1.960880e+05   0.000000e+00   0.000000e+00   0.000000e+00
     2040000   2.039999e-05   2.368506e+00   4.649888e+00   1.374723e+00   1.112013e+05  -8.894023e+04  -1.348125e+05   0.000000e+00   0.000000e+00   0.000000e+00   1.960880e+05   0.000000e+00   0.000000e+00   0.000000e+00
     2048000   2.047999e-05   2.377402e+00   4.642773e+00   1.363938e+00   1.112013e+05  -8.894023e+04  -1.348125e+05   0.000000e+00   0.000000e+00   0.000000e+00   1.960880e+05   0.000000e+00   0.000000e+00   0.000000e+00
     2056000   2.055999e-05   2.386298e+00   4.635658e+00   1.353153e+00   1.112013e+05  -8.894023e+04  -1.348125e+05   0.000000e+00   0.000000e+00   0.000000e+00   1.960880e+05   0.000000e+00   0.000000e+00   0.000000e+00
     2064000   2.063999e-05   2.395194e+00   4.628543e+00   1.342368e+00   1.112013e+05  -8.894023e+04  -1.348125e+05   0.000000e+00   0.000000e+00   0.000000e+00   1.960880e+05   0.000000e+00   0.000000e+00   0.000000e+00
     2072000   2.071999e-05   2.404090e+00   4.621428e+00   1.331583e+00   1.112013e+05  -8.894023e+04  -1.348125e+05   0.000000e+00   0.000000e+00   0.000000e+00   1.960880e+05   0.000000e+00   0.000000e+00   0.000000e+00
     2080000   2.079999e-05   2.412986e+00   4.614312e+00   1.320798e+00   1.112013e+05  -8.894023e+04  -1.348125e+05   0.000000e+00   0.000000e+00   0.000000e+00   1.960880e+05   0.000000e+00   0.000000e+00   0.000000e+00
     2088000   2.087999e-05   2.421883e+00   4.607197e+00   1.310013e+00   1.112013e+05  -8.894023e+04  -1.348125e+05   0.000000e+00   0.000000e+00   0.000000e+00   1.960880e+05   0.000000e+00   0.000000e+00   0.000000e+00
     2096000   2.095999e-05   2.430779e+00   4.600082e+00   1.299228e+00   1.112013e+05  -8.894023e+04  -1.348125e+05   0.000000e+00   0.000000e+00   0.000000e+00   1.960880e+05   0.000000e+00   0.000000e+00   0.000000e+00
     2104000   2.103999e-05   2.439675e+00   4.592967e+00   1.288443e+00   1.112013e+05  -8.894023e+04  -1.348125e+05   0.000000e+00   0.000000e+00   0.000000e+00   1.960880e+05   0.000000e+00   0.000000e+00   0.000000e+00
     2112000   2.111999e-05   2.448571e+00   4.585851e+00   1.277658e+00   1.112013e+05  -8.894023e+04  -1.348125e+05   0.000000e+00   0.000000e+00   0.000000e+00   1.960880e+05   0.000000e+00   0.000000e+00   0.000000e+00
     2120000   2.119999e-05   2.457467e+00   4.578736e+00   1.266873e+00   1.112013e+05  -8.894023e+04  -1.348125e+05   0.000000e+00   0.000000e+00   0.000000e+00   1.960880e+05   0.000000e+00   0.000000e+00   0.000000e+00
     2128000   2.127999e-05   2.466363e+00   4.571621e+00   1.256088e+00   1.112013e+05  -8.894023e+04  -1.348125e+05   0.000000e+00   0.000000e+00   0.000000e+00   1.960880e+05   0.000000e+00   0.000000e+00   0.000000e+00
     2136000   2.135999e-05   2.475259e+00   4.564506e+00   1.245303e+00   1.112013e+05  -8.894023e+04  -1.348125e+05   0.000000e+00   0.000000e+00   0.000000e+00   1.960880e+05   0.000000e+00   0.000000e+00   0.000000e+00
     2144000   2.143999e-05   2.484155e+00   4.557391e+00   1.234518e+00   1.112013e+05  -8.894023e+04  -1.348125e+05   0.000000e+00   0.000000e+00   0.000000e+00   1.960880e+05   0.000000e+00   0.000000e+00   0.000000e+00
     2152000   2.151999e-05   2.493051e+00   4.550275e+00   1.223733e+00   1.112013e+05  -8.894023e+04  -1.348125e+05   0.000000e+00   0.000000e+00   0.000000e+00   1.960880e+05   0.000000e+00   0.000000e+00   0.000000e+00
     2160000   2.159999e-05   2.501947e+00   4.543160e+00   1.212948e+00   1.112013e+05  -8.894023e+04  -1.348125e+05   0.000000e+00   0.000000e+00   0.000000e+00   1.960880e+05   0.000000e+00   0.000000e+00   0.000000e+00
     2168000   2.167999e-05   2.510844e+00   4.536045e+00   1.202163e+00   1.112013e+05  -8.894023e+04  -1.348125e+05   0.000000e+00   0.000000e+00   0.000000e+00   1.960880e+05   0.000000e+00   0.000000e+00   0.000000e+00
     2176000   2.175999e-05   2.519740e+00   4.528930e+00   1.191378e+00   1.112013e+05  -8.894023e+04  -1.348125e+05   0.000000e+00   0.000000e+00   0.000000e+00   1.960880e+05   0.000000e+00   0.000000e+00   0.000000e+00
     2184000   2.183999e-05   2.528636e+00   4.521814e+00   1.180593e+00   1.112013e+05  -8.894023e+04  -1.348125e+05   0.000000e+00   0.000000e+00   0.000000e+00   1.960880e+05   0.000000e+00   0.000000e+00   0.000000e+00
     2192000   2.191999e-05   2.537532e+00   4.514699e+00   1.169808e+00   1.112013e+05  -8.894023e+04  -1.348125e+05   0.000000e+00   0.000000e+00   0.000000e+00   1.960880e+05   0.000000e+00   0.000000e+00   0.000000e+00
     2200000   2.199999e-05   2.546428e+00   4.507584e+00   1.159023e+00   1.112013e+05  -8.894023e+04  -1.348125e+05   0.000000e+00   0.000000e+00   0.000000e+00   1.960880e+05   0.000000e+00   0.000000e+00   0.000000e+00
     2208000   2.207999e-05   2.555324e+00   4.500469e+00   1.148238e+00   1.112013e+05  -8.894023e+04  -1.348125e+05   0.000000e+00   0.000000e+00   0.000000e+00   1.960880e+05   0.000000e+00   0.000000e+00   0.000000e+00
     2216000   2.215999e-05   2.564220e+00   4.493354e+00   1.137453e+00   1.112013e+05  -8.894023e+04  -1.348125e+05   0.000000e+00   0.000000e+00   0.000000e+00   1.960880e+05   0.000000e+00   0.000000e+00   0.000000e+00
     2224000   2.223999e-05   2.573116e+00   4.486238e+00   1.126668e+00   1.112013e+05  -8.894023e+04  -1.348125e+05   0.000000e+00   0.000000e+00   0.000000e+00   1.960880e+05   0.000000e+00   0.000000e+00   0.000000e+00
     2232000   2.231999e-05   2.582012e+00   4.479123e+00   1.115883e+00   1.112013e+05  -8.894023e+04  -1.348125e+05   0.000000e+00   0.000000e+00   0.000000e+00   1.960880e+05   0.000000e+00   0.000000e+00   0.000000e+00
     2240000   2.239999e-05   2.590908e+00   4.472008e+00   1.105098e+00   1.112013e+05  -8.894023e+04  -1.348125e+05   0.000000e+00   0.000000e+00   0.000000e+00   1.960880e+05   0.000000e+00   0.000000e+00   0.000000e+00
     2248000   2.247999e-05   2.599805e+00   4.464893e+00   1.094313e+00   1.112013e+05  -8.894023e+04  -1.348125e+05   0.000000e+00   0.000000e+00   0.000000e+00   1.960880e+05   0.000000e+00   0.000000e+00   0.000000e+00
     2256000   2.255999e-05   2.608701e+00   4.457777e+00   1.083528e+00   1.112013e+05  -8.894023e+04  -1.348125e+05   0.000000e+00   0.000000e+00   0.000000e+00   1.960880e+05   0.000000e+00   0.000000e+00   0.000000e+00
     2264000   2.263999e-05   2.617597e+00   4.450662e+00   1.072743e+00   1.112013e+05  -8.894023e+04  -1.348125e+05   0.000000e+00   0.000000e+00   0.000000e+00   1.960880e+05   0.000000e+00   0.000000e+00   0.000000e+00
     2272000   2.271999e-05   2.626493e+00   4.443547e+00   1.061958e+00   1.112013e+05  -8.894023e+04  -1.348125e+05   0.000000e+00   0.000000e+00   0.000000e+00   1.960880e+05   0.000000e+00   0.000000e+00   0.000000e+00
     2280000   2.279999e-05   2.635389e+00   4.436432e+00   1.051173e+00   1.112013e+05  -8.894023e+04  -1.348125e+05   0.000000e+00   0.000000e+00   0.000000e+00   1.960880e+05   0.000000e+00   0.000000e+00   0.000000e+00
     2288000   2.287999e-05   2.644285e+00   4.429317e+00   1.040388e+00   1.112013e+05  -8.894023e+04  -1.348125e+05   0.000000e+00   0.000000e+00   0.000000e+00   1.960880e+05   0.000000e+00   0.000000e+00   0.000000e+00
     2296000   2.295999e-05   2.653181e+00   4.422201e+00   1.029603e+00   1.112013e+05  -8.894023e+04  -1.348125e+05   0.000000e+00   0.000000e+00   0.000000e+00   1.960880e+05   0.000000e+00   0.000000e+00   0.000000e+00
     2304000   2.303999e-05   2.662077e+00   4.415086e+00   1.018818e+00   1.112013e+05  -8.894023e+04  -1.348125e+05   0.000000e+00   0.000000e+00   0.000000e+00   1.960880e+05   0.000000e+00   0.000000e+00   0.000000e+00
     2312000   2.311999e-05   2.670973e+00   4.407971e+00   1.008033e+00   1.112013e+05  -8.894023e+04  -1.348125e+05   0.000000e+00   0.000000e+00   0.000000e+00   1.960880e+05   0.000000e+00   0.000000e+00   0.000000e+00
     2320000   2.319999e-05   2.679869e+00   4.400856e+00   9.972482e-01   1.112013e+05  -8.894023e+04  -1.348125e+05   0.000000e+00   0.000000e+00   0.000000e+00   1.960880e+05   0.000000e+00   0.000000e+00   0.000000e+00
     2328000   2.327999e-05   2.688766e+00   4.393741e+00   9.864632e-01   1.112013e+05  -8.894023e+04  -1.348125e+05   0.000000e+00   0.000000e+00   0.000000e+00   1.960880e+05   0.000000e+00   0.000000e+00   0.000000e+00
     2336000   2.335999e-05   2.697662e+00   4.386625e+00   9.756782e-01   1.112013e+05  -8.894023e+04  -1.348125e+05   0.000000e+00   0.000000e+00   0.000000e+00   1.960880e+05   0.000000e+00   0.000000e+00   0.000000e+00
     2344000   2.343999e-05   2.706558e+00   4.379510e+00   9.648932e-01   1.112013e+05  -8.894023e+04  -1.348125e+05   0.000000e+00   0.000000e+00   0.000000e+00   1.960880e+05   0.000000e+00   0.000000e+00   0.000000e+00
     2352000   2.351999e-05   2.715454e+00   4.372395e+00   9.541082e-01   1.112013e+05  -8.894023e+04  -1.348125e+05   0.000000e+00   0.000000e+00   0.000000e+00   1.960880e+05   0.000000e+00   0.000000e+00   0.000000e+00
     2360000   2.359999e-05   2.724350e+00   4.365280e+00   9.433232e-01   1.112013e+05  -8.894023e+04  -1.348125e+05   0.000000e+00   0.000000e+00   0.000000e+00   1.960880e+05   0.000000e+00   0.000000e+00   0.000000e+00
     2368000   2.367999e-05   2.733246e+00   4.358164e+00   9.325382e-01   1.112013e+05  -8.894023e+04  -1.348125e+05   0.000000e+00   0.000000e+00   0.000000e+00   1.960880e+05   0.000000e+00   0.000000e+00   0.000000e+00
     2376000   2.375999e-05   2.742142e+00   4.351049e+00   9.217532e-01   1.112013e+05  -8.894023e+04  -1.348125e+05   0.000000e+00   0.000000e+00   0.000000e+00   1.960880e+05   0.000000e+00   0.000000e+00   0.000000e+00
     2384000   2.383999e-05   2.751038e+00   4.343934e+00   9.109682e-01   1.112013e+05  -8.894023e+04  -1.348125e+05   0.000000e+00   0.000000e+00   0.000000e+00   1.960880e+05   0.000000e+00   0.000000e+00   0.000000e+00
     2392000   2.391999e-05   2.759934e+00   4.336819e+00   9.001832e-01   1.112013e+05  -8.894023e+04  -1.348125e+05   0.000000e+00   0.000000e+00   0.000000e+00   1.960880e+05   0.000000e+00   0.000000e+00   0.000000e+00
     2400000   2.399999e-05   2.768830e+00   4.329704e+00   8.893982e-01   1.112013e+05  -8.894023e+04  -1.348125e+05   0.000000e+00   0.000000e+00   0.000000e+00   1.960880e+05   0.000000e+00   0.000000e+00   0.000000e+00
     2408000   2.407999e-05   2.777727e+00   4.322588e+00   8.786132e-01   1.112013e+05  -8.894023e+04  -1.348125e+05   0.000000e+00   0.000000e+00   0.000000e+00   1.960880e+05   0.000000e+00   0.000000e+00   0.000000e+00
     2416000   2.415999e-05   2.786623e+00   4.315473e+00   8.678282e-01   1.112013e+05  -8.894023e+04  -1.348125e+05   0.000000e+00   0.000000e+00   0.000000e+00   1.960880e+05   0.000000e+00   0.000000e+00   0.000000e+00
     2424000   2.423999e-05   2.795519e+00   4.308358e+00   8.570432e-01   1.112013e+05  -8.894023e+04  -1.348125e+05   0.000000e+00   0.000000e+00   0.000000e+00   1.960880e+05   0.000000e+00   0.000000e+00   0.000000e+00
     2432000   2.431999e-05   2.804415e+00   4.301243e+00   8.462582e-01   1.112013e+05  -8.894023e+04  -1.348125e+05   0.000000e+00   0.000000e+00   0.000000e+00   1.960880e+05   0.000000e+00   0.000000e+00   0.000000e+00
     2440000   2.439999e-05   2.813311e+00   4.294127e+00   8.354732e-01   1.112013e+05  -8.894023e+04  -1.348125e+05   0.000000e+00   0.000000e+00   0.000000e+00   1.960880e+05   0.000000e+00   0.000000e+00   0.000000e+00
     2448000   2.447999e-05   2.822207e+00   4.287012e+00   8.246882e-01   1.112013e+05  -8.894023e+04  -1.348125e+05   0.000000e+00   0.000000e+00   0.000000e+00   1.960880e+05   0.000000e+00   0.000000e+00   0.000000e+00
     2456000   2.455999e-05   2.831103e+00   4.279897e+00   8.139032e-01   1.112013e+05  -8.894023e+04  -1.348125e+05   0.000000e+00   0.000000e+00   0.000000e+00   1.960880e+05   0.000000e+00   0.000000e+00   0.000000e+00
     2464000   2.463999e-05   2.839999e+00   4.272782e+00   8.031182e-01   1.112013e+05  -8.894023e+04  -1.348125e+05   0.000000e+00   0.000000e+00   0.000000e+00   1.960880e+05   0.000000e+00   0.000000e+00   0.000000e+00
     2472000   2.471999e-05   2.848895e+00   4.265667e+00   7.923332e-01   1.112013e+05  -8.894023e+04  -1.348125e+05   0.000000e+00   0.000000e+00   0.000000e+00   1.960880e+05   0.000000e+00   0.000000e+00   0.000000e+00
     2480000   2.479999e-05   2.857792e+00   4.258551e+00   7.815482e-01   1.112013e+05  -8.894023e+04  -1.348125e+05   0.000000e+00   0.000000e+00   0.000000e+00   1.960880e+05   0.000000e+00   0.000000e+00   0.000000e+00
     2488000   2.487999e-05   2.866688e+00   4.251436e+00   7.707632e-01   1.112013e+05  -8.894023e+04  -1.348125e+05   0.000000e+00   0.000000e+00   0.000000e+00   1.960880e+05   0.000000e+00   0.000000e+00   0.000000e+00
     2496000   2.495999e-05   2.875584e+00   4.244321e+00   7.599782e-01   1.112013e+05  -8.894023e+04  -1.348125e+05   0.000000e+00   0.000000e+00   0.000000e+00   1.960880e+05   0.000000e+00   0.000000e+00   0.000000e+00
     2504000   2.503999e-05   2.884480e+00   4.237206e+00   7.491932e-01   1.112013e+05  -8.894023e+04  -1.348125e+05   0.000000e+00   0.000000e+00   0.000000e+00   1.960880e+05   0.000000e+00   0.000000e+00   0.000000e+00
     2512000   2.511999e-05   2.893376e+00   4.230091e+00   7.384082e-01   1.112013e+05  -8.894023e+04  -1.348125e+05   0.000000e+00   0.000000e+00   0.000000e+00   1.960880e+05   0.000000e+00   0.000000e+00   0.000000e+00
     2520000   2.519999e-05   2.902272e+00   4.222975e+00   7.276232e-01   1.112013e+05  -8.894023e+04  -1.348125e+05   0.000000e+00   0.000000e+00   0.000000e+00   1.960880e+05   0.000000e+00   0.000000e+00   0.000000e+00
     2528000   2.527999e-05   2.911168e+00   4.215860e+00   7.168382e-01   1.112013e+05  -8.894023e+04  -1.348125e+05   0.000000e+00   0.000000e+00   0.000000e+00   1.960880e+05   0.000000e+00   0.000000e+00   0.000000e+00
     2536000   2.535999e-05   2.920064e+00   4.208745e+00   7.060532e-01   1.112013e+05  -8.894023e+04  -1.348125e+05   0.000000e+00   0.000000e+00   0.000000e+00   1.960880e+05   0.000000e+00   0.000000e+00   0.000000e+00
     2544000   2.543999e-05   2.928960e+00   4.201630e+00   6.952682e-01   1.112013e+05  -8.894023e+04  -1.348125e+05   0.000000e+00   0.000000e+00   0.000000e+00   1.960880e+05   0.000000e+00   0.000000e+00   0.000000e+00
     2552000   2.551999e-05   2.937856e+00   4.194514e+00   6.844832e-01   1.112013e+05  -8.894023e+04  -1.348125e+05   0.000000e+00   0.000000e+00   0.000000e+00   1.960880e+05   0.000000e+00   0.000000e+00   0.000000e+00
     2560000   2.559999e-05   2.946753e+00   4.187399e+00   6.736982e-01   1.112013e+05  -8.894023e+04  -1.348125e+05   0.000000e+00   0.000000e+00   0.000000e+00   1.960880e+05   0.000000e+00   0.000000e+00   0.000000e+00
     2568000   2.567999e-05   2.955649e+00   4.180284e+00   6.629132e-01   1.112013e+05  -8.894023e+04  -1.348125e+05   0.000000e+00   0.000000e+00   0.000000e+00   1.960880e+05   0.000000e+00   0.000000e+00   0.000000e+00
     2576000   2.575999e-05   2.964545e+00   4.173169e+00   6.521282e-01   1.112013e+05  -8.894023e+04  -1.348125e+05   0.000000e+00   0.000000e+00   0.000000e+00   1.960880e+05   0.000000e+00   0.000000e+00   0.000000e+00
     2584000   2.583999e-05   2.973441e+00   4.166054e+00   6.413432e-01   1.112013e+05  -8.894023e+04  -1.348125e+05   0.000000e+00   0.000000e+00   0.000000e+00   1.960880e+05   0.000000e+00   0.000000e+00   0.000000e+00
     2592000   2.591999e-05   2.982337e+00   4.158938e+00   6.305582e-01   1.112013e+05  -8.894023e+04  -1.348125e+05   0.000000e+00   0.000000e+00   0.000000e+00   1.960880e+05   0.000000e+00   0.000000e+00   0.000000e+00
     2600000   2.599999e-05   2.991233e+00   4.151823e+00   6.197732e-01   1.112013e+05  -8.894023e+04  -1.348125e+05   0.000000e+00   0.000000e+00   0.000000e+00   1.960880e+05   0.000000e+00   0.000000e+00   0.000000e+00
     2608000   2.607999e-05   3.000129e+00   4.144708e+00   6.089882e-01   1.112013e+05  -8.894023e+04  -1.348125e+05   0.000000e+00   0.000000e+00   0.000000e+00   1.960880e+05   0.000000e+00   0.000000e+00   0.000000e+00
     2616000   2.615999e-05   3.009025e+00   4.137593e+00   5.982032e-01   1.112013e+05  -8.894023e+04  -1.348125e+05   0.000000e+00   0.000000e+00   0.000000e+00   1.960880e+05   0.000000e+00   0.000000e+00   0.000000e+00
     2624000   2.623999e-05   3.017921e+00   4.130477e+00   5.874182e-01   1.112013e+05  -8.894023e+04  -1.348125e+05   0.000000e+00   0.000000e+00   0.000000e+00   1.960880e+05   0.000000e+00   0.000000e+00   0.000000e+00
     2632000   2.631999e-05   3.026817e+00   4.123362e+00   5.766332e-01   1.112013e+05  -8.894023e+04  -1.348125e+05   0.000000e+00   0.000000e+00   0.000000e+00   1.960880e+05   0.000000e+00   0.000000e+00   0.000000e+00
     2640000   2.639999e-05   3.035714e+00   4.116247e+00   5.658482e-01   1.112013e+05  -8.894023e+04  -1.348125e+05   0.000000e+00   0.000000e+00   0.000000e+00   1.960880e+05   0.000000e+00   0.000000e+00   0.000000e+00
     2648000   2.647999e-05   3.044610e+00   4.109132e+00   5.550632e-01   1.112013e+05  -8.894023e+04  -1.348125e+05   0.000000e+00   0.000000e+00   0.000000e+00   1.960880e+05   0.000000e+00   0.000000e+00   0.000000e+00
     2656000   2.655999e-05   3.053506e+00   4.102017e+00   5.442782e-01   1.112013e+05  -8.894023e+04  -1.348125e+05   0.000000e+00   0.000000e+00   0.000000e+00   1.960880e+05   0.000000e+00   0.000000e+00   0.000000e+00
     2664000   2.663999e-05   3.062402e+00   4.094901e+00   5.334932e-01   1.112013e+05  -8.894023e+04  -1.348125e+05   0.000000e+00   0.000000e+00   0.000000e+00   1.960880e+05   0.000000e+00   0.000000e+00   0.000000e+00
     2672000   2.671999e-05   3.071298e+00   4.087786e+00   5.227082e-01   1.112013e+05  -8.894023e+04  -1.348125e+05   0.000000e+00   0.000000e+00   0.000000e+00   1.960880e+05   0.000000e+00   0.000000e+00   0.000000e+00
     2680000   2.679999e-05   3.080194e+00   4.080671e+00   5.119232e-01   1.112013e+05  -8.894023e+04  -1.348125e+05   0.000000e+00   0.000000e+00   0.000000e+00   1.960880e+05   0.000000e+00   0.000000e+00   0.000000e+00
     2688000   2.687999e-05   3.089090e+00   4.073556e+00   5.011382e-01   1.112013e+05  -8.894023e+04  -1.348125e+05   0.000000e+00   0.000000e+00   0.000000e+00   1.960880e+05   0.000000e+00   0.000000e+00   0.000000e+00
     2696000   2.695999e-05   3.097986e+00   4.066440e+00   4.903532e-01   1.112013e+05  -8.894023e+04  -1.348125e+05   0.000000e+00   0.000000e+00   0.000000e+00   1.960880e+05   0.000000e+00   0.000000e+00   0.000000e+00
     2704000   2.703999e-05   3.106882e+00   4.059325e+00   4.795682e-01   1.112013e+05  -8.894023e+04  -1.348125e+05   0.000000e+00   0.000000e+00   0.000000e+00   1.960880e+05   0.000000e+00   0.000000e+00   0.000000e+00
     2712000   2.711999e-05   3.115778e+00   4.052210e+00   4.687832e-01   1.112013e+05  -8.894023e+04  -1.348125e+05   0.000000e+00   0.000000e+00   0.000000e+00   1.960880e+05   0.000000e+00   0.000000e+00   0.000000e+00
     2720000   2.719999e-05   3.124675e+00   4.045095e+00   4.579982e-01   1.112013e+05  -8.894023e+04  -1.348125e+05   0.000000e+00   0.000000e+00   0.000000e+00   1.960880e+05   0.000000e+00   0.000000e+00   0.000000e+00
     2728000   2.727999e-05   3.133571e+00   4.037980e+00   4.472132e-01   1.112013e+05  -8.894023e+04  -1.348125e+05   0.000000e+00   0.000000e+00   0.000000e+00   1.960880e+05   0.000000e+00   0.000000e+00   0.000000e+00
     2736000   2.735999e-05   3.142467e+00   4.030864e+00   4.364282e-01   1.112013e+05  -8.894023e+04  -1.348125e+05   0.000000e+00   0.000000e+00   0.000000e+00   1.960880e+05   0.000000e+00   0.000000e+00   0.000000e+00
     2744000   2.743999e-05   3.151363e+00   4.023749e+00   4.256432e-01   1.112013e+05  -8.894023e+04  -1.348125e+05   0.000000e+00   0.000000e+00   0.000000e+00   1.960880e+05   0.000000e+00   0.000000e+00   0.000000e+00
     2752000   2.751999e-05   3.160259e+00   4.016634e+00   4.148582e-01   1.112013e+05  -8.894023e+04  -1.348125e+05   0.000000e+00   0.000000e+00   0.000000e+00   1.960880e+05   0.000000e+00   0.000000e+00   0.000000e+00
     2760000   2.759999e-05   3.169155e+00   4.009519e+00   4.040732e-01   1.112013e+05  -8.894023e+04  -1.348125e+05   0.000000e+00   0.000000e+00   0.000000e+00   1.960880e+05   0.000000e+00   0.000000e+00   0.000000e+00
     2768000   2.767999e-05   3.178051e+00   4.002404e+00   3.932882e-01   1.112013e+05  -8.894023e+04  -1.348125e+05   0.000000e+00   0.000000e+00   0.000000e+00   1.960880e+05   0.000000e+00   0.000000e+00   0.000000e+00
     2776000   2.775999e-05   3.186947e+00   3.995288e+00   3.825032e-01   1.112013e+05  -8.894023e+04  -1.348125e+05   0.000000e+00   0.000000e+00   0.000000e+00   1.960880e+05   0.000000e+00   0.000000e+00   0.000000e+00
     2784000   2.783999e-05   3.195843e+00   3.988173e+00   3.717182e-01   1.112013e+05  -8.894023e+04  -1.348125e+05   0.000000e+00   0.000000e+00   0.000000e+00   1.960880e+05   0.000000e+00   0.000000e+00   0.000000e+00
     2792000   2.791999e-05   3.204739e+00   3.981058e+00   3.609332e-01   1.112013e+05  -8.894023e+04  -1.348125e+05   0.000000e+00   0.000000e+00   0.000000e+00   1.960880e+05   0.000000e+00   0.000000e+00   0.000000e+00
     2800000   2.799999e-05   3.213636e+00   3.973943e+00   3.501482e-01   1.112013e+05  -8.894023e+04  -1.348125e+05   0.000000e+00   0.000000e+00   0.000000e+00   1.960880e+05   0.000000e+00   0.000000e+00   0.000000e+00
     2808000   2.807999e-05   3.222532e+00   3.966827e+00   3.393632e-01   1.112013e+05  -8.894023e+04  -1.348125e+05   0.000000e+00   0.000000e+00   0.000000e+00   1.960880e+05   0.000000e+00   0.000000e+00   0.000000e+00
     2816000   2.815999e-05   3.231428e+00   3.959712e+00   3.285782e-01   1.112013e+05  -8.894023e+04  -1.348125e+05   0.000000e+00   0.000000e+00   0.000000e+00   1.960880e+05   0.000000e+00   0.000000e+00   0.000000e+00
     2824000   2.823999e-05   3.240324e+00   3.952597e+00   3.177932e-01   1.112013e+05  -8.894023e+04  -1.348125e+05   0.000000e+00   0.000000e+00   0.000000e+00   1.960880e+05   0.000000e+00   0.000000e+00   0.000000e+00
     2832000   2.831999e-05   3.249220e+00   3.945482e+00   3.070082e-01   1.112013e+05  -8.894023e+04  -1.348125e+05   0.000000e+00   0.000000e+00   0.000000e+00   1.960880e+05   0.000000e+00   0.000000e+00   0.000000e+00
     2840000   2.839999e-05   3.258116e+00   3.938367e+00   2.962232e-01   1.112013e+05  -8.894023e+04  -1.348125e+05   0.000000e+00   0.000000e+00   0.000000e+00   1.960880e+05   0.000000e+00   0.000000e+00   0.000000e+00
     2848000   2.847999e-05   3.267012e+00   3.931251e+00   2.854382e-01   1.112013e+05  -8.894023e+04  -1.348125e+05   0.000000e+00   0.000000e+00   0.000000e+00   1.960880e+05   0.000000e+00   0.000000e+00   0.000000e+00
     2856000   2.855999e-05   3.275908e+00   3.924136e+00   2.746532e-01   1.112013e+05  -8.894023e+04  -1.348125e+05   0.000000e+00   0.000000e+00   0.000000e+00   1.960880e+05   0.000000e+00   0.000000e+00   0.000000e+00
     2864000   2.863999e-05   3.284804e+00   3.917021e+00   2.638682e-01   1.112013e+05  -8.894023e+04  -1.348125e+05   0.000000e+00   0.000000e+00   0.000000e+00   1.960880e+05   0.000000e+00   0.000000e+00   0.000000e+00
     2872000   2.871999e-05   3.293700e+00   3.909906e+00   2.530832e-01   1.112013e+05  -8.894023e+04  -1.348125e+05   0.000000e+00   0.000000e+00   0.000000e+00   1.960880e+05   0.000000e+00   0.000000e+00   0.000000e+00
     2880000   2.879999e-05   3.302597e+00   3.902790e+00   2.422982e-01   1.112013e+05  -8.894023e+04  -1.348125e+05   0.000000e+00   0.000000e+00   0.000000e+00   1.960880e+05   0.000000e+00   0.000000e+00   0.000000e+00
     2888000   2.887999e-05   3.311493e+00   3.895675e+00   2.315132e-01   1.112013e+05  -8.894023e+04  -1.348125e+05   0.000000e+00   0.000000e+00   0.000000e+00   1.960880e+05   0.000000e+00   0.000000e+00   0.000000e+00
     2896000   2.895999e-05   3.320389e+00   3.888560e+00   2.207282e-01   1.112013e+05  -8.894023e+04  -1.348125e+05   0.000000e+00   0.000000e+00   0.000000e+00   1.960880e+05   0.000000e+00   0.000000e+00   0.000000e+00
     2904000   2.903999e-05   3.329285e+00   3.881445e+00   2.099432e-01   1.112013e+05  -8.894023e+04  -1.348125e+05   0.000000e+00   0.000000e+00   0.000000e+00   1.960880e+05   0.000000e+00   0.000000e+00   0.000000e+00
     2912000   2.911999e-05   3.338181e+00   3.874330e+00   1.991582e-01   1.112013e+05  -8.894023e+04  -1.348125e+05   0.000000e+00   0.000000e+00   0.000000e+00   1.960880e+05   0.000000e+00   0.000000e+00   0.000000e+00
     2920000   2.919999e-05   3.347077e+00   3.867214e+00   1.883732e-01   1.112013e+05  -8.894023e+04  -1.348125e+05   0.000000e+00   0.000000e+00   0.000000e+00   1.960880e+05   0.000000e+00   0.000000e+00   0.000000e+00
     2928000   2.927999e-05   3.355973e+00   3.860099e+00   1.775882e-01   1.112013e+05  -8.894023e+04  -1.348125e+05   0.000000e+00   0.000000e+00   0.000000e+00   1.960880e+05   0.000000e+00   0.000000e+00   0.000000e+00
     2936000   2.935999e-05   3.364869e+00   3.852984e+00   1.668032e-01   1.112013e+05  -8.894023e+04  -1.348125e+05   0.000000e+00   0.000000e+00   0.000000e+00   1.960880e+05   0.000000e+00   0.000000e+00   0.000000e+00
     2944000   2.943999e-05   3.373765e+00   3.845869e+00   1.560182e-01   1.112013e+05  -8.894023e+04  -1.348125e+05   0.000000e+00   0.000000e+00   0.000000e+00   1.960880e+05   0.000000e+00   0.000000e+00   0.000000e+00
     2952000   2.951999e-05   3.382662e+00   3.838754e+00   1.452332e-01   1.112013e+05  -8.894023e+04  -1.348125e+05   0.000000e+00   0.000000e+00   0.000000e+00   1.960880e+05   0.000000e+00   0.000000e+00   0.000000e+00
     2960000   2.959999e-05   3.391558e+00   3.831638e+00   1.344482e-01   1.112013e+05  -8.894023e+04  -1.348125e+05   0.000000e+00   0.000000e+00   0.000000e+00   1.960880e+05   0.000000e+00   0.000000e+00   0.000000e+00
     2968000   2.967999e-05   3.400454e+00   3.824523e+00   1.236632e-01   1.112013e+05  -8.894023e+04  -1.348125e+05   0.000000e+00   0.000000e+00   0.000000e+00   1.960880e+05   0.000000e+00   0.000000e+00   0.000000e+00
     2976000   2.975999e-05   3.409350e+00   3.817408e+00   1.128782e-01   1.112013e+05  -8.894023e+04  -1.348125e+05   0.000000e+00   0.000000e+00   0.000000e+00   1.960880e+05   0.000000e+00   0.000000e+00   0.000000e+00
     2984000   2.983999e-05   3.418246e+00   3.810293e+00   1.020932e-01   1.112013e+05  -8.894023e+04  -1.348125e+05   0.000000e+00   0.000000e+00   0.000000e+00   1.960880e+05   0.000000e+00   0.000000e+00   0.000000e+00
     2992000   2.991999e-05   3.427142e+00   3.803177e+00   9.130822e-02   1.112013e+05  -8.894023e+04  -1.348125e+05   0.000000e+00   0.000000e+00   0.000000e+00   1.960880e+05   0.000000e+00   0.000000e+00   0.000000e+00
     3000000   2.999999e-05   3.436038e+00   3.796062e+00   8.052322e-02   1.112013e+05  -8.894023e+04  -1.348125e+05   0.000000e+00   0.000000e+00   0.000000e+00   1.960880e+05   0.000000e+00   0.000000e+00   0.000000e+00
     3008000   3.007999e-05   3.444934e+00   3.788947e+00   6.973822e-02   1.112013e+05  -8.894023e+04  -1.348125e+05   0.000000e+00   0.000000e+00   0.000000e+00   1.960880e+05   0.000000e+00   0.000000e+00   0.000000e+00
     3016000   3.015999e-05   3.453830e+00   3.781832e+00   5.895322e-02   1.112013e+05  -8.894023e+04  -1.348125e+05   0.000000e+00   0.000000e+00   0.000000e+00   1.960880e+05   0.000000e+00   0.000000e+00   0.000000e+00
     3024000   3.023999e-05   3.462726e+00   3.774717e+00   4.816822e-02   1.112013e+05  -8.894023e+04  -1.348125e+05   0.000000e+00   0.000000e+00   0.000000e+00   1.960880e+05   0.000000e+00   0.000000e+00   0.000000e+00
     3032000   3.031999e-05   3.471623e+00   3.767601e+00   3.738322e-02   1.112013e+05  -8.894023e+04  -1.348125e+05   0.000000e+00   0.000000e+00   0.000000e+00   1.960880e+05   0.000000e+00   0.000000e+00   0.000000e+00
     3040000   3.039999e-05   3.480519e+00   3.760486e+00   2.659822e-02   1.112013e+05  -8.894023e+04  -1.348125e+05   0.000000e+00   0.000000e+00   0.000000e+00   1.960880e+05   0.000000e+00   0.000000e+00   0.000000e+00
     3048000   3.047999e-05   3.489415e+00   3.753371e+00   1.581322e-02   1.112013e+05  -8.894023e+04  -1.348125e+05   0.000000e+00   0.000000e+00   0.000000e+00   1.960880e+05   0.000000e+00   0.000000e+00   0.000000e+00
     3056000   3.055999e-05   3.498311e+00   3.746256e+00   5.028222e-03   1.112013e+05  -8.894023e+04  -1.348125e+05   0.000000e+00   0.000000e+00   0.000000e+00   1.960880e+05   0.000000e+00   0.000000e+00   0.000000e+00
