     timestep     time              x             y              z              vx             vy             vz             ax             ay             az         v_magnitude      ELoss        Electronic      Nuclear
           0   0.000000e+00   1.000000e-01   9.987248e+00   2.082367e+01   1.189958e+05  -7.668351e+04   7.438284e+05   0.000000e+00   0.000000e+00   0.000000e+00   7.571796e+05   0.000000e+00   0.000000e+00   0.000000e+00
        8000   7.999000e-08   1.095197e-01   9.981113e+00   2.088318e+01   1.189978e+05  -7.668040e+04   7.438284e+05   2.792272e+07   4.333233e+07   2.999139e-16   7.571796e+05   5.428321e-30   0.000000e+00   0.000000e+00
       16000   1.599900e-07   1.190396e-01   9.974979e+00   2.094268e+01   1.189988e+05  -7.667887e+04   7.438284e+05   2.912551e+06   4.520019e+06  -1.398500e-16   7.571796e+05   5.910808e-32   0.000000e+00   0.000000e+00
       24000   2.399900e-07   1.285595e-01   9.968845e+00   2.100219e+01   1.189987e+05  -7.667893e+04   7.438284e+05   1.571217e+07   2.438386e+07  -1.472135e-15   7.571796e+05   1.718787e-30   0.000000e+00   0.000000e+00
       32000   3.199900e-07   1.380795e-01   9.962711e+00   2.106170e+01   1.190002e+05  -7.667662e+04   7.438284e+05   2.146856e+07   3.331867e+07  -6.097897e-15   7.571796e+05   3.209166e-30   0.000000e+00   0.000000e+00
       40000   3.999900e-07   1.475996e-01   9.956577e+00   2.112120e+01   1.190015e+05  -7.667462e+04   7.438284e+05   1.695348e+06   2.631235e+06  -8.041327e-17   7.571796e+05   2.003956e-32   0.000000e+00   0.000000e+00
       48000   4.799900e-07   1.571197e-01   9.950443e+00   2.118071e+01   1.190013e+05  -7.667492e+04   7.438284e+05  -6.617987e+06  -1.027127e+07   1.502379e-15   7.571796e+05   3.048949e-31   0.000000e+00   0.000000e+00
       56000   5.599900e-07   1.666398e-01   9.944309e+00   2.124021e+01   1.190018e+05  -7.667415e+04   7.438284e+05   1.501537e+07   2.330455e+07   1.063356e-15   7.571796e+05   1.569908e-30   0.000000e+00   0.000000e+00
       64000   6.399900e-07   1.761600e-01   9.938175e+00   2.129972e+01   1.190032e+05  -7.667192e+04   7.438284e+05   2.077148e+07   3.223961e+07  -4.640004e-15   7.571796e+05   3.004508e-30   0.000000e+00   0.000000e+00
       72000   7.199900e-07   1.856802e-01   9.932041e+00   2.135923e+01   1.190029e+05  -7.667237e+04   7.438284e+05  -7.835016e+06  -1.216070e+07   1.814948e-15   7.571796e+05   4.273937e-31   0.000000e+00   0.000000e+00
       80000   7.999900e-07   1.952004e-01   9.925907e+00   2.141873e+01   1.190026e+05  -7.667298e+04   7.438284e+05   8.562792e+06   1.329013e+07  -7.531109e-16   7.571796e+05   5.105220e-31   0.000000e+00   0.000000e+00
       88000   8.799900e-07   2.047207e-01   9.919773e+00   2.147824e+01   1.190030e+05  -7.667233e+04   7.438284e+05  -8.076163e+04  -1.253500e+05  -1.205360e-17   7.571796e+05   4.516124e-35   0.000000e+00   0.000000e+00
       96000   9.599900e-07   2.142409e-01   9.913640e+00   2.153775e+01   1.190030e+05  -7.667227e+04   7.438284e+05   1.523507e+06   2.364635e+06   1.839948e-16   7.571796e+05   1.616000e-32   0.000000e+00   0.000000e+00
      104000   1.039990e-06   2.237612e-01   9.907506e+00   2.159725e+01   1.190032e+05  -7.667198e+04   7.438284e+05   3.103990e+06   4.817729e+06  -2.987495e-16   7.571796e+05   6.708934e-32   0.000000e+00   0.000000e+00
      112000   1.119990e-06   2.332814e-01   9.901372e+00   2.165676e+01   1.190033e+05  -7.667183e+04   7.438284e+05   2.546380e+05   3.952269e+05   7.066610e-17   7.571796e+05   4.523872e-34   0.000000e+00   0.000000e+00
      120000   1.199990e-06   2.428017e-01   9.895238e+00   2.171627e+01   1.190035e+05  -7.667153e+04   7.438284e+05  -1.602842e+06  -2.487805e+06  -1.363662e-16   7.571796e+05   1.788664e-32   0.000000e+00   0.000000e+00
      128000   1.279990e-06   2.523220e-01   9.889105e+00   2.177577e+01   1.190033e+05  -7.667185e+04   7.438284e+05  -3.459438e+06  -5.369435e+06   3.495578e-16   7.571796e+05   8.333404e-32   0.000000e+00   0.000000e+00
      136000   1.359990e-06   2.618422e-01   9.882971e+00   2.183528e+01   1.190033e+05  -7.667182e+04   7.438284e+05   3.499150e+06   5.431075e+06  -7.842366e-16   7.571796e+05   8.526016e-32   0.000000e+00   0.000000e+00
      144000   1.439990e-06   2.713625e-01   9.876837e+00   2.189478e+01   1.190036e+05  -7.667129e+04   7.438284e+05   5.074025e+06   7.875537e+06   1.091576e-15   7.571796e+05   1.792865e-31   0.000000e+00   0.000000e+00
      152000   1.519990e-06   2.808828e-01   9.870703e+00   2.195429e+01   1.190035e+05  -7.667149e+04   7.438284e+05  -3.125213e+06  -4.850712e+06  -3.189787e-17   7.571796e+05   6.800930e-32   0.000000e+00   0.000000e+00
      160000   1.599990e-06   2.904030e-01   9.864570e+00   2.201380e+01   1.190033e+05  -7.667179e+04   7.438284e+05   2.319903e+06   3.600753e+06  -5.197993e-16   7.571796e+05   3.747453e-32   0.000000e+00   0.000000e+00
      168000   1.679990e-06   2.999233e-01   9.858436e+00   2.207330e+01   1.190036e+05  -7.667141e+04   7.438284e+05   3.894794e+06   6.045205e+06  -1.035056e-15   7.571796e+05   1.056330e-31   0.000000e+00   0.000000e+00
      176000   1.759990e-06   3.094436e-01   9.852302e+00   2.213281e+01   1.190036e+05  -7.667140e+04   7.438284e+05  -4.818850e+00  -7.479456e+00   5.376119e-23   7.571796e+05   1.617159e-43   0.000000e+00   0.000000e+00
      184000   1.839990e-06   3.189639e-01   9.846168e+00   2.219232e+01   1.190036e+05  -7.667140e+04   7.438284e+05  -5.203410e+00  -8.076341e+00  -6.778409e-23   7.571796e+05   1.885570e-43   0.000000e+00   0.000000e+00
      192000   1.919990e-06   3.284842e-01   9.840035e+00   2.225182e+01   1.190036e+05  -7.667140e+04   7.438284e+05  -4.400662e+00  -6.830376e+00  -9.955919e-22   7.571796e+05   1.348697e-43   0.000000e+00   0.000000e+00
      200000   1.999990e-06   3.380045e-01   9.833901e+00   2.231133e+01   1.190036e+05  -7.667140e+04   7.438284e+05  -5.208280e+00  -8.083899e+00   2.195157e-22   7.571796e+05   1.889101e-43   0.000000e+00   0.000000e+00
      208000   2.079990e-06   3.475248e-01   9.827767e+00   2.237083e+01   1.190036e+05  -7.667140e+04   7.438284e+05  -5.592840e+00  -8.680784e+00  -6.663830e-22   7.571796e+05   2.178371e-43   0.000000e+00   0.000000e+00
      216000   2.159990e-06   3.570450e-01   9.821634e+00   2.243034e+01   1.190036e+05  -7.667140e+04   7.438284e+05  -4.711783e+00  -7.313274e+00   8.921330e-22   7.571796e+05   1.546139e-43   0.000000e+00   0.000000e+00
      224000   2.239990e-06   3.665653e-01   9.815500e+00   2.248985e+01   1.190036e+05  -7.667140e+04   7.438284e+05  -4.560740e+00  -7.078836e+00   1.698865e-21   7.571796e+05   1.448601e-43   0.000000e+00   0.000000e+00
      232000   2.319990e-06   3.760856e-01   9.809366e+00   2.254935e+01   1.190036e+05  -7.667140e+04   7.438284e+05  -5.982270e+00  -9.285228e+00   1.023249e-21   7.571796e+05   2.492296e-43   0.000000e+00   0.000000e+00
      240000   2.399990e-06   3.856059e-01   9.803232e+00   2.260886e+01   1.190036e+05  -7.667140e+04   7.438284e+05  -5.022904e+00  -7.796172e+00  -2.754171e-22   7.571796e+05   1.757064e-43   0.000000e+00   0.000000e+00
      248000   2.479990e-06   3.951262e-01   9.797099e+00   2.266837e+01   1.190036e+05  -7.667140e+04   7.438284e+05  -1.452594e+00  -2.254607e+00   3.349985e-22   7.571796e+05   1.470083e-44   0.000000e+00   0.000000e+00
      256000   2.559990e-06   4.046465e-01   9.790965e+00   2.272787e+01   1.190036e+05  -7.667140e+04   7.438284e+05  -5.950735e+00  -9.236282e+00   1.550805e-21   7.571796e+05   2.466194e-43   0.000000e+00   0.000000e+00
      264000   2.639990e-06   4.141668e-01   9.784831e+00   2.278738e+01   1.190036e+05  -7.667140e+04   7.438284e+05  -5.321337e+00  -8.259378e+00  -1.050469e-21   7.571796e+05   1.972100e-43   0.000000e+00   0.000000e+00
      272000   2.719990e-06   4.236870e-01   9.778698e+00   2.284688e+01   1.190036e+05  -7.667140e+04   7.438284e+05  -4.726329e+00  -7.335851e+00  -1.308368e-21   7.571796e+05   1.555677e-43   0.000000e+00   0.000000e+00
      280000   2.799990e-06   4.332073e-01   9.772564e+00   2.290639e+01   1.190036e+05  -7.667140e+04   7.438284e+05  -5.617516e+00  -8.719085e+00   8.553027e-23   7.571796e+05   2.197735e-43   0.000000e+00   0.000000e+00
      288000   2.879990e-06   4.427276e-01   9.766430e+00   2.296590e+01   1.190036e+05  -7.667140e+04   7.438284e+05  -4.988118e+00  -7.742180e+00   1.301459e-21   7.571796e+05   1.732853e-43   0.000000e+00   0.000000e+00
      296000   2.959990e-06   4.522479e-01   9.760297e+00   2.302540e+01   1.190036e+05  -7.667140e+04   7.438284e+05  -3.556664e+00  -5.520386e+00   2.209802e-22   7.571796e+05   8.809603e-44   0.000000e+00   0.000000e+00
      304000   3.039990e-06   4.617682e-01   9.754163e+00   2.308491e+01   1.190036e+05  -7.667140e+04   7.438284e+05  -3.685101e+00  -5.719735e+00   5.530717e-22   7.571796e+05   9.457351e-44   0.000000e+00   0.000000e+00
      312000   3.119990e-06   4.712885e-01   9.748029e+00   2.314442e+01   1.190036e+05  -7.667140e+04   7.438284e+05  -4.654898e+00  -7.224982e+00   6.023636e-22   7.571796e+05   1.509071e-43   0.000000e+00   0.000000e+00
      320000   3.199990e-06   4.808087e-01   9.741895e+00   2.320392e+01   1.190036e+05  -7.667140e+04   7.438284e+05  -2.386999e+00  -3.704920e+00   2.254952e-22   7.571796e+05   3.968015e-44   0.000000e+00   0.000000e+00
      328000   3.279990e-06   4.903290e-01   9.735762e+00   2.326343e+01   1.190036e+05  -7.667140e+04   7.438284e+05  -2.515436e+00  -3.904270e+00  -2.058038e-22   7.571796e+05   4.406518e-44   0.000000e+00   0.000000e+00
      336000   3.359990e-06   4.998493e-01   9.729628e+00   2.332293e+01   1.190036e+05  -7.667140e+04   7.438284e+05  -4.321679e+00  -6.707784e+00  -8.603279e-22   7.571796e+05   1.300755e-43   0.000000e+00   0.000000e+00
      344000   3.439990e-06   5.093696e-01   9.723494e+00   2.338244e+01   1.190036e+05  -7.667140e+04   7.438284e+05  -5.906227e-01  -9.167200e-01  -2.251448e-23   7.571796e+05   2.431025e-45   0.000000e+00   0.000000e+00
      352000   3.519990e-06   5.188899e-01   9.717361e+00   2.344195e+01   1.190036e+05  -7.667140e+04   7.438284e+05  -2.745364e+00  -4.261146e+00   8.485996e-22   7.571796e+05   5.248106e-44   0.000000e+00   0.000000e+00
      360000   3.599990e-06   5.284102e-01   9.711227e+00   2.350145e+01   1.190036e+05  -7.667140e+04   7.438284e+05  -2.839477e+00  -4.407222e+00  -3.618006e-22   7.571796e+05   5.615812e-44   0.000000e+00   0.000000e+00
      368000   3.679990e-06   5.379305e-01   9.705093e+00   2.356096e+01   1.190036e+05  -7.667140e+04   7.438284e+05  -1.236764e+00  -1.919612e+00   6.307905e-22   7.571796e+05   1.065588e-44   0.000000e+00   0.000000e+00
      376000   3.759990e-06   5.474507e-01   9.698959e+00   2.362047e+01   1.190036e+05  -7.667140e+04   7.438284e+05   2.642353e+00   4.101261e+00   1.505407e-22   7.571796e+05   4.861767e-44   0.000000e+00   0.000000e+00
      384000   3.839990e-06   5.569710e-01   9.692826e+00   2.367997e+01   1.190036e+05  -7.667140e+04   7.438284e+05   4.153522e+00   6.446783e+00  -1.106527e-21   7.571796e+05   1.201346e-43   0.000000e+00   0.000000e+00
      392000   3.919990e-06   5.664913e-01   9.686692e+00   2.373948e+01   1.190036e+05  -7.667140e+04   7.438284e+05  -3.513803e+00  -5.453860e+00  -6.502307e-22   7.571796e+05   8.598005e-44   0.000000e+00   0.000000e+00
      400000   3.999990e-06   5.760116e-01   9.680558e+00   2.379898e+01   1.190036e+05  -7.667140e+04   7.438284e+05  -4.540763e+00  -7.047829e+00   5.149800e-22   7.571796e+05   1.435845e-43   0.000000e+00   0.000000e+00
      408000   4.079990e-06   5.855319e-01   9.674425e+00   2.385849e+01   1.190036e+05  -7.667140e+04   7.438284e+05   4.807125e+00   7.461257e+00  -5.943946e-22   7.571796e+05   1.609205e-43   0.000000e+00   0.000000e+00
      416000   4.159990e-06   5.950522e-01   9.668291e+00   2.391800e+01   1.190036e+05  -7.667140e+04   7.438284e+05  -2.714779e+00  -4.213676e+00   4.768214e-22   7.571796e+05   5.132188e-44   0.000000e+00   0.000000e+00
      424000   4.239990e-06   6.045725e-01   9.662157e+00   2.397750e+01   1.190036e+05  -7.667140e+04   7.438284e+05   5.675972e-01   8.809815e-01   1.451950e-22   7.571796e+05   2.241567e-45   0.000000e+00   0.000000e+00
      432000   4.319990e-06   6.140927e-01   9.656023e+00   2.403701e+01   1.190036e+05  -7.667140e+04   7.438284e+05  -3.155633e+00  -4.897935e+00   4.634862e-22   7.571796e+05   6.933902e-44   0.000000e+00   0.000000e+00
      440000   4.399990e-06   6.236130e-01   9.649890e+00   2.409652e+01   1.190036e+05  -7.667140e+04   7.438284e+05  -5.183308e+00  -8.045139e+00  -3.256036e-22   7.571796e+05   1.870881e-43   0.000000e+00   0.000000e+00
      448000   4.479990e-06   6.331333e-01   9.643756e+00   2.415602e+01   1.190036e+05  -7.667140e+04   7.438284e+05  -6.149048e-02  -9.544089e-02   1.898847e-23   7.571796e+05   2.655852e-47   0.000000e+00   0.000000e+00
      456000   4.559990e-06   6.426536e-01   9.637622e+00   2.421553e+01   1.190036e+05  -7.667140e+04   7.438284e+05  -2.286767e+00  -3.549347e+00   1.844504e-23   7.571796e+05   3.641011e-44   0.000000e+00   0.000000e+00
      464000   4.639990e-06   6.521739e-01   9.631489e+00   2.427503e+01   1.190036e+05  -7.667140e+04   7.438284e+05  -4.314441e+00  -6.696551e+00   7.556050e-22   7.571796e+05   1.296202e-43   0.000000e+00   0.000000e+00
      472000   4.719990e-06   6.616942e-01   9.625355e+00   2.433454e+01   1.190036e+05  -7.667140e+04   7.438284e+05  -6.905781e-01  -1.071863e+00   3.544077e-23   7.571796e+05   3.323774e-45   0.000000e+00   0.000000e+00
      480000   4.799990e-06   6.712145e-01   9.619221e+00   2.439405e+01   1.190036e+05  -7.667140e+04   7.438284e+05   1.417023e+00   2.199396e+00  -2.799541e-22   7.571796e+05   1.397870e-44   0.000000e+00   0.000000e+00
      488000   4.879990e-06   6.807347e-01   9.613087e+00   2.445355e+01   1.190036e+05  -7.667140e+04   7.438284e+05  -3.445575e+00  -5.347962e+00  -8.340283e-22   7.571796e+05   8.266737e-44   0.000000e+00   0.000000e+00
      496000   4.959990e-06   6.902550e-01   9.606954e+00   2.451306e+01   1.190036e+05  -7.667140e+04   7.438284e+05  -1.319666e+00  -2.048286e+00   2.185466e-22   7.571796e+05   1.213321e-44   0.000000e+00   0.000000e+00
      504000   5.039990e-06   6.997753e-01   9.600820e+00   2.457257e+01   1.190036e+05  -7.667140e+04   7.438284e+05   7.879353e-01   1.222974e+00  -7.567998e-25   7.571796e+05   4.320810e-45   0.000000e+00   0.000000e+00
      512000   5.119990e-06   7.092956e-01   9.594686e+00   2.463207e+01   1.190036e+05  -7.667140e+04   7.438284e+05  -2.215393e+00  -3.438566e+00  -3.569621e-22   7.571796e+05   3.417484e-44   0.000000e+00   0.000000e+00
      520000   5.199990e-06   7.188159e-01   9.588553e+00   2.469158e+01   1.190036e+05  -7.667140e+04   7.438284e+05  -3.638193e+00  -5.646929e+00  -8.096538e-22   7.571796e+05   9.217296e-44   0.000000e+00   0.000000e+00
      528000   5.279990e-06   7.283362e-01   9.582419e+00   2.475108e+01   1.190036e+05  -7.667140e+04   7.438284e+05  -3.544240e-01  -5.501103e-01   2.540748e-23   7.571796e+05   8.757598e-46   0.000000e+00   0.000000e+00
      536000   5.359990e-06   7.378565e-01   9.576285e+00   2.481059e+01   1.190036e+05  -7.667140e+04   7.438284e+05  -1.501621e+00  -2.330702e+00   5.128821e-22   7.571796e+05   1.569973e-44   0.000000e+00   0.000000e+00
      544000   5.439990e-06   7.473767e-01   9.570151e+00   2.487010e+01   1.190036e+05  -7.667140e+04   7.438284e+05  -2.924420e+00  -4.539065e+00  -5.124987e-22   7.571796e+05   5.955268e-44   0.000000e+00   0.000000e+00
      552000   5.519990e-06   7.568970e-01   9.564018e+00   2.492960e+01   1.190036e+05  -7.667140e+04   7.438284e+05  -7.906883e-01  -1.227247e+00   8.940428e-23   7.571796e+05   4.356054e-45   0.000000e+00   0.000000e+00
      560000   5.599990e-06   7.664173e-01   9.557884e+00   2.498911e+01   1.190036e+05  -7.667140e+04   7.438284e+05   7.246140e-01   1.124691e+00   1.065441e-22   7.571796e+05   3.654778e-45   0.000000e+00   0.000000e+00
      568000   5.679990e-06   7.759376e-01   9.551750e+00   2.504862e+01   1.190036e+05  -7.667140e+04   7.438284e+05  -2.210648e+00  -3.431201e+00   1.669792e-22   7.571796e+05   3.402857e-44   0.000000e+00   0.000000e+00
      576000   5.759990e-06   7.854579e-01   9.545617e+00   2.510812e+01   1.190036e+05  -7.667140e+04   7.438284e+05  -1.226953e+00  -1.904383e+00  -1.807071e-22   7.571796e+05   1.048731e-44   0.000000e+00   0.000000e+00
      584000   5.839990e-06   7.949782e-01   9.539483e+00   2.516763e+01   1.190036e+05  -7.667140e+04   7.438284e+05   2.883498e-01   4.475548e-01  -2.010997e-23   7.571796e+05   5.782866e-46   0.000000e+00   0.000000e+00
      592000   5.919990e-06   8.044985e-01   9.533349e+00   2.522714e+01   1.190036e+05  -7.667140e+04   7.438284e+05  -2.730832e+00  -4.238591e+00   1.692052e-22   7.571796e+05   5.193161e-44   0.000000e+00   0.000000e+00
      600000   5.999990e-06   8.140187e-01   9.527215e+00   2.528664e+01   1.190036e+05  -7.667140e+04   7.438284e+05  -3.552595e+00  -5.514070e+00   3.379254e-23   7.571796e+05   8.789028e-44   0.000000e+00   0.000000e+00
      608000   6.079990e-06   8.235390e-01   9.521082e+00   2.534615e+01   1.190036e+05  -7.667140e+04   7.438284e+05  -2.318954e+00  -3.599305e+00   2.322220e-22   7.571796e+05   3.745311e-44   0.000000e+00   0.000000e+00
      616000   6.159990e-06   8.330593e-01   9.514948e+00   2.540565e+01   1.190036e+05  -7.667140e+04   7.438284e+05  -2.523356e+00  -3.916563e+00   1.349161e-22   7.571796e+05   4.434006e-44   0.000000e+00   0.000000e+00
      624000   6.239990e-06   8.425796e-01   9.508814e+00   2.546516e+01   1.190036e+05  -7.667140e+04   7.438284e+05  -3.345119e+00  -5.192042e+00   3.806104e-22   7.571796e+05   7.792397e-44   0.000000e+00   0.000000e+00
      632000   6.319990e-06   8.520999e-01   9.502681e+00   2.552467e+01   1.190036e+05  -7.667140e+04   7.438284e+05  -3.120733e+00  -4.843767e+00   1.095800e-22   7.571796e+05   6.782808e-44   0.000000e+00   0.000000e+00
      640000   6.399990e-06   8.616202e-01   9.496547e+00   2.558417e+01   1.190036e+05  -7.667140e+04   7.438284e+05  -2.443937e+00  -3.793295e+00   2.664600e-22   7.571796e+05   4.159716e-44   0.000000e+00   0.000000e+00
      648000   6.479990e-06   8.711405e-01   9.490413e+00   2.564368e+01   1.190036e+05  -7.667140e+04   7.438284e+05  -2.595699e+00  -4.028849e+00  -3.147029e-22   7.571796e+05   4.691977e-44   0.000000e+00   0.000000e+00
      656000   6.559990e-06   8.806607e-01   9.484279e+00   2.570319e+01   1.190036e+05  -7.667140e+04   7.438284e+05  -3.312427e+00  -5.141299e+00  -4.086302e-22   7.571796e+05   7.641415e-44   0.000000e+00   0.000000e+00
      664000   6.639990e-06   8.901810e-01   9.478146e+00   2.576269e+01   1.190036e+05  -7.667140e+04   7.438284e+05  -3.110549e+00  -4.827959e+00  -5.591617e-22   7.571796e+05   6.738382e-44   0.000000e+00   0.000000e+00
      672000   6.719990e-06   8.997013e-01   9.472012e+00   2.582220e+01   1.190036e+05  -7.667140e+04   7.438284e+05  -3.290976e+00  -5.108005e+00   1.989085e-23   7.571796e+05   7.542275e-44   0.000000e+00   0.000000e+00
      680000   6.799990e-06   9.092216e-01   9.465878e+00   2.588170e+01   1.190036e+05  -7.667140e+04   7.438284e+05  -4.026514e+00  -6.249651e+00   2.717627e-23   7.571796e+05   1.129097e-43   0.000000e+00   0.000000e+00
      688000   6.879990e-06   9.187419e-01   9.459745e+00   2.594121e+01   1.190036e+05  -7.667140e+04   7.438284e+05  -4.521363e+00  -7.017719e+00   9.738556e-23   7.571796e+05   1.423684e-43   0.000000e+00   0.000000e+00
      696000   6.959990e-06   9.282622e-01   9.453611e+00   2.600072e+01   1.190036e+05  -7.667140e+04   7.438284e+05  -4.088244e+00  -6.345464e+00   1.106912e-21   7.571796e+05   1.163983e-43   0.000000e+00   0.000000e+00
      704000   7.039990e-06   9.377825e-01   9.447477e+00   2.606022e+01   1.190036e+05  -7.667140e+04   7.438284e+05  -4.149147e+00  -6.439993e+00   5.072514e-22   7.571796e+05   1.198921e-43   0.000000e+00   0.000000e+00
      712000   7.119990e-06   9.473027e-01   9.441343e+00   2.611973e+01   1.190036e+05  -7.667140e+04   7.438284e+05  -4.555816e+00  -7.071194e+00   1.587683e-22   7.571796e+05   1.445463e-43   0.000000e+00   0.000000e+00
      720000   7.199990e-06   9.568230e-01   9.435210e+00   2.617924e+01   1.190036e+05  -7.667140e+04   7.438284e+05  -4.547275e+00  -7.057937e+00  -5.876297e-22   7.571796e+05   1.440049e-43   0.000000e+00   0.000000e+00
      728000   7.279990e-06   9.663433e-01   9.429076e+00   2.623874e+01   1.190036e+05  -7.667140e+04   7.438284e+05  -4.271780e+00  -6.630335e+00  -5.388186e-22   7.571796e+05   1.270840e-43   0.000000e+00   0.000000e+00
      736000   7.359990e-06   9.758636e-01   9.422942e+00   2.629825e+01   1.190036e+05  -7.667140e+04   7.438284e+05  -4.332683e+00  -6.724864e+00   3.889801e-22   7.571796e+05   1.307335e-43   0.000000e+00   0.000000e+00
      744000   7.439990e-06   9.853839e-01   9.416809e+00   2.635775e+01   1.190036e+05  -7.667140e+04   7.438284e+05  -4.581728e+00  -7.111413e+00   2.387960e-22   7.571796e+05   1.461953e-43   0.000000e+00   0.000000e+00
      752000   7.519990e-06   9.949042e-01   9.410675e+00   2.641726e+01   1.190036e+05  -7.667140e+04   7.438284e+05  -4.394413e+00  -6.820677e+00  -1.584373e-21   7.571796e+05   1.344853e-43   0.000000e+00   0.000000e+00
      760000   7.599990e-06   1.004424e+00   9.404541e+00   2.647677e+01   1.190036e+05  -7.667140e+04   7.438284e+05  -4.420091e+00  -6.860532e+00   5.791141e-22   7.571796e+05   1.360632e-43   0.000000e+00   0.000000e+00
      768000   7.679990e-06   1.013945e+00   9.398407e+00   2.653627e+01   1.190036e+05  -7.667140e+04   7.438284e+05  -4.109080e+00  -6.377805e+00   1.629480e-21   7.571796e+05   1.175920e-43   0.000000e+00   0.000000e+00
      776000   7.759990e-06   1.023465e+00   9.392274e+00   2.659578e+01   1.190036e+05  -7.667140e+04   7.438284e+05  -3.586329e+00  -5.566429e+00  -3.440940e-22   7.571796e+05   8.957578e-44   0.000000e+00   0.000000e+00
      784000   7.839990e-06   1.032985e+00   9.386140e+00   2.665529e+01   1.190036e+05  -7.667140e+04   7.438284e+05  -4.455523e+00  -6.915527e+00  -1.267109e-21   7.571796e+05   1.382503e-43   0.000000e+00   0.000000e+00
      792000   7.919990e-06   1.042506e+00   9.380006e+00   2.671479e+01   1.190036e+05  -7.667140e+04   7.438284e+05  -3.682884e+00  -5.716295e+00  -1.348482e-22   7.571796e+05   9.446394e-44   0.000000e+00   0.000000e+00
      800000   7.999990e-06   1.052026e+00   9.373873e+00   2.677430e+01   1.190036e+05  -7.667140e+04   7.438284e+05  -3.160132e+00  -4.904919e+00  -1.986109e-22   7.571796e+05   6.955096e-44   0.000000e+00   0.000000e+00
      808000   8.079990e-06   1.061546e+00   9.367739e+00   2.683380e+01   1.190036e+05  -7.667140e+04   7.438284e+05  -4.048421e+00  -6.283654e+00  -3.977194e-22   7.571796e+05   1.141404e-43   0.000000e+00   0.000000e+00
      816000   8.159990e-06   1.071066e+00   9.361605e+00   2.689331e+01   1.190036e+05  -7.667140e+04   7.438284e+05  -4.293407e+00  -6.663902e+00  -2.504416e-22   7.571796e+05   1.283726e-43   0.000000e+00   0.000000e+00
      824000   8.239990e-06   1.080587e+00   9.355472e+00   2.695282e+01   1.190036e+05  -7.667140e+04   7.438284e+05  -2.733936e+00  -4.243409e+00  -4.354658e-22   7.571796e+05   5.205615e-44   0.000000e+00   0.000000e+00
      832000   8.319990e-06   1.090107e+00   9.349338e+00   2.701232e+01   1.190036e+05  -7.667140e+04   7.438284e+05  -3.641319e+00  -5.651781e+00  -1.054721e-21   7.571796e+05   9.233891e-44   0.000000e+00   0.000000e+00
      840000   8.399990e-06   1.099627e+00   9.343204e+00   2.707183e+01   1.190036e+05  -7.667140e+04   7.438284e+05  -3.886305e+00  -6.032029e+00  -1.671049e-21   7.571796e+05   1.051820e-43   0.000000e+00   0.000000e+00
      848000   8.479990e-06   1.109148e+00   9.337070e+00   2.713134e+01   1.190036e+05  -7.667140e+04   7.438284e+05  -2.225603e+00  -3.454413e+00   2.262953e-22   7.571796e+05   3.449467e-44   0.000000e+00   0.000000e+00
      856000   8.559990e-06   1.118668e+00   9.330937e+00   2.719084e+01   1.190036e+05  -7.667140e+04   7.438284e+05  -2.594465e+00  -4.026933e+00  -6.985830e-22   7.571796e+05   4.687645e-44   0.000000e+00   0.000000e+00
      864000   8.639990e-06   1.128188e+00   9.324803e+00   2.725035e+01   1.190036e+05  -7.667140e+04   7.438284e+05  -3.576735e+00  -5.551538e+00   4.311340e-22   7.571796e+05   8.909357e-44   0.000000e+00   0.000000e+00
      872000   8.719990e-06   1.137708e+00   9.318669e+00   2.730985e+01   1.190036e+05  -7.667140e+04   7.438284e+05  -2.076351e+00  -3.222755e+00   2.902122e-22   7.571796e+05   3.002318e-44   0.000000e+00   0.000000e+00
      880000   8.799990e-06   1.147229e+00   9.312536e+00   2.736936e+01   1.190036e+05  -7.667140e+04   7.438284e+05  -2.445213e+00  -3.795275e+00   5.103088e-22   7.571796e+05   4.163815e-44   0.000000e+00   0.000000e+00
      888000   8.879990e-06   1.156749e+00   9.306402e+00   2.742887e+01   1.190036e+05  -7.667140e+04   7.438284e+05  -4.996895e+00  -7.755804e+00   4.280763e-22   7.571796e+05   1.738897e-43   0.000000e+00   0.000000e+00
      896000   8.959990e-06   1.166269e+00   9.300268e+00   2.748837e+01   1.190036e+05  -7.667140e+04   7.438284e+05  -5.051669e+00  -7.840820e+00  -2.812788e-22   7.571796e+05   1.777228e-43   0.000000e+00   0.000000e+00
      904000   9.039990e-06   1.175790e+00   9.294134e+00   2.754788e+01   1.190036e+05  -7.667140e+04   7.438284e+05   1.175323e-01   1.824248e-01   2.043890e-23   7.571796e+05   9.593467e-47   0.000000e+00   0.000000e+00
      912000   9.119990e-06   1.185310e+00   9.288001e+00   2.760739e+01   1.190036e+05  -7.667140e+04   7.438284e+05  -1.997056e+00  -3.099680e+00   3.676544e-22   7.571796e+05   2.777174e-44   0.000000e+00   0.000000e+00
      920000   9.199990e-06   1.194830e+00   9.281867e+00   2.766689e+01   1.190036e+05  -7.667140e+04   7.438284e+05  -2.956705e+00  -4.589174e+00  -4.702172e-22   7.571796e+05   6.087728e-44   0.000000e+00   0.000000e+00
      928000   9.279990e-06   1.204350e+00   9.275733e+00   2.772640e+01   1.190036e+05  -7.667140e+04   7.438284e+05  -1.522384e+00  -2.362930e+00  -2.338486e-22   7.571796e+05   1.614168e-44   0.000000e+00   0.000000e+00
      936000   9.359990e-06   1.213871e+00   9.269600e+00   2.778590e+01   1.190036e+05  -7.667140e+04   7.438284e+05  -1.166855e+00  -1.811105e+00   1.437238e-22   7.571796e+05   9.482910e-45   0.000000e+00   0.000000e+00
      944000   9.439990e-06   1.223391e+00   9.263466e+00   2.784541e+01   1.190036e+05  -7.667140e+04   7.438284e+05  -6.341970e+00  -9.843527e+00  -1.418896e-21   7.571796e+05   2.800982e-43   0.000000e+00   0.000000e+00
      952000   9.519990e-06   1.232911e+00   9.257332e+00   2.790492e+01   1.190036e+05  -7.667140e+04   7.438284e+05  -2.368573e+00  -3.676320e+00  -1.935524e-22   7.571796e+05   3.907188e-44   0.000000e+00   0.000000e+00
      960000   9.599990e-06   1.242432e+00   9.251198e+00   2.796442e+01   1.190036e+05  -7.667140e+04   7.438284e+05  -2.013044e+00  -3.124494e+00  -2.035457e-22   7.571796e+05   2.822280e-44   0.000000e+00   0.000000e+00
      968000   9.679990e-06   1.251952e+00   9.245065e+00   2.802393e+01   1.190036e+05  -7.667140e+04   7.438284e+05  -6.640253e+00  -1.030650e+01  -6.930975e-23   7.571796e+05   3.070661e-43   0.000000e+00   0.000000e+00
      976000   9.759990e-06   1.261472e+00   9.238931e+00   2.808344e+01   1.190036e+05  -7.667140e+04   7.438284e+05  -7.377273e+00  -1.145045e+01  -4.291798e-22   7.571796e+05   3.790142e-43   0.000000e+00   0.000000e+00
      984000   9.839990e-06   1.270992e+00   9.232797e+00   2.814294e+01   1.190036e+05  -7.667140e+04   7.438284e+05  -2.859232e+00  -4.437884e+00   1.439560e-23   7.571796e+05   5.693598e-44   0.000000e+00   0.000000e+00
      992000   9.919990e-06   1.280513e+00   9.226664e+00   2.820245e+01   1.190036e+05  -7.667140e+04   7.438284e+05  -6.938537e+00  -1.076947e+01  -2.482229e-22   7.571796e+05   3.352732e-43   0.000000e+00   0.000000e+00
     1000000   9.999990e-06   1.290033e+00   9.220530e+00   2.826195e+01   1.190036e+05  -7.667140e+04   7.438284e+05  -7.675557e+00  -1.191342e+01  -2.134834e-21   7.571796e+05   4.102834e-43   0.000000e+00   0.000000e+00
     1008000   1.007999e-05   1.299553e+00   9.214396e+00   2.832146e+01   1.190036e+05  -7.667140e+04   7.438284e+05  -3.705420e+00  -5.751274e+00  -1.515139e-22   7.571796e+05   9.562245e-44   0.000000e+00   0.000000e+00
     1016000   1.015999e-05   1.309074e+00   9.208262e+00   2.838097e+01   1.190036e+05  -7.667140e+04   7.438284e+05  -6.439994e+00  -9.995672e+00  -1.515757e-21   7.571796e+05   2.888183e-43   0.000000e+00   0.000000e+00
     1024000   1.023999e-05   1.318594e+00   9.202129e+00   2.844047e+01   1.190036e+05  -7.667140e+04   7.438284e+05  -5.219766e+00  -8.101728e+00  -1.037559e-21   7.571796e+05   1.897619e-43   0.000000e+00   0.000000e+00
     1032000   1.031999e-05   1.328114e+00   9.195995e+00   2.849998e+01   1.190036e+05  -7.667140e+04   7.438284e+05  -1.112685e+01  -1.727025e+01  -3.054538e-21   7.571796e+05   8.621837e-43   0.000000e+00   0.000000e+00
     1040000   1.039999e-05   1.337634e+00   9.189861e+00   2.855949e+01   1.190036e+05  -7.667140e+04   7.438284e+05  -3.857448e+00  -5.987240e+00   6.921732e-22   7.571796e+05   1.036359e-43   0.000000e+00   0.000000e+00
     1048000   1.047999e-05   1.347155e+00   9.183728e+00   2.861899e+01   1.190036e+05  -7.667140e+04   7.438284e+05  -9.714663e+00  -1.507837e+01  -8.157416e-22   7.571796e+05   6.572163e-43   0.000000e+00   0.000000e+00
     1056000   1.055999e-05   1.356675e+00   9.177594e+00   2.867850e+01   1.190036e+05  -7.667140e+04   7.438284e+05  -1.165969e+01  -1.809730e+01  -1.888016e-21   7.571796e+05   9.467400e-43   0.000000e+00   0.000000e+00
     1064000   1.063999e-05   1.366195e+00   9.171460e+00   2.873800e+01   1.190036e+05  -7.667140e+04   7.438284e+05  -5.373685e+00  -8.340629e+00   1.187408e-21   7.571796e+05   2.011150e-43   0.000000e+00   0.000000e+00
     1072000   1.071999e-05   1.375716e+00   9.165326e+00   2.879751e+01   1.190036e+05  -7.667140e+04   7.438284e+05  -4.111683e+00  -6.381845e+00   2.688149e-22   7.571796e+05   1.177463e-43   0.000000e+00   0.000000e+00
     1080000   1.079999e-05   1.385236e+00   9.159193e+00   2.885702e+01   1.190036e+05  -7.667140e+04   7.438284e+05  -1.219254e+01  -1.892434e+01  -2.251281e-21   7.571796e+05   1.035251e-42   0.000000e+00   0.000000e+00
     1088000   1.087999e-05   1.394756e+00   9.153059e+00   2.891652e+01   1.190036e+05  -7.667140e+04   7.438284e+05  -6.889923e+00  -1.069402e+01   1.501516e-22   7.571796e+05   3.306155e-43   0.000000e+00   0.000000e+00
     1096000   1.095999e-05   1.404276e+00   9.146925e+00   2.897603e+01   1.190036e+05  -7.667140e+04   7.438284e+05  -6.438546e+00  -9.993425e+00   3.508399e-22   7.571796e+05   2.886973e-43   0.000000e+00   0.000000e+00
     1104000   1.103999e-05   1.413797e+00   9.140792e+00   2.903554e+01   1.190036e+05  -7.667140e+04   7.438284e+05  -6.167678e+00  -9.573005e+00  -1.194343e-21   7.571796e+05   2.649299e-43   0.000000e+00   0.000000e+00
     1112000   1.111999e-05   1.423317e+00   9.134658e+00   2.909504e+01   1.190036e+05  -7.667140e+04   7.438284e+05  -5.433717e+00  -8.433805e+00  -1.011441e-21   7.571796e+05   2.056285e-43   0.000000e+00   0.000000e+00
     1120000   1.119999e-05   1.432837e+00   9.128524e+00   2.915455e+01   1.190036e+05  -7.667140e+04   7.438284e+05  -5.359240e+00  -8.318208e+00  -1.624855e-22   7.571796e+05   2.000194e-43   0.000000e+00   0.000000e+00
     1128000   1.127999e-05   1.442358e+00   9.122390e+00   2.921406e+01   1.190036e+05  -7.667140e+04   7.438284e+05  -6.365607e+00  -9.880215e+00  -1.184610e-21   7.571796e+05   2.822063e-43   0.000000e+00   0.000000e+00
     1136000   1.135999e-05   1.451878e+00   9.116257e+00   2.927356e+01   1.190036e+05  -7.667140e+04   7.438284e+05  -5.631645e+00  -8.741015e+00  -1.000612e-21   7.571796e+05   2.208815e-43   0.000000e+00   0.000000e+00
     1144000   1.143999e-05   1.461398e+00   9.110123e+00   2.933307e+01   1.190036e+05  -7.667140e+04   7.438284e+05  -4.279935e+00  -6.642992e+00   8.962443e-23   7.571796e+05   1.275668e-43   0.000000e+00   0.000000e+00
     1152000   1.151999e-05   1.470918e+00   9.103989e+00   2.939257e+01   1.190036e+05  -7.667140e+04   7.438284e+05  -4.720104e+00  -7.326189e+00  -2.296060e-21   7.571796e+05   1.551556e-43   0.000000e+00   0.000000e+00
     1160000   1.159999e-05   1.480439e+00   9.097856e+00   2.945208e+01   1.190036e+05  -7.667140e+04   7.438284e+05  -1.245817e+01  -1.933663e+01  -9.198190e-22   7.571796e+05   1.080855e-42   0.000000e+00   0.000000e+00
     1168000   1.167999e-05   1.489959e+00   9.091722e+00   2.951159e+01   1.190036e+05  -7.667140e+04   7.438284e+05  -6.360449e+00  -9.872209e+00  -3.396172e-21   7.571796e+05   2.817615e-43   0.000000e+00   0.000000e+00
     1176000   1.175999e-05   1.499479e+00   9.085588e+00   2.957109e+01   1.190036e+05  -7.667140e+04   7.438284e+05  -4.507599e+00  -6.996355e+00  -1.666178e-21   7.571796e+05   1.415173e-43   0.000000e+00   0.000000e+00
     1184000   1.183999e-05   1.509000e+00   9.079454e+00   2.963060e+01   1.190036e+05  -7.667140e+04   7.438284e+05  -5.811779e+00  -9.020605e+00  -2.522139e-21   7.571796e+05   2.352344e-43   0.000000e+00   0.000000e+00
     1192000   1.191999e-05   1.518520e+00   9.073321e+00   2.969011e+01   1.190036e+05  -7.667140e+04   7.438284e+05  -5.380291e+00  -8.350883e+00  -1.846119e-22   7.571796e+05   2.016020e-43   0.000000e+00   0.000000e+00
     1200000   1.199999e-05   1.528040e+00   9.067187e+00   2.974961e+01   1.190036e+05  -7.667140e+04   7.438284e+05  -1.310077e+01   1.108683e+01   3.238760e+00   7.571796e+05   6.231322e-43   0.000000e+00   0.000000e+00
     1208000   1.207999e-05   1.537560e+00   9.061053e+00   2.980912e+01   1.190036e+05  -7.667140e+04   7.438284e+05  -3.356770e+01   2.704230e+01   8.157860e+00   7.571796e+05   3.931847e-42   0.000000e+00   0.000000e+00
     1216000   1.215999e-05   1.547081e+00   9.054920e+00   2.986862e+01   1.190036e+05  -7.667140e+04   7.438284e+05  -3.127195e+01   2.108448e+01   7.176454e+00   7.571796e+05   3.011245e-42   0.000000e+00   0.000000e+00
     1224000   1.223999e-05   1.556601e+00   9.048786e+00   2.992813e+01   1.190036e+05  -7.667140e+04   7.438284e+05  -4.869850e+00  -9.400591e+00  -1.898649e-01   7.571796e+05   2.290210e-43   0.000000e+00   0.000000e+00
     1232000   1.231999e-05   1.566121e+00   9.042652e+00   2.998764e+01   1.190036e+05  -7.667140e+04   7.438284e+05  -5.843061e+00  -1.480864e+01  -5.916067e-01   7.571796e+05   5.184045e-43   0.000000e+00   0.000000e+00
     1240000   1.239999e-05   1.575642e+00   9.036518e+00   3.004714e+01   1.190036e+05  -7.667140e+04   7.438284e+05   1.444464e+01  -3.173867e+01  -5.582487e+00   7.571796e+05   2.547883e-42   0.000000e+00   0.000000e+00
     1248000   1.247999e-05   1.585162e+00   9.030385e+00   3.010665e+01   1.190036e+05  -7.667140e+04   7.438284e+05   1.350482e+00  -1.534022e+01  -1.797280e+00   7.571796e+05   4.910518e-43   0.000000e+00   0.000000e+00
     1256000   1.255999e-05   1.594682e+00   9.024251e+00   3.016616e+01   1.190036e+05  -7.667140e+04   7.438284e+05   7.709941e-02  -1.552740e+01  -1.612849e+00   7.571796e+05   4.978558e-43   0.000000e+00   0.000000e+00
     1264000   1.263999e-05   1.604202e+00   9.018117e+00   3.022566e+01   1.190036e+05  -7.667140e+04   7.438284e+05  -4.666185e+00  -7.242501e+00  -3.571998e-22   7.571796e+05   1.516401e-43   0.000000e+00   0.000000e+00
     1272000   1.271999e-05   1.613723e+00   9.011984e+00   3.028517e+01   1.190036e+05  -7.667140e+04   7.438284e+05  -3.992427e+00  -6.196743e+00   3.200179e-22   7.571796e+05   1.110112e-43   0.000000e+00   0.000000e+00
     1280000   1.279999e-05   1.623243e+00   9.005850e+00   3.034467e+01   1.190036e+05  -7.667140e+04   7.438284e+05  -4.311037e+00  -6.691266e+00   2.150815e-22   7.571796e+05   1.294290e-43   0.000000e+00   0.000000e+00
     1288000   1.287999e-05   1.632763e+00   8.999716e+00   3.040418e+01   1.190036e+05  -7.667140e+04   7.438284e+05  -4.107480e+00  -6.375321e+00   1.691987e-22   7.571796e+05   1.175220e-43   0.000000e+00   0.000000e+00
     1296000   1.295999e-05   1.642284e+00   8.993582e+00   3.046369e+01   1.190036e+05  -7.667140e+04   7.438284e+05  -5.683883e-01  -8.822095e-01  -5.958947e-23   7.571796e+05   2.253412e-45   0.000000e+00   0.000000e+00
     1304000   1.303999e-05   1.651804e+00   8.987449e+00   3.052319e+01   1.190036e+05  -7.667140e+04   7.438284e+05  -6.843402e+00  -1.062181e+01   1.978239e-22   7.571796e+05   3.261111e-43   0.000000e+00   0.000000e+00
     1312000   1.311999e-05   1.661324e+00   8.981315e+00   3.058270e+01   1.190036e+05  -7.667140e+04   7.438284e+05  -1.018948e+01  -1.581535e+01   4.338031e-21   7.571796e+05   7.230081e-43   0.000000e+00   0.000000e+00
     1320000   1.319999e-05   1.670844e+00   8.975181e+00   3.064221e+01   1.190036e+05  -7.667140e+04   7.438284e+05  -1.073631e+00  -1.666409e+00   1.145852e-22   7.571796e+05   8.034197e-45   0.000000e+00   0.000000e+00
     1328000   1.327999e-05   1.680365e+00   8.969048e+00   3.070171e+01   1.190036e+05  -7.667140e+04   7.438284e+05  -5.759124e+00  -8.938878e+00  -9.827906e-22   7.571796e+05   2.309534e-43   0.000000e+00   0.000000e+00
     1336000   1.335999e-05   1.689885e+00   8.962914e+00   3.076122e+01   1.190036e+05  -7.667140e+04   7.438284e+05  -9.105205e+00  -1.413241e+01  -1.423556e-21   7.571796e+05   5.773166e-43   0.000000e+00   0.000000e+00
     1344000   1.343999e-05   1.699405e+00   8.956780e+00   3.082072e+01   1.190036e+05  -7.667140e+04   7.438284e+05  -1.578874e+00  -2.450609e+00   4.985475e-22   7.571796e+05   1.737051e-44   0.000000e+00   0.000000e+00
     1352000   1.351999e-05   1.708926e+00   8.950646e+00   3.088023e+01   1.190036e+05  -7.667140e+04   7.438284e+05  -2.297770e+00  -3.566426e+00   6.366621e-22   7.571796e+05   3.677077e-44   0.000000e+00   0.000000e+00
     1360000   1.359999e-05   1.718446e+00   8.944513e+00   3.093974e+01   1.190036e+05  -7.667140e+04   7.438284e+05  -2.345369e+00  -3.640305e+00   5.390687e-23   7.571796e+05   3.831002e-44   0.000000e+00   0.000000e+00
     1368000   1.367999e-05   1.727966e+00   8.938379e+00   3.099924e+01   1.190036e+05  -7.667140e+04   7.438284e+05  -2.010207e+00  -3.120092e+00   4.221595e-22   7.571796e+05   2.814326e-44   0.000000e+00   0.000000e+00
     1376000   1.375999e-05   1.737486e+00   8.932245e+00   3.105875e+01   1.190036e+05  -7.667140e+04   7.438284e+05  -7.054329e-01  -1.094920e+00  -3.013029e-23   7.571796e+05   3.466047e-45   0.000000e+00   0.000000e+00
     1384000   1.383999e-05   1.747007e+00   8.926112e+00   3.111826e+01   1.190036e+05  -7.667140e+04   7.438284e+05  -1.986791e+00  -3.083746e+00   1.675443e-22   7.571796e+05   2.749141e-44   0.000000e+00   0.000000e+00
     1392000   1.391999e-05   1.756527e+00   8.919978e+00   3.117776e+01   1.190036e+05  -7.667140e+04   7.438284e+05  -1.651629e+00  -2.563534e+00   1.546608e-22   7.571796e+05   1.899860e-44   0.000000e+00   0.000000e+00
     1400000   1.399999e-05   1.766047e+00   8.913844e+00   3.123727e+01   1.190036e+05  -7.667140e+04   7.438284e+05   8.869045e-01   1.376586e+00  -1.231545e-22   7.571796e+05   5.477593e-45   0.000000e+00   0.000000e+00
     1408000   1.407999e-05   1.775568e+00   8.907711e+00   3.129677e+01   1.190036e+05  -7.667140e+04   7.438284e+05   1.202048e+00   1.865728e+00  -2.307221e-22   7.571796e+05   1.006213e-44   0.000000e+00   0.000000e+00
     1416000   1.415999e-05   1.785088e+00   8.901577e+00   3.135628e+01   1.190036e+05  -7.667140e+04   7.438284e+05  -1.293051e+00  -2.006975e+00   2.691406e-22   7.571796e+05   1.164484e-44   0.000000e+00   0.000000e+00
     1424000   1.423999e-05   1.794608e+00   8.895443e+00   3.141579e+01   1.190036e+05  -7.667140e+04   7.438284e+05  -1.291400e-01  -2.004413e-01  -1.891629e-23   7.571796e+05   1.166455e-46   0.000000e+00   0.000000e+00
     1432000   1.431999e-05   1.804128e+00   8.889309e+00   3.147529e+01   1.190036e+05  -7.667140e+04   7.438284e+05   5.766959e+00   8.951038e+00   9.051792e-22   7.571796e+05   2.315917e-43   0.000000e+00   0.000000e+00
     1440000   1.439999e-05   1.813649e+00   8.883176e+00   3.153480e+01   1.190036e+05  -7.667140e+04   7.438284e+05  -2.711169e+00  -4.208071e+00  -3.969163e-22   7.571796e+05   5.117680e-44   0.000000e+00   0.000000e+00
     1448000   1.447999e-05   1.823169e+00   8.877042e+00   3.159431e+01   1.190036e+05  -7.667140e+04   7.438284e+05  -5.570755e+00  -8.646505e+00  -1.569001e-21   7.571796e+05   2.160961e-43   0.000000e+00   0.000000e+00
     1456000   1.455999e-05   1.832689e+00   8.870908e+00   3.165381e+01   1.190036e+05  -7.667140e+04   7.438284e+05   4.254721e+00   6.603857e+00  -5.383945e-23   7.571796e+05   1.260536e-43   0.000000e+00   0.000000e+00
     1464000   1.463999e-05   1.842210e+00   8.864775e+00   3.171332e+01   1.190036e+05  -7.667140e+04   7.438284e+05  -2.561412e+00  -3.975631e+00   7.929998e-22   7.571796e+05   4.567855e-44   0.000000e+00   0.000000e+00
     1472000   1.471999e-05   1.851730e+00   8.858641e+00   3.177282e+01   1.190036e+05  -7.667140e+04   7.438284e+05  -5.420998e+00  -8.414065e+00   3.002174e-24   7.571796e+05   2.046331e-43   0.000000e+00   0.000000e+00
     1480000   1.479999e-05   1.861250e+00   8.852507e+00   3.183233e+01   1.190036e+05  -7.667140e+04   7.438284e+05   2.742483e+00   4.256675e+00   5.140375e-22   7.571796e+05   5.236814e-44   0.000000e+00   0.000000e+00
     1488000   1.487999e-05   1.870770e+00   8.846373e+00   3.189184e+01   1.190036e+05  -7.667140e+04   7.438284e+05   5.147908e+00   7.990195e+00  -2.744722e-22   7.571796e+05   1.845378e-43   0.000000e+00   0.000000e+00
     1496000   1.495999e-05   1.880291e+00   8.840240e+00   3.195134e+01   1.190036e+05  -7.667140e+04   7.438284e+05  -5.271242e+00  -8.181624e+00   8.108711e-22   7.571796e+05   1.934824e-43   0.000000e+00   0.000000e+00
     1504000   1.503999e-05   1.889811e+00   8.834106e+00   3.201085e+01   1.190036e+05  -7.667140e+04   7.438284e+05   1.230245e+00   1.909493e+00   9.236758e-23   7.571796e+05   1.053526e-44   0.000000e+00   0.000000e+00
     1512000   1.511999e-05   1.899331e+00   8.827972e+00   3.207036e+01   1.190036e+05  -7.667140e+04   7.438284e+05   3.635670e+00   5.643013e+00  -6.965657e-22   7.571796e+05   9.203896e-44   0.000000e+00   0.000000e+00
     1520000   1.519999e-05   1.908852e+00   8.821839e+00   3.212986e+01   1.190036e+05  -7.667140e+04   7.438284e+05  -3.953230e+00  -6.135905e+00  -4.532432e-22   7.571796e+05   1.088489e-43   0.000000e+00   0.000000e+00
     1528000   1.527999e-05   1.918372e+00   8.815705e+00   3.218937e+01   1.190036e+05  -7.667140e+04   7.438284e+05  -2.302000e+00  -3.572990e+00   2.199485e-22   7.571796e+05   3.691160e-44   0.000000e+00   0.000000e+00
     1536000   1.535999e-05   1.927892e+00   8.809571e+00   3.224887e+01   1.190036e+05  -7.667140e+04   7.438284e+05  -3.410858e+00  -5.294077e+00  -7.461219e-23   7.571796e+05   8.101736e-44   0.000000e+00   0.000000e+00
     1544000   1.543999e-05   1.937412e+00   8.803437e+00   3.230838e+01   1.190036e+05  -7.667140e+04   7.438284e+05  -2.613755e+00  -4.056874e+00  -1.475153e-22   7.571796e+05   4.758532e-44   0.000000e+00   0.000000e+00
     1552000   1.551999e-05   1.946933e+00   8.797304e+00   3.236789e+01   1.190036e+05  -7.667140e+04   7.438284e+05  -2.188578e+00  -3.396946e+00   8.443746e-23   7.571796e+05   3.336068e-44   0.000000e+00   0.000000e+00
     1560000   1.559999e-05   1.956453e+00   8.791170e+00   3.242739e+01   1.190036e+05  -7.667140e+04   7.438284e+05  -3.380454e+00  -5.246886e+00  -2.852368e-23   7.571796e+05   7.957688e-44   0.000000e+00   0.000000e+00
     1568000   1.567999e-05   1.965973e+00   8.785036e+00   3.248690e+01   1.190036e+05  -7.667140e+04   7.438284e+05  -4.556057e+00  -7.071569e+00  -3.695271e-22   7.571796e+05   1.445523e-43   0.000000e+00   0.000000e+00
     1576000   1.575999e-05   1.975494e+00   8.778903e+00   3.254641e+01   1.190036e+05  -7.667140e+04   7.438284e+05  -2.701935e+00  -4.193740e+00  -2.857464e-22   7.571796e+05   5.084565e-44   0.000000e+00   0.000000e+00
     1584000   1.583999e-05   1.985014e+00   8.772769e+00   3.260591e+01   1.190036e+05  -7.667140e+04   7.438284e+05  -4.205618e+00  -6.527643e+00  -2.929058e-22   7.571796e+05   1.231697e-43   0.000000e+00   0.000000e+00
     1592000   1.591999e-05   1.994534e+00   8.766635e+00   3.266542e+01   1.190036e+05  -7.667140e+04   7.438284e+05  -5.381221e+00  -8.352325e+00   1.283522e-22   7.571796e+05   2.016566e-43   0.000000e+00   0.000000e+00
     1600000   1.599999e-05   2.004054e+00   8.760501e+00   3.272493e+01   1.190036e+05  -7.667140e+04   7.438284e+05  -2.766061e+00  -4.293272e+00  -1.573580e-22   7.571796e+05   5.328210e-44   0.000000e+00   0.000000e+00
     1608000   1.607999e-05   2.013575e+00   8.754368e+00   3.278443e+01   1.190036e+05  -7.667140e+04   7.438284e+05  -3.195838e+00  -4.960338e+00   5.856658e-22   7.571796e+05   7.112616e-44   0.000000e+00   0.000000e+00
     1616000   1.615999e-05   2.023095e+00   8.748234e+00   3.284394e+01   1.190036e+05  -7.667140e+04   7.438284e+05  -2.122140e+00  -3.293826e+00  -1.264413e-22   7.571796e+05   3.136853e-44   0.000000e+00   0.000000e+00
     1624000   1.623999e-05   2.032615e+00   8.742100e+00   3.290344e+01   1.190036e+05  -7.667140e+04   7.438284e+05  -1.097610e+00  -1.703628e+00  -2.762229e-23   7.571796e+05   8.389353e-45   0.000000e+00   0.000000e+00
     1632000   1.631999e-05   2.042136e+00   8.735967e+00   3.296295e+01   1.190036e+05  -7.667140e+04   7.438284e+05  -1.527387e+00  -2.370694e+00   1.431302e-22   7.571796e+05   1.624583e-44   0.000000e+00   0.000000e+00
     1640000   1.639999e-05   2.051656e+00   8.729833e+00   3.302246e+01   1.190036e+05  -7.667140e+04   7.438284e+05  -8.796220e-01  -1.365283e+00   1.512215e-22   7.571796e+05   5.390630e-45   0.000000e+00   0.000000e+00
     1648000   1.647999e-05   2.061176e+00   8.723699e+00   3.308196e+01   1.190036e+05  -7.667140e+04   7.438284e+05   5.204773e-01   8.078456e-01  -1.026325e-23   7.571796e+05   1.885324e-45   0.000000e+00   0.000000e+00
     1656000   1.655999e-05   2.070696e+00   8.717565e+00   3.314147e+01   1.190036e+05  -7.667140e+04   7.438284e+05   1.410644e-01   2.189495e-01  -1.170941e-23   7.571796e+05   1.386883e-46   0.000000e+00   0.000000e+00
     1664000   1.663999e-05   2.080217e+00   8.711432e+00   3.320098e+01   1.190036e+05  -7.667140e+04   7.438284e+05   3.628960e-01   5.632598e-01   2.357933e-25   7.571796e+05   9.162624e-46   0.000000e+00   0.000000e+00
     1672000   1.671999e-05   2.089737e+00   8.705298e+00   3.326048e+01   1.190036e+05  -7.667140e+04   7.438284e+05   1.762995e+00   2.736388e+00  -1.136559e-22   7.571796e+05   2.164166e-44   0.000000e+00   0.000000e+00
     1680000   1.679999e-05   2.099257e+00   8.699164e+00   3.331999e+01   1.190036e+05  -7.667140e+04   7.438284e+05  -1.407947e+00  -2.185309e+00  -9.057020e-23   7.571796e+05   1.381093e-44   0.000000e+00   0.000000e+00
     1688000   1.687999e-05   2.108778e+00   8.693031e+00   3.337949e+01   1.190036e+05  -7.667140e+04   7.438284e+05   1.763670e+00   2.737436e+00   3.482518e-22   7.571796e+05   2.166356e-44   0.000000e+00   0.000000e+00
     1696000   1.695999e-05   2.118298e+00   8.686897e+00   3.343900e+01   1.190036e+05  -7.667140e+04   7.438284e+05   1.658317e+00   2.573914e+00  -4.730045e-22   7.571796e+05   1.915121e-44   0.000000e+00   0.000000e+00
     1704000   1.703999e-05   2.127818e+00   8.680763e+00   3.349851e+01   1.190036e+05  -7.667140e+04   7.438284e+05   1.860553e+00   2.887811e+00  -6.178233e-23   7.571796e+05   2.410722e-44   0.000000e+00   0.000000e+00
     1712000   1.711999e-05   2.137338e+00   8.674629e+00   3.355801e+01   1.190036e+05  -7.667140e+04   7.438284e+05   1.149323e+00   1.783893e+00  -2.972026e-22   7.571796e+05   9.200050e-45   0.000000e+00   0.000000e+00
     1720000   1.719999e-05   2.146859e+00   8.668496e+00   3.361752e+01   1.190036e+05  -7.667140e+04   7.438284e+05   1.882870e+00   2.922448e+00   1.345119e-23   7.571796e+05   2.468900e-44   0.000000e+00   0.000000e+00
     1728000   1.727999e-05   2.156379e+00   8.662362e+00   3.367703e+01   1.190036e+05  -7.667140e+04   7.438284e+05   2.085107e+00   3.236345e+00   2.337930e-22   7.571796e+05   3.027754e-44   0.000000e+00   0.000000e+00
     1736000   1.735999e-05   2.165899e+00   8.656228e+00   3.373653e+01   1.190036e+05  -7.667140e+04   7.438284e+05   5.349759e-01   8.303493e-01  -8.371668e-23   7.571796e+05   1.993473e-45   0.000000e+00   0.000000e+00
     1744000   1.743999e-05   2.175420e+00   8.650095e+00   3.379604e+01   1.190036e+05  -7.667140e+04   7.438284e+05   2.028077e-01   3.147828e-01  -1.489813e-23   7.571796e+05   2.865638e-46   0.000000e+00   0.000000e+00
     1752000   1.751999e-05   2.184940e+00   8.643961e+00   3.385554e+01   1.190036e+05  -7.667140e+04   7.438284e+05   2.309660e+00   3.584880e+00   1.480775e-22   7.571796e+05   3.715019e-44   0.000000e+00   0.000000e+00
     1760000   1.759999e-05   2.194460e+00   8.637827e+00   3.391505e+01   1.190036e+05  -7.667140e+04   7.438284e+05  -7.937126e-02  -1.231941e-01   2.246566e-23   7.571796e+05   4.382750e-47   0.000000e+00   0.000000e+00
     1768000   1.767999e-05   2.203980e+00   8.631693e+00   3.397456e+01   1.190036e+05  -7.667140e+04   7.438284e+05  -1.890626e+00  -2.934487e+00  -2.268291e-22   7.571796e+05   2.489825e-44   0.000000e+00   0.000000e+00
     1776000   1.775999e-05   2.213501e+00   8.625560e+00   3.403406e+01   1.190036e+05  -7.667140e+04   7.438284e+05  -4.251127e+00  -6.598280e+00  -5.415006e-22   7.571796e+05   1.258436e-43   0.000000e+00   0.000000e+00
     1784000   1.783999e-05   2.223021e+00   8.619426e+00   3.409357e+01   1.190036e+05  -7.667140e+04   7.438284e+05  -6.278527e+00  -9.745056e+00  -1.807773e-22   7.571796e+05   2.745080e-43   0.000000e+00   0.000000e+00
     1792000   1.791999e-05   2.232541e+00   8.613292e+00   3.415308e+01   1.190036e+05  -7.667140e+04   7.438284e+05  -2.948411e+00  -4.576302e+00  -2.651590e-22   7.571796e+05   6.054859e-44   0.000000e+00   0.000000e+00
     1800000   1.799999e-05   2.242062e+00   8.607159e+00   3.421258e+01   1.190036e+05  -7.667140e+04   7.438284e+05  -4.934947e+00  -7.659653e+00  -9.248700e-22   7.571796e+05   1.695880e-43   0.000000e+00   0.000000e+00
     1808000   1.807999e-05   2.251582e+00   8.601025e+00   3.427209e+01   1.190036e+05  -7.667140e+04   7.438284e+05  -6.962347e+00  -1.080643e+01  -5.663888e-22   7.571796e+05   3.375626e-43   0.000000e+00   0.000000e+00
     1816000   1.815999e-05   2.261102e+00   8.594891e+00   3.433159e+01   1.190036e+05  -7.667140e+04   7.438284e+05  -1.591142e+00  -2.469650e+00  -6.176227e-22   7.571796e+05   1.763527e-44   0.000000e+00   0.000000e+00
     1824000   1.823999e-05   2.270622e+00   8.588757e+00   3.439110e+01   1.190036e+05  -7.667140e+04   7.438284e+05  -2.731542e-01  -4.239693e-01   1.866772e-24   7.571796e+05   5.202522e-46   0.000000e+00   0.000000e+00
     1832000   1.831999e-05   2.280143e+00   8.582624e+00   3.445061e+01   1.190036e+05  -7.667140e+04   7.438284e+05  -2.652909e+00  -4.117645e+00  -1.585186e-22   7.571796e+05   4.900680e-44   0.000000e+00   0.000000e+00
     1840000   1.839999e-05   2.289663e+00   8.576490e+00   3.451011e+01   1.190036e+05  -7.667140e+04   7.438284e+05  -1.997023e+00  -3.099628e+00  -3.539417e-22   7.571796e+05   2.777872e-44   0.000000e+00   0.000000e+00
     1848000   1.847999e-05   2.299183e+00   8.570356e+00   3.456962e+01   1.190036e+05  -7.667140e+04   7.438284e+05  -6.790355e-01  -1.053948e+00  -2.031514e-23   7.571796e+05   3.212701e-45   0.000000e+00   0.000000e+00
     1856000   1.855999e-05   2.308704e+00   8.564223e+00   3.462913e+01   1.190036e+05  -7.667140e+04   7.438284e+05  -7.754113e+00  -1.203535e+01   3.178283e-22   7.571796e+05   4.187329e-43   0.000000e+00   0.000000e+00
     1864000   1.863999e-05   2.318224e+00   8.558089e+00   3.468863e+01   1.190036e+05  -7.667140e+04   7.438284e+05  -7.879966e+00  -1.223069e+01  -1.859638e-21   7.571796e+05   4.324357e-43   0.000000e+00   0.000000e+00
     1872000   1.871999e-05   2.327744e+00   8.551955e+00   3.474814e+01   1.190036e+05  -7.667140e+04   7.438284e+05  -6.547221e+00  -1.016210e+01  -9.497749e-22   7.571796e+05   2.985248e-43   0.000000e+00   0.000000e+00
     1880000   1.879999e-05   2.337264e+00   8.545821e+00   3.480764e+01   1.190036e+05  -7.667140e+04   7.438284e+05  -8.565169e+00  -1.329421e+01   3.044789e-21   7.571796e+05   5.109105e-43   0.000000e+00   0.000000e+00
     1888000   1.887999e-05   2.346785e+00   8.539688e+00   3.486715e+01   1.190036e+05  -7.667140e+04   7.438284e+05  -8.691022e+00  -1.348955e+01   8.649390e-22   7.571796e+05   5.260350e-43   0.000000e+00   0.000000e+00
     1896000   1.895999e-05   2.356305e+00   8.533554e+00   3.492666e+01   1.190036e+05  -7.667140e+04   7.438284e+05  -7.589981e+00  -1.178060e+01  -1.110627e-21   7.571796e+05   4.011889e-43   0.000000e+00   0.000000e+00
     1904000   1.903999e-05   2.365825e+00   8.527420e+00   3.498616e+01   1.190036e+05  -7.667140e+04   7.438284e+05  -8.082067e+00  -1.254437e+01  -3.674687e-21   7.571796e+05   4.548967e-43   0.000000e+00   0.000000e+00
     1912000   1.911999e-05   2.375346e+00   8.521287e+00   3.504567e+01   1.190036e+05  -7.667140e+04   7.438284e+05  -9.502077e+00  -1.474841e+01  -2.519764e-21   7.571796e+05   6.287967e-43   0.000000e+00   0.000000e+00
     1920000   1.919999e-05   2.384866e+00   8.515153e+00   3.510518e+01   1.190036e+05  -7.667140e+04   7.438284e+05  -8.632742e+00  -1.339909e+01  -2.802246e-21   7.571796e+05   5.189982e-43   0.000000e+00   0.000000e+00
     1928000   1.927999e-05   2.394386e+00   8.509019e+00   3.516468e+01   1.190036e+05  -7.667140e+04   7.438284e+05  -9.124827e+00  -1.416287e+01  -2.326674e-21   7.571796e+05   5.798531e-43   0.000000e+00   0.000000e+00
     1936000   1.935999e-05   2.403906e+00   8.502886e+00   3.522419e+01   1.190036e+05  -7.667140e+04   7.438284e+05  -9.132955e+00  -1.417548e+01  -1.112467e-22   7.571796e+05   5.809093e-43   0.000000e+00   0.000000e+00
     1944000   1.943999e-05   2.413427e+00   8.496752e+00   3.528369e+01   1.190036e+05  -7.667140e+04   7.438284e+05  -7.113211e+00  -1.104059e+01   1.505186e-22   7.571796e+05   3.524021e-43   0.000000e+00   0.000000e+00
     1952000   1.951999e-05   2.422947e+00   8.490618e+00   3.534320e+01   1.190036e+05  -7.667140e+04   7.438284e+05  -1.126456e+01  -1.748400e+01   8.347681e-22   7.571796e+05   8.836540e-43   0.000000e+00   0.000000e+00
     1960000   1.959999e-05   2.432467e+00   8.484484e+00   3.540271e+01   1.190036e+05  -7.667140e+04   7.438284e+05  -9.321308e+00  -1.446783e+01  -4.434750e-22   7.571796e+05   6.051361e-43   0.000000e+00   0.000000e+00
     1968000   1.967999e-05   2.441988e+00   8.478351e+00   3.546221e+01   1.190036e+05  -7.667140e+04   7.438284e+05  -7.194071e+00  -1.116609e+01  -1.395518e-21   7.571796e+05   3.604592e-43   0.000000e+00   0.000000e+00
     1976000   1.975999e-05   2.451508e+00   8.472217e+00   3.552172e+01   1.190036e+05  -7.667140e+04   7.438284e+05  -1.125073e+01  -1.746253e+01   2.009921e-21   7.571796e+05   8.814849e-43   0.000000e+00   0.000000e+00
     1984000   1.983999e-05   2.461028e+00   8.466083e+00   3.558123e+01   1.190036e+05  -7.667140e+04   7.438284e+05  -1.340030e+01  -2.079894e+01   7.979321e-22   7.571796e+05   1.250508e-42   0.000000e+00   0.000000e+00
     1992000   1.991999e-05   2.470548e+00   8.459950e+00   3.564073e+01   1.190036e+05  -7.667140e+04   7.438284e+05  -7.274931e+00  -1.129160e+01   1.637936e-21   7.571796e+05   3.686074e-43   0.000000e+00   0.000000e+00
     2000000   1.999999e-05   2.480069e+00   8.453816e+00   3.570024e+01   1.190036e+05  -7.667140e+04   7.438284e+05  -1.123689e+01  -1.744106e+01  -1.395190e-21   7.571796e+05   8.793185e-43   0.000000e+00   0.000000e+00
     2008000   2.007999e-05   2.489589e+00   8.447682e+00   3.575974e+01   1.190036e+05  -7.667140e+04   7.438284e+05  -1.338647e+01  -2.077747e+01   5.021956e-21   7.571796e+05   1.247927e-42   0.000000e+00   0.000000e+00
     2016000   2.015999e-05   2.499109e+00   8.441548e+00   3.581925e+01   1.190036e+05  -7.667140e+04   7.438284e+05  -7.355791e+00  -1.141710e+01   1.617676e-21   7.571796e+05   3.768467e-43   0.000000e+00   0.000000e+00
     2024000   2.023999e-05   2.508630e+00   8.435415e+00   3.587876e+01   1.190036e+05  -7.667140e+04   7.438284e+05  -6.411790e+00  -9.951898e+00   2.898772e-21   7.571796e+05   2.862897e-43   0.000000e+00   0.000000e+00
     2032000   2.031999e-05   2.518150e+00   8.429281e+00   3.593826e+01   1.190036e+05  -7.667140e+04   7.438284e+05  -5.404634e+00  -8.388666e+00   1.454924e-21   7.571796e+05   2.034416e-43   0.000000e+00   0.000000e+00
     2040000   2.039999e-05   2.527670e+00   8.423147e+00   3.599777e+01   1.190036e+05  -7.667140e+04   7.438284e+05  -3.782896e+00  -5.871526e+00   7.556858e-22   7.571796e+05   9.967125e-44   0.000000e+00   0.000000e+00
     2048000   2.047999e-05   2.537190e+00   8.417014e+00   3.605728e+01   1.190036e+05  -7.667140e+04   7.438284e+05  -5.681371e+00  -8.818196e+00   8.546645e-22   7.571796e+05   2.247760e-43   0.000000e+00   0.000000e+00
     2056000   2.055999e-05   2.546711e+00   8.410880e+00   3.611678e+01   1.190036e+05  -7.667140e+04   7.438284e+05  -6.127642e+00  -9.510864e+00   1.127333e-21   7.571796e+05   2.615111e-43   0.000000e+00   0.000000e+00
     2064000   2.063999e-05   2.556231e+00   8.404746e+00   3.617629e+01   1.190036e+05  -7.667140e+04   7.438284e+05  -4.505904e+00  -6.993724e+00   1.192541e-21   7.571796e+05   1.414091e-43   0.000000e+00   0.000000e+00
     2072000   2.071999e-05   2.565751e+00   8.398612e+00   3.623580e+01   1.190036e+05  -7.667140e+04   7.438284e+05  -3.646983e+00  -5.660573e+00   1.261337e-21   7.571796e+05   9.263720e-44   0.000000e+00   0.000000e+00
     2080000   2.079999e-05   2.575272e+00   8.392479e+00   3.629530e+01   1.190036e+05  -7.667140e+04   7.438284e+05  -2.192110e+00  -3.402428e+00  -3.419737e-22   7.571796e+05   3.347120e-44   0.000000e+00   0.000000e+00
     2088000   2.087999e-05   2.584792e+00   8.386345e+00   3.635481e+01   1.190036e+05  -7.667140e+04   7.438284e+05  -9.839511e+00  -1.527215e+01   2.563236e-21   7.571796e+05   6.742348e-43   0.000000e+00   0.000000e+00
     2096000   2.095999e-05   2.594312e+00   8.380211e+00   3.641431e+01   1.190036e+05  -7.667140e+04   7.438284e+05  -3.291925e+00  -5.109477e+00   3.371566e-23   7.571796e+05   7.547834e-44   0.000000e+00   0.000000e+00
     2104000   2.103999e-05   2.603832e+00   8.374078e+00   3.647382e+01   1.190036e+05  -7.667140e+04   7.438284e+05  -3.853198e+00  -5.980644e+00   1.231738e-21   7.571796e+05   1.033932e-43   0.000000e+00   0.000000e+00
     2112000   2.111999e-05   2.613353e+00   8.367944e+00   3.653333e+01   1.190036e+05  -7.667140e+04   7.438284e+05  -4.453924e+00  -6.913045e+00   1.738832e-22   7.571796e+05   1.381605e-43   0.000000e+00   0.000000e+00
     2120000   2.119999e-05   2.622873e+00   8.361810e+00   3.659283e+01   1.190036e+05  -7.667140e+04   7.438284e+05  -3.478597e+00  -5.399217e+00   9.955507e-23   7.571796e+05   8.427783e-44   0.000000e+00   0.000000e+00
     2128000   2.127999e-05   2.632393e+00   8.355676e+00   3.665234e+01   1.190036e+05  -7.667140e+04   7.438284e+05  -4.061090e+00  -6.303317e+00  -4.107251e-23   7.571796e+05   1.148512e-43   0.000000e+00   0.000000e+00
     2136000   2.135999e-05   2.641914e+00   8.349543e+00   3.671185e+01   1.190036e+05  -7.667140e+04   7.438284e+05  -4.031815e+00  -6.257880e+00   2.095161e-21   7.571796e+05   1.132145e-43   0.000000e+00   0.000000e+00
     2144000   2.143999e-05   2.651434e+00   8.343409e+00   3.677135e+01   1.190036e+05  -7.667140e+04   7.438284e+05  -3.056489e+00  -4.744051e+00   4.953677e-22   7.571796e+05   6.506610e-44   0.000000e+00   0.000000e+00
     2152000   2.151999e-05   2.660954e+00   8.337275e+00   3.683086e+01   1.190036e+05  -7.667140e+04   7.438284e+05  -4.268981e+00  -6.625990e+00   9.755737e-22   7.571796e+05   1.269112e-43   0.000000e+00   0.000000e+00
     2160000   2.159999e-05   2.670474e+00   8.331142e+00   3.689036e+01   1.190036e+05  -7.667140e+04   7.438284e+05  -5.172902e+00  -8.028988e+00  -8.979014e-22   7.571796e+05   1.863477e-43   0.000000e+00   0.000000e+00
     2168000   2.167999e-05   2.679995e+00   8.325008e+00   3.694987e+01   1.190036e+05  -7.667140e+04   7.438284e+05  -2.634380e+00  -4.088885e+00  -2.533633e-22   7.571796e+05   4.833608e-44   0.000000e+00   0.000000e+00
     2176000   2.175999e-05   2.689515e+00   8.318874e+00   3.700938e+01   1.190036e+05  -7.667140e+04   7.438284e+05  -4.476872e+00  -6.948663e+00   1.229550e-21   7.571796e+05   1.395732e-43   0.000000e+00   0.000000e+00
     2184000   2.183999e-05   2.699035e+00   8.312740e+00   3.706888e+01   1.190036e+05  -7.667140e+04   7.438284e+05  -5.380793e+00  -8.351661e+00   1.645113e-21   7.571796e+05   2.016271e-43   0.000000e+00   0.000000e+00
     2192000   2.191999e-05   2.708556e+00   8.306607e+00   3.712839e+01   1.190036e+05  -7.667140e+04   7.438284e+05  -3.468718e+00  -5.383883e+00   5.982435e-22   7.571796e+05   8.378779e-44   0.000000e+00   0.000000e+00
     2200000   2.199999e-05   2.718076e+00   8.300473e+00   3.718790e+01   1.190036e+05  -7.667140e+04   7.438284e+05  -4.487202e+00  -6.964697e+00   2.651073e-22   7.571796e+05   1.402172e-43   0.000000e+00   0.000000e+00
     2208000   2.207999e-05   2.727596e+00   8.294339e+00   3.724740e+01   1.190036e+05  -7.667140e+04   7.438284e+05  -2.848029e+00  -4.420496e+00   2.352670e-22   7.571796e+05   5.649915e-44   0.000000e+00   0.000000e+00
     2216000   2.215999e-05   2.737116e+00   8.288206e+00   3.730691e+01   1.190036e+05  -7.667140e+04   7.438284e+05  -3.766784e+00  -5.846517e+00   1.297022e-21   7.571796e+05   9.879840e-44   0.000000e+00   0.000000e+00
     2224000   2.223999e-05   2.746637e+00   8.282072e+00   3.736641e+01   1.190036e+05  -7.667140e+04   7.438284e+05  -6.056646e+00  -9.400668e+00  -3.488996e-22   7.571796e+05   2.554452e-43   0.000000e+00   0.000000e+00
     2232000   2.231999e-05   2.756157e+00   8.275938e+00   3.742592e+01   1.190036e+05  -7.667140e+04   7.438284e+05  -3.658988e+00  -5.679204e+00   4.578451e-22   7.571796e+05   9.325186e-44   0.000000e+00   0.000000e+00
     2240000   2.239999e-05   2.765677e+00   8.269804e+00   3.748543e+01   1.190036e+05  -7.667140e+04   7.438284e+05  -1.599842e+00  -2.483155e+00   7.666596e-23   7.571796e+05   1.783071e-44   0.000000e+00   0.000000e+00
     2248000   2.247999e-05   2.775198e+00   8.263671e+00   3.754493e+01   1.190036e+05  -7.667140e+04   7.438284e+05  -5.937837e+00  -9.216263e+00   1.154566e-21   7.571796e+05   2.455214e-43   0.000000e+00   0.000000e+00
     2256000   2.255999e-05   2.784718e+00   8.257537e+00   3.760444e+01   1.190036e+05  -7.667140e+04   7.438284e+05  -4.469946e+00  -6.937913e+00   1.453087e-21   7.571796e+05   1.391647e-43   0.000000e+00   0.000000e+00
     2264000   2.263999e-05   2.794238e+00   8.251403e+00   3.766395e+01   1.190036e+05  -7.667140e+04   7.438284e+05  -2.410801e+00  -3.741863e+00  -2.574023e-22   7.571796e+05   4.048460e-44   0.000000e+00   0.000000e+00
     2272000   2.271999e-05   2.803758e+00   8.245270e+00   3.772345e+01   1.190036e+05  -7.667140e+04   7.438284e+05  -4.192416e+00  -6.507152e+00   1.294530e-21   7.571796e+05   1.224036e-43   0.000000e+00   0.000000e+00
     2280000   2.279999e-05   2.813279e+00   8.239136e+00   3.778296e+01   1.190036e+05  -7.667140e+04   7.438284e+05  -4.544243e+00  -7.053231e+00  -8.716794e-23   7.571796e+05   1.438100e-43   0.000000e+00   0.000000e+00
     2288000   2.287999e-05   2.822799e+00   8.233002e+00   3.784246e+01   1.190036e+05  -7.667140e+04   7.438284e+05  -2.787758e+00  -4.326947e+00  -4.608173e-22   7.571796e+05   5.412428e-44   0.000000e+00   0.000000e+00
     2296000   2.295999e-05   2.832319e+00   8.226868e+00   3.790197e+01   1.190036e+05  -7.667140e+04   7.438284e+05  -4.275742e+00  -6.636484e+00   2.932506e-22   7.571796e+05   1.273177e-43   0.000000e+00   0.000000e+00
     2304000   2.303999e-05   2.841840e+00   8.220735e+00   3.796148e+01   1.190036e+05  -7.667140e+04   7.438284e+05  -4.627568e+00  -7.182563e+00   4.379890e-22   7.571796e+05   1.491324e-43   0.000000e+00   0.000000e+00
     2312000   2.311999e-05   2.851360e+00   8.214601e+00   3.802098e+01   1.190036e+05  -7.667140e+04   7.438284e+05  -3.178240e+00  -4.933025e+00   5.263264e-22   7.571796e+05   7.034847e-44   0.000000e+00   0.000000e+00
     2320000   2.319999e-05   2.860880e+00   8.208467e+00   3.808049e+01   1.190036e+05  -7.667140e+04   7.438284e+05  -2.984350e+00  -4.632083e+00  -2.591620e-22   7.571796e+05   6.202705e-44   0.000000e+00   0.000000e+00
     2328000   2.327999e-05   2.870400e+00   8.202334e+00   3.814000e+01   1.190036e+05  -7.667140e+04   7.438284e+05  -4.710894e+00  -7.311895e+00  -5.635431e-22   7.571796e+05   1.545515e-43   0.000000e+00   0.000000e+00
     2336000   2.335999e-05   2.879921e+00   8.196200e+00   3.819950e+01   1.190036e+05  -7.667140e+04   7.438284e+05  -1.295824e+01  -2.011280e+01  -1.237795e-22   7.571796e+05   1.169338e-42   0.000000e+00   0.000000e+00
     2344000   2.343999e-05   2.889441e+00   8.190066e+00   3.825901e+01   1.190036e+05  -7.667140e+04   7.438284e+05  -1.392361e-01  -2.161117e-01   1.710209e-23   7.571796e+05   1.357398e-46   0.000000e+00   0.000000e+00
     2352000   2.351999e-05   2.898961e+00   8.183932e+00   3.831851e+01   1.190036e+05  -7.667140e+04   7.438284e+05  -9.636730e+00  -1.495741e+01   7.994295e-22   7.571796e+05   6.466935e-43   0.000000e+00   0.000000e+00
     2360000   2.359999e-05   2.908482e+00   8.177799e+00   3.837802e+01   1.190036e+05  -7.667140e+04   7.438284e+05  -3.039193e+00  -4.717206e+00  -1.369540e-21   7.571796e+05   6.433414e-44   0.000000e+00   0.000000e+00
     2368000   2.367999e-05   2.918002e+00   8.171665e+00   3.843753e+01   1.190036e+05  -7.667140e+04   7.438284e+05  -3.968737e+00  -6.159974e+00  -4.552330e-22   7.571796e+05   1.096838e-43   0.000000e+00   0.000000e+00
     2376000   2.375999e-05   2.927522e+00   8.165531e+00   3.849703e+01   1.190036e+05  -7.667140e+04   7.438284e+05  -5.316290e+00  -8.251545e+00  -2.679005e-22   7.571796e+05   1.968178e-43   0.000000e+00   0.000000e+00
     2384000   2.383999e-05   2.937042e+00   8.159398e+00   3.855654e+01   1.190036e+05  -7.667140e+04   7.438284e+05  -3.515377e+00  -5.456303e+00   5.192305e-22   7.571796e+05   8.607203e-44   0.000000e+00   0.000000e+00
     2392000   2.391999e-05   2.946563e+00   8.153264e+00   3.861605e+01   1.190036e+05  -7.667140e+04   7.438284e+05  -3.300929e+00  -5.123454e+00   5.186978e-22   7.571796e+05   7.587570e-44   0.000000e+00   0.000000e+00
     2400000   2.399999e-05   2.956083e+00   8.147130e+00   3.867555e+01   1.190036e+05  -7.667140e+04   7.438284e+05  -4.648483e+00  -7.215024e+00  -4.394825e-22   7.571796e+05   1.504754e-43   0.000000e+00   0.000000e+00
     2408000   2.407999e-05   2.965603e+00   8.140996e+00   3.873506e+01   1.190036e+05  -7.667140e+04   7.438284e+05  -3.991562e+00  -6.195401e+00   4.994814e-22   7.571796e+05   1.109682e-43   0.000000e+00   0.000000e+00
     2416000   2.415999e-05   2.975124e+00   8.134863e+00   3.879456e+01   1.190036e+05  -7.667140e+04   7.438284e+05  -2.580134e+00  -4.004689e+00   1.013297e-21   7.571796e+05   4.636801e-44   0.000000e+00   0.000000e+00
     2424000   2.423999e-05   2.984644e+00   8.128729e+00   3.885407e+01   1.190036e+05  -7.667140e+04   7.438284e+05  -3.980675e+00  -6.178504e+00   9.164792e-22   7.571796e+05   1.103447e-43   0.000000e+00   0.000000e+00
     2432000   2.431999e-05   2.994164e+00   8.122595e+00   3.891358e+01   1.190036e+05  -7.667140e+04   7.438284e+05  -4.467746e+00  -6.934498e+00   2.005806e-21   7.571796e+05   1.390227e-43   0.000000e+00   0.000000e+00
     2440000   2.439999e-05   3.003684e+00   8.116462e+00   3.897308e+01   1.190036e+05  -7.667140e+04   7.438284e+05  -2.624584e+00  -4.073682e+00   6.370175e-23   7.571796e+05   4.797812e-44   0.000000e+00   0.000000e+00
     2448000   2.447999e-05   3.013205e+00   8.110328e+00   3.903259e+01   1.190036e+05  -7.667140e+04   7.438284e+05  -3.818925e+00  -5.927447e+00   2.177943e-22   7.571796e+05   1.015594e-43   0.000000e+00   0.000000e+00
     2456000   2.455999e-05   3.022725e+00   8.104194e+00   3.909210e+01   1.190036e+05  -7.667140e+04   7.438284e+05  -5.110267e+00  -7.931771e+00  -1.255627e-22   7.571796e+05   1.818588e-43   0.000000e+00   0.000000e+00
     2464000   2.463999e-05   3.032245e+00   8.098061e+00   3.915160e+01   1.190036e+05  -7.667140e+04   7.438284e+05  -5.949837e+00  -9.234888e+00   2.438729e-21   7.571796e+05   2.465351e-43   0.000000e+00   0.000000e+00
     2472000   2.471999e-05   3.041766e+00   8.091927e+00   3.921111e+01   1.190036e+05  -7.667140e+04   7.438284e+05  -3.716213e+00  -5.768026e+00  -8.942113e-22   7.571796e+05   9.617833e-44   0.000000e+00   0.000000e+00
     2480000   2.479999e-05   3.051286e+00   8.085793e+00   3.927061e+01   1.190036e+05  -7.667140e+04   7.438284e+05  -3.666055e+00  -5.690174e+00   4.401838e-22   7.571796e+05   9.359961e-44   0.000000e+00   0.000000e+00
     2488000   2.487999e-05   3.060806e+00   8.079659e+00   3.933012e+01   1.190036e+05  -7.667140e+04   7.438284e+05  -5.965220e+00  -9.258765e+00   8.835048e-22   7.571796e+05   2.478116e-43   0.000000e+00   0.000000e+00
     2496000   2.495999e-05   3.070326e+00   8.073526e+00   3.938963e+01   1.190036e+05  -7.667140e+04   7.438284e+05  -6.291670e+00  -9.765456e+00  -1.088322e-21   7.571796e+05   2.756772e-43   0.000000e+00   0.000000e+00
     2504000   2.503999e-05   3.079847e+00   8.067392e+00   3.944913e+01   1.190036e+05  -7.667140e+04   7.438284e+05  -4.479548e+00  -6.952816e+00   1.609030e-21   7.571796e+05   1.397475e-43   0.000000e+00   0.000000e+00
     2512000   2.511999e-05   3.089367e+00   8.061258e+00   3.950864e+01   1.190036e+05  -7.667140e+04   7.438284e+05  -5.980604e+00  -9.282643e+00  -1.432099e-21   7.571796e+05   2.490914e-43   0.000000e+00   0.000000e+00
     2520000   2.519999e-05   3.098887e+00   8.055125e+00   3.956815e+01   1.190036e+05  -7.667140e+04   7.438284e+05  -6.307054e+00  -9.789334e+00   1.938970e-21   7.571796e+05   2.770270e-43   0.000000e+00   0.000000e+00
     2528000   2.527999e-05   3.108408e+00   8.048991e+00   3.962765e+01   1.190036e+05  -7.667140e+04   7.438284e+05  -3.891127e+00  -6.039514e+00   1.035801e-21   7.571796e+05   1.054489e-43   0.000000e+00   0.000000e+00
     2536000   2.535999e-05   3.117928e+00   8.042857e+00   3.968716e+01   1.190036e+05  -7.667140e+04   7.438284e+05  -3.297313e+00  -5.117841e+00  -6.163174e-22   7.571796e+05   7.572067e-44   0.000000e+00   0.000000e+00
     2544000   2.543999e-05   3.127448e+00   8.036723e+00   3.974666e+01   1.190036e+05  -7.667140e+04   7.438284e+05  -5.198299e+00  -8.068408e+00   7.507080e-22   7.571796e+05   1.881852e-43   0.000000e+00   0.000000e+00
     2552000   2.551999e-05   3.136968e+00   8.030590e+00   3.980617e+01   1.190036e+05  -7.667140e+04   7.438284e+05  -3.615392e+00  -5.611539e+00   1.159193e-22   7.571796e+05   9.103392e-44   0.000000e+00   0.000000e+00
     2560000   2.559999e-05   3.146489e+00   8.024456e+00   3.986568e+01   1.190036e+05  -7.667140e+04   7.438284e+05  -3.021578e+00  -4.689865e+00   7.544796e-22   7.571796e+05   6.358629e-44   0.000000e+00   0.000000e+00
     2568000   2.567999e-05   3.156009e+00   8.018322e+00   3.992518e+01   1.190036e+05  -7.667140e+04   7.438284e+05  -5.358012e+00  -8.316303e+00  -7.925531e-23   7.571796e+05   1.999267e-43   0.000000e+00   0.000000e+00
     2576000   2.575999e-05   3.165529e+00   8.012189e+00   3.998469e+01   1.190036e+05  -7.667140e+04   7.438284e+05  -5.913153e+00  -9.177950e+00   7.339132e-22   7.571796e+05   2.435020e-43   0.000000e+00   0.000000e+00
     2584000   2.583999e-05   3.175050e+00   8.006055e+00   4.004420e+01   1.190036e+05  -7.667140e+04   7.438284e+05  -2.745843e+00  -4.261890e+00   2.167415e-22   7.571796e+05   5.251089e-44   0.000000e+00   0.000000e+00
     2592000   2.591999e-05   3.184570e+00   7.999921e+00   4.010370e+01   1.190036e+05  -7.667140e+04   7.438284e+05  -5.252911e+00  -8.153172e+00   2.004144e-21   7.571796e+05   1.921732e-43   0.000000e+00   0.000000e+00
     2600000   2.599999e-05   3.194090e+00   7.993787e+00   4.016321e+01   1.190036e+05  -7.667140e+04   7.438284e+05  -4.373407e+00  -6.788073e+00   3.684871e-22   7.571796e+05   1.332098e-43   0.000000e+00   0.000000e+00
     2608000   2.607999e-05   3.203610e+00   7.987654e+00   4.022272e+01   1.190036e+05  -7.667140e+04   7.438284e+05  -2.791971e+00  -4.333487e+00  -8.853881e-22   7.571796e+05   5.428842e-44   0.000000e+00   0.000000e+00
     2616000   2.615999e-05   3.213131e+00   7.981520e+00   4.028222e+01   1.190036e+05  -7.667140e+04   7.438284e+05  -2.512936e+00  -3.900390e+00   6.095443e-22   7.571796e+05   4.397943e-44   0.000000e+00   0.000000e+00
     2624000   2.623999e-05   3.222651e+00   7.975386e+00   4.034173e+01   1.190036e+05  -7.667140e+04   7.438284e+05  -5.675505e+00  -8.809091e+00  -8.758191e-22   7.571796e+05   2.243258e-43   0.000000e+00   0.000000e+00
     2632000   2.631999e-05   3.232171e+00   7.969253e+00   4.040123e+01   1.190036e+05  -7.667140e+04   7.438284e+05  -3.091638e+00  -4.798607e+00   8.084104e-22   7.571796e+05   6.656740e-44   0.000000e+00   0.000000e+00
     2640000   2.639999e-05   3.241692e+00   7.963119e+00   4.046074e+01   1.190036e+05  -7.667140e+04   7.438284e+05  -2.812603e+00  -4.365511e+00   1.367003e-23   7.571796e+05   5.509375e-44   0.000000e+00   0.000000e+00
     2648000   2.647999e-05   3.251212e+00   7.956985e+00   4.052025e+01   1.190036e+05  -7.667140e+04   7.438284e+05  -5.239006e+00  -8.131590e+00  -6.178238e-22   7.571796e+05   1.911470e-43   0.000000e+00   0.000000e+00
     2656000   2.655999e-05   3.260732e+00   7.950851e+00   4.057975e+01   1.190036e+05  -7.667140e+04   7.438284e+05  -5.472430e+00  -8.493893e+00  -5.722892e-22   7.571796e+05   2.085597e-43   0.000000e+00   0.000000e+00
     2664000   2.663999e-05   3.270252e+00   7.944718e+00   4.063926e+01   1.190036e+05  -7.667140e+04   7.438284e+05  -3.112270e+00  -4.830632e+00  -9.643899e-22   7.571796e+05   6.745886e-44   0.000000e+00   0.000000e+00
     2672000   2.671999e-05   3.279773e+00   7.938584e+00   4.069877e+01   1.190036e+05  -7.667140e+04   7.438284e+05  -2.833236e+00  -4.397535e+00   5.310635e-22   7.571796e+05   5.590501e-44   0.000000e+00   0.000000e+00
     2680000   2.679999e-05   3.289293e+00   7.932450e+00   4.075827e+01   1.190036e+05  -7.667140e+04   7.438284e+05  -5.035930e+00  -7.816391e+00   4.508813e-22   7.571796e+05   1.766156e-43   0.000000e+00   0.000000e+00
     2688000   2.687999e-05   3.298813e+00   7.926317e+00   4.081778e+01   1.190036e+05  -7.667140e+04   7.438284e+05  -3.411937e+00  -5.295752e+00   3.477669e-22   7.571796e+05   8.107474e-44   0.000000e+00   0.000000e+00
     2696000   2.695999e-05   3.308334e+00   7.920183e+00   4.087728e+01   1.190036e+05  -7.667140e+04   7.438284e+05  -5.930114e+00  -9.204276e+00  -1.988907e-21   7.571796e+05   2.449043e-43   0.000000e+00   0.000000e+00
     2704000   2.703999e-05   3.317854e+00   7.914049e+00   4.093679e+01   1.190036e+05  -7.667140e+04   7.438284e+05  -6.862362e+00  -1.065124e+01   8.358749e-22   7.571796e+05   3.279597e-43   0.000000e+00   0.000000e+00
     2712000   2.711999e-05   3.327374e+00   7.907915e+00   4.099630e+01   1.190036e+05  -7.667140e+04   7.438284e+05  -6.945165e+00  -1.077976e+01   1.419546e-21   7.571796e+05   3.359220e-43   0.000000e+00   0.000000e+00
     2720000   2.719999e-05   3.336894e+00   7.901782e+00   4.105580e+01   1.190036e+05  -7.667140e+04   7.438284e+05  -6.394908e+00  -9.925694e+00   9.106583e-23   7.571796e+05   2.847995e-43   0.000000e+00   0.000000e+00
     2728000   2.727999e-05   3.346415e+00   7.895648e+00   4.111531e+01   1.190036e+05  -7.667140e+04   7.438284e+05  -4.094577e+00  -6.355294e+00  -6.253108e-22   7.571796e+05   1.167758e-43   0.000000e+00   0.000000e+00
     2736000   2.735999e-05   3.355935e+00   7.889514e+00   4.117482e+01   1.190036e+05  -7.667140e+04   7.438284e+05  -1.820253e+00  -2.825260e+00  -4.406158e-22   7.571796e+05   2.308202e-44   0.000000e+00   0.000000e+00
     2744000   2.743999e-05   3.365455e+00   7.883381e+00   4.123432e+01   1.190036e+05  -7.667140e+04   7.438284e+05  -9.040701e+00  -1.403229e+01  -6.892270e-22   7.571796e+05   5.691755e-43   0.000000e+00   0.000000e+00
     2752000   2.751999e-05   3.374976e+00   7.877247e+00   4.129383e+01   1.190036e+05  -7.667140e+04   7.438284e+05  -1.175062e+01  -1.823843e+01  -7.395720e-22   7.571796e+05   9.615489e-43   0.000000e+00   0.000000e+00
     2760000   2.759999e-05   3.384496e+00   7.871113e+00   4.135333e+01   1.190036e+05  -7.667140e+04   7.438284e+05  -2.891114e+00  -4.487369e+00   6.726780e-23   7.571796e+05   5.822243e-44   0.000000e+00   0.000000e+00
     2768000   2.767999e-05   3.394016e+00   7.864979e+00   4.141284e+01   1.190036e+05  -7.667140e+04   7.438284e+05  -9.276638e+00  -1.439850e+01  -1.161637e-21   7.571796e+05   5.992721e-43   0.000000e+00   0.000000e+00
     2776000   2.775999e-05   3.403536e+00   7.858846e+00   4.147235e+01   1.190036e+05  -7.667140e+04   7.438284e+05  -7.295822e+00  -1.132402e+01  -2.418436e-21   7.571796e+05   3.707148e-43   0.000000e+00   0.000000e+00
     2784000   2.783999e-05   3.413057e+00   7.852712e+00   4.153185e+01   1.190036e+05  -7.667140e+04   7.438284e+05  -9.254958e+00  -1.436485e+01  -4.333565e-22   7.571796e+05   5.965074e-43   0.000000e+00   0.000000e+00
     2792000   2.791999e-05   3.422577e+00   7.846578e+00   4.159136e+01   1.190036e+05  -7.667140e+04   7.438284e+05  -9.905745e+00  -1.537495e+01  -1.143295e-21   7.571796e+05   6.833477e-43   0.000000e+00   0.000000e+00
     2800000   2.799999e-05   3.432097e+00   7.840445e+00   4.165087e+01   1.190036e+05  -7.667140e+04   7.438284e+05  -6.951140e+00  -1.078904e+01  -1.441875e-22   7.571796e+05   3.365150e-43   0.000000e+00   0.000000e+00
     2808000   2.807999e-05   3.441618e+00   7.834311e+00   4.171037e+01   1.190036e+05  -7.667140e+04   7.438284e+05  -8.133499e+00  -1.262420e+01   1.648985e-21   7.571796e+05   4.607026e-43   0.000000e+00   0.000000e+00
     2816000   2.815999e-05   3.451138e+00   7.828177e+00   4.176988e+01   1.190036e+05  -7.667140e+04   7.438284e+05  -8.784286e+00  -1.363431e+01  -2.113892e-21   7.571796e+05   5.373775e-43   0.000000e+00   0.000000e+00
     2824000   2.823999e-05   3.460658e+00   7.822043e+00   4.182938e+01   1.190036e+05  -7.667140e+04   7.438284e+05  -6.606459e+00  -1.025405e+01  -9.221060e-22   7.571796e+05   3.039700e-43   0.000000e+00   0.000000e+00
     2832000   2.831999e-05   3.470178e+00   7.815910e+00   4.188889e+01   1.190036e+05  -7.667140e+04   7.438284e+05  -5.466958e+00  -8.485401e+00  -1.556274e-21   7.571796e+05   2.081559e-43   0.000000e+00   0.000000e+00
     2840000   2.839999e-05   3.479699e+00   7.809776e+00   4.194840e+01   1.190036e+05  -7.667140e+04   7.438284e+05  -7.662827e+00  -1.189366e+01  -2.615827e-23   7.571796e+05   4.089248e-43   0.000000e+00   0.000000e+00
     2848000   2.847999e-05   3.489219e+00   7.803642e+00   4.200790e+01   1.190036e+05  -7.667140e+04   7.438284e+05  -6.261778e+00  -9.719059e+00  -1.698211e-22   7.571796e+05   2.730798e-43   0.000000e+00   0.000000e+00
     2856000   2.855999e-05   3.498739e+00   7.797509e+00   4.206741e+01   1.190036e+05  -7.667140e+04   7.438284e+05  -1.345596e+01  -2.088533e+01  -8.539853e-23   7.571796e+05   1.260937e-42   0.000000e+00   0.000000e+00
     2864000   2.863999e-05   3.508260e+00   7.791375e+00   4.212692e+01   1.190036e+05  -7.667140e+04   7.438284e+05  -6.241090e+00  -9.686949e+00  -4.591332e-22   7.571796e+05   2.712706e-43   0.000000e+00   0.000000e+00
     2872000   2.871999e-05   3.517780e+00   7.785241e+00   4.218642e+01   1.190036e+05  -7.667140e+04   7.438284e+05  -5.816350e+00  -9.027700e+00  -1.157060e-22   7.571796e+05   2.356045e-43   0.000000e+00   0.000000e+00
     2880000   2.879999e-05   3.527300e+00   7.779107e+00   4.224593e+01   1.190036e+05  -7.667140e+04   7.438284e+05  -7.357326e+00  -1.141949e+01   1.017623e-22   7.571796e+05   3.769696e-43   0.000000e+00   0.000000e+00
     2888000   2.887999e-05   3.536820e+00   7.772974e+00   4.230543e+01   1.190036e+05  -7.667140e+04   7.438284e+05  -5.630045e+00  -8.738532e+00   6.182043e-22   7.571796e+05   2.207530e-43   0.000000e+00   0.000000e+00
     2896000   2.895999e-05   3.546341e+00   7.766840e+00   4.236494e+01   1.190036e+05  -7.667140e+04   7.438284e+05  -5.205306e+00  -8.079283e+00  -1.327980e-21   7.571796e+05   1.887017e-43   0.000000e+00   0.000000e+00
     2904000   2.903999e-05   3.555861e+00   7.760706e+00   4.242445e+01   1.190036e+05  -7.667140e+04   7.438284e+05  -8.356068e+00  -1.296966e+01   4.858217e-24   7.571796e+05   4.862631e-43   0.000000e+00   0.000000e+00
     2912000   2.911999e-05   3.565381e+00   7.754573e+00   4.248395e+01   1.190036e+05  -7.667140e+04   7.438284e+05  -8.910041e+00  -1.382949e+01  -5.231474e-22   7.571796e+05   5.528753e-43   0.000000e+00   0.000000e+00
     2920000   2.919999e-05   3.574902e+00   7.748439e+00   4.254346e+01   1.190036e+05  -7.667140e+04   7.438284e+05  -4.594261e+00  -7.130866e+00  -1.012451e-21   7.571796e+05   1.469996e-43   0.000000e+00   0.000000e+00
     2928000   2.927999e-05   3.584422e+00   7.742305e+00   4.260297e+01   1.190036e+05  -7.667140e+04   7.438284e+05  -9.354811e+00  -1.451983e+01   1.433850e-21   7.571796e+05   6.094501e-43   0.000000e+00   0.000000e+00
     2936000   2.935999e-05   3.593942e+00   7.736171e+00   4.266247e+01   1.190036e+05  -7.667140e+04   7.438284e+05  -9.908784e+00  -1.537967e+01   2.430157e-21   7.571796e+05   6.837686e-43   0.000000e+00   0.000000e+00
     2944000   2.943999e-05   3.603462e+00   7.730038e+00   4.272198e+01   1.190036e+05  -7.667140e+04   7.438284e+05  -5.727092e+00  -8.889161e+00  -1.603385e-21   7.571796e+05   2.283864e-43   0.000000e+00   0.000000e+00
     2952000   2.951999e-05   3.612983e+00   7.723904e+00   4.278148e+01   1.190036e+05  -7.667140e+04   7.438284e+05  -9.561899e+00  -1.484126e+01  -5.731764e-22   7.571796e+05   6.366773e-43   0.000000e+00   0.000000e+00
     2960000   2.959999e-05   3.622503e+00   7.717770e+00   4.284099e+01   1.190036e+05  -7.667140e+04   7.438284e+05  -5.777457e+00  -8.967334e+00  -6.718407e-22   7.571796e+05   2.324958e-43   0.000000e+00   0.000000e+00
     2968000   2.967999e-05   3.632023e+00   7.711637e+00   4.290050e+01   1.190036e+05  -7.667140e+04   7.438284e+05  -5.642616e+00  -8.758043e+00  -1.202416e-21   7.571796e+05   2.216980e-43   0.000000e+00   0.000000e+00
     2976000   2.975999e-05   3.641544e+00   7.705503e+00   4.296000e+01   1.190036e+05  -7.667140e+04   7.438284e+05  -9.477423e+00  -1.471014e+01  -1.703310e-21   7.571796e+05   6.254768e-43   0.000000e+00   0.000000e+00
     2984000   2.983999e-05   3.651064e+00   7.699369e+00   4.301951e+01   1.190036e+05  -7.667140e+04   7.438284e+05  -9.096825e+00  -1.411941e+01   5.704634e-22   7.571796e+05   5.763087e-43   0.000000e+00   0.000000e+00
     2992000   2.991999e-05   3.660584e+00   7.693236e+00   4.307902e+01   1.190036e+05  -7.667140e+04   7.438284e+05  -9.019507e+00  -1.399940e+01   1.092846e-21   7.571796e+05   5.665537e-43   0.000000e+00   0.000000e+00
     3000000   2.999999e-05   3.670104e+00   7.687102e+00   4.313852e+01   1.190036e+05  -7.667140e+04   7.438284e+05  -1.885509e+00  -2.926546e+00  -4.618833e-23   7.571796e+05   2.476132e-44   0.000000e+00   0.000000e+00
     3008000   3.007999e-05   3.679625e+00   7.680968e+00   4.319803e+01   1.190036e+05  -7.667140e+04   7.438284e+05  -1.160766e+00  -1.801654e+00  -7.065501e-23   7.571796e+05   9.384947e-45   0.000000e+00   0.000000e+00
     3016000   3.015999e-05   3.689145e+00   7.674834e+00   4.325753e+01   1.190036e+05  -7.667140e+04   7.438284e+05  -7.176026e+00  -1.113809e+01   3.652919e-22   7.571796e+05   3.586276e-43   0.000000e+00   0.000000e+00
     3024000   3.023999e-05   3.698665e+00   7.668701e+00   4.331704e+01   1.190036e+05  -7.667140e+04   7.438284e+05  -1.322807e+00  -2.053161e+00  -4.921397e-22   7.571796e+05   1.218784e-44   0.000000e+00   0.000000e+00
     3032000   3.031999e-05   3.708186e+00   7.662567e+00   4.337655e+01   1.190036e+05  -7.667140e+04   7.438284e+05  -6.440464e+00  -9.996403e+00  -1.247011e-21   7.571796e+05   2.888737e-43   0.000000e+00   0.000000e+00
     3040000   3.039999e-05   3.717706e+00   7.656433e+00   4.343605e+01   1.190036e+05  -7.667140e+04   7.438284e+05  -4.613056e+00  -7.160038e+00  -2.654657e-21   7.571796e+05   1.482012e-43   0.000000e+00   0.000000e+00
     3048000   3.047999e-05   3.727226e+00   7.650300e+00   4.349556e+01   1.190036e+05  -7.667140e+04   7.438284e+05  -4.623627e+00  -7.176445e+00  -8.122525e-22   7.571796e+05   1.488812e-43   0.000000e+00   0.000000e+00
     3056000   3.055999e-05   3.736746e+00   7.644166e+00   4.355507e+01   1.190036e+05  -7.667140e+04   7.438284e+05  -6.248807e+00  -9.698926e+00   6.237626e-22   7.571796e+05   2.719367e-43   0.000000e+00   0.000000e+00
     3064000   3.063999e-05   3.746267e+00   7.638032e+00   4.361457e+01   1.190036e+05  -7.667140e+04   7.438284e+05  -4.993344e+00  -7.750292e+00  -2.576167e-22   7.571796e+05   1.736430e-43   0.000000e+00   0.000000e+00
     3072000   3.071999e-05   3.755787e+00   7.631898e+00   4.367408e+01   1.190036e+05  -7.667140e+04   7.438284e+05  -5.003915e+00  -7.766699e+00  -7.051678e-22   7.571796e+05   1.743790e-43   0.000000e+00   0.000000e+00
     3080000   3.079999e-05   3.765307e+00   7.625765e+00   4.373359e+01   1.190036e+05  -7.667140e+04   7.438284e+05  -6.057149e+00  -9.401450e+00  -2.094970e-21   7.571796e+05   2.555113e-43   0.000000e+00   0.000000e+00
     3088000   3.087999e-05   3.774828e+00   7.619631e+00   4.379309e+01   1.190036e+05  -7.667140e+04   7.438284e+05  -6.109455e+00  -9.482635e+00   5.211281e-22   7.571796e+05   2.599433e-43   0.000000e+00   0.000000e+00
     3096000   3.095999e-05   3.784348e+00   7.613497e+00   4.385260e+01   1.190036e+05  -7.667140e+04   7.438284e+05  -5.384203e+00  -8.356953e+00  -1.403150e-21   7.571796e+05   2.018911e-43   0.000000e+00   0.000000e+00
     3104000   3.103999e-05   3.793868e+00   7.607364e+00   4.391210e+01   1.190036e+05  -7.667140e+04   7.438284e+05  -5.865492e+00  -9.103974e+00   4.871567e-22   7.571796e+05   2.395976e-43   0.000000e+00   0.000000e+00
     3112000   3.111999e-05   3.803388e+00   7.601230e+00   4.397161e+01   1.190036e+05  -7.667140e+04   7.438284e+05  -5.779251e+00  -8.970117e+00  -1.015315e-21   7.571796e+05   2.326011e-43   0.000000e+00   0.000000e+00
     3120000   3.119999e-05   3.812909e+00   7.595096e+00   4.403112e+01   1.190036e+05  -7.667140e+04   7.438284e+05  -6.668914e+00  -1.035098e+01   1.744600e-22   7.571796e+05   3.097120e-43   0.000000e+00   0.000000e+00
     3128000   3.127999e-05   3.822429e+00   7.588962e+00   4.409062e+01   1.190036e+05  -7.667140e+04   7.438284e+05  -8.314674e+00  -1.290541e+01   1.939771e-21   7.571796e+05   4.814415e-43   0.000000e+00   0.000000e+00
     3136000   3.135999e-05   3.831949e+00   7.582829e+00   4.415013e+01   1.190036e+05  -7.667140e+04   7.438284e+05  -4.529805e+00  -7.030821e+00   4.978895e-23   7.571796e+05   1.429124e-43   0.000000e+00   0.000000e+00
     3144000   3.143999e-05   3.841470e+00   7.576695e+00   4.420964e+01   1.190036e+05  -7.667140e+04   7.438284e+05  -6.367982e+00  -9.883902e+00   6.717596e-22   7.571796e+05   2.823906e-43   0.000000e+00   0.000000e+00
     3152000   3.151999e-05   3.850990e+00   7.570561e+00   4.426914e+01   1.190036e+05  -7.667140e+04   7.438284e+05  -8.013743e+00  -1.243833e+01  -6.173448e-22   7.571796e+05   4.472219e-43   0.000000e+00   0.000000e+00
     3160000   3.159999e-05   3.860510e+00   7.564428e+00   4.432865e+01   1.190036e+05  -7.667140e+04   7.438284e+05  -5.227211e+00  -8.113283e+00  -1.764247e-21   7.571796e+05   1.903032e-43   0.000000e+00   0.000000e+00
     3168000   3.167999e-05   3.870030e+00   7.558294e+00   4.438815e+01   1.190036e+05  -7.667140e+04   7.438284e+05  -3.713609e+00  -5.763984e+00  -4.039573e-22   7.571796e+05   9.605307e-44   0.000000e+00   0.000000e+00
     3176000   3.175999e-05   3.879551e+00   7.552160e+00   4.444766e+01   1.190036e+05  -7.667140e+04   7.438284e+05  -7.712811e+00  -1.197124e+01   2.931243e-21   7.571796e+05   4.142636e-43   0.000000e+00   0.000000e+00
     3184000   3.183999e-05   3.889071e+00   7.546026e+00   4.450717e+01   1.190036e+05  -7.667140e+04   7.438284e+05  -5.924618e+00  -9.195746e+00  -5.268269e-22   7.571796e+05   2.444686e-43   0.000000e+00   0.000000e+00
     3192000   3.191999e-05   3.898591e+00   7.539893e+00   4.456667e+01   1.190036e+05  -7.667140e+04   7.438284e+05  -4.411016e+00  -6.846446e+00   7.165041e-23   7.571796e+05   1.355155e-43   0.000000e+00   0.000000e+00
     3200000   3.199999e-05   3.908112e+00   7.533759e+00   4.462618e+01   1.190036e+05  -7.667140e+04   7.438284e+05  -8.046178e+00  -1.248867e+01  -2.787889e-21   7.571796e+05   4.508679e-43   0.000000e+00   0.000000e+00
     3208000   3.207999e-05   3.917632e+00   7.527625e+00   4.468569e+01   1.190036e+05  -7.667140e+04   7.438284e+05  -8.378620e+00  -1.300466e+01  -1.795724e-22   7.571796e+05   4.888946e-43   0.000000e+00   0.000000e+00
     3216000   3.215999e-05   3.927152e+00   7.521492e+00   4.474519e+01   1.190036e+05  -7.667140e+04   7.438284e+05  -7.474196e+00  -1.160088e+01   9.353006e-23   7.571796e+05   3.890507e-43   0.000000e+00   0.000000e+00
     3224000   3.223999e-05   3.936672e+00   7.515358e+00   4.480470e+01   1.190036e+05  -7.667140e+04   7.438284e+05  -8.012318e+00  -1.243612e+01  -1.656755e-21   7.571796e+05   4.470812e-43   0.000000e+00   0.000000e+00
     3232000   3.231999e-05   3.946193e+00   7.509224e+00   4.486420e+01   1.190036e+05  -7.667140e+04   7.438284e+05  -8.344761e+00  -1.295211e+01   9.511021e-22   7.571796e+05   4.849512e-43   0.000000e+00   0.000000e+00
     3240000   3.239999e-05   3.955713e+00   7.503090e+00   4.492371e+01   1.190036e+05  -7.667140e+04   7.438284e+05  -7.955345e+00  -1.234769e+01   1.899465e-21   7.571796e+05   4.407528e-43   0.000000e+00   0.000000e+00
     3248000   3.247999e-05   3.965233e+00   7.496957e+00   4.498322e+01   1.190036e+05  -7.667140e+04   7.438284e+05  -6.720933e+00  -1.043172e+01   6.515338e-22   7.571796e+05   3.145776e-43   0.000000e+00   0.000000e+00
     3256000   3.255999e-05   3.974754e+00   7.490823e+00   4.504272e+01   1.190036e+05  -7.667140e+04   7.438284e+05  -4.325016e+00  -6.712964e+00   1.179769e-22   7.571796e+05   1.302729e-43   0.000000e+00   0.000000e+00
     3264000   3.263999e-05   3.984274e+00   7.484689e+00   4.510223e+01   1.190036e+05  -7.667140e+04   7.438284e+05  -6.866719e+00  -1.065800e+01   8.274822e-22   7.571796e+05   3.283729e-43   0.000000e+00   0.000000e+00
     3272000   3.271999e-05   3.993794e+00   7.478556e+00   4.516174e+01   1.190036e+05  -7.667140e+04   7.438284e+05  -7.230395e+00  -1.122247e+01  -4.894446e-22   7.571796e+05   3.640769e-43   0.000000e+00   0.000000e+00
     3280000   3.279999e-05   4.003314e+00   7.472422e+00   4.522124e+01   1.190036e+05  -7.667140e+04   7.438284e+05  -9.449328e+00  -1.466653e+01  -8.828133e-22   7.571796e+05   6.218137e-43   0.000000e+00   0.000000e+00
     3288000   3.287999e-05   4.012835e+00   7.466288e+00   4.528075e+01   1.190036e+05  -7.667140e+04   7.438284e+05  -1.085332e+01  -1.684571e+01   7.818615e-23   7.571796e+05   8.203253e-43   0.000000e+00   0.000000e+00
     3296000   3.295999e-05   4.022355e+00   7.460154e+00   4.534025e+01   1.190036e+05  -7.667140e+04   7.438284e+05  -7.990863e+00  -1.240282e+01  -1.082262e-21   7.571796e+05   4.447150e-43   0.000000e+00   0.000000e+00
     3304000   3.303999e-05   4.031875e+00   7.454021e+00   4.539976e+01   1.190036e+05  -7.667140e+04   7.438284e+05  -6.532167e+00  -1.013874e+01  -8.708077e-23   7.571796e+05   2.971757e-43   0.000000e+00   0.000000e+00
     3312000   3.311999e-05   4.041396e+00   7.447887e+00   4.545927e+01   1.190036e+05  -7.667140e+04   7.438284e+05  -1.088772e+01  -1.689910e+01   1.644363e-21   7.571796e+05   8.255331e-43   0.000000e+00   0.000000e+00
     3320000   3.319999e-05   4.050916e+00   7.441753e+00   4.551877e+01   1.190036e+05  -7.667140e+04   7.438284e+05  -7.792367e+00  -1.209472e+01   1.587876e-22   7.571796e+05   4.228961e-43   0.000000e+00   0.000000e+00
     3328000   3.327999e-05   4.060436e+00   7.435620e+00   4.557828e+01   1.190036e+05  -7.667140e+04   7.438284e+05  -6.333670e+00  -9.830645e+00  -1.133048e-21   7.571796e+05   2.793897e-43   0.000000e+00   0.000000e+00
     3336000   3.335999e-05   4.069956e+00   7.429486e+00   4.563779e+01   1.190036e+05  -7.667140e+04   7.438284e+05  -1.092212e+01  -1.695248e+01  -1.367633e-21   7.571796e+05   8.307573e-43   0.000000e+00   0.000000e+00
     3344000   3.343999e-05   4.079477e+00   7.423352e+00   4.569729e+01   1.190036e+05  -7.667140e+04   7.438284e+05  -1.232611e+01  -1.913166e+01   4.165758e-21   7.571796e+05   1.058070e-42   0.000000e+00   0.000000e+00
     3352000   3.351999e-05   4.088997e+00   7.417218e+00   4.575680e+01   1.190036e+05  -7.667140e+04   7.438284e+05  -6.135174e+00  -9.522554e+00  -1.414065e-21   7.571796e+05   2.621526e-43   0.000000e+00   0.000000e+00
     3360000   3.359999e-05   4.098517e+00   7.411085e+00   4.581630e+01   1.190036e+05  -7.667140e+04   7.438284e+05  -1.095651e+01  -1.700587e+01  -1.326512e-21   7.571796e+05   8.359980e-43   0.000000e+00   0.000000e+00
     3368000   3.367999e-05   4.108038e+00   7.404951e+00   4.587581e+01   1.190036e+05  -7.667140e+04   7.438284e+05  -7.324347e+00  -1.136830e+01   1.075946e-21   7.571796e+05   3.736279e-43   0.000000e+00   0.000000e+00
     3376000   3.375999e-05   4.117558e+00   7.398817e+00   4.593532e+01   1.190036e+05  -7.667140e+04   7.438284e+05  -4.840666e+00  -7.513317e+00  -1.515301e-23   7.571796e+05   1.632057e-43   0.000000e+00   0.000000e+00
     3384000   3.383999e-05   4.127078e+00   7.392684e+00   4.599482e+01   1.190036e+05  -7.667140e+04   7.438284e+05  -2.586460e+00  -4.014508e+00  -5.394436e-22   7.571796e+05   4.659945e-44   0.000000e+00   0.000000e+00
     3392000   3.391999e-05   4.136598e+00   7.386550e+00   4.605433e+01   1.190036e+05  -7.667140e+04   7.438284e+05  -1.074196e+01  -1.667286e+01   3.315676e-21   7.571796e+05   8.035751e-43   0.000000e+00   0.000000e+00
     3400000   3.399999e-05   4.146119e+00   7.380416e+00   4.611384e+01   1.190036e+05  -7.667140e+04   7.438284e+05  -4.588316e+00  -7.121638e+00   1.273850e-21   7.571796e+05   1.466340e-43   0.000000e+00   0.000000e+00
     3408000   3.407999e-05   4.155639e+00   7.374282e+00   4.617334e+01   1.190036e+05  -7.667140e+04   7.438284e+05  -2.334110e+00  -3.622830e+00   1.840091e-23   7.571796e+05   3.795090e-44   0.000000e+00   0.000000e+00
     3416000   3.415999e-05   4.165159e+00   7.368149e+00   4.623285e+01   1.190036e+05  -7.667140e+04   7.438284e+05  -8.788397e+00  -1.364069e+01   5.887081e-22   7.571796e+05   5.378673e-43   0.000000e+00   0.000000e+00
     3424000   3.423999e-05   4.174680e+00   7.362015e+00   4.629235e+01   1.190036e+05  -7.667140e+04   7.438284e+05  -1.030730e+01  -1.599821e+01   7.404955e-22   7.571796e+05   7.398577e-43   0.000000e+00   0.000000e+00
     3432000   3.431999e-05   4.184200e+00   7.355881e+00   4.635186e+01   1.190036e+05  -7.667140e+04   7.438284e+05  -2.081760e+00  -3.231151e+00  -1.758872e-22   7.571796e+05   3.018933e-44   0.000000e+00   0.000000e+00
     3440000   3.439999e-05   4.193720e+00   7.349748e+00   4.641137e+01   1.190036e+05  -7.667140e+04   7.438284e+05  -6.834831e+00  -1.060851e+01   1.574740e-22   7.571796e+05   3.253164e-43   0.000000e+00   0.000000e+00
     3448000   3.447999e-05   4.203240e+00   7.343614e+00   4.647087e+01   1.190036e+05  -7.667140e+04   7.438284e+05  -6.567835e+00  -1.019410e+01  -1.270004e-22   7.571796e+05   3.004117e-43   0.000000e+00   0.000000e+00
     3456000   3.455999e-05   4.212761e+00   7.337480e+00   4.653038e+01   1.190036e+05  -7.667140e+04   7.438284e+05  -6.148497e+00  -9.543233e+00   2.072019e-21   7.571796e+05   2.632795e-43   0.000000e+00   0.000000e+00
     3464000   3.463999e-05   4.222281e+00   7.331346e+00   4.658989e+01   1.190036e+05  -7.667140e+04   7.438284e+05  -5.884860e+00  -9.134036e+00   1.393133e-21   7.571796e+05   2.411858e-43   0.000000e+00   0.000000e+00
     3472000   3.471999e-05   4.231801e+00   7.325213e+00   4.664939e+01   1.190036e+05  -7.667140e+04   7.438284e+05  -6.841381e+00  -1.061868e+01   8.964800e-22   7.571796e+05   3.259568e-43   0.000000e+00   0.000000e+00
     3480000   3.479999e-05   4.241322e+00   7.319079e+00   4.670890e+01   1.190036e+05  -7.667140e+04   7.438284e+05  -5.492001e+00  -8.524269e+00   1.210405e-21   7.571796e+05   2.100588e-43   0.000000e+00   0.000000e+00
     3488000   3.487999e-05   4.250842e+00   7.312945e+00   4.676840e+01   1.190036e+05  -7.667140e+04   7.438284e+05  -5.228364e+00  -8.115073e+00  -9.946772e-22   7.571796e+05   1.903758e-43   0.000000e+00   0.000000e+00
     3496000   3.495999e-05   4.260362e+00   7.306812e+00   4.682791e+01   1.190036e+05  -7.667140e+04   7.438284e+05  -7.114927e+00  -1.104325e+01  -1.898030e-21   7.571796e+05   3.525441e-43   0.000000e+00   0.000000e+00
     3504000   3.503999e-05   4.269882e+00   7.300678e+00   4.688742e+01   1.190036e+05  -7.667140e+04   7.438284e+05  -7.250913e+00  -1.125432e+01   8.708333e-22   7.571796e+05   3.661491e-43   0.000000e+00   0.000000e+00
     3512000   3.511999e-05   4.279403e+00   7.294544e+00   4.694692e+01   1.190036e+05  -7.667140e+04   7.438284e+05  -2.232061e+00  -3.464437e+00   7.849801e-22   7.571796e+05   3.469816e-44   0.000000e+00   0.000000e+00
     3520000   3.519999e-05   4.288923e+00   7.288410e+00   4.700643e+01   1.190036e+05  -7.667140e+04   7.438284e+05   7.861387e-02   1.220185e-01  -2.066817e-24   7.571796e+05   4.303016e-47   0.000000e+00   0.000000e+00
     3528000   3.527999e-05   4.298443e+00   7.282277e+00   4.706594e+01   1.190036e+05  -7.667140e+04   7.438284e+05   1.509419e-01   2.342806e-01  -3.323745e-23   7.571796e+05   1.586507e-46   0.000000e+00   0.000000e+00
     3536000   3.535999e-05   4.307964e+00   7.276143e+00   4.712544e+01   1.190036e+05  -7.667140e+04   7.438284e+05  -4.395651e+00  -6.822598e+00   1.103591e-22   7.571796e+05   1.345726e-43   0.000000e+00   0.000000e+00
     3544000   3.543999e-05   4.317484e+00   7.270009e+00   4.718495e+01   1.190036e+05  -7.667140e+04   7.438284e+05  -2.954244e+00  -4.585355e+00   7.749481e-22   7.571796e+05   6.078835e-44   0.000000e+00   0.000000e+00
     3552000   3.551999e-05   4.327004e+00   7.263876e+00   4.724446e+01   1.190036e+05  -7.667140e+04   7.438284e+05  -8.931760e+00  -1.386320e+01   1.085880e-21   7.571796e+05   5.555504e-43   0.000000e+00   0.000000e+00
     3560000   3.559999e-05   4.336524e+00   7.257742e+00   4.730396e+01   1.190036e+05  -7.667140e+04   7.438284e+05  -6.431793e+00  -9.982944e+00   1.376366e-21   7.571796e+05   2.881131e-43   0.000000e+00   0.000000e+00
     3568000   3.567999e-05   4.346045e+00   7.251608e+00   4.736347e+01   1.190036e+05  -7.667140e+04   7.438284e+05  -4.990387e+00  -7.745702e+00  -2.482194e-22   7.571796e+05   1.734500e-43   0.000000e+00   0.000000e+00
     3576000   3.575999e-05   4.355565e+00   7.245475e+00   4.742297e+01   1.190036e+05  -7.667140e+04   7.438284e+05  -8.791933e+00  -1.364618e+01   1.439942e-21   7.571796e+05   5.382918e-43   0.000000e+00   0.000000e+00
     3584000   3.583999e-05   4.365085e+00   7.239341e+00   4.748248e+01   1.190036e+05  -7.667140e+04   7.438284e+05  -1.086545e+01  -1.686452e+01   1.819595e-21   7.571796e+05   8.221459e-43   0.000000e+00   0.000000e+00
     3592000   3.591999e-05   4.374606e+00   7.233207e+00   4.754199e+01   1.190036e+05  -7.667140e+04   7.438284e+05  -7.026529e+00  -1.090605e+01   2.489171e-22   7.571796e+05   3.438575e-43   0.000000e+00   0.000000e+00
     3600000   3.599999e-05   4.384126e+00   7.227073e+00   4.760149e+01   1.190036e+05  -7.667140e+04   7.438284e+05  -8.652107e+00  -1.342915e+01   2.658090e-22   7.571796e+05   5.213055e-43   0.000000e+00   0.000000e+00
     3608000   3.607999e-05   4.393646e+00   7.220940e+00   4.766100e+01   1.190036e+05  -7.667140e+04   7.438284e+05  -1.072562e+01  -1.664750e+01   2.168921e-21   7.571796e+05   8.011213e-43   0.000000e+00   0.000000e+00
     3616000   3.615999e-05   4.403166e+00   7.214806e+00   4.772051e+01   1.190036e+05  -7.667140e+04   7.438284e+05  -8.890155e+00  -1.379863e+01   4.516258e-22   7.571796e+05   5.504398e-43   0.000000e+00   0.000000e+00
     3624000   3.623999e-05   4.412687e+00   7.208672e+00   4.778001e+01   1.190036e+05  -7.667140e+04   7.438284e+05  -7.532523e+00  -1.169141e+01   3.522757e-22   7.571796e+05   3.951619e-43   0.000000e+00   0.000000e+00
     3632000   3.631999e-05   4.422207e+00   7.202539e+00   4.783952e+01   1.190036e+05  -7.667140e+04   7.438284e+05  -8.440645e+00  -1.310093e+01  -9.019050e-23   7.571796e+05   4.961515e-43   0.000000e+00   0.000000e+00
     3640000   3.639999e-05   4.431727e+00   7.196405e+00   4.789902e+01   1.190036e+05  -7.667140e+04   7.438284e+05  -7.066996e+00  -1.096886e+01   6.138840e-22   7.571796e+05   3.478185e-43   0.000000e+00   0.000000e+00
     3648000   3.647999e-05   4.441248e+00   7.190271e+00   4.795853e+01   1.190036e+05  -7.667140e+04   7.438284e+05  -1.094230e+01  -1.698381e+01   2.015212e-21   7.571796e+05   8.338453e-43   0.000000e+00   0.000000e+00
     3656000   3.655999e-05   4.450768e+00   7.184137e+00   4.801804e+01   1.190036e+05  -7.667140e+04   7.438284e+05  -7.874138e+00  -1.222164e+01  -6.337100e-22   7.571796e+05   4.318054e-43   0.000000e+00   0.000000e+00
     3664000   3.663999e-05   4.460288e+00   7.178004e+00   4.807754e+01   1.190036e+05  -7.667140e+04   7.438284e+05  -7.325865e+00  -1.137065e+01   1.995895e-21   7.571796e+05   3.737666e-43   0.000000e+00   0.000000e+00
     3672000   3.671999e-05   4.469808e+00   7.171870e+00   4.813705e+01   1.190036e+05  -7.667140e+04   7.438284e+05  -1.088312e+01  -1.689195e+01  -1.309706e-21   7.571796e+05   8.248499e-43   0.000000e+00   0.000000e+00
     3680000   3.679999e-05   4.479329e+00   7.165736e+00   4.819656e+01   1.190036e+05  -7.667140e+04   7.438284e+05  -1.149795e+01  -1.784625e+01  -2.045617e-21   7.571796e+05   9.206820e-43   0.000000e+00   0.000000e+00
     3688000   3.687999e-05   4.488849e+00   7.159603e+00   4.825606e+01   1.190036e+05  -7.667140e+04   7.438284e+05  -7.584733e+00  -1.177245e+01   3.232749e-22   7.571796e+05   4.006481e-43   0.000000e+00   0.000000e+00
     3696000   3.695999e-05   4.498369e+00   7.153469e+00   4.831557e+01   1.190036e+05  -7.667140e+04   7.438284e+05  -1.082393e+01  -1.680009e+01  -5.581643e-23   7.571796e+05   8.159033e-43   0.000000e+00   0.000000e+00
     3704000   3.703999e-05   4.507890e+00   7.147335e+00   4.837507e+01   1.190036e+05  -7.667140e+04   7.438284e+05  -6.120605e+00  -9.499942e+00  -6.601814e-22   7.571796e+05   2.609023e-43   0.000000e+00   0.000000e+00
     3712000   3.711999e-05   4.517410e+00   7.141201e+00   4.843458e+01   1.190036e+05  -7.667140e+04   7.438284e+05  -7.223993e+00  -1.121254e+01   1.385270e-21   7.571796e+05   3.634332e-43   0.000000e+00   0.000000e+00
     3720000   3.719999e-05   4.526930e+00   7.135068e+00   4.849409e+01   1.190036e+05  -7.667140e+04   7.438284e+05  -7.527647e+00  -1.168385e+01   1.745616e-21   7.571796e+05   3.946287e-43   0.000000e+00   0.000000e+00
     3728000   3.727999e-05   4.536450e+00   7.128934e+00   4.855359e+01   1.190036e+05  -7.667140e+04   7.438284e+05  -5.894949e+00  -9.149696e+00  -9.738660e-22   7.571796e+05   2.420192e-43   0.000000e+00   0.000000e+00
     3736000   3.735999e-05   4.545971e+00   7.122800e+00   4.861310e+01   1.190036e+05  -7.667140e+04   7.438284e+05  -5.897320e+00  -9.153375e+00   3.907064e-22   7.571796e+05   2.422024e-43   0.000000e+00   0.000000e+00
     3744000   3.743999e-05   4.555491e+00   7.116667e+00   4.867261e+01   1.190036e+05  -7.667140e+04   7.438284e+05  -6.200974e+00  -9.624685e+00  -1.163783e-23   7.571796e+05   2.677868e-43   0.000000e+00   0.000000e+00
     3752000   3.751999e-05   4.565011e+00   7.110533e+00   4.873211e+01   1.190036e+05  -7.667140e+04   7.438284e+05  -5.669294e+00  -8.799450e+00   2.398482e-22   7.571796e+05   2.238454e-43   0.000000e+00   0.000000e+00
     3760000   3.759999e-05   4.574532e+00   7.104399e+00   4.879162e+01   1.190036e+05  -7.667140e+04   7.438284e+05  -4.848197e+00  -7.525005e+00  -3.011221e-22   7.571796e+05   1.637018e-43   0.000000e+00   0.000000e+00
     3768000   3.767999e-05   4.584052e+00   7.098265e+00   4.885112e+01   1.190036e+05  -7.667140e+04   7.438284e+05  -7.349575e+00  -1.140746e+01  -2.673409e-22   7.571796e+05   3.761828e-43   0.000000e+00   0.000000e+00
     3776000   3.775999e-05   4.593572e+00   7.092132e+00   4.891063e+01   1.190036e+05  -7.667140e+04   7.438284e+05  -7.464359e+00  -1.158561e+01  -2.772623e-21   7.571796e+05   3.880277e-43   0.000000e+00   0.000000e+00
     3784000   3.783999e-05   4.603092e+00   7.085998e+00   4.897014e+01   1.190036e+05  -7.667140e+04   7.438284e+05  -5.886782e+00  -9.137020e+00  -1.563292e-21   7.571796e+05   2.413342e-43   0.000000e+00   0.000000e+00
     3792000   3.791999e-05   4.612613e+00   7.079864e+00   4.902964e+01   1.190036e+05  -7.667140e+04   7.438284e+05  -3.931341e+00  -6.101931e+00  -5.980831e-23   7.571796e+05   1.076387e-43   0.000000e+00   0.000000e+00
     3800000   3.799999e-05   4.622133e+00   7.073731e+00   4.908915e+01   1.190036e+05  -7.667140e+04   7.438284e+05  -3.479970e+00  -5.401347e+00   1.378045e-22   7.571796e+05   8.434117e-44   0.000000e+00   0.000000e+00
     3808000   3.807999e-05   4.631653e+00   7.067597e+00   4.914866e+01   1.190036e+05  -7.667140e+04   7.438284e+05  -6.069360e+00  -9.420403e+00   8.911164e-22   7.571796e+05   2.565365e-43   0.000000e+00   0.000000e+00
     3816000   3.815999e-05   4.641174e+00   7.061463e+00   4.920816e+01   1.190036e+05  -7.667140e+04   7.438284e+05  -4.278743e+00  -6.641141e+00  -8.318369e-23   7.571796e+05   1.275024e-43   0.000000e+00   0.000000e+00
     3824000   3.823999e-05   4.650694e+00   7.055329e+00   4.926767e+01   1.190036e+05  -7.667140e+04   7.438284e+05  -3.827371e+00  -5.940557e+00  -1.412368e-21   7.571796e+05   1.020208e-43   0.000000e+00   0.000000e+00
     3832000   3.831999e-05   4.660214e+00   7.049196e+00   4.932717e+01   1.190036e+05  -7.667140e+04   7.438284e+05  -6.251937e+00  -9.703786e+00   2.922697e-22   7.571796e+05   2.722030e-43   0.000000e+00   0.000000e+00
     3840000   3.839999e-05   4.669734e+00   7.043062e+00   4.938668e+01   1.190036e+05  -7.667140e+04   7.438284e+05  -6.879968e+00  -1.067857e+01  -6.231924e-22   7.571796e+05   3.296382e-43   0.000000e+00   0.000000e+00
     3848000   3.847999e-05   4.679255e+00   7.036928e+00   4.944619e+01   1.190036e+05  -7.667140e+04   7.438284e+05  -4.174773e+00  -6.479768e+00  -6.736293e-22   7.571796e+05   1.213814e-43   0.000000e+00   0.000000e+00
     3856000   3.855999e-05   4.688775e+00   7.030795e+00   4.950569e+01   1.190036e+05  -7.667140e+04   7.438284e+05  -6.434515e+00  -9.987168e+00  -1.834772e-21   7.571796e+05   2.883338e-43   0.000000e+00   0.000000e+00
     3864000   3.863999e-05   4.698295e+00   7.024661e+00   4.956520e+01   1.190036e+05  -7.667140e+04   7.438284e+05  -7.062546e+00  -1.096195e+01  -4.619901e-22   7.571796e+05   3.473661e-43   0.000000e+00   0.000000e+00
     3872000   3.871999e-05   4.707816e+00   7.018527e+00   4.962471e+01   1.190050e+05  -7.667307e+04   7.438280e+05   2.965992e+07  -3.347098e+07  -8.195447e+06   7.571796e+05   4.221942e-30   0.000000e+00   0.000000e+00
     3880000   3.879999e-05   4.717336e+00   7.012393e+00   4.968421e+01   1.190085e+05  -7.667701e+04   7.438270e+05   5.769489e+07  -6.510822e+07  -1.594254e+07   7.571796e+05   1.597710e-29   0.000000e+00   0.000000e+00
     3888000   3.887999e-05   4.726857e+00   7.006259e+00   4.974372e+01   1.190175e+05  -7.668710e+04   7.438245e+05   1.580196e+08  -1.781363e+08  -4.364988e+07   7.571796e+05   1.197129e-28   0.000000e+00   0.000000e+00
     3896000   3.895999e-05   4.736379e+00   7.000123e+00   4.980322e+01   1.190330e+05  -7.670463e+04   7.438202e+05   1.977771e+08  -2.227443e+08  -5.462010e+07   7.571796e+05   1.873854e-28   0.000000e+00   0.000000e+00
     3904000   3.903999e-05   4.745902e+00   6.993986e+00   4.986273e+01   1.190422e+05  -7.671495e+04   7.438177e+05   4.840018e+07  -5.496387e+07  -1.341487e+07   7.571796e+05   1.133228e-29   0.000000e+00   0.000000e+00
     3912000   3.911999e-05   4.755426e+00   6.987849e+00   4.992223e+01   1.190426e+05  -7.671539e+04   7.438176e+05   0.000000e+00   0.000000e+00   0.000000e+00   7.571796e+05   0.000000e+00   0.000000e+00   0.000000e+00
     3920000   3.919999e-05   4.764949e+00   6.981712e+00   4.998174e+01   1.190426e+05  -7.671539e+04   7.438176e+05   0.000000e+00   0.000000e+00   0.000000e+00   7.571796e+05   0.000000e+00   0.000000e+00   0.000000e+00
