     timestep     time              x             y              z              vx             vy             vz             ax             ay             az         v_magnitude      ELoss        Electronic      Nuclear
           0   0.000000e+00   1.000000e-01   1.004951e+01   1.121375e+00   1.811255e+04  -1.401312e+04  -1.456409e+05   0.000000e+00   0.000000e+00   0.000000e+00   1.474304e+05   0.000000e+00   0.000000e+00   0.000000e+00
        8000   7.999000e-08   1.014490e-01   1.004839e+01   1.109724e+00   1.811255e+04  -1.401312e+04  -1.456409e+05   0.000000e+00   0.000000e+00   0.000000e+00   1.474304e+05   0.000000e+00   0.000000e+00   0.000000e+00
       16000   1.599900e-07   1.028980e-01   1.004727e+01   1.098072e+00   1.811255e+04  -1.401312e+04  -1.456409e+05   0.000000e+00   0.000000e+00   0.000000e+00   1.474304e+05   0.000000e+00   0.000000e+00   0.000000e+00
       24000   2.399900e-07   1.043470e-01   1.004615e+01   1.086421e+00   1.811255e+04  -1.401312e+04  -1.456409e+05   0.000000e+00   0.000000e+00   0.000000e+00   1.474304e+05   0.000000e+00   0.000000e+00   0.000000e+00
       32000   3.199900e-07   1.057960e-01   1.004502e+01   1.074770e+00   1.811255e+04  -1.401312e+04  -1.456409e+05   0.000000e+00   0.000000e+00   0.000000e+00   1.474304e+05   0.000000e+00   0.000000e+00   0.000000e+00
       40000   3.999900e-07   1.072450e-01   1.004390e+01   1.063119e+00   1.811255e+04  -1.401312e+04  -1.456409e+05   0.000000e+00   0.000000e+00   0.000000e+00   1.474304e+05   0.000000e+00   0.000000e+00   0.000000e+00
       48000   4.799900e-07   1.086940e-01   1.004278e+01   1.051467e+00   1.811255e+04  -1.401312e+04  -1.456409e+05   0.000000e+00   0.000000e+00   0.000000e+00   1.474304e+05   0.000000e+00   0.000000e+00   0.000000e+00
       56000   5.599900e-07   1.101430e-01   1.004166e+01   1.039816e+00   1.811255e+04  -1.401312e+04  -1.456409e+05   0.000000e+00   0.000000e+00   0.000000e+00   1.474304e+05   0.000000e+00   0.000000e+00   0.000000e+00
       64000   6.399900e-07   1.115920e-01   1.004054e+01   1.028165e+00   1.811255e+04  -1.401312e+04  -1.456409e+05   0.000000e+00   0.000000e+00   0.000000e+00   1.474304e+05   0.000000e+00   0.000000e+00   0.000000e+00
       72000   7.199900e-07   1.130410e-01   1.003942e+01   1.016514e+00   1.811255e+04  -1.401312e+04  -1.456409e+05   0.000000e+00   0.000000e+00   0.000000e+00   1.474304e+05   0.000000e+00   0.000000e+00   0.000000e+00
       80000   7.999900e-07   1.144900e-01   1.003830e+01   1.004862e+00   1.811255e+04  -1.401312e+04  -1.456409e+05   0.000000e+00   0.000000e+00   0.000000e+00   1.474304e+05   0.000000e+00   0.000000e+00   0.000000e+00
       88000   8.799900e-07   1.159390e-01   1.003718e+01   9.932110e-01   1.811255e+04  -1.401312e+04  -1.456409e+05   0.000000e+00   0.000000e+00   0.000000e+00   1.474304e+05   0.000000e+00   0.000000e+00   0.000000e+00
       96000   9.599900e-07   1.173881e-01   1.003606e+01   9.815597e-01   1.811255e+04  -1.401312e+04  -1.456409e+05   0.000000e+00   0.000000e+00   0.000000e+00   1.474304e+05   0.000000e+00   0.000000e+00   0.000000e+00
      104000   1.039990e-06   1.188371e-01   1.003494e+01   9.699084e-01   1.811255e+04  -1.401312e+04  -1.456409e+05   0.000000e+00   0.000000e+00   0.000000e+00   1.474304e+05   0.000000e+00   0.000000e+00   0.000000e+00
      112000   1.119990e-06   1.202861e-01   1.003381e+01   9.582572e-01   1.811255e+04  -1.401312e+04  -1.456409e+05   0.000000e+00   0.000000e+00   0.000000e+00   1.474304e+05   0.000000e+00   0.000000e+00   0.000000e+00
      120000   1.199990e-06   1.217351e-01   1.003269e+01   9.466059e-01   1.811255e+04  -1.401312e+04  -1.456409e+05   0.000000e+00   0.000000e+00   0.000000e+00   1.474304e+05   0.000000e+00   0.000000e+00   0.000000e+00
      128000   1.279990e-06   1.231841e-01   1.003157e+01   9.349546e-01   1.811255e+04  -1.401312e+04  -1.456409e+05   0.000000e+00   0.000000e+00   0.000000e+00   1.474304e+05   0.000000e+00   0.000000e+00   0.000000e+00
      136000   1.359990e-06   1.246331e-01   1.003045e+01   9.233033e-01   1.811255e+04  -1.401312e+04  -1.456409e+05   0.000000e+00   0.000000e+00   0.000000e+00   1.474304e+05   0.000000e+00   0.000000e+00   0.000000e+00
      144000   1.439990e-06   1.260821e-01   1.002933e+01   9.116521e-01   1.811255e+04  -1.401312e+04  -1.456409e+05   0.000000e+00   0.000000e+00   0.000000e+00   1.474304e+05   0.000000e+00   0.000000e+00   0.000000e+00
      152000   1.519990e-06   1.275311e-01   1.002821e+01   9.000008e-01   1.811255e+04  -1.401312e+04  -1.456409e+05   0.000000e+00   0.000000e+00   0.000000e+00   1.474304e+05   0.000000e+00   0.000000e+00   0.000000e+00
      160000   1.599990e-06   1.289801e-01   1.002709e+01   8.883495e-01   1.811255e+04  -1.401312e+04  -1.456409e+05   0.000000e+00   0.000000e+00   0.000000e+00   1.474304e+05   0.000000e+00   0.000000e+00   0.000000e+00
      168000   1.679990e-06   1.304291e-01   1.002597e+01   8.766982e-01   1.811255e+04  -1.401312e+04  -1.456409e+05   0.000000e+00   0.000000e+00   0.000000e+00   1.474304e+05   0.000000e+00   0.000000e+00   0.000000e+00
      176000   1.759990e-06   1.318781e-01   1.002485e+01   8.650470e-01   1.811255e+04  -1.401312e+04  -1.456409e+05   0.000000e+00   0.000000e+00   0.000000e+00   1.474304e+05   0.000000e+00   0.000000e+00   0.000000e+00
      184000   1.839990e-06   1.333271e-01   1.002372e+01   8.533957e-01   1.811255e+04  -1.401312e+04  -1.456409e+05   0.000000e+00   0.000000e+00   0.000000e+00   1.474304e+05   0.000000e+00   0.000000e+00   0.000000e+00
      192000   1.919990e-06   1.347761e-01   1.002260e+01   8.417444e-01   1.811255e+04  -1.401312e+04  -1.456409e+05   0.000000e+00   0.000000e+00   0.000000e+00   1.474304e+05   0.000000e+00   0.000000e+00   0.000000e+00
      200000   1.999990e-06   1.362251e-01   1.002148e+01   8.300931e-01   1.811255e+04  -1.401312e+04  -1.456409e+05   0.000000e+00   0.000000e+00   0.000000e+00   1.474304e+05   0.000000e+00   0.000000e+00   0.000000e+00
      208000   2.079990e-06   1.376741e-01   1.002036e+01   8.184419e-01   1.811255e+04  -1.401312e+04  -1.456409e+05   0.000000e+00   0.000000e+00   0.000000e+00   1.474304e+05   0.000000e+00   0.000000e+00   0.000000e+00
      216000   2.159990e-06   1.391231e-01   1.001924e+01   8.067906e-01   1.811255e+04  -1.401312e+04  -1.456409e+05   0.000000e+00   0.000000e+00   0.000000e+00   1.474304e+05   0.000000e+00   0.000000e+00   0.000000e+00
      224000   2.239990e-06   1.405721e-01   1.001812e+01   7.951393e-01   1.811255e+04  -1.401312e+04  -1.456409e+05   0.000000e+00   0.000000e+00   0.000000e+00   1.474304e+05   0.000000e+00   0.000000e+00   0.000000e+00
      232000   2.319990e-06   1.420211e-01   1.001700e+01   7.834880e-01   1.811255e+04  -1.401312e+04  -1.456409e+05   0.000000e+00   0.000000e+00   0.000000e+00   1.474304e+05   0.000000e+00   0.000000e+00   0.000000e+00
      240000   2.399990e-06   1.434701e-01   1.001588e+01   7.718368e-01   1.811255e+04  -1.401312e+04  -1.456409e+05   0.000000e+00   0.000000e+00   0.000000e+00   1.474304e+05   0.000000e+00   0.000000e+00   0.000000e+00
      248000   2.479990e-06   1.449191e-01   1.001476e+01   7.601855e-01   1.811255e+04  -1.401312e+04  -1.456409e+05   0.000000e+00   0.000000e+00   0.000000e+00   1.474304e+05   0.000000e+00   0.000000e+00   0.000000e+00
      256000   2.559990e-06   1.463681e-01   1.001364e+01   7.485342e-01   1.811255e+04  -1.401312e+04  -1.456409e+05   0.000000e+00   0.000000e+00   0.000000e+00   1.474304e+05   0.000000e+00   0.000000e+00   0.000000e+00
      264000   2.639990e-06   1.478171e-01   1.001251e+01   7.368829e-01   1.811255e+04  -1.401312e+04  -1.456409e+05   0.000000e+00   0.000000e+00   0.000000e+00   1.474304e+05   0.000000e+00   0.000000e+00   0.000000e+00
      272000   2.719990e-06   1.492661e-01   1.001139e+01   7.252317e-01   1.811255e+04  -1.401312e+04  -1.456409e+05   0.000000e+00   0.000000e+00   0.000000e+00   1.474304e+05   0.000000e+00   0.000000e+00   0.000000e+00
      280000   2.799990e-06   1.507151e-01   1.001027e+01   7.135804e-01   1.811255e+04  -1.401312e+04  -1.456409e+05   0.000000e+00   0.000000e+00   0.000000e+00   1.474304e+05   0.000000e+00   0.000000e+00   0.000000e+00
      288000   2.879990e-06   1.521642e-01   1.000915e+01   7.019291e-01   1.811255e+04  -1.401312e+04  -1.456409e+05   0.000000e+00   0.000000e+00   0.000000e+00   1.474304e+05   0.000000e+00   0.000000e+00   0.000000e+00
      296000   2.959990e-06   1.536132e-01   1.000803e+01   6.902778e-01   1.811255e+04  -1.401312e+04  -1.456409e+05   0.000000e+00   0.000000e+00   0.000000e+00   1.474304e+05   0.000000e+00   0.000000e+00   0.000000e+00
      304000   3.039990e-06   1.550622e-01   1.000691e+01   6.786266e-01   1.811255e+04  -1.401312e+04  -1.456409e+05   0.000000e+00   0.000000e+00   0.000000e+00   1.474304e+05   0.000000e+00   0.000000e+00   0.000000e+00
      312000   3.119990e-06   1.565112e-01   1.000579e+01   6.669753e-01   1.811255e+04  -1.401312e+04  -1.456409e+05   0.000000e+00   0.000000e+00   0.000000e+00   1.474304e+05   0.000000e+00   0.000000e+00   0.000000e+00
      320000   3.199990e-06   1.579602e-01   1.000467e+01   6.553240e-01   1.811255e+04  -1.401312e+04  -1.456409e+05   0.000000e+00   0.000000e+00   0.000000e+00   1.474304e+05   0.000000e+00   0.000000e+00   0.000000e+00
      328000   3.279990e-06   1.594092e-01   1.000355e+01   6.436727e-01   1.811255e+04  -1.401312e+04  -1.456409e+05   0.000000e+00   0.000000e+00   0.000000e+00   1.474304e+05   0.000000e+00   0.000000e+00   0.000000e+00
      336000   3.359990e-06   1.608582e-01   1.000242e+01   6.320215e-01   1.811255e+04  -1.401312e+04  -1.456409e+05   0.000000e+00   0.000000e+00   0.000000e+00   1.474304e+05   0.000000e+00   0.000000e+00   0.000000e+00
      344000   3.439990e-06   1.623072e-01   1.000130e+01   6.203702e-01   1.811255e+04  -1.401312e+04  -1.456409e+05   0.000000e+00   0.000000e+00   0.000000e+00   1.474304e+05   0.000000e+00   0.000000e+00   0.000000e+00
      352000   3.519990e-06   1.637562e-01   1.000018e+01   6.087189e-01   1.811255e+04  -1.401312e+04  -1.456409e+05   0.000000e+00   0.000000e+00   0.000000e+00   1.474304e+05   0.000000e+00   0.000000e+00   0.000000e+00
      360000   3.599990e-06   1.652052e-01   9.999062e+00   5.970676e-01   1.811255e+04  -1.401312e+04  -1.456409e+05   0.000000e+00   0.000000e+00   0.000000e+00   1.474304e+05   0.000000e+00   0.000000e+00   0.000000e+00
      368000   3.679990e-06   1.666542e-01   9.997941e+00   5.854164e-01   1.811255e+04  -1.401312e+04  -1.456409e+05   0.000000e+00   0.000000e+00   0.000000e+00   1.474304e+05   0.000000e+00   0.000000e+00   0.000000e+00
      376000   3.759990e-06   1.681032e-01   9.996820e+00   5.737651e-01   1.811255e+04  -1.401312e+04  -1.456409e+05   0.000000e+00   0.000000e+00   0.000000e+00   1.474304e+05   0.000000e+00   0.000000e+00   0.000000e+00
      384000   3.839990e-06   1.695522e-01   9.995699e+00   5.621138e-01   1.811255e+04  -1.401312e+04  -1.456409e+05   0.000000e+00   0.000000e+00   0.000000e+00   1.474304e+05   0.000000e+00   0.000000e+00   0.000000e+00
      392000   3.919990e-06   1.710012e-01   9.994578e+00   5.504625e-01   1.811255e+04  -1.401312e+04  -1.456409e+05   0.000000e+00   0.000000e+00   0.000000e+00   1.474304e+05   0.000000e+00   0.000000e+00   0.000000e+00
      400000   3.999990e-06   1.724502e-01   9.993457e+00   5.388113e-01   1.811255e+04  -1.401312e+04  -1.456409e+05   0.000000e+00   0.000000e+00   0.000000e+00   1.474304e+05   0.000000e+00   0.000000e+00   0.000000e+00
      408000   4.079990e-06   1.738992e-01   9.992335e+00   5.271600e-01   1.811255e+04  -1.401312e+04  -1.456409e+05   0.000000e+00   0.000000e+00   0.000000e+00   1.474304e+05   0.000000e+00   0.000000e+00   0.000000e+00
      416000   4.159990e-06   1.753482e-01   9.991214e+00   5.155087e-01   1.811255e+04  -1.401312e+04  -1.456409e+05   0.000000e+00   0.000000e+00   0.000000e+00   1.474304e+05   0.000000e+00   0.000000e+00   0.000000e+00
      424000   4.239990e-06   1.767972e-01   9.990093e+00   5.038574e-01   1.811255e+04  -1.401312e+04  -1.456409e+05   0.000000e+00   0.000000e+00   0.000000e+00   1.474304e+05   0.000000e+00   0.000000e+00   0.000000e+00
      432000   4.319990e-06   1.782462e-01   9.988972e+00   4.922062e-01   1.811255e+04  -1.401312e+04  -1.456409e+05   0.000000e+00   0.000000e+00   0.000000e+00   1.474304e+05   0.000000e+00   0.000000e+00   0.000000e+00
      440000   4.399990e-06   1.796952e-01   9.987851e+00   4.805549e-01   1.811255e+04  -1.401312e+04  -1.456409e+05   0.000000e+00   0.000000e+00   0.000000e+00   1.474304e+05   0.000000e+00   0.000000e+00   0.000000e+00
      448000   4.479990e-06   1.811442e-01   9.986730e+00   4.689036e-01   1.811255e+04  -1.401312e+04  -1.456409e+05   0.000000e+00   0.000000e+00   0.000000e+00   1.474304e+05   0.000000e+00   0.000000e+00   0.000000e+00
      456000   4.559990e-06   1.825932e-01   9.985609e+00   4.572523e-01   1.811255e+04  -1.401312e+04  -1.456409e+05   0.000000e+00   0.000000e+00   0.000000e+00   1.474304e+05   0.000000e+00   0.000000e+00   0.000000e+00
      464000   4.639990e-06   1.840422e-01   9.984488e+00   4.456011e-01   1.811255e+04  -1.401312e+04  -1.456409e+05   0.000000e+00   0.000000e+00   0.000000e+00   1.474304e+05   0.000000e+00   0.000000e+00   0.000000e+00
      472000   4.719990e-06   1.854912e-01   9.983367e+00   4.339498e-01   1.811255e+04  -1.401312e+04  -1.456409e+05   0.000000e+00   0.000000e+00   0.000000e+00   1.474304e+05   0.000000e+00   0.000000e+00   0.000000e+00
      480000   4.799990e-06   1.869403e-01   9.982246e+00   4.222985e-01   1.811255e+04  -1.401312e+04  -1.456409e+05   0.000000e+00   0.000000e+00   0.000000e+00   1.474304e+05   0.000000e+00   0.000000e+00   0.000000e+00
      488000   4.879990e-06   1.883893e-01   9.981125e+00   4.106472e-01   1.811255e+04  -1.401312e+04  -1.456409e+05   0.000000e+00   0.000000e+00   0.000000e+00   1.474304e+05   0.000000e+00   0.000000e+00   0.000000e+00
      496000   4.959990e-06   1.898383e-01   9.980004e+00   3.989960e-01   1.811255e+04  -1.401312e+04  -1.456409e+05   0.000000e+00   0.000000e+00   0.000000e+00   1.474304e+05   0.000000e+00   0.000000e+00   0.000000e+00
      504000   5.039990e-06   1.912873e-01   9.978883e+00   3.873447e-01   1.811255e+04  -1.401312e+04  -1.456409e+05   0.000000e+00   0.000000e+00   0.000000e+00   1.474304e+05   0.000000e+00   0.000000e+00   0.000000e+00
      512000   5.119990e-06   1.927363e-01   9.977762e+00   3.756934e-01   1.811255e+04  -1.401312e+04  -1.456409e+05   0.000000e+00   0.000000e+00   0.000000e+00   1.474304e+05   0.000000e+00   0.000000e+00   0.000000e+00
      520000   5.199990e-06   1.941853e-01   9.976641e+00   3.640421e-01   1.811255e+04  -1.401312e+04  -1.456409e+05   0.000000e+00   0.000000e+00   0.000000e+00   1.474304e+05   0.000000e+00   0.000000e+00   0.000000e+00
      528000   5.279990e-06   1.956343e-01   9.975520e+00   3.523909e-01   1.811255e+04  -1.401312e+04  -1.456409e+05   0.000000e+00   0.000000e+00   0.000000e+00   1.474304e+05   0.000000e+00   0.000000e+00   0.000000e+00
      536000   5.359990e-06   1.970833e-01   9.974399e+00   3.407396e-01   1.811255e+04  -1.401312e+04  -1.456409e+05   0.000000e+00   0.000000e+00   0.000000e+00   1.474304e+05   0.000000e+00   0.000000e+00   0.000000e+00
      544000   5.439990e-06   1.985323e-01   9.973278e+00   3.290883e-01   1.811255e+04  -1.401312e+04  -1.456409e+05   0.000000e+00   0.000000e+00   0.000000e+00   1.474304e+05   0.000000e+00   0.000000e+00   0.000000e+00
      552000   5.519990e-06   1.999813e-01   9.972157e+00   3.174370e-01   1.811255e+04  -1.401312e+04  -1.456409e+05   0.000000e+00   0.000000e+00   0.000000e+00   1.474304e+05   0.000000e+00   0.000000e+00   0.000000e+00
      560000   5.599990e-06   2.014303e-01   9.971036e+00   3.057858e-01   1.811255e+04  -1.401312e+04  -1.456409e+05   0.000000e+00   0.000000e+00   0.000000e+00   1.474304e+05   0.000000e+00   0.000000e+00   0.000000e+00
      568000   5.679990e-06   2.028793e-01   9.969914e+00   2.941345e-01   1.811255e+04  -1.401312e+04  -1.456409e+05   0.000000e+00   0.000000e+00   0.000000e+00   1.474304e+05   0.000000e+00   0.000000e+00   0.000000e+00
      576000   5.759990e-06   2.043283e-01   9.968793e+00   2.824832e-01   1.811255e+04  -1.401312e+04  -1.456409e+05   0.000000e+00   0.000000e+00   0.000000e+00   1.474304e+05   0.000000e+00   0.000000e+00   0.000000e+00
      584000   5.839990e-06   2.057773e-01   9.967672e+00   2.708319e-01   1.811255e+04  -1.401312e+04  -1.456409e+05   0.000000e+00   0.000000e+00   0.000000e+00   1.474304e+05   0.000000e+00   0.000000e+00   0.000000e+00
      592000   5.919990e-06   2.072263e-01   9.966551e+00   2.591807e-01   1.811255e+04  -1.401312e+04  -1.456409e+05   0.000000e+00   0.000000e+00   0.000000e+00   1.474304e+05   0.000000e+00   0.000000e+00   0.000000e+00
      600000   5.999990e-06   2.086753e-01   9.965430e+00   2.475294e-01   1.811255e+04  -1.401312e+04  -1.456409e+05   0.000000e+00   0.000000e+00   0.000000e+00   1.474304e+05   0.000000e+00   0.000000e+00   0.000000e+00
      608000   6.079990e-06   2.101243e-01   9.964309e+00   2.358781e-01   1.811255e+04  -1.401312e+04  -1.456409e+05   0.000000e+00   0.000000e+00   0.000000e+00   1.474304e+05   0.000000e+00   0.000000e+00   0.000000e+00
      616000   6.159990e-06   2.115733e-01   9.963188e+00   2.242268e-01   1.811255e+04  -1.401312e+04  -1.456409e+05   0.000000e+00   0.000000e+00   0.000000e+00   1.474304e+05   0.000000e+00   0.000000e+00   0.000000e+00
      624000   6.239990e-06   2.130223e-01   9.962067e+00   2.125756e-01   1.811255e+04  -1.401312e+04  -1.456409e+05   0.000000e+00   0.000000e+00   0.000000e+00   1.474304e+05   0.000000e+00   0.000000e+00   0.000000e+00
      632000   6.319990e-06   2.144713e-01   9.960946e+00   2.009243e-01   1.811255e+04  -1.401312e+04  -1.456409e+05   0.000000e+00   0.000000e+00   0.000000e+00   1.474304e+05   0.000000e+00   0.000000e+00   0.000000e+00
      640000   6.399990e-06   2.159203e-01   9.959825e+00   1.892730e-01   1.811255e+04  -1.401312e+04  -1.456409e+05   0.000000e+00   0.000000e+00   0.000000e+00   1.474304e+05   0.000000e+00   0.000000e+00   0.000000e+00
      648000   6.479990e-06   2.173693e-01   9.958704e+00   1.776217e-01   1.811255e+04  -1.401312e+04  -1.456409e+05   0.000000e+00   0.000000e+00   0.000000e+00   1.474304e+05   0.000000e+00   0.000000e+00   0.000000e+00
      656000   6.559990e-06   2.188183e-01   9.957583e+00   1.659705e-01   1.811255e+04  -1.401312e+04  -1.456409e+05   0.000000e+00   0.000000e+00   0.000000e+00   1.474304e+05   0.000000e+00   0.000000e+00   0.000000e+00
      664000   6.639990e-06   2.202673e-01   9.956462e+00   1.543192e-01   1.811255e+04  -1.401312e+04  -1.456409e+05   0.000000e+00   0.000000e+00   0.000000e+00   1.474304e+05   0.000000e+00   0.000000e+00   0.000000e+00
      672000   6.719990e-06   2.217164e-01   9.955341e+00   1.426679e-01   1.811255e+04  -1.401312e+04  -1.456409e+05   0.000000e+00   0.000000e+00   0.000000e+00   1.474304e+05   0.000000e+00   0.000000e+00   0.000000e+00
      680000   6.799990e-06   2.231654e-01   9.954220e+00   1.310166e-01   1.811255e+04  -1.401312e+04  -1.456409e+05   0.000000e+00   0.000000e+00   0.000000e+00   1.474304e+05   0.000000e+00   0.000000e+00   0.000000e+00
      688000   6.879990e-06   2.246144e-01   9.953099e+00   1.193654e-01   1.811255e+04  -1.401312e+04  -1.456409e+05   0.000000e+00   0.000000e+00   0.000000e+00   1.474304e+05   0.000000e+00   0.000000e+00   0.000000e+00
      696000   6.959990e-06   2.260634e-01   9.951978e+00   1.077141e-01   1.811255e+04  -1.401312e+04  -1.456409e+05   0.000000e+00   0.000000e+00   0.000000e+00   1.474304e+05   0.000000e+00   0.000000e+00   0.000000e+00
      704000   7.039990e-06   2.275124e-01   9.950857e+00   9.606281e-02   1.811255e+04  -1.401312e+04  -1.456409e+05   0.000000e+00   0.000000e+00   0.000000e+00   1.474304e+05   0.000000e+00   0.000000e+00   0.000000e+00
      712000   7.119990e-06   2.289614e-01   9.949736e+00   8.441154e-02   1.811255e+04  -1.401312e+04  -1.456409e+05   0.000000e+00   0.000000e+00   0.000000e+00   1.474304e+05   0.000000e+00   0.000000e+00   0.000000e+00
      720000   7.199990e-06   2.304104e-01   9.948615e+00   7.276026e-02   1.811255e+04  -1.401312e+04  -1.456409e+05   0.000000e+00   0.000000e+00   0.000000e+00   1.474304e+05   0.000000e+00   0.000000e+00   0.000000e+00
      728000   7.279990e-06   2.318594e-01   9.947493e+00   6.110899e-02   1.811255e+04  -1.401312e+04  -1.456409e+05   0.000000e+00   0.000000e+00   0.000000e+00   1.474304e+05   0.000000e+00   0.000000e+00   0.000000e+00
      736000   7.359990e-06   2.333084e-01   9.946372e+00   4.945772e-02   1.811255e+04  -1.401312e+04  -1.456409e+05   0.000000e+00   0.000000e+00   0.000000e+00   1.474304e+05   0.000000e+00   0.000000e+00   0.000000e+00
      744000   7.439990e-06   2.347574e-01   9.945251e+00   3.780644e-02   1.811255e+04  -1.401312e+04  -1.456409e+05   0.000000e+00   0.000000e+00   0.000000e+00   1.474304e+05   0.000000e+00   0.000000e+00   0.000000e+00
      752000   7.519990e-06   2.362064e-01   9.944130e+00   2.615517e-02   1.811255e+04  -1.401312e+04  -1.456409e+05   0.000000e+00   0.000000e+00   0.000000e+00   1.474304e+05   0.000000e+00   0.000000e+00   0.000000e+00
      760000   7.599990e-06   2.376554e-01   9.943009e+00   1.450389e-02   1.811255e+04  -1.401312e+04  -1.456409e+05   0.000000e+00   0.000000e+00   0.000000e+00   1.474304e+05   0.000000e+00   0.000000e+00   0.000000e+00
      768000   7.679990e-06   2.391044e-01   9.941888e+00   2.852616e-03   1.811255e+04  -1.401312e+04  -1.456409e+05   0.000000e+00   0.000000e+00   0.000000e+00   1.474304e+05   0.000000e+00   0.000000e+00   0.000000e+00
