     timestep     time              x             y              z              vx             vy             vz             ax             ay             az         v_magnitude      ELoss        Electronic      Nuclear
           0   0.000000e+00   1.000000e-01   7.492126e+00   2.031257e+01  -1.452614e+04  -5.171672e+04   1.372956e+05   0.000000e+00   0.000000e+00   0.000000e+00   1.474304e+05   0.000000e+00   0.000000e+00   0.000000e+00
        8000   7.999000e-08   9.883793e-02   7.487989e+00   2.032356e+01  -1.452553e+04  -5.171689e+04   1.372956e+05   7.682209e+06  -2.157673e+06  -5.029141e-17   1.474304e+05   4.931184e-33   0.000000e+00   0.000000e+00
       16000   1.599900e-07   9.767592e-02   7.483851e+00   2.033454e+01  -1.452491e+04  -5.171706e+04   1.372956e+05   7.911537e+06  -2.221981e+06   1.213029e-18   1.474304e+05   5.229955e-33   0.000000e+00   0.000000e+00
       24000   2.399900e-07   9.651395e-02   7.479714e+00   2.034552e+01  -1.452427e+04  -5.171725e+04   1.372956e+05   8.140863e+06  -2.286279e+06   1.359605e-17   1.474304e+05   5.537505e-33   0.000000e+00   0.000000e+00
       32000   3.199900e-07   9.535203e-02   7.475577e+00   2.035651e+01  -1.452360e+04  -5.171743e+04   1.372956e+05   8.370187e+06  -2.350567e+06  -7.694436e-17   1.474304e+05   5.853835e-33   0.000000e+00   0.000000e+00
       40000   3.999900e-07   9.419017e-02   7.471439e+00   2.036749e+01  -1.452293e+04  -5.171762e+04   1.372956e+05   8.599507e+06  -2.414844e+06  -8.987055e-18   1.474304e+05   6.178943e-33   0.000000e+00   0.000000e+00
       48000   4.799900e-07   9.302837e-02   7.467302e+00   2.037848e+01  -1.452223e+04  -5.171782e+04   1.372956e+05   8.828825e+06  -2.479111e+06   2.874347e-17   1.474304e+05   6.512829e-33   0.000000e+00   0.000000e+00
       56000   5.599900e-07   9.186662e-02   7.463164e+00   2.038946e+01  -1.452151e+04  -5.171802e+04   1.372956e+05   9.058140e+06  -2.543367e+06   7.270191e-17   1.474304e+05   6.855491e-33   0.000000e+00   0.000000e+00
       64000   6.399900e-07   9.070492e-02   7.459027e+00   2.040044e+01  -1.452077e+04  -5.171823e+04   1.372956e+05   1.212391e+07  -3.403994e+06  -2.943731e-17   1.474304e+05   1.228135e-32   0.000000e+00   0.000000e+00
       72000   7.199900e-07   8.954330e-02   7.454889e+00   2.041143e+01  -1.451980e+04  -5.171850e+04   1.372956e+05   1.204266e+07  -3.380937e+06  -7.362079e-17   1.474304e+05   1.211715e-32   0.000000e+00   0.000000e+00
       80000   7.999900e-07   8.838176e-02   7.450752e+00   2.042241e+01  -1.451884e+04  -5.171877e+04   1.372956e+05   1.196139e+07  -3.357884e+06   2.187136e-17   1.474304e+05   1.195405e-32   0.000000e+00   0.000000e+00
       88000   8.799900e-07   8.722029e-02   7.446614e+00   2.043339e+01  -1.451789e+04  -5.171904e+04   1.372956e+05   1.188013e+07  -3.334834e+06   4.075634e-17   1.474304e+05   1.179205e-32   0.000000e+00   0.000000e+00
       96000   9.599900e-07   8.605889e-02   7.442477e+00   2.044438e+01  -1.451694e+04  -5.171930e+04   1.372956e+05   1.179886e+07  -3.311789e+06   1.687833e-17   1.474304e+05   1.163115e-32   0.000000e+00   0.000000e+00
      104000   1.039990e-06   8.489758e-02   7.438339e+00   2.045536e+01  -1.451600e+04  -5.171957e+04   1.372956e+05   1.171759e+07  -3.288747e+06   1.341606e-16   1.474304e+05   1.147135e-32   0.000000e+00   0.000000e+00
      112000   1.119990e-06   8.373633e-02   7.434202e+00   2.046635e+01  -1.451507e+04  -5.171983e+04   1.372956e+05   1.163631e+07  -3.265708e+06   2.627015e-17   1.474304e+05   1.131265e-32   0.000000e+00   0.000000e+00
      120000   1.199990e-06   8.257516e-02   7.430064e+00   2.047733e+01  -1.451414e+04  -5.172009e+04   1.372956e+05   1.155503e+07  -3.242674e+06  -7.283189e-17   1.474304e+05   1.115505e-32   0.000000e+00   0.000000e+00
      128000   1.279990e-06   8.141407e-02   7.425926e+00   2.048831e+01  -1.451322e+04  -5.172035e+04   1.372956e+05   1.147375e+07  -3.219643e+06   2.079899e-17   1.474304e+05   1.099856e-32   0.000000e+00   0.000000e+00
      136000   1.359990e-06   8.025305e-02   7.421789e+00   2.049930e+01  -1.451230e+04  -5.172060e+04   1.372956e+05   1.139246e+07  -3.196616e+06  -5.914903e-17   1.474304e+05   1.084316e-32   0.000000e+00   0.000000e+00
      144000   1.439990e-06   7.909209e-02   7.417651e+00   2.051028e+01  -1.451166e+04  -5.172078e+04   1.372956e+05   7.972271e+06  -2.236835e+06   1.649012e-17   1.474304e+05   5.309796e-33   0.000000e+00   0.000000e+00
      152000   1.519990e-06   7.793118e-02   7.413514e+00   2.052126e+01  -1.451101e+04  -5.172097e+04   1.372956e+05   8.201510e+06  -2.301043e+06  -2.877403e-17   1.474304e+05   5.619509e-33   0.000000e+00   0.000000e+00
      160000   1.599990e-06   7.677033e-02   7.409376e+00   2.053225e+01  -1.451035e+04  -5.172115e+04   1.372956e+05   8.430745e+06  -2.365242e+06   4.722334e-17   1.474304e+05   5.937992e-33   0.000000e+00   0.000000e+00
      168000   1.679990e-06   7.560953e-02   7.405238e+00   2.054323e+01  -1.450966e+04  -5.172134e+04   1.372956e+05   8.659978e+06  -2.429429e+06   3.104736e-17   1.474304e+05   6.265246e-33   0.000000e+00   0.000000e+00
      176000   1.759990e-06   7.444878e-02   7.401100e+00   2.055421e+01  -1.450896e+04  -5.172154e+04   1.372956e+05   8.889208e+06  -2.493606e+06  -4.054719e-17   1.474304e+05   6.601270e-33   0.000000e+00   0.000000e+00
      184000   1.839990e-06   7.328810e-02   7.396963e+00   2.056520e+01  -1.450813e+04  -5.172177e+04   1.372956e+05   1.091929e+07  -3.062896e+06  -7.624992e-17   1.474304e+05   9.960696e-33   0.000000e+00   0.000000e+00
      192000   1.919990e-06   7.212748e-02   7.392825e+00   2.057618e+01  -1.450726e+04  -5.172202e+04   1.372956e+05   1.083826e+07  -3.039970e+06  -5.562569e-17   1.474304e+05   9.813320e-33   0.000000e+00   0.000000e+00
      200000   1.999990e-06   7.096694e-02   7.388687e+00   2.058717e+01  -1.450639e+04  -5.172226e+04   1.372956e+05   1.075723e+07  -3.017048e+06   5.871155e-17   1.474304e+05   9.667039e-33   0.000000e+00   0.000000e+00
      208000   2.079990e-06   6.980646e-02   7.384549e+00   2.059815e+01  -1.450554e+04  -5.172250e+04   1.372956e+05   1.067619e+07  -2.994129e+06   6.650367e-19   1.474304e+05   9.521852e-33   0.000000e+00   0.000000e+00
      216000   2.159990e-06   6.864605e-02   7.380412e+00   2.060913e+01  -1.450473e+04  -5.172273e+04   1.372956e+05   1.006043e+07  -2.821270e+06   2.852374e-17   1.474304e+05   8.455021e-33   0.000000e+00   0.000000e+00
      224000   2.239990e-06   6.748571e-02   7.376274e+00   2.062012e+01  -1.450391e+04  -5.172296e+04   1.372956e+05   1.028879e+07  -2.885134e+06  -4.061731e-17   1.474304e+05   8.843134e-33   0.000000e+00   0.000000e+00
      232000   2.319990e-06   6.632543e-02   7.372136e+00   2.063110e+01  -1.450308e+04  -5.172319e+04   1.372956e+05   1.051714e+07  -2.948986e+06  -4.682145e-17   1.474304e+05   9.239944e-33   0.000000e+00   0.000000e+00
      240000   2.399990e-06   6.516521e-02   7.367998e+00   2.064208e+01  -1.450223e+04  -5.172343e+04   1.372956e+05   1.074549e+07  -3.012824e+06  -5.170765e-17   1.474304e+05   9.645452e-33   0.000000e+00   0.000000e+00
      248000   2.479990e-06   6.400507e-02   7.363860e+00   2.065307e+01  -1.450136e+04  -5.172367e+04   1.372956e+05   1.097384e+07  -3.076649e+06   8.251386e-18   1.474304e+05   1.005965e-32   0.000000e+00   0.000000e+00
      256000   2.559990e-06   6.284500e-02   7.359722e+00   2.066405e+01  -1.450048e+04  -5.172392e+04   1.372956e+05   1.120218e+07  -3.140461e+06  -3.424181e-18   1.474304e+05   1.048255e-32   0.000000e+00   0.000000e+00
      264000   2.639990e-06   6.168499e-02   7.355584e+00   2.067503e+01  -1.449957e+04  -5.172417e+04   1.372956e+05   1.143052e+07  -3.204258e+06   2.699590e-17   1.474304e+05   1.091414e-32   0.000000e+00   0.000000e+00
      272000   2.719990e-06   6.052506e-02   7.351446e+00   2.068602e+01  -1.449865e+04  -5.172443e+04   1.372956e+05   1.165885e+07  -3.268042e+06  -8.680961e-17   1.474304e+05   1.135443e-32   0.000000e+00   0.000000e+00
      280000   2.799990e-06   5.936521e-02   7.347308e+00   2.069700e+01  -1.449771e+04  -5.172470e+04   1.372956e+05   1.188719e+07  -3.331811e+06   1.919537e-17   1.474304e+05   1.180340e-32   0.000000e+00   0.000000e+00
      288000   2.879990e-06   5.820543e-02   7.343170e+00   2.070799e+01  -1.449666e+04  -5.172499e+04   1.372956e+05   1.346112e+07  -3.772670e+06   3.411621e-17   1.474304e+05   1.513594e-32   0.000000e+00   0.000000e+00
      296000   2.959990e-06   5.704574e-02   7.339032e+00   2.071897e+01  -1.449559e+04  -5.172529e+04   1.372956e+05   1.338008e+07  -3.749658e+06   1.856090e-17   1.474304e+05   1.495407e-32   0.000000e+00   0.000000e+00
      304000   3.039990e-06   5.588614e-02   7.334894e+00   2.072995e+01  -1.449452e+04  -5.172559e+04   1.372956e+05   1.329904e+07  -3.726651e+06   9.178713e-17   1.474304e+05   1.477330e-32   0.000000e+00   0.000000e+00
      312000   3.119990e-06   5.472662e-02   7.330756e+00   2.074094e+01  -1.449346e+04  -5.172589e+04   1.372956e+05   1.321799e+07  -3.703647e+06   3.752828e-17   1.474304e+05   1.459362e-32   0.000000e+00   0.000000e+00
      320000   3.199990e-06   5.356719e-02   7.326618e+00   2.075192e+01  -1.449240e+04  -5.172618e+04   1.372956e+05   1.313694e+07  -3.680648e+06  -1.030674e-17   1.474304e+05   1.441503e-32   0.000000e+00   0.000000e+00
      328000   3.279990e-06   5.240784e-02   7.322480e+00   2.076290e+01  -1.449136e+04  -5.172648e+04   1.372956e+05   1.305589e+07  -3.657654e+06   8.219888e-17   1.474304e+05   1.423753e-32   0.000000e+00   0.000000e+00
      336000   3.359990e-06   5.124857e-02   7.318342e+00   2.077389e+01  -1.449032e+04  -5.172677e+04   1.372956e+05   1.297483e+07  -3.634663e+06  -5.126937e-17   1.474304e+05   1.406113e-32   0.000000e+00   0.000000e+00
      344000   3.439990e-06   5.008939e-02   7.314204e+00   2.078487e+01  -1.448928e+04  -5.172706e+04   1.372956e+05   1.289376e+07  -3.611676e+06   7.338858e-17   1.474304e+05   1.388582e-32   0.000000e+00   0.000000e+00
      352000   3.519990e-06   4.893028e-02   7.310066e+00   2.079585e+01  -1.448825e+04  -5.172735e+04   1.372956e+05   1.281270e+07  -3.588694e+06  -1.102218e-16   1.474304e+05   1.371161e-32   0.000000e+00   0.000000e+00
      360000   3.599990e-06   4.777126e-02   7.305927e+00   2.080684e+01  -1.448734e+04  -5.172760e+04   1.372956e+05   1.057463e+07  -2.961635e+06   2.185133e-17   1.474304e+05   9.339645e-33   0.000000e+00   0.000000e+00
      368000   3.679990e-06   4.661231e-02   7.301789e+00   2.081782e+01  -1.448649e+04  -5.172784e+04   1.372956e+05   1.080288e+07  -3.025368e+06  -1.679832e-17   1.474304e+05   9.747088e-33   0.000000e+00   0.000000e+00
      376000   3.759990e-06   4.545343e-02   7.297651e+00   2.082881e+01  -1.448554e+04  -5.172810e+04   1.372956e+05   1.257776e+07  -3.522179e+06  -4.503073e-17   1.474304e+05   1.321299e-32   0.000000e+00   0.000000e+00
      384000   3.839990e-06   4.429462e-02   7.293513e+00   2.083979e+01  -1.448454e+04  -5.172839e+04   1.372956e+05   1.249696e+07  -3.499290e+06   4.567641e-17   1.474304e+05   1.304363e-32   0.000000e+00   0.000000e+00
      392000   3.919990e-06   4.313590e-02   7.289374e+00   2.085077e+01  -1.448354e+04  -5.172866e+04   1.372956e+05   1.241615e+07  -3.476405e+06  -8.767272e-18   1.474304e+05   1.287535e-32   0.000000e+00   0.000000e+00
      400000   3.999990e-06   4.197726e-02   7.285236e+00   2.086176e+01  -1.448255e+04  -5.172894e+04   1.372956e+05   1.233534e+07  -3.453524e+06   2.577980e-17   1.474304e+05   1.270816e-32   0.000000e+00   0.000000e+00
      408000   4.079990e-06   4.081869e-02   7.281098e+00   2.087274e+01  -1.448157e+04  -5.172922e+04   1.372956e+05   1.225452e+07  -3.430647e+06   8.332298e-17   1.474304e+05   1.254206e-32   0.000000e+00   0.000000e+00
      416000   4.159990e-06   3.966021e-02   7.276959e+00   2.088372e+01  -1.448059e+04  -5.172949e+04   1.372956e+05   1.217370e+07  -3.407774e+06  -5.219668e-17   1.474304e+05   1.237704e-32   0.000000e+00   0.000000e+00
      424000   4.239990e-06   3.850180e-02   7.272821e+00   2.089471e+01  -1.447962e+04  -5.172976e+04   1.372956e+05   1.209288e+07  -3.384905e+06   3.456224e-18   1.474304e+05   1.221311e-32   0.000000e+00   0.000000e+00
      432000   4.319990e-06   3.734347e-02   7.268683e+00   2.090569e+01  -1.447863e+04  -5.173004e+04   1.372956e+05   1.264367e+07  -3.538814e+06   7.087059e-17   1.474304e+05   1.335075e-32   0.000000e+00   0.000000e+00
      440000   4.399990e-06   3.618522e-02   7.264544e+00   2.091667e+01  -1.447761e+04  -5.173032e+04   1.372956e+05   1.287103e+07  -3.602176e+06  -1.445595e-17   1.474304e+05   1.383506e-32   0.000000e+00   0.000000e+00
      448000   4.479990e-06   3.502705e-02   7.260406e+00   2.092766e+01  -1.447657e+04  -5.173062e+04   1.372956e+05   1.309838e+07  -3.665522e+06   4.805512e-17   1.474304e+05   1.432799e-32   0.000000e+00   0.000000e+00
      456000   4.559990e-06   3.386897e-02   7.256267e+00   2.093864e+01  -1.447552e+04  -5.173091e+04   1.372956e+05   1.332573e+07  -3.728851e+06  -2.580133e-17   1.474304e+05   1.482952e-32   0.000000e+00   0.000000e+00
      464000   4.639990e-06   3.271097e-02   7.252129e+00   2.094963e+01  -1.447444e+04  -5.173121e+04   1.372956e+05   1.355308e+07  -3.792165e+06  -1.988456e-17   1.474304e+05   1.533967e-32   0.000000e+00   0.000000e+00
      472000   4.719990e-06   3.155306e-02   7.247990e+00   2.096061e+01  -1.447335e+04  -5.173152e+04   1.372956e+05   1.378042e+07  -3.855461e+06   8.195895e-17   1.474304e+05   1.585842e-32   0.000000e+00   0.000000e+00
      480000   4.799990e-06   3.039523e-02   7.243852e+00   2.097159e+01  -1.447224e+04  -5.173183e+04   1.372956e+05   1.400776e+07  -3.918741e+06  -5.417438e-17   1.474304e+05   1.638578e-32   0.000000e+00   0.000000e+00
      488000   4.879990e-06   2.923750e-02   7.239713e+00   2.098258e+01  -1.447111e+04  -5.173214e+04   1.372956e+05   1.423510e+07  -3.982004e+06  -1.171715e-17   1.474304e+05   1.692174e-32   0.000000e+00   0.000000e+00
      496000   4.959990e-06   2.807986e-02   7.235575e+00   2.099356e+01  -1.446996e+04  -5.173247e+04   1.372956e+05   1.446242e+07  -4.045249e+06  -2.429901e-17   1.474304e+05   1.746631e-32   0.000000e+00   0.000000e+00
      504000   5.039990e-06   2.692231e-02   7.231436e+00   2.100454e+01  -1.446878e+04  -5.173279e+04   1.372956e+05   1.486756e+07  -4.158204e+06  -2.062701e-16   1.474304e+05   1.845844e-32   0.000000e+00   0.000000e+00
      512000   5.119990e-06   2.576485e-02   7.227298e+00   2.101553e+01  -1.446760e+04  -5.173313e+04   1.372956e+05   1.478673e+07  -4.135232e+06  -3.260136e-17   1.474304e+05   1.825805e-32   0.000000e+00   0.000000e+00
      520000   5.199990e-06   2.460749e-02   7.223159e+00   2.102651e+01  -1.446642e+04  -5.173346e+04   1.372956e+05   1.470590e+07  -4.112265e+06  -6.022786e-17   1.474304e+05   1.805875e-32   0.000000e+00   0.000000e+00
      528000   5.279990e-06   2.345022e-02   7.219020e+00   2.103749e+01  -1.446525e+04  -5.173378e+04   1.372956e+05   1.462506e+07  -4.089302e+06   4.484771e-17   1.474304e+05   1.786053e-32   0.000000e+00   0.000000e+00
      536000   5.359990e-06   2.229305e-02   7.214881e+00   2.104848e+01  -1.446408e+04  -5.173411e+04   1.372956e+05   1.454422e+07  -4.066344e+06  -3.367954e-17   1.474304e+05   1.766340e-32   0.000000e+00   0.000000e+00
      544000   5.439990e-06   2.113597e-02   7.210743e+00   2.105946e+01  -1.446292e+04  -5.173443e+04   1.372956e+05   1.446337e+07  -4.043391e+06  -1.181867e-17   1.474304e+05   1.746736e-32   0.000000e+00   0.000000e+00
      552000   5.519990e-06   1.997898e-02   7.206604e+00   2.107045e+01  -1.446176e+04  -5.173476e+04   1.372956e+05   1.438252e+07  -4.020442e+06   4.426249e-17   1.474304e+05   1.727240e-32   0.000000e+00   0.000000e+00
      560000   5.599990e-06   1.882209e-02   7.202465e+00   2.108143e+01  -1.446062e+04  -5.173508e+04   1.372956e+05   1.430166e+07  -3.997498e+06  -3.164309e-17   1.474304e+05   1.707853e-32   0.000000e+00   0.000000e+00
      568000   5.679990e-06   1.766529e-02   7.198326e+00   2.109241e+01  -1.445940e+04  -5.173542e+04   1.372956e+05   1.650851e+07  -4.613924e+06   2.079129e-17   1.474304e+05   2.275546e-32   0.000000e+00   0.000000e+00
      576000   5.759990e-06   1.650859e-02   7.194187e+00   2.110340e+01  -1.445814e+04  -5.173577e+04   1.372956e+05   1.414219e+07  -3.952194e+06  -1.497401e-17   1.474304e+05   1.669934e-32   0.000000e+00   0.000000e+00
      584000   5.839990e-06   1.535198e-02   7.190049e+00   2.111438e+01  -1.445701e+04  -5.173609e+04   1.372956e+05   1.406160e+07  -3.929341e+06   3.809750e-17   1.474304e+05   1.650936e-32   0.000000e+00   0.000000e+00
      592000   5.919990e-06   1.419546e-02   7.185910e+00   2.112536e+01  -1.445589e+04  -5.173640e+04   1.372956e+05   1.398101e+07  -3.906493e+06   3.605514e-17   1.474304e+05   1.632045e-32   0.000000e+00   0.000000e+00
      600000   5.999990e-06   1.303904e-02   7.181771e+00   2.113635e+01  -1.445477e+04  -5.173671e+04   1.372956e+05   1.390041e+07  -3.883649e+06   1.293816e-17   1.474304e+05   1.613263e-32   0.000000e+00   0.000000e+00
      608000   6.079990e-06   1.188270e-02   7.177632e+00   2.114733e+01  -1.445366e+04  -5.173702e+04   1.372956e+05   1.381980e+07  -3.860810e+06   2.794141e-18   1.474304e+05   1.594588e-32   0.000000e+00   0.000000e+00
      616000   6.159990e-06   1.072645e-02   7.173493e+00   2.115832e+01  -1.445256e+04  -5.173733e+04   1.372956e+05   1.373919e+07  -3.837975e+06   3.967894e-17   1.474304e+05   1.576022e-32   0.000000e+00   0.000000e+00
      624000   6.239990e-06   9.570290e-03   7.169354e+00   2.116930e+01  -1.445147e+04  -5.173764e+04   1.372956e+05   1.365858e+07  -3.815144e+06  -4.243903e-17   1.474304e+05   1.557563e-32   0.000000e+00   0.000000e+00
      632000   6.319990e-06   8.414217e-03   7.165215e+00   2.118028e+01  -1.445038e+04  -5.173794e+04   1.372956e+05   1.357796e+07  -3.792317e+06  -9.391851e-18   1.474304e+05   1.539213e-32   0.000000e+00   0.000000e+00
      640000   6.399990e-06   7.258230e-03   7.161076e+00   2.119127e+01  -1.444929e+04  -5.173824e+04   1.372956e+05   1.349734e+07  -3.769495e+06  -7.721877e-17   1.474304e+05   1.520971e-32   0.000000e+00   0.000000e+00
      648000   6.479990e-06   6.102330e-03   7.156937e+00   2.120225e+01  -1.444819e+04  -5.173855e+04   1.372956e+05   1.520189e+07  -4.245185e+06  -1.520851e-16   1.474304e+05   1.929354e-32   0.000000e+00   0.000000e+00
      656000   6.559990e-06   4.946524e-03   7.152798e+00   2.121323e+01  -1.444696e+04  -5.173889e+04   1.372956e+05   1.542823e+07  -4.307998e+06  -2.465280e-17   1.474304e+05   1.987208e-32   0.000000e+00   0.000000e+00
      664000   6.639990e-06   3.790816e-03   7.148658e+00   2.122422e+01  -1.444572e+04  -5.173924e+04   1.372956e+05   1.565457e+07  -4.370792e+06   1.106270e-16   1.474304e+05   2.045914e-32   0.000000e+00   0.000000e+00
      672000   6.719990e-06   2.635209e-03   7.144519e+00   2.123520e+01  -1.444446e+04  -5.173959e+04   1.372956e+05   1.588090e+07  -4.433567e+06  -2.767948e-17   1.474304e+05   2.105473e-32   0.000000e+00   0.000000e+00
      680000   6.799990e-06   1.479704e-03   7.140380e+00   2.124618e+01  -1.444318e+04  -5.173995e+04   1.372956e+05   1.610723e+07  -4.496323e+06  -2.054496e-17   1.474304e+05   2.165883e-32   0.000000e+00   0.000000e+00
      688000   6.879990e-06   3.243013e-04   7.136241e+00   2.125717e+01  -1.444188e+04  -5.174031e+04   1.372956e+05   1.633355e+07  -4.559059e+06  -4.910172e-17   1.474304e+05   2.227145e-32   0.000000e+00   0.000000e+00
