     timestep     time              x             y              z              vx             vy             vz             ax             ay             az         v_magnitude      ELoss        Electronic      Nuclear
           0   0.000000e+00   1.000000e-01   1.001590e+01   1.078056e+00  -1.129152e+04  -1.450861e+04  -1.462796e+05   0.000000e+00   0.000000e+00   0.000000e+00   1.474304e+05   0.000000e+00   0.000000e+00   0.000000e+00
        8000   7.999000e-08   9.909668e-02   1.001474e+01   1.066354e+00  -1.129152e+04  -1.450861e+04  -1.462796e+05   0.000000e+00   0.000000e+00   0.000000e+00   1.474304e+05   0.000000e+00   0.000000e+00   0.000000e+00
       16000   1.599900e-07   9.819336e-02   1.001358e+01   1.054651e+00  -1.129152e+04  -1.450861e+04  -1.462796e+05   0.000000e+00   0.000000e+00   0.000000e+00   1.474304e+05   0.000000e+00   0.000000e+00   0.000000e+00
       24000   2.399900e-07   9.729004e-02   1.001242e+01   1.042949e+00  -1.129152e+04  -1.450861e+04  -1.462796e+05   0.000000e+00   0.000000e+00   0.000000e+00   1.474304e+05   0.000000e+00   0.000000e+00   0.000000e+00
       32000   3.199900e-07   9.638671e-02   1.001126e+01   1.031247e+00  -1.129152e+04  -1.450861e+04  -1.462796e+05   0.000000e+00   0.000000e+00   0.000000e+00   1.474304e+05   0.000000e+00   0.000000e+00   0.000000e+00
       40000   3.999900e-07   9.548339e-02   1.001010e+01   1.019544e+00  -1.129152e+04  -1.450861e+04  -1.462796e+05   0.000000e+00   0.000000e+00   0.000000e+00   1.474304e+05   0.000000e+00   0.000000e+00   0.000000e+00
       48000   4.799900e-07   9.458007e-02   1.000894e+01   1.007842e+00  -1.129152e+04  -1.450861e+04  -1.462796e+05   0.000000e+00   0.000000e+00   0.000000e+00   1.474304e+05   0.000000e+00   0.000000e+00   0.000000e+00
       56000   5.599900e-07   9.367675e-02   1.000778e+01   9.961394e-01  -1.129152e+04  -1.450861e+04  -1.462796e+05   0.000000e+00   0.000000e+00   0.000000e+00   1.474304e+05   0.000000e+00   0.000000e+00   0.000000e+00
       64000   6.399900e-07   9.277343e-02   1.000662e+01   9.844371e-01  -1.129152e+04  -1.450861e+04  -1.462796e+05   0.000000e+00   0.000000e+00   0.000000e+00   1.474304e+05   0.000000e+00   0.000000e+00   0.000000e+00
       72000   7.199900e-07   9.187011e-02   1.000545e+01   9.727347e-01  -1.129152e+04  -1.450861e+04  -1.462796e+05   0.000000e+00   0.000000e+00   0.000000e+00   1.474304e+05   0.000000e+00   0.000000e+00   0.000000e+00
       80000   7.999900e-07   9.096679e-02   1.000429e+01   9.610323e-01  -1.129152e+04  -1.450861e+04  -1.462796e+05   0.000000e+00   0.000000e+00   0.000000e+00   1.474304e+05   0.000000e+00   0.000000e+00   0.000000e+00
       88000   8.799900e-07   9.006346e-02   1.000313e+01   9.493300e-01  -1.129152e+04  -1.450861e+04  -1.462796e+05   0.000000e+00   0.000000e+00   0.000000e+00   1.474304e+05   0.000000e+00   0.000000e+00   0.000000e+00
       96000   9.599900e-07   8.916014e-02   1.000197e+01   9.376276e-01  -1.129152e+04  -1.450861e+04  -1.462796e+05   0.000000e+00   0.000000e+00   0.000000e+00   1.474304e+05   0.000000e+00   0.000000e+00   0.000000e+00
      104000   1.039990e-06   8.825682e-02   1.000081e+01   9.259252e-01  -1.129152e+04  -1.450861e+04  -1.462796e+05   0.000000e+00   0.000000e+00   0.000000e+00   1.474304e+05   0.000000e+00   0.000000e+00   0.000000e+00
      112000   1.119990e-06   8.735350e-02   9.999651e+00   9.142229e-01  -1.129152e+04  -1.450861e+04  -1.462796e+05   0.000000e+00   0.000000e+00   0.000000e+00   1.474304e+05   0.000000e+00   0.000000e+00   0.000000e+00
      120000   1.199990e-06   8.645018e-02   9.998491e+00   9.025205e-01  -1.129152e+04  -1.450861e+04  -1.462796e+05   0.000000e+00   0.000000e+00   0.000000e+00   1.474304e+05   0.000000e+00   0.000000e+00   0.000000e+00
      128000   1.279990e-06   8.554686e-02   9.997330e+00   8.908181e-01  -1.129152e+04  -1.450861e+04  -1.462796e+05   0.000000e+00   0.000000e+00   0.000000e+00   1.474304e+05   0.000000e+00   0.000000e+00   0.000000e+00
      136000   1.359990e-06   8.464354e-02   9.996169e+00   8.791158e-01  -1.129152e+04  -1.450861e+04  -1.462796e+05   0.000000e+00   0.000000e+00   0.000000e+00   1.474304e+05   0.000000e+00   0.000000e+00   0.000000e+00
      144000   1.439990e-06   8.374021e-02   9.995009e+00   8.674134e-01  -1.129152e+04  -1.450861e+04  -1.462796e+05   0.000000e+00   0.000000e+00   0.000000e+00   1.474304e+05   0.000000e+00   0.000000e+00   0.000000e+00
      152000   1.519990e-06   8.283689e-02   9.993848e+00   8.557110e-01  -1.129152e+04  -1.450861e+04  -1.462796e+05   0.000000e+00   0.000000e+00   0.000000e+00   1.474304e+05   0.000000e+00   0.000000e+00   0.000000e+00
      160000   1.599990e-06   8.193357e-02   9.992687e+00   8.440087e-01  -1.129152e+04  -1.450861e+04  -1.462796e+05   0.000000e+00   0.000000e+00   0.000000e+00   1.474304e+05   0.000000e+00   0.000000e+00   0.000000e+00
      168000   1.679990e-06   8.103025e-02   9.991527e+00   8.323063e-01  -1.129152e+04  -1.450861e+04  -1.462796e+05   0.000000e+00   0.000000e+00   0.000000e+00   1.474304e+05   0.000000e+00   0.000000e+00   0.000000e+00
      176000   1.759990e-06   8.012693e-02   9.990366e+00   8.206039e-01  -1.129152e+04  -1.450861e+04  -1.462796e+05   0.000000e+00   0.000000e+00   0.000000e+00   1.474304e+05   0.000000e+00   0.000000e+00   0.000000e+00
      184000   1.839990e-06   7.922361e-02   9.989205e+00   8.089016e-01  -1.129152e+04  -1.450861e+04  -1.462796e+05   0.000000e+00   0.000000e+00   0.000000e+00   1.474304e+05   0.000000e+00   0.000000e+00   0.000000e+00
      192000   1.919990e-06   7.832029e-02   9.988044e+00   7.971992e-01  -1.129152e+04  -1.450861e+04  -1.462796e+05   0.000000e+00   0.000000e+00   0.000000e+00   1.474304e+05   0.000000e+00   0.000000e+00   0.000000e+00
      200000   1.999990e-06   7.741697e-02   9.986884e+00   7.854968e-01  -1.129152e+04  -1.450861e+04  -1.462796e+05   0.000000e+00   0.000000e+00   0.000000e+00   1.474304e+05   0.000000e+00   0.000000e+00   0.000000e+00
      208000   2.079990e-06   7.651364e-02   9.985723e+00   7.737945e-01  -1.129152e+04  -1.450861e+04  -1.462796e+05   0.000000e+00   0.000000e+00   0.000000e+00   1.474304e+05   0.000000e+00   0.000000e+00   0.000000e+00
      216000   2.159990e-06   7.561032e-02   9.984562e+00   7.620921e-01  -1.129152e+04  -1.450861e+04  -1.462796e+05   0.000000e+00   0.000000e+00   0.000000e+00   1.474304e+05   0.000000e+00   0.000000e+00   0.000000e+00
      224000   2.239990e-06   7.470700e-02   9.983402e+00   7.503897e-01  -1.129152e+04  -1.450861e+04  -1.462796e+05   0.000000e+00   0.000000e+00   0.000000e+00   1.474304e+05   0.000000e+00   0.000000e+00   0.000000e+00
      232000   2.319990e-06   7.380368e-02   9.982241e+00   7.386874e-01  -1.129152e+04  -1.450861e+04  -1.462796e+05   0.000000e+00   0.000000e+00   0.000000e+00   1.474304e+05   0.000000e+00   0.000000e+00   0.000000e+00
      240000   2.399990e-06   7.290036e-02   9.981080e+00   7.269850e-01  -1.129152e+04  -1.450861e+04  -1.462796e+05   0.000000e+00   0.000000e+00   0.000000e+00   1.474304e+05   0.000000e+00   0.000000e+00   0.000000e+00
      248000   2.479990e-06   7.199704e-02   9.979920e+00   7.152826e-01  -1.129152e+04  -1.450861e+04  -1.462796e+05   0.000000e+00   0.000000e+00   0.000000e+00   1.474304e+05   0.000000e+00   0.000000e+00   0.000000e+00
      256000   2.559990e-06   7.109372e-02   9.978759e+00   7.035803e-01  -1.129152e+04  -1.450861e+04  -1.462796e+05   0.000000e+00   0.000000e+00   0.000000e+00   1.474304e+05   0.000000e+00   0.000000e+00   0.000000e+00
      264000   2.639990e-06   7.019039e-02   9.977598e+00   6.918779e-01  -1.129152e+04  -1.450861e+04  -1.462796e+05   0.000000e+00   0.000000e+00   0.000000e+00   1.474304e+05   0.000000e+00   0.000000e+00   0.000000e+00
      272000   2.719990e-06   6.928707e-02   9.976438e+00   6.801755e-01  -1.129152e+04  -1.450861e+04  -1.462796e+05   0.000000e+00   0.000000e+00   0.000000e+00   1.474304e+05   0.000000e+00   0.000000e+00   0.000000e+00
      280000   2.799990e-06   6.838375e-02   9.975277e+00   6.684732e-01  -1.129152e+04  -1.450861e+04  -1.462796e+05   0.000000e+00   0.000000e+00   0.000000e+00   1.474304e+05   0.000000e+00   0.000000e+00   0.000000e+00
      288000   2.879990e-06   6.748043e-02   9.974116e+00   6.567708e-01  -1.129152e+04  -1.450861e+04  -1.462796e+05   0.000000e+00   0.000000e+00   0.000000e+00   1.474304e+05   0.000000e+00   0.000000e+00   0.000000e+00
      296000   2.959990e-06   6.657711e-02   9.972956e+00   6.450684e-01  -1.129152e+04  -1.450861e+04  -1.462796e+05   0.000000e+00   0.000000e+00   0.000000e+00   1.474304e+05   0.000000e+00   0.000000e+00   0.000000e+00
      304000   3.039990e-06   6.567379e-02   9.971795e+00   6.333661e-01  -1.129152e+04  -1.450861e+04  -1.462796e+05   0.000000e+00   0.000000e+00   0.000000e+00   1.474304e+05   0.000000e+00   0.000000e+00   0.000000e+00
      312000   3.119990e-06   6.477047e-02   9.970634e+00   6.216637e-01  -1.129152e+04  -1.450861e+04  -1.462796e+05   0.000000e+00   0.000000e+00   0.000000e+00   1.474304e+05   0.000000e+00   0.000000e+00   0.000000e+00
      320000   3.199990e-06   6.386714e-02   9.969473e+00   6.099613e-01  -1.129152e+04  -1.450861e+04  -1.462796e+05   0.000000e+00   0.000000e+00   0.000000e+00   1.474304e+05   0.000000e+00   0.000000e+00   0.000000e+00
      328000   3.279990e-06   6.296382e-02   9.968313e+00   5.982590e-01  -1.129152e+04  -1.450861e+04  -1.462796e+05   0.000000e+00   0.000000e+00   0.000000e+00   1.474304e+05   0.000000e+00   0.000000e+00   0.000000e+00
      336000   3.359990e-06   6.206050e-02   9.967152e+00   5.865566e-01  -1.129152e+04  -1.450861e+04  -1.462796e+05   0.000000e+00   0.000000e+00   0.000000e+00   1.474304e+05   0.000000e+00   0.000000e+00   0.000000e+00
      344000   3.439990e-06   6.115718e-02   9.965991e+00   5.748542e-01  -1.129152e+04  -1.450861e+04  -1.462796e+05   0.000000e+00   0.000000e+00   0.000000e+00   1.474304e+05   0.000000e+00   0.000000e+00   0.000000e+00
      352000   3.519990e-06   6.025386e-02   9.964831e+00   5.631519e-01  -1.129152e+04  -1.450861e+04  -1.462796e+05   0.000000e+00   0.000000e+00   0.000000e+00   1.474304e+05   0.000000e+00   0.000000e+00   0.000000e+00
      360000   3.599990e-06   5.935054e-02   9.963670e+00   5.514495e-01  -1.129152e+04  -1.450861e+04  -1.462796e+05   0.000000e+00   0.000000e+00   0.000000e+00   1.474304e+05   0.000000e+00   0.000000e+00   0.000000e+00
      368000   3.679990e-06   5.844722e-02   9.962509e+00   5.397471e-01  -1.129152e+04  -1.450861e+04  -1.462796e+05   0.000000e+00   0.000000e+00   0.000000e+00   1.474304e+05   0.000000e+00   0.000000e+00   0.000000e+00
      376000   3.759990e-06   5.754389e-02   9.961349e+00   5.280448e-01  -1.129152e+04  -1.450861e+04  -1.462796e+05   0.000000e+00   0.000000e+00   0.000000e+00   1.474304e+05   0.000000e+00   0.000000e+00   0.000000e+00
      384000   3.839990e-06   5.664057e-02   9.960188e+00   5.163424e-01  -1.129152e+04  -1.450861e+04  -1.462796e+05   0.000000e+00   0.000000e+00   0.000000e+00   1.474304e+05   0.000000e+00   0.000000e+00   0.000000e+00
      392000   3.919990e-06   5.573725e-02   9.959027e+00   5.046400e-01  -1.129152e+04  -1.450861e+04  -1.462796e+05   0.000000e+00   0.000000e+00   0.000000e+00   1.474304e+05   0.000000e+00   0.000000e+00   0.000000e+00
      400000   3.999990e-06   5.483393e-02   9.957867e+00   4.929377e-01  -1.129152e+04  -1.450861e+04  -1.462796e+05   0.000000e+00   0.000000e+00   0.000000e+00   1.474304e+05   0.000000e+00   0.000000e+00   0.000000e+00
      408000   4.079990e-06   5.393061e-02   9.956706e+00   4.812353e-01  -1.129152e+04  -1.450861e+04  -1.462796e+05   0.000000e+00   0.000000e+00   0.000000e+00   1.474304e+05   0.000000e+00   0.000000e+00   0.000000e+00
      416000   4.159990e-06   5.302729e-02   9.955545e+00   4.695329e-01  -1.129152e+04  -1.450861e+04  -1.462796e+05   0.000000e+00   0.000000e+00   0.000000e+00   1.474304e+05   0.000000e+00   0.000000e+00   0.000000e+00
      424000   4.239990e-06   5.212397e-02   9.954384e+00   4.578306e-01  -1.129152e+04  -1.450861e+04  -1.462796e+05   0.000000e+00   0.000000e+00   0.000000e+00   1.474304e+05   0.000000e+00   0.000000e+00   0.000000e+00
      432000   4.319990e-06   5.122064e-02   9.953224e+00   4.461282e-01  -1.129152e+04  -1.450861e+04  -1.462796e+05   0.000000e+00   0.000000e+00   0.000000e+00   1.474304e+05   0.000000e+00   0.000000e+00   0.000000e+00
      440000   4.399990e-06   5.031732e-02   9.952063e+00   4.344258e-01  -1.129152e+04  -1.450861e+04  -1.462796e+05   0.000000e+00   0.000000e+00   0.000000e+00   1.474304e+05   0.000000e+00   0.000000e+00   0.000000e+00
      448000   4.479990e-06   4.941400e-02   9.950902e+00   4.227235e-01  -1.129152e+04  -1.450861e+04  -1.462796e+05   0.000000e+00   0.000000e+00   0.000000e+00   1.474304e+05   0.000000e+00   0.000000e+00   0.000000e+00
      456000   4.559990e-06   4.851068e-02   9.949742e+00   4.110211e-01  -1.129152e+04  -1.450861e+04  -1.462796e+05   0.000000e+00   0.000000e+00   0.000000e+00   1.474304e+05   0.000000e+00   0.000000e+00   0.000000e+00
      464000   4.639990e-06   4.760736e-02   9.948581e+00   3.993187e-01  -1.129152e+04  -1.450861e+04  -1.462796e+05   0.000000e+00   0.000000e+00   0.000000e+00   1.474304e+05   0.000000e+00   0.000000e+00   0.000000e+00
      472000   4.719990e-06   4.670404e-02   9.947420e+00   3.876164e-01  -1.129152e+04  -1.450861e+04  -1.462796e+05   0.000000e+00   0.000000e+00   0.000000e+00   1.474304e+05   0.000000e+00   0.000000e+00   0.000000e+00
      480000   4.799990e-06   4.580072e-02   9.946260e+00   3.759140e-01  -1.129152e+04  -1.450861e+04  -1.462796e+05   0.000000e+00   0.000000e+00   0.000000e+00   1.474304e+05   0.000000e+00   0.000000e+00   0.000000e+00
      488000   4.879990e-06   4.489739e-02   9.945099e+00   3.642116e-01  -1.129152e+04  -1.450861e+04  -1.462796e+05   0.000000e+00   0.000000e+00   0.000000e+00   1.474304e+05   0.000000e+00   0.000000e+00   0.000000e+00
      496000   4.959990e-06   4.399407e-02   9.943938e+00   3.525093e-01  -1.129152e+04  -1.450861e+04  -1.462796e+05   0.000000e+00   0.000000e+00   0.000000e+00   1.474304e+05   0.000000e+00   0.000000e+00   0.000000e+00
      504000   5.039990e-06   4.309075e-02   9.942778e+00   3.408069e-01  -1.129152e+04  -1.450861e+04  -1.462796e+05   0.000000e+00   0.000000e+00   0.000000e+00   1.474304e+05   0.000000e+00   0.000000e+00   0.000000e+00
      512000   5.119990e-06   4.218743e-02   9.941617e+00   3.291045e-01  -1.129152e+04  -1.450861e+04  -1.462796e+05   0.000000e+00   0.000000e+00   0.000000e+00   1.474304e+05   0.000000e+00   0.000000e+00   0.000000e+00
      520000   5.199990e-06   4.128411e-02   9.940456e+00   3.174022e-01  -1.129152e+04  -1.450861e+04  -1.462796e+05   0.000000e+00   0.000000e+00   0.000000e+00   1.474304e+05   0.000000e+00   0.000000e+00   0.000000e+00
      528000   5.279990e-06   4.038079e-02   9.939296e+00   3.056998e-01  -1.129152e+04  -1.450861e+04  -1.462796e+05   0.000000e+00   0.000000e+00   0.000000e+00   1.474304e+05   0.000000e+00   0.000000e+00   0.000000e+00
      536000   5.359990e-06   3.947747e-02   9.938135e+00   2.939974e-01  -1.129152e+04  -1.450861e+04  -1.462796e+05   0.000000e+00   0.000000e+00   0.000000e+00   1.474304e+05   0.000000e+00   0.000000e+00   0.000000e+00
      544000   5.439990e-06   3.857414e-02   9.936974e+00   2.822951e-01  -1.129152e+04  -1.450861e+04  -1.462796e+05   0.000000e+00   0.000000e+00   0.000000e+00   1.474304e+05   0.000000e+00   0.000000e+00   0.000000e+00
      552000   5.519990e-06   3.767082e-02   9.935813e+00   2.705927e-01  -1.129152e+04  -1.450861e+04  -1.462796e+05   0.000000e+00   0.000000e+00   0.000000e+00   1.474304e+05   0.000000e+00   0.000000e+00   0.000000e+00
      560000   5.599990e-06   3.676750e-02   9.934653e+00   2.588903e-01  -1.129152e+04  -1.450861e+04  -1.462796e+05   0.000000e+00   0.000000e+00   0.000000e+00   1.474304e+05   0.000000e+00   0.000000e+00   0.000000e+00
      568000   5.679990e-06   3.586418e-02   9.933492e+00   2.471880e-01  -1.129152e+04  -1.450861e+04  -1.462796e+05   0.000000e+00   0.000000e+00   0.000000e+00   1.474304e+05   0.000000e+00   0.000000e+00   0.000000e+00
      576000   5.759990e-06   3.496086e-02   9.932331e+00   2.354856e-01  -1.129152e+04  -1.450861e+04  -1.462796e+05   0.000000e+00   0.000000e+00   0.000000e+00   1.474304e+05   0.000000e+00   0.000000e+00   0.000000e+00
      584000   5.839990e-06   3.405754e-02   9.931171e+00   2.237832e-01  -1.129152e+04  -1.450861e+04  -1.462796e+05   0.000000e+00   0.000000e+00   0.000000e+00   1.474304e+05   0.000000e+00   0.000000e+00   0.000000e+00
      592000   5.919990e-06   3.315422e-02   9.930010e+00   2.120809e-01  -1.129152e+04  -1.450861e+04  -1.462796e+05   0.000000e+00   0.000000e+00   0.000000e+00   1.474304e+05   0.000000e+00   0.000000e+00   0.000000e+00
      600000   5.999990e-06   3.225090e-02   9.928849e+00   2.003785e-01  -1.129152e+04  -1.450861e+04  -1.462796e+05   0.000000e+00   0.000000e+00   0.000000e+00   1.474304e+05   0.000000e+00   0.000000e+00   0.000000e+00
      608000   6.079990e-06   3.134757e-02   9.927689e+00   1.886761e-01  -1.129152e+04  -1.450861e+04  -1.462796e+05   0.000000e+00   0.000000e+00   0.000000e+00   1.474304e+05   0.000000e+00   0.000000e+00   0.000000e+00
      616000   6.159990e-06   3.044425e-02   9.926528e+00   1.769738e-01  -1.129152e+04  -1.450861e+04  -1.462796e+05   0.000000e+00   0.000000e+00   0.000000e+00   1.474304e+05   0.000000e+00   0.000000e+00   0.000000e+00
      624000   6.239990e-06   2.954093e-02   9.925367e+00   1.652714e-01  -1.129152e+04  -1.450861e+04  -1.462796e+05   0.000000e+00   0.000000e+00   0.000000e+00   1.474304e+05   0.000000e+00   0.000000e+00   0.000000e+00
      632000   6.319990e-06   2.863761e-02   9.924207e+00   1.535690e-01  -1.129152e+04  -1.450861e+04  -1.462796e+05   0.000000e+00   0.000000e+00   0.000000e+00   1.474304e+05   0.000000e+00   0.000000e+00   0.000000e+00
      640000   6.399990e-06   2.773429e-02   9.923046e+00   1.418667e-01  -1.129152e+04  -1.450861e+04  -1.462796e+05   0.000000e+00   0.000000e+00   0.000000e+00   1.474304e+05   0.000000e+00   0.000000e+00   0.000000e+00
      648000   6.479990e-06   2.683097e-02   9.921885e+00   1.301643e-01  -1.129152e+04  -1.450861e+04  -1.462796e+05   0.000000e+00   0.000000e+00   0.000000e+00   1.474304e+05   0.000000e+00   0.000000e+00   0.000000e+00
      656000   6.559990e-06   2.592765e-02   9.920724e+00   1.184619e-01  -1.129152e+04  -1.450861e+04  -1.462796e+05   0.000000e+00   0.000000e+00   0.000000e+00   1.474304e+05   0.000000e+00   0.000000e+00   0.000000e+00
      664000   6.639990e-06   2.502432e-02   9.919564e+00   1.067596e-01  -1.129152e+04  -1.450861e+04  -1.462796e+05   0.000000e+00   0.000000e+00   0.000000e+00   1.474304e+05   0.000000e+00   0.000000e+00   0.000000e+00
      672000   6.719990e-06   2.412100e-02   9.918403e+00   9.505721e-02  -1.129152e+04  -1.450861e+04  -1.462796e+05   0.000000e+00   0.000000e+00   0.000000e+00   1.474304e+05   0.000000e+00   0.000000e+00   0.000000e+00
      680000   6.799990e-06   2.321768e-02   9.917242e+00   8.335485e-02  -1.129152e+04  -1.450861e+04  -1.462796e+05   0.000000e+00   0.000000e+00   0.000000e+00   1.474304e+05   0.000000e+00   0.000000e+00   0.000000e+00
      688000   6.879990e-06   2.231436e-02   9.916082e+00   7.165248e-02  -1.129152e+04  -1.450861e+04  -1.462796e+05   0.000000e+00   0.000000e+00   0.000000e+00   1.474304e+05   0.000000e+00   0.000000e+00   0.000000e+00
      696000   6.959990e-06   2.141104e-02   9.914921e+00   5.995011e-02  -1.129152e+04  -1.450861e+04  -1.462796e+05   0.000000e+00   0.000000e+00   0.000000e+00   1.474304e+05   0.000000e+00   0.000000e+00   0.000000e+00
      704000   7.039990e-06   2.050772e-02   9.913760e+00   4.824775e-02  -1.129152e+04  -1.450861e+04  -1.462796e+05   0.000000e+00   0.000000e+00   0.000000e+00   1.474304e+05   0.000000e+00   0.000000e+00   0.000000e+00
      712000   7.119990e-06   1.960440e-02   9.912600e+00   3.654538e-02  -1.129152e+04  -1.450861e+04  -1.462796e+05   0.000000e+00   0.000000e+00   0.000000e+00   1.474304e+05   0.000000e+00   0.000000e+00   0.000000e+00
      720000   7.199990e-06   1.870107e-02   9.911439e+00   2.484301e-02  -1.129152e+04  -1.450861e+04  -1.462796e+05   0.000000e+00   0.000000e+00   0.000000e+00   1.474304e+05   0.000000e+00   0.000000e+00   0.000000e+00
      728000   7.279990e-06   1.779775e-02   9.910278e+00   1.314065e-02  -1.129152e+04  -1.450861e+04  -1.462796e+05   0.000000e+00   0.000000e+00   0.000000e+00   1.474304e+05   0.000000e+00   0.000000e+00   0.000000e+00
      736000   7.359990e-06   1.689443e-02   9.909118e+00   1.438281e-03  -1.129152e+04  -1.450861e+04  -1.462796e+05   0.000000e+00   0.000000e+00   0.000000e+00   1.474304e+05   0.000000e+00   0.000000e+00   0.000000e+00
