     timestep     time              x             y              z              vx             vy             vz             ax             ay             az         v_magnitude      ELoss        Electronic      Nuclear
           0   0.000000e+00   1.000000e-01   9.858828e+00   2.085265e+01   2.764523e+05  -2.476272e+05   2.137963e+06   0.000000e+00   0.000000e+00   0.000000e+00   2.169938e+06   0.000000e+00   0.000000e+00   0.000000e+00
        8000   7.999000e-08   1.221162e-01   9.839018e+00   2.102368e+01   2.764542e+05  -2.476251e+05   2.137963e+06   1.413052e+07   1.577563e+07   3.228764e-15   2.169938e+06   4.819862e-28   0.000000e+00   0.000000e+00
       16000   1.599900e-07   1.442326e-01   9.819208e+00   2.119472e+01   2.764555e+05  -2.476237e+05   2.137963e+06   3.189685e+07   3.561072e+07   4.457168e-15   2.169938e+06   2.453856e-27   0.000000e+00   0.000000e+00
       24000   2.399900e-07   1.663491e-01   9.799398e+00   2.136576e+01   2.764561e+05  -2.476229e+05   2.137963e+06  -2.012786e+07  -2.247155e+07   2.046927e-14   2.169938e+06   9.768941e-28   0.000000e+00   0.000000e+00
       32000   3.199900e-07   1.884656e-01   9.779588e+00   2.153679e+01   2.764571e+05  -2.476219e+05   2.137963e+06  -1.824011e+07  -2.036415e+07   2.899299e-15   2.169938e+06   8.022148e-28   0.000000e+00   0.000000e+00
       40000   3.999900e-07   2.105821e-01   9.759778e+00   2.170783e+01   2.764565e+05  -2.476225e+05   2.137963e+06   3.220608e+06   3.595628e+06  -4.971347e-17   2.169938e+06   2.500820e-29   0.000000e+00   0.000000e+00
       48000   4.799900e-07   2.326987e-01   9.739969e+00   2.187887e+01   2.764567e+05  -2.476222e+05   2.137963e+06  -2.446886e+06  -2.731814e+06   3.268609e-15   2.169938e+06   1.443150e-29   0.000000e+00   0.000000e+00
       56000   5.599900e-07   2.548152e-01   9.720159e+00   2.204991e+01   2.764569e+05  -2.476221e+05   2.137963e+06  -1.180729e+06  -1.318222e+06   1.469208e-15   2.169938e+06   3.357325e-30   0.000000e+00   0.000000e+00
       64000   6.399900e-07   2.769318e-01   9.700349e+00   2.222094e+01   2.764570e+05  -2.476220e+05   2.137963e+06   8.542454e+04   9.537202e+04   7.685833e-17   2.169938e+06   1.803093e-32   0.000000e+00   0.000000e+00
       72000   7.199900e-07   2.990483e-01   9.680539e+00   2.239198e+01   2.764570e+05  -2.476220e+05   2.137963e+06  -8.119381e+06  -9.064865e+06  -1.525624e-14   2.169938e+06   1.589962e-28   0.000000e+00   0.000000e+00
       80000   7.999900e-07   3.211649e-01   9.660730e+00   2.256302e+01   2.764569e+05  -2.476220e+05   2.137963e+06   2.675740e+00   2.987323e+00   4.977701e-22   2.169938e+06   1.726188e-41   0.000000e+00   0.000000e+00
       88000   8.799900e-07   3.432814e-01   9.640920e+00   2.273405e+01   2.764569e+05  -2.476220e+05   2.137963e+06   3.634563e-01   4.057799e-01   1.033123e-22   2.169938e+06   3.173302e-43   0.000000e+00   0.000000e+00
       96000   9.599900e-07   3.653980e-01   9.621110e+00   2.290509e+01   2.764569e+05  -2.476220e+05   2.137963e+06  -1.948828e+00  -2.175764e+00  -1.857200e-21   2.169938e+06   9.169393e-42   0.000000e+00   0.000000e+00
      104000   1.039990e-06   3.875145e-01   9.601300e+00   2.307613e+01   2.764569e+05  -2.476220e+05   2.137963e+06  -6.311523e+00  -7.046483e+00  -9.808865e-21   2.169938e+06   9.607168e-41   0.000000e+00   0.000000e+00
      112000   1.119990e-06   4.096311e-01   9.581491e+00   2.324716e+01   2.764569e+05  -2.476220e+05   2.137963e+06  -4.502150e+00  -5.026414e+00   5.609261e-21   2.169938e+06   4.888364e-41   0.000000e+00   0.000000e+00
      120000   1.199990e-06   4.317477e-01   9.561681e+00   2.341820e+01   2.764569e+05  -2.476220e+05   2.137963e+06  -3.348710e+00  -3.738658e+00  -7.771651e-21   2.169938e+06   2.704176e-41   0.000000e+00   0.000000e+00
      128000   1.279990e-06   4.538642e-01   9.541871e+00   2.358924e+01   2.764569e+05  -2.476220e+05   2.137963e+06  -9.366501e-01  -1.045721e+00  -7.488634e-22   2.169938e+06   2.119389e-42   0.000000e+00   0.000000e+00
      136000   1.359990e-06   4.759808e-01   9.522061e+00   2.376028e+01   2.764569e+05  -2.476220e+05   2.137963e+06  -2.118986e+00  -2.365736e+00  -5.480804e-22   2.169938e+06   1.083863e-41   0.000000e+00   0.000000e+00
      144000   1.439990e-06   4.980973e-01   9.502252e+00   2.393131e+01   2.764569e+05  -2.476220e+05   2.137963e+06  -3.301322e+00  -3.685752e+00  -6.479166e-21   2.169938e+06   2.630255e-41   0.000000e+00   0.000000e+00
      152000   1.519990e-06   5.202139e-01   9.482442e+00   2.410235e+01   2.764569e+05  -2.476220e+05   2.137963e+06  -3.879020e+00  -4.330722e+00   1.401799e-21   2.169938e+06   3.632458e-41   0.000000e+00   0.000000e+00
      160000   1.599990e-06   5.423304e-01   9.462632e+00   2.427339e+01   2.764569e+05  -2.476220e+05   2.137963e+06  -7.399932e+00  -8.261635e+00   4.705759e-21   2.169938e+06   1.320519e-40   0.000000e+00   0.000000e+00
      168000   1.679990e-06   5.644470e-01   9.442822e+00   2.444442e+01   2.764569e+05  -2.476220e+05   2.137963e+06  -6.007017e+00  -6.706519e+00  -6.049939e-22   2.169938e+06   8.701007e-41   0.000000e+00   0.000000e+00
      176000   1.759990e-06   5.865635e-01   9.423013e+00   2.461546e+01   2.764569e+05  -2.476220e+05   2.137963e+06  -4.614102e+00  -5.151402e+00  -5.883873e-21   2.169938e+06   5.132940e-41   0.000000e+00   0.000000e+00
      184000   1.839990e-06   6.086801e-01   9.403203e+00   2.478650e+01   2.764569e+05  -2.476220e+05   2.137963e+06  -3.884354e+00  -4.336677e+00  -2.304760e-21   2.169938e+06   3.639634e-41   0.000000e+00   0.000000e+00
      192000   1.919990e-06   6.307967e-01   9.383393e+00   2.495753e+01   2.764569e+05  -2.476220e+05   2.137963e+06  -2.038538e+00  -2.275920e+00  -1.020706e-21   2.169938e+06   1.003192e-41   0.000000e+00   0.000000e+00
      200000   1.999990e-06   6.529132e-01   9.363583e+00   2.512857e+01   2.764569e+05  -2.476220e+05   2.137963e+06  -4.168211e+00  -4.653589e+00  -3.001931e-21   2.169938e+06   4.192708e-41   0.000000e+00   0.000000e+00
      208000   2.079990e-06   6.750298e-01   9.343773e+00   2.529961e+01   2.764569e+05  -2.476220e+05   2.137963e+06  -1.021286e+01  -1.140212e+01  -4.748207e-21   2.169938e+06   2.515753e-40   0.000000e+00   0.000000e+00
      216000   2.159990e-06   6.971463e-01   9.323964e+00   2.547065e+01   2.764569e+05  -2.476220e+05   2.137963e+06  -9.784742e+00  -1.092415e+01  -1.554302e-20   2.169938e+06   2.309238e-40   0.000000e+00   0.000000e+00
      224000   2.239990e-06   7.192629e-01   9.304154e+00   2.564168e+01   2.764569e+05  -2.476220e+05   2.137963e+06  -6.899498e+00  -7.702927e+00  -1.186001e-20   2.169938e+06   1.148323e-40   0.000000e+00   0.000000e+00
      232000   2.319990e-06   7.413794e-01   9.284344e+00   2.581272e+01   2.764569e+05  -2.476220e+05   2.137963e+06  -6.600570e+00  -7.369189e+00  -2.033680e-20   2.169938e+06   1.051017e-40   0.000000e+00   0.000000e+00
      240000   2.399990e-06   7.634960e-01   9.264534e+00   2.598376e+01   2.764569e+05  -2.476220e+05   2.137963e+06  -7.545111e+00  -8.423720e+00   6.485075e-22   2.169938e+06   1.373390e-40   0.000000e+00   0.000000e+00
      248000   2.479990e-06   7.856125e-01   9.244725e+00   2.615479e+01   2.764569e+05  -2.476220e+05   2.137963e+06  -7.348046e+00  -8.203708e+00  -9.276062e-21   2.169938e+06   1.302587e-40   0.000000e+00   0.000000e+00
      256000   2.559990e-06   8.077291e-01   9.224915e+00   2.632583e+01   2.764569e+05  -2.476220e+05   2.137963e+06  -5.617358e+00  -6.271485e+00   6.207416e-21   2.169938e+06   7.612957e-41   0.000000e+00   0.000000e+00
      264000   2.639990e-06   8.298457e-01   9.205105e+00   2.649687e+01   2.764569e+05  -2.476220e+05   2.137963e+06  -6.020664e+00  -6.721755e+00   1.130083e-20   2.169938e+06   8.743759e-41   0.000000e+00   0.000000e+00
      272000   2.719990e-06   8.519622e-01   9.185295e+00   2.666791e+01   2.764569e+05  -2.476220e+05   2.137963e+06   8.161289e-01   9.111650e-01  -3.790637e-23   2.169938e+06   1.603639e-42   0.000000e+00   0.000000e+00
      280000   2.799990e-06   8.740788e-01   9.165486e+00   2.683894e+01   2.764569e+05  -2.476220e+05   2.137963e+06  -1.448462e-01  -1.617132e-01   4.134464e-23   2.169938e+06   5.118016e-44   0.000000e+00   0.000000e+00
      288000   2.879990e-06   8.961953e-01   9.145676e+00   2.700998e+01   2.764569e+05  -2.476220e+05   2.137963e+06  -1.105821e+00  -1.234591e+00   9.560077e-23   2.169938e+06   2.954305e-42   0.000000e+00   0.000000e+00
      296000   2.959990e-06   9.183119e-01   9.125866e+00   2.718102e+01   2.764569e+05  -2.476220e+05   2.137963e+06  -5.318212e+00  -5.937504e+00  -3.519534e-21   2.169938e+06   6.824722e-41   0.000000e+00   0.000000e+00
      304000   3.039990e-06   9.404284e-01   9.106056e+00   2.735205e+01   2.764569e+05  -2.476220e+05   2.137963e+06  -6.307068e+00  -7.041510e+00   8.968368e-21   2.169938e+06   9.598260e-41   0.000000e+00   0.000000e+00
      312000   3.119990e-06   9.625450e-01   9.086247e+00   2.752309e+01   2.764569e+05  -2.476220e+05   2.137963e+06  -5.785667e+00  -6.459393e+00  -6.491015e-21   2.169938e+06   8.076498e-41   0.000000e+00   0.000000e+00
      320000   3.199990e-06   9.846615e-01   9.066437e+00   2.769413e+01   2.764569e+05  -2.476220e+05   2.137963e+06  -7.770301e+00  -8.675132e+00   4.168385e-21   2.169938e+06   1.456372e-40   0.000000e+00   0.000000e+00
      328000   3.279990e-06   1.006778e+00   9.046627e+00   2.786516e+01   2.764569e+05  -2.476220e+05   2.137963e+06  -6.266462e+00  -6.996175e+00  -1.929632e-21   2.169938e+06   9.473775e-41   0.000000e+00   0.000000e+00
      336000   3.359990e-06   1.028895e+00   9.026817e+00   2.803620e+01   2.764569e+05  -2.476220e+05   2.137963e+06  -7.330156e+00  -8.183734e+00  -6.932819e-21   2.169938e+06   1.296285e-40   0.000000e+00   0.000000e+00
      344000   3.439990e-06   1.051011e+00   9.007008e+00   2.820724e+01   2.764569e+05  -2.476220e+05   2.137963e+06  -8.393849e+00  -9.371292e+00  -5.872827e-21   2.169938e+06   1.699783e-40   0.000000e+00   0.000000e+00
      352000   3.519990e-06   1.073128e+00   8.987198e+00   2.837828e+01   2.764569e+05  -2.476220e+05   2.137963e+06  -3.211184e+00  -3.585119e+00  -6.465645e-21   2.169938e+06   2.489278e-41   0.000000e+00   0.000000e+00
      360000   3.599990e-06   1.095244e+00   8.967388e+00   2.854931e+01   2.764569e+05  -2.476220e+05   2.137963e+06  -4.722778e+00  -5.272733e+00   7.150906e-21   2.169938e+06   5.383247e-41   0.000000e+00   0.000000e+00
      368000   3.679990e-06   1.117361e+00   8.947578e+00   2.872035e+01   2.764569e+05  -2.476220e+05   2.137963e+06  -8.573084e+00  -9.571397e+00   9.610558e-21   2.169938e+06   1.772811e-40   0.000000e+00   0.000000e+00
      376000   3.759990e-06   1.139477e+00   8.927769e+00   2.889139e+01   2.764569e+05  -2.476220e+05   2.137963e+06  -3.156199e+00  -3.523730e+00   1.262023e-21   2.169938e+06   2.404449e-41   0.000000e+00   0.000000e+00
      384000   3.839990e-06   1.161594e+00   8.907959e+00   2.906242e+01   2.764569e+05  -2.476220e+05   2.137963e+06  -1.942401e+00  -2.168589e+00  -1.105438e-21   2.169938e+06   9.109873e-42   0.000000e+00   0.000000e+00
      392000   3.919990e-06   1.183711e+00   8.888149e+00   2.923346e+01   2.764569e+05  -2.476220e+05   2.137963e+06  -4.633245e+00  -5.172775e+00   1.560828e-22   2.169938e+06   5.181004e-41   0.000000e+00   0.000000e+00
      400000   3.999990e-06   1.205827e+00   8.868339e+00   2.940450e+01   2.764569e+05  -2.476220e+05   2.137963e+06  -1.471571e+00  -1.642932e+00  -1.313080e-21   2.169938e+06   5.228229e-42   0.000000e+00   0.000000e+00
      408000   4.079990e-06   1.227944e+00   8.848530e+00   2.957553e+01   2.764569e+05  -2.476220e+05   2.137963e+06  -1.052410e+01  -1.174960e+01  -5.988625e-22   2.169938e+06   2.671457e-40   0.000000e+00   0.000000e+00
      416000   4.159990e-06   1.250060e+00   8.828720e+00   2.974657e+01   2.764569e+05  -2.476220e+05   2.137963e+06  -7.955281e+00  -1.148881e+01  -3.019644e-01   2.169938e+06   2.097811e-40   0.000000e+00   0.000000e+00
      424000   4.239990e-06   1.272177e+00   8.808910e+00   2.991761e+01   2.764569e+05  -2.476220e+05   2.137963e+06  -8.472861e+00  -8.257919e+00   1.391692e-01   2.169938e+06   1.503814e-40   0.000000e+00   0.000000e+00
      432000   4.319990e-06   1.294293e+00   8.789100e+00   3.008865e+01   2.764569e+05  -2.476220e+05   2.137963e+06  -1.417757e+02   2.175849e+02   4.353381e+01   2.169938e+06   7.444616e-38   0.000000e+00   0.000000e+00
      440000   4.399990e-06   1.316410e+00   8.769290e+00   3.025968e+01   2.764569e+05  -2.476220e+05   2.137963e+06  -8.915596e+00  -9.953795e+00  -2.095058e-20   2.169938e+06   1.917168e-40   0.000000e+00   0.000000e+00
      448000   4.479990e-06   1.338526e+00   8.749481e+00   3.043072e+01   2.764569e+05  -2.476220e+05   2.137963e+06  -9.111072e+00  -1.017203e+01  -1.192461e-21   2.169938e+06   2.002167e-40   0.000000e+00   0.000000e+00
      456000   4.559990e-06   1.360643e+00   8.729671e+00   3.060176e+01   2.764569e+05  -2.476220e+05   2.137963e+06  -9.306548e+00  -1.039027e+01   6.344956e-21   2.169938e+06   2.089009e-40   0.000000e+00   0.000000e+00
      464000   4.639990e-06   1.382760e+00   8.709861e+00   3.077279e+01   2.764569e+05  -2.476220e+05   2.137963e+06  -5.275467e+00  -5.889782e+00  -4.641225e-21   2.169938e+06   6.716086e-41   0.000000e+00   0.000000e+00
      472000   4.719990e-06   1.404876e+00   8.690051e+00   3.094383e+01   2.764569e+05  -2.476220e+05   2.137963e+06  -5.043567e+00  -5.630877e+00  -6.787832e-21   2.169938e+06   6.139977e-41   0.000000e+00   0.000000e+00
      480000   4.799990e-06   1.426993e+00   8.670242e+00   3.111487e+01   2.764569e+05  -2.476220e+05   2.137963e+06  -5.292137e+00  -5.908393e+00  -2.551693e-21   2.169938e+06   6.759929e-41   0.000000e+00   0.000000e+00
      488000   4.879990e-06   1.449109e+00   8.650432e+00   3.128590e+01   2.764569e+05  -2.476220e+05   2.137963e+06  -1.219634e+01  -1.361657e+01  -9.360603e-21   2.169938e+06   3.587884e-40   0.000000e+00   0.000000e+00
      496000   4.959990e-06   1.471226e+00   8.630622e+00   3.145694e+01   2.764569e+05  -2.476220e+05   2.137963e+06  -8.701119e+00  -9.714342e+00   6.792309e-21   2.169938e+06   1.826003e-40   0.000000e+00   0.000000e+00
      504000   5.039990e-06   1.493342e+00   8.610812e+00   3.162798e+01   2.764569e+05  -2.476220e+05   2.137963e+06  -5.205902e+00  -5.812116e+00  -1.362678e-20   2.169938e+06   6.535469e-41   0.000000e+00   0.000000e+00
      512000   5.119990e-06   1.515459e+00   8.591003e+00   3.179902e+01   2.764569e+05  -2.476220e+05   2.137963e+06  -1.606998e+00  -1.794129e+00  -1.193495e-21   2.169938e+06   6.229515e-42   0.000000e+00   0.000000e+00
      520000   5.199990e-06   1.537575e+00   8.571193e+00   3.197005e+01   2.764569e+05  -2.476220e+05   2.137963e+06  -2.150194e+00  -2.400579e+00  -4.239483e-21   2.169938e+06   1.115285e-41   0.000000e+00   0.000000e+00
      528000   5.279990e-06   1.559692e+00   8.551383e+00   3.214109e+01   2.764569e+05  -2.476220e+05   2.137963e+06  -2.693391e+00  -3.007029e+00   3.402082e-22   2.169938e+06   1.749980e-41   0.000000e+00   0.000000e+00
      536000   5.359990e-06   1.581809e+00   8.531573e+00   3.231213e+01   2.764569e+05  -2.476220e+05   2.137963e+06  -3.236588e+00  -3.613480e+00   1.861669e-21   2.169938e+06   2.527038e-41   0.000000e+00   0.000000e+00
      544000   5.439990e-06   1.603925e+00   8.511764e+00   3.248316e+01   2.764569e+05  -2.476220e+05   2.137963e+06  -4.968204e+00  -5.546738e+00  -4.312144e-21   2.169938e+06   5.957004e-41   0.000000e+00   0.000000e+00
      552000   5.519990e-06   1.626042e+00   8.491954e+00   3.265420e+01   2.764569e+05  -2.476220e+05   2.137963e+06  -8.370118e+00  -9.344796e+00  -8.163205e-22   2.169938e+06   1.690241e-40   0.000000e+00   0.000000e+00
      560000   5.599990e-06   1.648158e+00   8.472144e+00   3.282524e+01   2.764569e+05  -2.476220e+05   2.137963e+06  -8.220576e+00  -9.177841e+00   7.691255e-21   2.169938e+06   1.630387e-40   0.000000e+00   0.000000e+00
      568000   5.679990e-06   1.670275e+00   8.452334e+00   3.299628e+01   2.764569e+05  -2.476220e+05   2.137963e+06  -5.294210e+00  -5.910708e+00  -1.748974e-21   2.169938e+06   6.760957e-41   0.000000e+00   0.000000e+00
      576000   5.759990e-06   1.692391e+00   8.432525e+00   3.316731e+01   2.764569e+05  -2.476220e+05   2.137963e+06  -4.898939e+00  -5.469408e+00   6.324541e-22   2.169938e+06   5.789036e-41   0.000000e+00   0.000000e+00
      584000   5.839990e-06   1.714508e+00   8.412715e+00   3.333835e+01   2.764569e+05  -2.476220e+05   2.137963e+06  -6.698993e+00  -7.479074e+00   1.182710e-20   2.169938e+06   1.082420e-40   0.000000e+00   0.000000e+00
      592000   5.919990e-06   1.736624e+00   8.392905e+00   3.350939e+01   2.764569e+05  -2.476220e+05   2.137963e+06  -3.190664e+00  -3.562208e+00  -2.827603e-21   2.169938e+06   2.455474e-41   0.000000e+00   0.000000e+00
      600000   5.999990e-06   1.758741e+00   8.373095e+00   3.368042e+01   2.764569e+05  -2.476220e+05   2.137963e+06  -1.008701e+00  -1.126162e+00   6.722995e-22   2.169938e+06   2.457082e-42   0.000000e+00   0.000000e+00
      608000   6.079990e-06   1.780858e+00   8.353286e+00   3.385146e+01   2.764569e+05  -2.476220e+05   2.137963e+06   3.550427e-02   3.963865e-02   1.958123e-23   2.169938e+06   2.953191e-45   0.000000e+00   0.000000e+00
      616000   6.159990e-06   1.802974e+00   8.333476e+00   3.402250e+01   2.764569e+05  -2.476220e+05   2.137963e+06  -5.801651e+00  -6.477238e+00  -1.644525e-21   2.169938e+06   8.118306e-41   0.000000e+00   0.000000e+00
      624000   6.239990e-06   1.825091e+00   8.313666e+00   3.419353e+01   2.764569e+05  -2.476220e+05   2.137963e+06  -3.372613e+00  -3.765345e+00   3.742628e-22   2.169938e+06   2.744924e-41   0.000000e+00   0.000000e+00
      632000   6.319990e-06   1.847207e+00   8.293856e+00   3.436457e+01   2.764569e+05  -2.476220e+05   2.137963e+06  -4.971606e+00  -5.550537e+00  -3.943654e-21   2.169938e+06   5.960671e-41   0.000000e+00   0.000000e+00
      640000   6.399990e-06   1.869324e+00   8.274046e+00   3.453561e+01   2.764569e+05  -2.476220e+05   2.137963e+06  -3.870019e+00  -4.320673e+00   2.912281e-21   2.169938e+06   3.611484e-41   0.000000e+00   0.000000e+00
      648000   6.479990e-06   1.891440e+00   8.254237e+00   3.470665e+01   2.764569e+05  -2.476220e+05   2.137963e+06  -2.768432e+00  -3.090809e+00  -2.421338e-21   2.169938e+06   1.847784e-41   0.000000e+00   0.000000e+00
      656000   6.559990e-06   1.913557e+00   8.234427e+00   3.487768e+01   2.764569e+05  -2.476220e+05   2.137963e+06  -6.175332e+00  -6.894434e+00  -4.398746e-21   2.169938e+06   9.202693e-41   0.000000e+00   0.000000e+00
      664000   6.639990e-06   1.935673e+00   8.214617e+00   3.504872e+01   2.764569e+05  -2.476220e+05   2.137963e+06  -7.250012e+00  -8.094257e+00  -5.403521e-21   2.169938e+06   1.268383e-40   0.000000e+00   0.000000e+00
      672000   6.719990e-06   1.957790e+00   8.194807e+00   3.521976e+01   2.764569e+05  -2.476220e+05   2.137963e+06  -3.842069e+00  -4.289468e+00  -3.822406e-21   2.169938e+06   3.562627e-41   0.000000e+00   0.000000e+00
      680000   6.799990e-06   1.979907e+00   8.174998e+00   3.539079e+01   2.764569e+05  -2.476220e+05   2.137963e+06  -3.479609e+00  -3.884801e+00  -1.078227e-21   2.169938e+06   2.919715e-41   0.000000e+00   0.000000e+00
      688000   6.879990e-06   2.002023e+00   8.155188e+00   3.556183e+01   2.764569e+05  -2.476220e+05   2.137963e+06  -1.056116e+01  -1.179098e+01   8.315913e-21   2.169938e+06   2.690571e-40   0.000000e+00   0.000000e+00
      696000   6.959990e-06   2.024140e+00   8.135378e+00   3.573287e+01   2.764569e+05  -2.476220e+05   2.137963e+06  -9.346084e+00  -1.043441e+01   1.029510e-20   2.169938e+06   2.107058e-40   0.000000e+00   0.000000e+00
      704000   7.039990e-06   2.046256e+00   8.115568e+00   3.590390e+01   2.764569e+05  -2.476220e+05   2.137963e+06  -8.131005e+00  -9.077839e+00   6.233415e-21   2.169938e+06   1.594779e-40   0.000000e+00   0.000000e+00
      712000   7.119990e-06   2.068373e+00   8.095759e+00   3.607494e+01   2.764569e+05  -2.476220e+05   2.137963e+06   5.185829e+00   5.789706e+00  -9.295568e-21   2.169938e+06   6.483883e-41   0.000000e+00   0.000000e+00
      720000   7.199990e-06   2.090489e+00   8.075949e+00   3.624598e+01   2.764569e+05  -2.476220e+05   2.137963e+06   3.552730e+00   3.966436e+00   3.003288e-21   2.169938e+06   3.042337e-41   0.000000e+00   0.000000e+00
      728000   7.279990e-06   2.112606e+00   8.056139e+00   3.641702e+01   2.764569e+05  -2.476220e+05   2.137963e+06  -7.600560e+00  -8.485625e+00  -1.396920e-20   2.169938e+06   1.393462e-40   0.000000e+00   0.000000e+00
      736000   7.359990e-06   2.134722e+00   8.036329e+00   3.658805e+01   2.764569e+05  -2.476220e+05   2.137963e+06  -6.171878e+00  -6.890577e+00  -5.612065e-22   2.169938e+06   9.190572e-41   0.000000e+00   0.000000e+00
      744000   7.439990e-06   2.156839e+00   8.016520e+00   3.675909e+01   2.764569e+05  -2.476220e+05   2.137963e+06  -5.784736e+00  -6.458354e+00  -4.463012e-21   2.169938e+06   8.073816e-41   0.000000e+00   0.000000e+00
      752000   7.519990e-06   2.178956e+00   7.996710e+00   3.693013e+01   2.764569e+05  -2.476220e+05   2.137963e+06  -2.326171e+00  -2.597048e+00  -5.060131e-21   2.169938e+06   1.305439e-41   0.000000e+00   0.000000e+00
      760000   7.599990e-06   2.201072e+00   7.976900e+00   3.710116e+01   2.764569e+05  -2.476220e+05   2.137963e+06  -6.315362e+00  -7.050769e+00   2.563135e-21   2.169938e+06   9.622392e-41   0.000000e+00   0.000000e+00
      768000   7.679990e-06   2.223189e+00   7.957090e+00   3.727220e+01   2.764569e+05  -2.476220e+05   2.137963e+06  -1.168774e+01  -1.304875e+01   1.851818e-20   2.169938e+06   3.295251e-40   0.000000e+00   0.000000e+00
      776000   7.759990e-06   2.245305e+00   7.937281e+00   3.744324e+01   2.764569e+05  -2.476220e+05   2.137963e+06  -1.209623e+01  -1.350481e+01   1.912039e-20   2.169938e+06   3.529624e-40   0.000000e+00   0.000000e+00
      784000   7.839990e-06   2.267422e+00   7.917471e+00   3.761427e+01   2.764569e+05  -2.476220e+05   2.137963e+06  -1.250473e+01  -1.396087e+01  -4.711570e-21   2.169938e+06   3.772048e-40   0.000000e+00   0.000000e+00
      792000   7.919990e-06   2.289538e+00   7.897661e+00   3.778531e+01   2.764569e+05  -2.476220e+05   2.137963e+06   1.857884e+00   2.074230e+00  -1.006641e-21   2.169938e+06   8.320119e-42   0.000000e+00   0.000000e+00
      800000   7.999990e-06   2.311655e+00   7.877851e+00   3.795635e+01   2.764569e+05  -2.476220e+05   2.137963e+06  -2.566394e+00  -2.865244e+00   4.205654e-21   2.169938e+06   1.590136e-41   0.000000e+00   0.000000e+00
      808000   8.079990e-06   2.333771e+00   7.858042e+00   3.812739e+01   2.764569e+05  -2.476220e+05   2.137963e+06  -5.198509e+00  -5.803862e+00  -9.158249e-21   2.169938e+06   6.521904e-41   0.000000e+00   0.000000e+00
      816000   8.159990e-06   2.355888e+00   7.838232e+00   3.829842e+01   2.764569e+05  -2.476220e+05   2.137963e+06  -1.737399e+01  -1.939715e+01  -4.823577e-21   2.169938e+06   7.281047e-40   0.000000e+00   0.000000e+00
      824000   8.239990e-06   2.378005e+00   7.818422e+00   3.846946e+01   2.764569e+05  -2.476220e+05   2.137963e+06  -1.567912e+01  -1.750491e+01   5.959336e-21   2.169938e+06   5.929691e-40   0.000000e+00   0.000000e+00
      832000   8.319990e-06   2.400121e+00   7.798612e+00   3.864050e+01   2.764569e+05  -2.476220e+05   2.137963e+06  -1.017176e+01  -1.135623e+01   4.574734e-22   2.169938e+06   2.496538e-40   0.000000e+00   0.000000e+00
      840000   8.399990e-06   2.422238e+00   7.778802e+00   3.881153e+01   2.764569e+05  -2.476220e+05   2.137963e+06  -1.040714e+01  -1.161902e+01  -1.344521e-20   2.169938e+06   2.613406e-40   0.000000e+00   0.000000e+00
      848000   8.479990e-06   2.444354e+00   7.758993e+00   3.898257e+01   2.764569e+05  -2.476220e+05   2.137963e+06  -1.372216e+01  -1.532007e+01  -9.235239e-21   2.169938e+06   4.541853e-40   0.000000e+00   0.000000e+00
      856000   8.559990e-06   2.466471e+00   7.739183e+00   3.915361e+01   2.764569e+05  -2.476220e+05   2.137963e+06  -1.238432e+01  -1.382645e+01   5.077509e-21   2.169938e+06   3.699353e-40   0.000000e+00   0.000000e+00
      864000   8.639990e-06   2.488587e+00   7.719373e+00   3.932465e+01   2.764569e+05  -2.476220e+05   2.137963e+06  -1.104649e+01  -1.233282e+01  -4.944796e-21   2.169938e+06   2.943209e-40   0.000000e+00   0.000000e+00
      872000   8.719990e-06   2.510704e+00   7.699563e+00   3.949568e+01   2.764569e+05  -2.476220e+05   2.137963e+06  -2.420684e+00  -2.702566e+00   2.670286e-21   2.169938e+06   1.414699e-41   0.000000e+00   0.000000e+00
      880000   8.799990e-06   2.532820e+00   7.679754e+00   3.966672e+01   2.764569e+05  -2.476220e+05   2.137963e+06  -3.502064e+00  -3.909871e+00  -1.831967e-22   2.169938e+06   2.960273e-41   0.000000e+00   0.000000e+00
      888000   8.879990e-06   2.554937e+00   7.659944e+00   3.983776e+01   2.764569e+05  -2.476220e+05   2.137963e+06  -4.583444e+00  -5.117175e+00  -4.215994e-23   2.169938e+06   5.070053e-41   0.000000e+00   0.000000e+00
      896000   8.959990e-06   2.577054e+00   7.640134e+00   4.000879e+01   2.764569e+05  -2.476220e+05   2.137963e+06  -5.664825e+00  -6.324479e+00  -3.027293e-21   2.169938e+06   7.744039e-41   0.000000e+00   0.000000e+00
      904000   9.039990e-06   2.599170e+00   7.620324e+00   4.017983e+01   2.764569e+05  -2.476220e+05   2.137963e+06  -1.728674e+01  -1.929973e+01  -7.714174e-21   2.169938e+06   7.208164e-40   0.000000e+00   0.000000e+00
      912000   9.119990e-06   2.621287e+00   7.600515e+00   4.035087e+01   2.764569e+05  -2.476220e+05   2.137963e+06  -8.875408e+00  -9.908927e+00   8.291363e-22   2.169938e+06   1.900911e-40   0.000000e+00   0.000000e+00
      920000   9.199990e-06   2.643403e+00   7.580705e+00   4.052190e+01   2.764569e+05  -2.476220e+05   2.137963e+06  -1.820501e+01  -2.032494e+01  -1.437092e-20   2.169938e+06   7.994397e-40   0.000000e+00   0.000000e+00
      928000   9.279990e-06   2.665520e+00   7.560895e+00   4.069294e+01   2.764569e+05  -2.476220e+05   2.137963e+06  -5.026549e+00  -5.611878e+00  -4.507982e-21   2.169938e+06   6.096993e-41   0.000000e+00   0.000000e+00
      936000   9.359990e-06   2.687636e+00   7.541085e+00   4.086398e+01   2.764569e+05  -2.476220e+05   2.137963e+06  -6.943975e+00  -7.752583e+00   1.577627e-21   2.169938e+06   1.163476e-40   0.000000e+00   0.000000e+00
      944000   9.439990e-06   2.709753e+00   7.521276e+00   4.103502e+01   2.764569e+05  -2.476220e+05   2.137963e+06  -1.272321e+01  -1.420480e+01   1.556164e-21   2.169938e+06   3.904276e-40   0.000000e+00   0.000000e+00
      952000   9.519990e-06   2.731869e+00   7.501466e+00   4.120605e+01   2.764569e+05  -2.476220e+05   2.137963e+06  -9.938806e+00  -1.109615e+01  -2.068322e-20   2.169938e+06   2.382244e-40   0.000000e+00   0.000000e+00
      960000   9.599990e-06   2.753986e+00   7.481656e+00   4.137709e+01   2.764569e+05  -2.476220e+05   2.137963e+06  -1.601170e+01  -1.787622e+01   9.365376e-22   2.169938e+06   6.184888e-40   0.000000e+00   0.000000e+00
      968000   9.679990e-06   2.776103e+00   7.461846e+00   4.154813e+01   2.764569e+05  -2.476220e+05   2.137963e+06  -1.289208e+01  -1.439333e+01   8.185971e-21   2.169938e+06   4.009635e-40   0.000000e+00   0.000000e+00
      976000   9.759990e-06   2.798219e+00   7.442037e+00   4.171916e+01   2.764569e+05  -2.476220e+05   2.137963e+06  -9.772464e+00  -1.091044e+01  -8.715869e-21   2.169938e+06   2.303933e-40   0.000000e+00   0.000000e+00
      984000   9.839990e-06   2.820336e+00   7.422227e+00   4.189020e+01   2.764569e+05  -2.476220e+05   2.137963e+06  -5.532639e+00  -6.176901e+00  -1.311673e-20   2.169938e+06   7.385884e-41   0.000000e+00   0.000000e+00
      992000   9.919990e-06   2.842452e+00   7.402417e+00   4.206124e+01   2.764569e+05  -2.476220e+05   2.137963e+06  -8.012834e+00  -8.945908e+00   2.591771e-21   2.169938e+06   1.549113e-40   0.000000e+00   0.000000e+00
     1000000   9.999990e-06   2.864569e+00   7.382607e+00   4.223227e+01   2.764569e+05  -2.476220e+05   2.137963e+06  -8.777658e+00  -9.799794e+00   7.307428e-22   2.169938e+06   1.858475e-40   0.000000e+00   0.000000e+00
     1008000   1.007999e-05   2.886685e+00   7.362798e+00   4.240331e+01   2.764569e+05  -2.476220e+05   2.137963e+06  -7.730608e+00  -8.630818e+00   7.535420e-21   2.169938e+06   1.441517e-40   0.000000e+00   0.000000e+00
     1016000   1.015999e-05   2.908802e+00   7.342988e+00   4.257435e+01   2.764569e+05  -2.476220e+05   2.137963e+06  -1.185690e+01  -1.323760e+01   2.936282e-20   2.169938e+06   3.390874e-40   0.000000e+00   0.000000e+00
     1024000   1.023999e-05   2.930918e+00   7.323178e+00   4.274539e+01   2.764569e+05  -2.476220e+05   2.137963e+06  -9.156051e+00  -1.022225e+01   9.521522e-21   2.169938e+06   2.021910e-40   0.000000e+00   0.000000e+00
     1032000   1.031999e-05   2.953035e+00   7.303368e+00   4.291642e+01   2.764569e+05  -2.476220e+05   2.137963e+06  -6.455203e+00  -7.206895e+00   8.081901e-21   2.169938e+06   1.004897e-40   0.000000e+00   0.000000e+00
     1040000   1.039999e-05   2.975152e+00   7.283558e+00   4.308746e+01   2.764569e+05  -2.476220e+05   2.137963e+06  -5.102347e+00  -5.696503e+00  -3.362249e-21   2.169938e+06   6.280129e-41   0.000000e+00   0.000000e+00
     1048000   1.047999e-05   2.997268e+00   7.263749e+00   4.325850e+01   2.764569e+05  -2.476220e+05   2.137963e+06  -4.315316e+00  -4.817824e+00  -3.703001e-21   2.169938e+06   4.492104e-41   0.000000e+00   0.000000e+00
     1056000   1.055999e-05   3.019385e+00   7.243939e+00   4.342953e+01   2.764569e+05  -2.476220e+05   2.137963e+06  -3.485334e+00  -3.891192e+00  -2.231876e-21   2.169938e+06   2.930966e-41   0.000000e+00   0.000000e+00
     1064000   1.063999e-05   3.041501e+00   7.224129e+00   4.360057e+01   2.764569e+05  -2.476220e+05   2.137963e+06  -4.769665e+00  -5.325081e+00  -1.330997e-21   2.169938e+06   5.488813e-41   0.000000e+00   0.000000e+00
     1072000   1.071999e-05   3.063618e+00   7.204319e+00   4.377161e+01   2.764569e+05  -2.476220e+05   2.137963e+06  -6.885843e+00  -7.687681e+00   1.948562e-21   2.169938e+06   1.143722e-40   0.000000e+00   0.000000e+00
     1080000   1.079999e-05   3.085734e+00   7.184510e+00   4.394264e+01   2.764569e+05  -2.476220e+05   2.137963e+06   1.653023e+00   1.845513e+00  -2.496531e-21   2.169938e+06   6.592239e-42   0.000000e+00   0.000000e+00
     1088000   1.087999e-05   3.107851e+00   7.164700e+00   4.411368e+01   2.764569e+05  -2.476220e+05   2.137963e+06  -5.231829e+00  -5.841062e+00   6.260095e-21   2.169938e+06   6.605400e-41   0.000000e+00   0.000000e+00
     1096000   1.095999e-05   3.129967e+00   7.144890e+00   4.428472e+01   2.764569e+05  -2.476220e+05   2.137963e+06  -8.125068e+00  -9.071211e+00  -5.132203e-21   2.169938e+06   1.592256e-40   0.000000e+00   0.000000e+00
     1104000   1.103999e-05   3.152084e+00   7.125080e+00   4.445576e+01   2.764569e+05  -2.476220e+05   2.137963e+06  -7.429969e+00  -8.295170e+00  -1.132475e-21   2.169938e+06   1.331449e-40   0.000000e+00   0.000000e+00
     1112000   1.111999e-05   3.174201e+00   7.105271e+00   4.462679e+01   2.764569e+05  -2.476220e+05   2.137963e+06  -6.734870e+00  -7.519128e+00   2.883400e-21   2.169938e+06   1.093953e-40   0.000000e+00   0.000000e+00
     1120000   1.119999e-05   3.196317e+00   7.085461e+00   4.479783e+01   2.764569e+05  -2.476220e+05   2.137963e+06  -4.006491e+00  -4.473036e+00   1.468648e-21   2.169938e+06   3.871157e-41   0.000000e+00   0.000000e+00
     1128000   1.127999e-05   3.218434e+00   7.065651e+00   4.496887e+01   2.764569e+05  -2.476220e+05   2.137963e+06  -2.493779e+00  -2.784173e+00   2.533325e-21   2.169938e+06   1.501277e-41   0.000000e+00   0.000000e+00
     1136000   1.135999e-05   3.240550e+00   7.045841e+00   4.513990e+01   2.764569e+05  -2.476220e+05   2.137963e+06  -3.876451e+00  -4.327854e+00   1.707155e-21   2.169938e+06   3.626673e-41   0.000000e+00   0.000000e+00
     1144000   1.143999e-05   3.262667e+00   7.026032e+00   4.531094e+01   2.764569e+05  -2.476220e+05   2.137963e+06  -5.259123e+00  -5.871534e+00   8.404442e-22   2.169938e+06   6.674468e-41   0.000000e+00   0.000000e+00
     1152000   1.151999e-05   3.284783e+00   7.006222e+00   4.548198e+01   2.764569e+05  -2.476220e+05   2.137963e+06  -4.757072e+00  -5.311021e+00   4.619413e-21   2.169938e+06   5.457594e-41   0.000000e+00   0.000000e+00
     1160000   1.159999e-05   3.306900e+00   6.986412e+00   4.565302e+01   2.764569e+05  -2.476220e+05   2.137963e+06  -1.061902e+00  -1.185558e+00  -4.533742e-22   2.169938e+06   2.721132e-42   0.000000e+00   0.000000e+00
     1168000   1.167999e-05   3.329016e+00   6.966602e+00   4.582405e+01   2.764569e+05  -2.476220e+05   2.137963e+06  -4.328325e+00  -4.832347e+00   4.936822e-21   2.169938e+06   4.519830e-41   0.000000e+00   0.000000e+00
     1176000   1.175999e-05   3.351133e+00   6.946793e+00   4.599509e+01   2.764569e+05  -2.476220e+05   2.137963e+06  -1.193071e+01  -1.332001e+01   4.468806e-21   2.169938e+06   3.433465e-40   0.000000e+00   0.000000e+00
     1184000   1.183999e-05   3.373250e+00   6.926983e+00   4.616613e+01   2.764569e+05  -2.476220e+05   2.137963e+06  -1.292162e+01  -1.442631e+01  -2.820595e-20   2.169938e+06   4.027522e-40   0.000000e+00   0.000000e+00
     1192000   1.191999e-05   3.395366e+00   6.907173e+00   4.633716e+01   2.764569e+05  -2.476220e+05   2.137963e+06  -1.391253e+01  -1.553261e+01  -4.095764e-23   2.169938e+06   4.668954e-40   0.000000e+00   0.000000e+00
     1200000   1.199999e-05   3.417483e+00   6.887363e+00   4.650820e+01   2.764569e+05  -2.476220e+05   2.137963e+06  -1.331646e+01  -1.486713e+01  -5.879832e-21   2.169938e+06   4.277523e-40   0.000000e+00   0.000000e+00
     1208000   1.207999e-05   3.439599e+00   6.867554e+00   4.667924e+01   2.764569e+05  -2.476220e+05   2.137963e+06  -9.772585e+00  -1.091058e+01  -4.901440e-21   2.169938e+06   2.304269e-40   0.000000e+00   0.000000e+00
     1216000   1.215999e-05   3.461716e+00   6.847744e+00   4.685027e+01   2.764569e+05  -2.476220e+05   2.137963e+06  -9.803326e+00  -1.094490e+01   2.004140e-20   2.169938e+06   2.318787e-40   0.000000e+00   0.000000e+00
     1224000   1.223999e-05   3.483832e+00   6.827934e+00   4.702131e+01   2.764569e+05  -2.476220e+05   2.137963e+06  -9.834067e+00  -1.097922e+01  -3.823769e-21   2.169938e+06   2.333352e-40   0.000000e+00   0.000000e+00
     1232000   1.231999e-05   3.505949e+00   6.808124e+00   4.719235e+01   2.764569e+05  -2.476220e+05   2.137963e+06  -9.176735e+00  -1.024534e+01   5.604617e-21   2.169938e+06   2.031646e-40   0.000000e+00   0.000000e+00
     1240000   1.239999e-05   3.528065e+00   6.788315e+00   4.736339e+01   2.764569e+05  -2.476220e+05   2.137963e+06  -7.604482e+00  -8.490005e+00   5.284364e-21   2.169938e+06   1.395203e-40   0.000000e+00   0.000000e+00
     1248000   1.247999e-05   3.550182e+00   6.768505e+00   4.753442e+01   2.764569e+05  -2.476220e+05   2.137963e+06  -6.682504e+00  -7.460664e+00   9.242924e-22   2.169938e+06   1.077415e-40   0.000000e+00   0.000000e+00
     1256000   1.255999e-05   3.572299e+00   6.748695e+00   4.770546e+01   2.764569e+05  -2.476220e+05   2.137963e+06  -5.760526e+00  -6.431324e+00   2.664573e-21   2.169938e+06   8.006406e-41   0.000000e+00   0.000000e+00
     1264000   1.263999e-05   3.594415e+00   6.728885e+00   4.787650e+01   2.764569e+05  -2.476220e+05   2.137963e+06  -4.851175e+00  -5.416082e+00   9.611973e-22   2.169938e+06   5.677099e-41   0.000000e+00   0.000000e+00
     1272000   1.271999e-05   3.616532e+00   6.709075e+00   4.804753e+01   2.764569e+05  -2.476220e+05   2.137963e+06  -4.530904e+00  -5.058516e+00  -1.100032e-20   2.169938e+06   4.952201e-41   0.000000e+00   0.000000e+00
     1280000   1.279999e-05   3.638648e+00   6.689266e+00   4.821857e+01   2.764569e+05  -2.476220e+05   2.137963e+06  -6.235671e+00  -6.961799e+00   1.019752e-20   2.169938e+06   9.377307e-41   0.000000e+00   0.000000e+00
     1288000   1.287999e-05   3.660765e+00   6.669456e+00   4.838961e+01   2.764569e+05  -2.476220e+05   2.137963e+06  -1.089501e+00  -1.216370e+00  -1.219234e-21   2.169938e+06   2.867680e-42   0.000000e+00   0.000000e+00
     1296000   1.295999e-05   3.682881e+00   6.649646e+00   4.856064e+01   2.764569e+05  -2.476220e+05   2.137963e+06  -2.688966e+00  -3.002090e+00  -2.404728e-21   2.169938e+06   1.745318e-41   0.000000e+00   0.000000e+00
     1304000   1.303999e-05   3.704998e+00   6.629836e+00   4.873168e+01   2.764569e+05  -2.476220e+05   2.137963e+06  -8.153887e+00  -9.103386e+00  -1.411014e-20   2.169938e+06   1.603754e-40   0.000000e+00   0.000000e+00
     1312000   1.311999e-05   3.727114e+00   6.610027e+00   4.890272e+01   2.764569e+05  -2.476220e+05   2.137963e+06  -6.544265e+00  -7.306328e+00   1.662896e-21   2.169938e+06   1.033047e-40   0.000000e+00   0.000000e+00
     1320000   1.319999e-05   3.749231e+00   6.590217e+00   4.907376e+01   2.764569e+05  -2.476220e+05   2.137963e+06  -1.198087e+01  -1.337601e+01   2.843457e-20   2.169938e+06   3.462403e-40   0.000000e+00   0.000000e+00
     1328000   1.327999e-05   3.771348e+00   6.570407e+00   4.924479e+01   2.764569e+05  -2.476220e+05   2.137963e+06  -9.832408e+00  -1.097737e+01  -5.783802e-21   2.169938e+06   2.331899e-40   0.000000e+00   0.000000e+00
     1336000   1.335999e-05   3.793464e+00   6.550597e+00   4.941583e+01   2.764569e+05  -2.476220e+05   2.137963e+06  -7.683943e+00  -8.578719e+00  -9.373664e-21   2.169938e+06   1.424103e-40   0.000000e+00   0.000000e+00
     1344000   1.343999e-05   3.815581e+00   6.530788e+00   4.958687e+01   2.764575e+05  -2.476227e+05   2.137963e+06   2.863057e+07  -3.283181e+07  -7.504825e+06   2.169938e+06   2.097270e-27   0.000000e+00   0.000000e+00
     1352000   1.351999e-05   3.837697e+00   6.510978e+00   4.975790e+01   2.764658e+05  -2.476322e+05   2.137961e+06   2.613984e+08  -2.994383e+08  -6.848503e+07   2.169938e+06   1.746518e-25   0.000000e+00   0.000000e+00
     1360000   1.359999e-05   3.859815e+00   6.491166e+00   4.992894e+01   2.764775e+05  -2.476455e+05   2.137957e+06   0.000000e+00   0.000000e+00   0.000000e+00   2.169938e+06   0.000000e+00   0.000000e+00   0.000000e+00
