     timestep     time              x             y              z              vx             vy             vz             ax             ay             az         v_magnitude      ELoss        Electronic      Nuclear
           0   0.000000e+00   1.000000e-01   1.140079e+01   2.076201e+01  -3.142199e+04   5.908842e+03   1.439217e+05   0.000000e+00   0.000000e+00   0.000000e+00   1.474304e+05   0.000000e+00   0.000000e+00   0.000000e+00
        8000   7.999000e-08   9.786407e-02   1.140017e+01   2.077358e+01  -2.012411e+04  -2.041458e+04   1.446170e+05   2.076493e+11  -2.909072e+11  -1.216118e+10   1.474307e+05   9.905081e-24   0.000000e+00   0.000000e+00
       16000   1.599900e-07   9.703378e-02   1.139772e+01   2.078506e+01   6.263785e+02  -3.925511e+04   1.421076e+05   3.019921e+11  -1.737174e+11  -4.930926e+10   1.474311e+05   9.588758e-24   0.000000e+00   0.000000e+00
       24000   2.399900e-07   9.810485e-02   1.139418e+01   2.079624e+01   2.662851e+04  -4.752605e+04   1.369971e+05   3.378228e+11  -3.111569e+10  -7.644916e+10   1.474314e+05   9.366403e-24   0.000000e+00   0.000000e+00
       32000   3.199900e-07   1.012954e-01   1.139046e+01   2.080695e+01   5.262744e+04  -4.324931e+04   1.307515e+05   3.024954e+11   1.291466e+11  -7.902709e+10   1.474317e+05   8.862301e-24   0.000000e+00   0.000000e+00
       40000   3.999900e-07   1.063962e-01   1.138754e+01   2.081716e+01   7.377428e+04  -2.817322e+04   1.244983e+05   2.188612e+11   2.412660e+11  -7.508514e+10   1.474320e+05   8.654757e-24   0.000000e+00   0.000000e+00
       48000   4.799900e-07   1.128796e-01   1.138614e+01   2.082689e+01   8.673743e+04  -5.881063e+03   1.190728e+05   1.013655e+11   3.073860e+11  -5.864769e+10   1.474323e+05   8.380119e-24   0.000000e+00   0.000000e+00
       56000   5.599900e-07   1.200053e-01   1.138668e+01   2.083626e+01   8.967748e+04   1.955742e+04   1.153769e+05  -2.791003e+10   3.194012e+11  -3.243913e+10   1.474326e+05   8.043076e-24   0.000000e+00   0.000000e+00
       64000   6.399900e-07   1.269580e-01   1.138924e+01   2.084542e+01   8.254847e+04   4.381286e+04   1.140291e+05  -1.468909e+11   2.788160e+11  -7.815390e+08   1.474329e+05   7.692060e-24   0.000000e+00   0.000000e+00
       72000   7.199900e-07   1.329860e-01   1.139356e+01   2.085457e+01   6.694565e+04   6.301978e+04   1.152533e+05  -2.371405e+11   1.953943e+11   3.091254e+10   1.474331e+05   7.386478e-24   0.000000e+00   0.000000e+00
       80000   7.999900e-07   1.375183e-01   1.139911e+01   2.086392e+01   4.570626e+04   7.434703e+04   1.188279e+05  -2.863534e+11   8.477328e+10   5.711138e+10   1.474334e+05   7.160055e-24   0.000000e+00   0.000000e+00
       88000   8.799900e-07   1.402430e-01   1.140520e+01   2.087363e+01   2.236937e+04   7.634959e+04   1.241251e+05  -2.894426e+11  -3.446460e+10   7.336883e+10   1.474337e+05   6.997532e-24   0.000000e+00   0.000000e+00
       96000   9.599900e-07   1.411387e-01   1.141108e+01   2.088380e+01   5.632214e+02   6.910053e+04   1.302365e+05  -2.489980e+11  -1.436591e+11   7.730587e+10   1.474339e+05   6.863280e-24   0.000000e+00   0.000000e+00
      104000   1.039990e-06   1.404595e-01   1.141605e+01   2.089446e+01  -1.653226e+04   5.405139e+04   1.361688e+05  -1.735471e+11  -2.272132e+11   6.912689e+10   1.474341e+05   6.701341e-24   0.000000e+00   0.000000e+00
      112000   1.119990e-06   1.386788e-01   1.141959e+01   2.090556e+01  -2.675143e+04   3.382769e+04   1.409856e+05  -7.955207e+10  -2.723276e+11   5.025274e+10   1.474344e+05   6.429759e-24   0.000000e+00   0.000000e+00
      120000   1.199990e-06   1.363960e-01   1.142140e+01   2.091698e+01  -2.891374e+04   1.142363e+04   1.441196e+05   2.553841e+10  -2.808167e+11   2.738808e+10   1.474346e+05   6.216336e-24   0.000000e+00   0.000000e+00
      128000   1.279990e-06   1.342729e-01   1.142144e+01   2.092857e+01  -2.285711e+04  -1.002709e+04   1.453067e+05   1.234663e+11  -2.491584e+11   2.233359e+09   1.474348e+05   5.989300e-24   0.000000e+00   0.000000e+00
      136000   1.359990e-06   1.329289e-01   1.141990e+01   2.094017e+01  -9.708757e+03  -2.754326e+04   1.445136e+05   2.008794e+11  -1.839707e+11  -2.156279e+10   1.474350e+05   5.782818e-24   0.000000e+00   0.000000e+00
      144000   1.439990e-06   1.328543e-01   1.141720e+01   2.095164e+01   8.477471e+03  -3.885599e+04   1.419700e+05   2.482043e+11  -9.614891e+10  -4.113108e+10   1.474352e+05   5.618555e-24   0.000000e+00   0.000000e+00
      152000   1.519990e-06   1.343496e-01   1.141389e+01   2.096285e+01   2.907103e+04  -4.267487e+04   1.380975e+05   2.607071e+11   1.089365e+09  -5.453992e+10   1.474354e+05   5.494815e-24   0.000000e+00   0.000000e+00
      160000   1.599990e-06   1.374949e-01   1.141058e+01   2.097372e+01   4.926734e+04  -3.878979e+04   1.334366e+05   2.387438e+11   9.429496e+10  -6.073218e+10   1.474356e+05   5.389071e-24   0.000000e+00   0.000000e+00
      168000   1.679990e-06   1.421523e-01   1.140787e+01   2.098420e+01   6.647877e+04  -2.801192e+04   1.285815e+05   1.872378e+11   1.716632e+11  -5.940231e+10   1.474358e+05   5.271073e-24   0.000000e+00   0.000000e+00
      176000   1.759990e-06   1.479966e-01   1.140624e+01   2.099430e+01   7.865835e+04  -1.198253e+04   1.241235e+05   1.145573e+11   2.244301e+11  -5.092496e+10   1.474360e+05   5.118567e-24   0.000000e+00   0.000000e+00
      184000   1.839990e-06   1.545670e-01   1.140603e+01   2.100408e+01   8.443551e+04   7.298189e+03   1.206433e+05   2.807854e+10   2.533231e+11  -3.497057e+10   1.474361e+05   5.126196e-24   0.000000e+00   0.000000e+00
      192000   1.919990e-06   1.613186e-01   1.140743e+01   2.101364e+01   8.320297e+04   2.744542e+04   1.185811e+05  -5.802181e+10   2.452278e+11  -1.604096e+10   1.474363e+05   4.938507e-24   0.000000e+00   0.000000e+00
      200000   1.999990e-06   1.677042e-01   1.141038e+01   2.102310e+01   7.542143e+04   4.576206e+04   1.181311e+05  -1.340540e+11   2.082770e+11   4.909553e+09   1.474365e+05   4.753661e-24   0.000000e+00   0.000000e+00
      208000   2.079990e-06   1.732417e-01   1.141464e+01   2.103259e+01   6.224932e+04   6.015089e+04   1.193501e+05  -1.915914e+11   1.482148e+11   2.523478e+10   1.474366e+05   4.593942e-24   0.000000e+00   0.000000e+00
      216000   2.159990e-06   1.775661e-01   1.141985e+01   2.104224e+01   4.541461e+04   6.907268e+04   1.220823e+05  -2.249253e+11   7.307863e+10   4.232993e+10   1.474368e+05   4.470952e-24   0.000000e+00   0.000000e+00
      224000   2.239990e-06   1.804653e-01   1.142553e+01   2.105215e+01   2.697792e+04   7.168762e+04   1.259791e+05  -2.314847e+11  -7.869299e+09   5.405399e+10   1.474370e+05   4.381517e-24   0.000000e+00   0.000000e+00
      232000   2.319990e-06   1.818970e-01   1.143115e+01   2.106241e+01   9.077660e+03   6.790853e+04   1.305516e+05  -2.118704e+11  -8.525977e+10   5.908551e+10   1.474371e+05   4.310303e-24   0.000000e+00   0.000000e+00
      240000   2.399990e-06   1.819850e-01   1.143624e+01   2.107304e+01  -6.313282e+03   5.836646e+04   1.352451e+05  -1.695414e+11  -1.506704e+11   5.711321e+10   1.474373e+05   4.237381e-24   0.000000e+00   0.000000e+00
      248000   2.479990e-06   1.809970e-01   1.144037e+01   2.108404e+01  -1.759398e+04   4.429822e+04   1.395203e+05  -1.102188e+11  -1.975066e+11   4.881398e+10   1.474374e+05   4.146931e-24   0.000000e+00   0.000000e+00
      256000   2.559990e-06   1.793088e-01   1.144325e+01   2.109534e+01  -2.368576e+04   2.737355e+04   1.429248e+05  -4.109453e+10  -2.216164e+11   3.563826e+10   1.474375e+05   4.033299e-24   0.000000e+00   0.000000e+00
      264000   2.639990e-06   1.773548e-01   1.144473e+01   2.110687e+01  -2.428793e+04   9.680425e+03   1.451009e+05   2.625626e+10  -2.179929e+11   1.894172e+10   1.474377e+05   3.761936e-24   0.000000e+00   0.000000e+00
      272000   2.719990e-06   1.755680e-01   1.144482e+01   2.111853e+01  -1.950495e+04  -7.053248e+03   1.459716e+05   9.193677e+10  -1.967480e+11   2.781231e+09   1.474378e+05   3.653567e-24   0.000000e+00   0.000000e+00
      280000   2.799990e-06   1.743635e-01   1.144367e+01   2.113019e+01  -9.880121e+03  -2.127469e+04   1.455600e+05   1.463196e+11  -1.559056e+11  -1.285195e+10   1.474379e+05   3.553753e-24   0.000000e+00   0.000000e+00
      288000   2.879990e-06   1.740868e-01   1.144152e+01   2.114178e+01   3.469508e+03  -3.161018e+04   1.439679e+05   1.843762e+11  -1.005714e+11  -2.652209e+10   1.474381e+05   3.470992e-24   0.000000e+00   0.000000e+00
      296000   2.959990e-06   1.749796e-01   1.143874e+01   2.115320e+01   1.910161e+04  -3.714585e+04   1.413978e+05   2.030520e+11  -3.701314e+10  -3.715096e+10   1.474382e+05   3.406525e-24   0.000000e+00   0.000000e+00
      304000   3.039990e-06   1.771612e-01   1.143572e+01   2.116439e+01   3.541493e+04  -3.749078e+04   1.381241e+05   2.014359e+11   2.808803e+10  -4.402100e+10   1.474383e+05   3.354086e-24   0.000000e+00   0.000000e+00
      312000   3.119990e-06   1.806216e-01   1.143287e+01   2.117529e+01   5.081940e+04  -3.278091e+04   1.344652e+05   1.806860e+11   8.835379e+10  -4.674524e+10   1.474384e+05   3.302641e-24   0.000000e+00   0.000000e+00
      320000   3.199990e-06   1.852298e-01   1.143059e+01   2.118590e+01   6.389141e+04  -2.362962e+04   1.307580e+05   1.437442e+11   1.383156e+11  -4.523823e+10   1.474385e+05   3.240774e-24   0.000000e+00   0.000000e+00
      328000   3.279990e-06   1.907516e-01   1.142919e+01   2.119622e+01   7.349982e+04  -1.103593e+04   1.273348e+05   9.489650e+10   1.738594e+11  -3.970455e+10   1.474386e+05   3.160906e-24   0.000000e+00   0.000000e+00
      336000   3.359990e-06   1.968736e-01   1.142889e+01   2.120629e+01   7.874640e+04   4.040822e+03   1.245828e+05   3.566855e+10   1.983952e+11  -2.897700e+10   1.474388e+05   3.212320e-24   0.000000e+00   0.000000e+00
      344000   3.439990e-06   2.032237e-01   1.142986e+01   2.121618e+01   7.920736e+04   2.006181e+04   1.227271e+05  -2.405600e+10   1.991891e+11  -1.703191e+10   1.474389e+05   3.140483e-24   0.000000e+00   0.000000e+00
      352000   3.519990e-06   2.094221e-01   1.143208e+01   2.122596e+01   7.500590e+04   3.541422e+04   1.218942e+05  -7.991053e+10   1.818069e+11  -3.645738e+09   1.474390e+05   3.055879e-24   0.000000e+00   0.000000e+00
      360000   3.599990e-06   2.151136e-01   1.143547e+01   2.123571e+01   6.665124e+04   4.873620e+04   1.221502e+05  -1.271719e+11   1.489226e+11   9.976453e+09   1.474391e+05   2.978224e-24   0.000000e+00   0.000000e+00
      368000   3.679990e-06   2.199978e-01   1.143980e+01   2.124553e+01   5.498748e+04   5.892046e+04   1.234628e+05  -1.621199e+11   1.040292e+11   2.256141e+10   1.474392e+05   2.913457e-24   0.000000e+00   0.000000e+00
      376000   3.759990e-06   2.238524e-01   1.144479e+01   2.125549e+01   4.110677e+04   6.517504e+04   1.257012e+05  -1.823023e+11   5.144947e+10   3.294325e+10   1.474393e+05   2.863304e-24   0.000000e+00   0.000000e+00
      384000   3.839990e-06   2.265487e-01   1.145011e+01   2.126566e+01   2.624262e+04   6.707330e+04   1.286502e+05  -1.866448e+11  -4.075382e+09   4.020020e+10   1.474394e+05   2.824775e-24   0.000000e+00   0.000000e+00
      392000   3.919990e-06   2.280587e-01   1.145540e+01   2.127609e+01   1.165928e+04   6.457078e+04   1.320344e+05  -1.754429e+11  -5.780008e+10   4.376204e+10   1.474395e+05   2.791257e-24   0.000000e+00   0.000000e+00
      400000   3.999990e-06   2.284535e-01   1.146033e+01   2.128679e+01  -1.453935e+03   5.798975e+04   1.355489e+05  -1.502465e+11  -1.053627e+11   4.346670e+10   1.474396e+05   2.754740e-24   0.000000e+00   0.000000e+00
      408000   4.079990e-06   2.278928e-01   1.146459e+01   2.129777e+01  -1.207535e+04   4.797469e+04   1.388923e+05  -1.136571e+11  -1.431192e+11   3.955584e+10   1.474397e+05   2.708351e-24   0.000000e+00   0.000000e+00
      416000   4.159990e-06   2.266074e-01   1.146794e+01   2.130900e+01  -1.947283e+04   3.546310e+04   1.417803e+05  -6.980099e+10  -1.680484e+11   3.244905e+10   1.474398e+05   2.646364e-24   0.000000e+00   0.000000e+00
      424000   4.239990e-06   2.248778e-01   1.147022e+01   2.132044e+01  -2.311296e+04   2.144599e+04   1.440291e+05  -2.080303e+10  -1.799726e+11   2.346196e+10   1.474399e+05   2.585020e-24   0.000000e+00   0.000000e+00
      432000   4.319990e-06   2.230153e-01   1.147136e+01   2.133202e+01  -2.278974e+04   7.053449e+03   1.454971e+05   2.861553e+10  -1.774610e+11   1.308739e+10   1.474400e+05   2.516023e-24   0.000000e+00   0.000000e+00
      440000   4.399990e-06   2.213341e-01   1.147137e+01   2.134369e+01  -1.862647e+04  -6.581035e+03   1.461106e+05   7.458152e+10  -1.612359e+11   2.247663e+09   1.474400e+05   2.444914e-24   0.000000e+00   0.000000e+00
      448000   4.479990e-06   2.201266e-01   1.147036e+01   2.135538e+01  -1.104034e+04  -1.842490e+04   1.458671e+05   1.136684e+11  -1.330704e+11  -8.203116e+09   1.474401e+05   2.377611e-24   0.000000e+00   0.000000e+00
      456000   4.559990e-06   2.196414e-01   1.146850e+01   2.136701e+01  -6.962617e+02  -2.762294e+04   1.448278e+05   1.431444e+11  -9.558585e+10  -1.754080e+10   1.474402e+05   2.318677e-24   0.000000e+00   0.000000e+00
      464000   4.639990e-06   2.200662e-01   1.146602e+01   2.137853e+01   1.155628e+04  -3.355500e+04   1.431054e+05   1.611508e+11  -5.199012e+10  -2.520199e+10   1.474403e+05   2.270116e-24   0.000000e+00   0.000000e+00
      472000   4.719990e-06   2.215157e-01   1.146322e+01   2.138989e+01   2.475750e+04  -3.587137e+04   1.408509e+05   1.667968e+11  -5.786604e+09  -3.078970e+10   1.474404e+05   2.230998e-24   0.000000e+00   0.000000e+00
      480000   4.799990e-06   2.240262e-01   1.146038e+01   2.140106e+01   3.791470e+04  -3.449759e+04   1.382428e+05   1.600422e+11   4.043139e+10  -3.380198e+10   1.474404e+05   2.199094e-24   0.000000e+00   0.000000e+00
      488000   4.879990e-06   2.275551e-01   1.145780e+01   2.141201e+01   5.006897e+04  -2.957781e+04   1.354879e+05   1.420502e+11   8.163705e+10  -3.467014e+10   1.474405e+05   2.172306e-24   0.000000e+00   0.000000e+00
      496000   4.959990e-06   2.319881e-01   1.145573e+01   2.142274e+01   6.038553e+04  -2.161760e+04   1.327592e+05   1.144419e+11   1.160272e+11  -3.315877e+10   1.474406e+05   2.142401e-24   0.000000e+00   0.000000e+00
      504000   5.039990e-06   2.371495e-01   1.145440e+01   2.143326e+01   6.818424e+04  -1.125295e+04   1.302422e+05   7.952968e+10   1.414499e+11  -2.941190e+10   1.474407e+05   2.106720e-24   0.000000e+00   0.000000e+00
      512000   5.119990e-06   2.428175e-01   1.145398e+01   2.144359e+01   7.298715e+04   7.371019e+02   1.281058e+05   4.001979e+10   1.564935e+11  -2.369927e+10   1.474407e+05   2.064536e-24   0.000000e+00   0.000000e+00
      520000   5.199990e-06   2.487406e-01   1.145454e+01   2.145377e+01   7.454128e+04   1.349196e+04   1.264925e+05  -1.206030e+09   1.605328e+11  -1.641000e+10   1.474408e+05   2.017140e-24   0.000000e+00   0.000000e+00
      528000   5.279990e-06   2.546566e-01   1.145613e+01   2.146384e+01   7.282411e+04   2.613222e+04   1.255092e+05  -4.130215e+10   1.537165e+11  -8.038507e+09   1.474409e+05   1.967392e-24   0.000000e+00   0.000000e+00
      536000   5.359990e-06   2.603103e-01   1.145870e+01   2.147387e+01   6.803289e+04   3.781939e+04   1.252200e+05  -7.764883e+10   1.369045e+11   8.407263e+08   1.474410e+05   1.918878e-24   0.000000e+00   0.000000e+00
      544000   5.439990e-06   2.654702e-01   1.146214e+01   2.148390e+01   6.056003e+04   4.780892e+04   1.256409e+05  -1.080099e+11   1.115657e+11   9.610641e+09   1.474410e+05   1.874922e-24   0.000000e+00   0.000000e+00
      552000   5.519990e-06   2.699430e-01   1.146629e+01   2.149399e+01   5.095740e+04   5.549383e+04   1.267385e+05  -1.306519e+11   7.964586e+10   1.765892e+10   1.474411e+05   1.837728e-24   0.000000e+00   0.000000e+00
      560000   5.599990e-06   2.735835e-01   1.147094e+01   2.150419e+01   3.983781e+04   6.050225e+04   1.284185e+05  -1.462341e+11   4.531511e+10   2.401694e+10   1.474411e+05   1.860150e-24   0.000000e+00   0.000000e+00
      568000   5.679990e-06   2.762948e-01   1.147589e+01   2.151455e+01   2.787831e+04   6.258365e+04   1.305565e+05  -1.511382e+11   6.584092e+09   2.911888e+10   1.474412e+05   1.838410e-24   0.000000e+00   0.000000e+00
      576000   5.759990e-06   2.780439e-01   1.148087e+01   2.152509e+01   1.591150e+04   6.156602e+04   1.330240e+05  -1.464697e+11  -3.174946e+10   3.221581e+10   1.474413e+05   1.820227e-24   0.000000e+00   0.000000e+00
      584000   5.839990e-06   2.788603e-01   1.148566e+01   2.153583e+01   4.683099e+03   5.757765e+04   1.356534e+05  -1.328247e+11  -6.730654e+10   3.315522e+10   1.474413e+05   1.802613e-24   0.000000e+00   0.000000e+00
      592000   5.919990e-06   2.788310e-01   1.149002e+01   2.154679e+01  -5.130500e+03   5.092741e+04   1.382716e+05  -1.113275e+11  -9.797297e+10   3.195575e+10   1.474414e+05   1.782620e-24   0.000000e+00   0.000000e+00
      600000   5.999990e-06   2.780925e-01   1.149375e+01   2.155795e+01  -1.296094e+04   4.207867e+04   1.407138e+05  -8.353659e+10  -1.220189e+11   2.879536e+10   1.474415e+05   1.758024e-24   0.000000e+00   0.000000e+00
      608000   6.079990e-06   2.768217e-01   1.149671e+01   2.156930e+01  -1.837811e+04   3.161469e+04   1.428347e+05  -5.132908e+10  -1.381888e+11   2.398357e+10   1.474415e+05   1.727809e-24   0.000000e+00   0.000000e+00
      616000   6.159990e-06   2.752237e-01   1.149878e+01   2.158080e+01  -2.111057e+04   2.019819e+04   1.445178e+05  -1.677250e+10  -1.457580e+11   1.792298e+10   1.474416e+05   1.692329e-24   0.000000e+00   0.000000e+00
      624000   6.239990e-06   2.735185e-01   1.149993e+01   2.159241e+01  -2.105543e+04   8.527845e+03   1.456811e+05   1.800903e+10  -1.445527e+11   1.106612e+10   1.474416e+05   1.653160e-24   0.000000e+00   0.000000e+00
      632000   6.319990e-06   2.719272e-01   1.150016e+01   2.160409e+01  -1.830462e+04  -2.675426e+03   1.462766e+05   5.003326e+10  -1.336466e+11   3.817988e+09   1.474417e+05   1.578572e-24   0.000000e+00   0.000000e+00
      640000   6.399990e-06   2.706554e-01   1.149953e+01   2.161580e+01  -1.309887e+04  -1.274001e+04   1.463051e+05   7.936316e+10  -1.167964e+11  -3.063600e+09   1.474418e+05   1.545264e-24   0.000000e+00   0.000000e+00
      648000   6.479990e-06   2.698887e-01   1.149816e+01   2.162748e+01  -5.746128e+03  -2.119288e+04   1.457976e+05   1.034784e+11  -9.358488e+10  -9.523734e+09   1.474418e+05   1.514847e-24   0.000000e+00   0.000000e+00
      656000   6.559990e-06   2.697809e-01   1.149620e+01   2.163911e+01   3.287245e+03  -2.758402e+04   1.448013e+05   1.212085e+11  -6.553143e+10  -1.523377e+10   1.474419e+05   1.488615e-24   0.000000e+00   0.000000e+00
      664000   6.639990e-06   2.704449e-01   1.149381e+01   2.165064e+01   1.345509e+04  -3.159516e+04   1.433870e+05   1.317429e+11  -3.438944e+10  -1.993879e+10   1.474419e+05   1.466805e-24   0.000000e+00   0.000000e+00
      672000   6.719990e-06   2.719481e-01   1.149121e+01   2.166204e+01   2.416417e+04  -3.305311e+04   1.416429e+05   1.347170e+11  -2.013159e+09  -2.345107e+10   1.474420e+05   1.448703e-24   0.000000e+00   0.000000e+00
      680000   6.799990e-06   2.743095e-01   1.148859e+01   2.167330e+01   3.480994e+04  -3.193324e+04   1.396699e+05   1.302103e+11   2.975610e+10  -2.564776e+10   1.474420e+05   1.432847e-24   0.000000e+00   0.000000e+00
      688000   6.879990e-06   2.775005e-01   1.148617e+01   2.168439e+01   4.481113e+04  -2.835416e+04   1.375760e+05   1.187179e+11   5.919494e+10  -2.646736e+10   1.474421e+05   1.417397e-24   0.000000e+00   0.000000e+00
      696000   6.959990e-06   2.814480e-01   1.148412e+01   2.169531e+01   5.364100e+04  -2.256458e+04   1.354720e+05   1.010983e+11   8.478806e+10  -2.590665e+10   1.474421e+05   1.400554e-24   0.000000e+00   0.000000e+00
      704000   7.039990e-06   2.860390e-01   1.148261e+01   2.170607e+01   6.081361e+04  -1.484101e+04   1.334940e+05   7.750690e+10   1.070870e+11  -2.340191e+10   1.474422e+05   1.396029e-24   0.000000e+00   0.000000e+00
      712000   7.119990e-06   2.911245e-01   1.148178e+01   2.171667e+01   6.596962e+04  -5.657610e+03   1.317392e+05   5.091726e+10   1.214300e+11  -2.028107e+10   1.474422e+05   1.374848e-24   0.000000e+00   0.000000e+00
      720000   7.199990e-06   2.965347e-01   1.148173e+01   2.172715e+01   6.890387e+04   4.411258e+03   1.302767e+05   2.222054e+10   1.291611e+11  -1.612468e+10   1.474423e+05   1.350621e-24   0.000000e+00   0.000000e+00
      728000   7.279990e-06   3.020867e-01   1.148249e+01   2.173753e+01   6.949737e+04   1.485000e+04   1.291852e+05  -7.513129e+09   1.309000e+11  -1.100396e+10   1.474423e+05   1.341015e-24   0.000000e+00   0.000000e+00
      736000   7.359990e-06   3.075915e-01   1.148410e+01   2.174783e+01   6.773871e+04   2.514002e+04   1.285251e+05  -3.617189e+10   1.252579e+11  -5.435350e+09   1.474424e+05   1.318952e-24   0.000000e+00   0.000000e+00
      744000   7.439990e-06   3.128659e-01   1.148650e+01   2.175810e+01   6.377251e+04   3.472404e+04   1.283221e+05  -6.247714e+10   1.133577e+11   3.760374e+08   1.474424e+05   1.297730e-24   0.000000e+00   0.000000e+00
      752000   7.519990e-06   3.177425e-01   1.148962e+01   2.176838e+01   5.783838e+04   4.313080e+04   1.285836e+05  -8.518044e+10   9.597886e+10   6.122232e+09   1.474424e+05   1.278491e-24   0.000000e+00   0.000000e+00
      760000   7.599990e-06   3.220764e-01   1.149336e+01   2.177869e+01   5.026689e+04   4.996139e+04   1.292919e+05  -1.032630e+11   7.414109e+10   1.149866e+10   1.474425e+05   1.262011e-24   0.000000e+00   0.000000e+00
      768000   7.679990e-06   3.257522e-01   1.149757e+01   2.178907e+01   4.145966e+04   5.490610e+04   1.304060e+05  -1.159733e+11   4.904339e+10   1.622313e+10   1.474425e+05   1.248524e-24   0.000000e+00   0.000000e+00
      776000   7.759990e-06   3.286890e-01   1.150209e+01   2.179956e+01   3.186953e+04   5.775613e+04   1.318631e+05  -1.227752e+11   2.200741e+10   2.003505e+10   1.474426e+05   1.236225e-24   0.000000e+00   0.000000e+00
      784000   7.839990e-06   3.308419e-01   1.150675e+01   2.181018e+01   2.193947e+04   5.844317e+04   1.335754e+05  -1.241392e+11  -5.265969e+09   2.269481e+10   1.474426e+05   1.235750e-24   0.000000e+00   0.000000e+00
      792000   7.919990e-06   3.322035e-01   1.151138e+01   2.182094e+01   1.216673e+04   5.693024e+04   1.354631e+05  -1.192159e+11  -3.232901e+10   2.429536e+10   1.474427e+05   1.227580e-24   0.000000e+00   0.000000e+00
      800000   7.999990e-06   3.328051e-01   1.151580e+01   2.183186e+01   3.013072e+03   5.332285e+04   1.374298e+05  -1.087483e+11  -5.742466e+10   2.466620e+10   1.474427e+05   1.218624e-24   0.000000e+00   0.000000e+00
      808000   8.079990e-06   3.327134e-01   1.151986e+01   2.184293e+01  -5.101624e+03   4.782517e+04   1.393775e+05  -9.336614e+10  -7.940979e+10   2.383185e+10   1.474427e+05   1.207695e-24   0.000000e+00   0.000000e+00
      816000   8.159990e-06   3.320263e-01   1.152341e+01   2.185415e+01  -1.181654e+04   4.072588e+04   1.412131e+05  -7.390949e+10  -9.732250e+10   2.188426e+10   1.474428e+05   1.193915e-24   0.000000e+00   0.000000e+00
      824000   8.239990e-06   3.308678e-01   1.152634e+01   2.186552e+01  -1.684496e+04   3.238201e+04   1.428532e+05  -5.138270e+10  -1.104214e+11   1.897247e+10   1.474428e+05   1.176861e-24   0.000000e+00   0.000000e+00
      832000   8.319990e-06   3.293815e-01   1.152857e+01   2.187700e+01  -1.998538e+04   2.320011e+04   1.442281e+05  -2.690211e+10  -1.182131e+11   1.528868e+10   1.474429e+05   1.156627e-24   0.000000e+00   0.000000e+00
      840000   8.399990e-06   3.277235e-01   1.153004e+01   2.188859e+01  -2.112822e+04   1.361578e+04   1.452846e+05  -1.640547e+09  -1.204670e+11   1.105235e+10   1.474429e+05   1.133805e-24   0.000000e+00   0.000000e+00
      848000   8.479990e-06   3.260548e-01   1.153075e+01   2.190024e+01  -2.025846e+04   4.072944e+03   1.459878e+05   2.302381e+10  -1.168771e+11   6.456727e+09   1.474430e+05   1.102426e-24   0.000000e+00   0.000000e+00
      856000   8.559990e-06   3.245332e-01   1.153071e+01   2.191193e+01  -1.746793e+04  -4.979646e+03   1.463199e+05   4.640558e+10  -1.086035e+11   1.844875e+09   1.474430e+05   1.080703e-24   0.000000e+00   0.000000e+00
      864000   8.639990e-06   3.233074e-01   1.152998e+01   2.192364e+01  -1.289942e+04  -1.317741e+04   1.462854e+05   6.731424e+10  -9.560759e+10  -2.675653e+09   1.474430e+05   1.059601e-24   0.000000e+00   0.000000e+00
      872000   8.719990e-06   3.225105e-01   1.152863e+01   2.193533e+01  -6.787027e+03  -2.016923e+04   1.458993e+05   8.487019e+10  -7.858635e+10  -6.914876e+09   1.474431e+05   1.040035e-24   0.000000e+00   0.000000e+00
      880000   8.799990e-06   3.222547e-01   1.152679e+01   2.194698e+01   5.716742e+02  -2.566646e+04   1.451908e+05   9.837196e+10  -5.839741e+10  -1.070977e+10   1.474431e+05   1.022639e-24   0.000000e+00   0.000000e+00
      888000   8.879990e-06   3.226261e-01   1.152457e+01   2.195855e+01   8.831024e+03  -2.945399e+04   1.442011e+05   1.073220e+11  -3.601288e+10  -1.392747e+10   1.474431e+05   1.007682e-24   0.000000e+00   0.000000e+00
      896000   8.959990e-06   3.236817e-01   1.152212e+01   2.197004e+01   1.761425e+04  -3.139739e+04   1.429805e+05   1.114417e+11  -1.246999e+10  -1.646629e+10   1.474432e+05   9.950554e-25   0.000000e+00   0.000000e+00
      904000   9.039990e-06   3.254479e-01   1.151960e+01   2.198143e+01   2.653123e+04  -3.144615e+04   1.415865e+05   1.106755e+11   1.117901e+10  -1.825522e+10   1.474432e+05   9.843181e-25   0.000000e+00   0.000000e+00
      912000   9.119990e-06   3.279199e-01   1.151714e+01   2.199269e+01   3.519610e+04  -2.963294e+04   1.400808e+05   1.051835e+11   3.391493e+10  -1.925262e+10   1.474432e+05   9.748035e-25   0.000000e+00   0.000000e+00
      920000   9.199990e-06   3.310628e-01   1.151490e+01   2.200384e+01   4.324125e+04  -2.605675e+04   1.385307e+05   9.522221e+10   5.524457e+10  -1.933080e+10   1.474433e+05   9.677136e-25   0.000000e+00   0.000000e+00
      928000   9.279990e-06   3.348131e-01   1.151302e+01   2.201486e+01   5.033289e+04  -2.088828e+04   1.370030e+05   8.148052e+10   7.345812e+10  -1.873400e+10   1.474433e+05   9.594430e-25   0.000000e+00   0.000000e+00
      936000   9.359990e-06   3.390831e-01   1.151160e+01   2.202576e+01   5.619305e+04  -1.439299e+04   1.355534e+05   6.455741e+10   8.831327e+10  -1.738402e+10   1.474433e+05   9.503778e-25   0.000000e+00   0.000000e+00
      944000   9.439990e-06   3.437651e-01   1.151074e+01   2.203655e+01   6.059778e+04  -6.861826e+03   1.342400e+05   4.523238e+10   9.928188e+10  -1.534271e+10   1.474434e+05   9.402436e-25   0.000000e+00   0.000000e+00
      952000   9.519990e-06   3.487357e-01   1.151052e+01   2.204724e+01   6.338866e+04   1.379067e+03   1.331147e+05   2.435702e+10   1.060141e+11  -1.269611e+10   1.474434e+05   9.290262e-25   0.000000e+00   0.000000e+00
      960000   9.599990e-06   3.538618e-01   1.151097e+01   2.205785e+01   6.447696e+04   9.982918e+03   1.322219e+05   2.816394e+09   1.083441e+11  -9.552614e+09   1.474434e+05   9.169581e-25   0.000000e+00   0.000000e+00
      968000   9.679990e-06   3.590060e-01   1.151212e+01   2.206841e+01   6.384485e+04   1.859703e+04   1.315962e+05  -1.850856e+10   1.062888e+11  -6.040162e+09   1.474435e+05   9.044653e-25   0.000000e+00   0.000000e+00
      976000   9.759990e-06   3.640324e-01   1.151394e+01   2.207892e+01   6.154364e+04   2.687706e+04   1.312615e+05  -3.877613e+10   1.000380e+11  -2.302185e+09   1.474435e+05   8.920826e-25   0.000000e+00   0.000000e+00
      984000   9.839990e-06   3.688116e-01   1.151640e+01   2.208942e+01   5.768932e+04   3.450032e+04   1.312298e+05  -5.721524e+10   8.994017e+10   1.507720e+09   1.474435e+05   8.803552e-25   0.000000e+00   0.000000e+00
      992000   9.919990e-06   3.732259e-01   1.151943e+01   2.209992e+01   5.245586e+04   4.117765e+04   1.315005e+05  -7.315226e+10   7.648160e+10   5.232254e+09   1.474436e+05   8.697410e-25   0.000000e+00   0.000000e+00
     1000000   9.999990e-06   3.771718e-01   1.152296e+01   2.211046e+01   4.601673e+04   4.672744e+04   1.320554e+05  -8.676336e+10   6.100217e+10   8.649432e+09   1.474436e+05   8.771693e-25   0.000000e+00   0.000000e+00
     1008000   1.007999e-05   3.805643e-01   1.152687e+01   2.212106e+01   3.866754e+04   5.088036e+04   1.328745e+05  -9.635181e+10   4.252844e+10   1.175499e+10   1.474436e+05   8.699316e-25   0.000000e+00   0.000000e+00
     1016000   1.015999e-05   3.833421e-01   1.153106e+01   2.213173e+01   3.070176e+04   5.349489e+04   1.339229e+05  -1.021429e+11   2.267165e+10   1.436096e+10   1.474437e+05   8.639590e-25   0.000000e+00   0.000000e+00
     1024000   1.023999e-05   3.854684e-01   1.153539e+01   2.214249e+01   2.242976e+04   5.449162e+04   1.351562e+05  -1.039973e+11   2.214970e+09   1.636659e+10   1.474437e+05   8.589082e-25   0.000000e+00   0.000000e+00
     1032000   1.031999e-05   3.869311e-01   1.153973e+01   2.215336e+01   1.416698e+04   5.385405e+04   1.365236e+05  -1.019273e+11  -1.805627e+10   1.770034e+10   1.474437e+05   8.542833e-25   0.000000e+00   0.000000e+00
     1040000   1.039999e-05   3.877436e-01   1.154396e+01   2.216434e+01   6.221981e+03   5.162763e+04   1.379693e+05  -9.609129e+10  -3.738384e+10   1.832311e+10   1.474437e+05   8.495066e-25   0.000000e+00   0.000000e+00
     1048000   1.047999e-05   3.879429e-01   1.154795e+01   2.217543e+01  -1.114867e+03   4.791645e+04   1.394361e+05  -8.678362e+10  -5.506399e+10   1.822933e+10   1.474438e+05   8.440014e-25   0.000000e+00   0.000000e+00
     1056000   1.055999e-05   3.875884e-01   1.155159e+01   2.218665e+01  -7.581687e+03   4.287791e+04   1.408676e+05  -7.441925e+10  -7.047193e+10   1.744598e+10   1.474438e+05   8.372731e-25   0.000000e+00   0.000000e+00
     1064000   1.063999e-05   3.867591e-01   1.155478e+01   2.219797e+01  -1.295401e+04   3.671549e+04   1.422106e+05  -5.951519e+10  -8.308288e+10   1.602958e+10   1.474438e+05   8.289766e-25   0.000000e+00   0.000000e+00
     1072000   1.071999e-05   3.855485e-01   1.155745e+01   2.220940e+01  -1.709247e+04   2.971010e+04   1.434045e+05  -4.330461e+10  -9.197026e+10   1.389334e+10   1.474439e+05   8.154268e-25   0.000000e+00   0.000000e+00
     1080000   1.079999e-05   3.840616e-01   1.155952e+01   2.222091e+01  -1.983837e+04   2.208279e+04   1.444247e+05  -2.517708e+10  -9.811495e+10   1.154431e+10   1.474439e+05   8.051138e-25   0.000000e+00   0.000000e+00
     1088000   1.087999e-05   3.824139e-01   1.156097e+01   2.223250e+01  -2.110297e+04   1.410874e+04   1.452423e+05  -6.387966e+09  -1.006239e+11   8.847109e+09   1.474439e+05   7.935377e-25   0.000000e+00   0.000000e+00
     1096000   1.095999e-05   3.807253e-01   1.156178e+01   2.224414e+01  -2.086113e+04   6.080616e+03   1.458340e+05   1.236902e+10  -9.947508e+10   5.917703e+09   1.474439e+05   7.810709e-25   0.000000e+00   0.000000e+00
     1104000   1.103999e-05   3.791156e-01   1.156195e+01   2.225583e+01  -1.914266e+04  -1.712587e+03   1.461860e+05   3.041802e+10  -9.478090e+10   2.873466e+09   1.474440e+05   7.681838e-25   0.000000e+00   0.000000e+00
     1112000   1.111999e-05   3.776997e-01   1.156152e+01   2.226753e+01  -1.602991e+04  -8.995992e+03   1.462937e+05   4.712544e+10  -8.678030e+10  -1.719886e+08   1.474440e+05   7.553816e-25   0.000000e+00   0.000000e+00
     1120000   1.119999e-05   3.765845e-01   1.156053e+01   2.227923e+01  -1.165347e+04  -1.551849e+04   1.461613e+05   6.192205e+10  -7.582595e+10  -3.113011e+09   1.474440e+05   7.431388e-25   0.000000e+00   0.000000e+00
     1128000   1.127999e-05   3.758643e-01   1.155906e+01   2.229091e+01  -6.186246e+03  -2.106118e+04   1.458009e+05   7.432195e+10  -6.236764e+10  -5.855023e+09   1.474441e+05   7.318411e-25   0.000000e+00   0.000000e+00
     1136000   1.135999e-05   3.756182e-01   1.155719e+01   2.230255e+01   1.586517e+02  -2.543219e+04   1.452341e+05   8.363595e+10  -4.624587e+10  -8.188924e+09   1.474441e+05   7.127045e-25   0.000000e+00   0.000000e+00
     1144000   1.143999e-05   3.759063e-01   1.155503e+01   2.231414e+01   7.130498e+03  -2.846936e+04   1.444937e+05   9.013489e+10  -2.950239e+10  -1.026017e+10   1.474441e+05   7.049003e-25   0.000000e+00   0.000000e+00
     1152000   1.151999e-05   3.767696e-01   1.155267e+01   2.232566e+01   1.449459e+04  -3.013135e+04   1.436029e+05   9.342429e+10  -1.196974e+10  -1.194072e+10   1.474441e+05   6.982382e-25   0.000000e+00   0.000000e+00
     1160000   1.159999e-05   3.782290e-01   1.155024e+01   2.233711e+01   2.199135e+04  -3.037986e+04   1.425946e+05   9.345306e+10   5.731282e+09  -1.319092e+10   1.474442e+05   6.925347e-25   0.000000e+00   0.000000e+00
     1168000   1.167999e-05   3.802848e-01   1.154785e+01   2.234848e+01   2.936171e+04  -2.922596e+04   1.415045e+05   9.028481e+10   2.299104e+10  -1.398466e+10   1.474442e+05   6.875140e-25   0.000000e+00   0.000000e+00
     1176000   1.175999e-05   3.829168e-01   1.154560e+01   2.235975e+01   3.635612e+04  -2.672834e+04   1.403696e+05   8.409162e+10   3.923212e+10  -1.430899e+10   1.474442e+05   6.828512e-25   0.000000e+00   0.000000e+00
     1184000   1.183999e-05   3.860856e-01   1.154361e+01   2.237094e+01   4.274278e+04  -2.298993e+04   1.392276e+05   7.514421e+10   5.392828e+10  -1.416370e+10   1.474442e+05   6.782202e-25   0.000000e+00   0.000000e+00
     1192000   1.191999e-05   3.897339e-01   1.154195e+01   2.238203e+01   4.831508e+04  -1.815318e+04   1.381156e+05   6.379887e+10   6.662060e+10  -1.356099e+10   1.474442e+05   6.733388e-25   0.000000e+00   0.000000e+00
     1200000   1.199999e-05   3.937896e-01   1.154073e+01   2.239304e+01   5.289785e+04  -1.239413e+04   1.370694e+05   5.048213e+10   7.693052e+10  -1.252521e+10   1.474443e+05   6.680043e-25   0.000000e+00   0.000000e+00
     1208000   1.207999e-05   3.981673e-01   1.153999e+01   2.240396e+01   5.634054e+04  -5.888566e+03   1.361282e+05   3.523481e+10   8.548673e+10  -1.088435e+10   1.474443e+05   6.714369e-25   0.000000e+00   0.000000e+00
     1216000   1.215999e-05   4.027704e-01   1.153980e+01   2.241482e+01   5.852267e+04   1.161853e+03   1.353277e+05   1.919255e+10   9.027756e+10  -9.074290e+09   1.474443e+05   6.662311e-25   0.000000e+00   0.000000e+00
     1224000   1.223999e-05   4.074961e-01   1.154018e+01   2.242562e+01   5.939992e+04   8.473844e+03   1.346836e+05   2.712639e+09   9.201798e+10  -6.985194e+09   1.474443e+05   6.602455e-25   0.000000e+00   0.000000e+00
     1232000   1.231999e-05   4.122392e-01   1.154115e+01   2.243637e+01   5.895923e+04   1.580455e+04   1.342157e+05  -1.366654e+10   9.075478e+10  -4.682648e+09   1.474444e+05   6.541783e-25   0.000000e+00   0.000000e+00
     1240000   1.239999e-05   4.168952e-01   1.154271e+01   2.244710e+01   5.722974e+04   2.291710e+04   1.339381e+05  -2.942314e+10   8.658886e+10  -2.242850e+09   1.474444e+05   6.482332e-25   0.000000e+00   0.000000e+00
     1248000   1.247999e-05   4.213634e-01   1.154481e+01   2.245781e+01   5.428102e+04   2.958630e+04   1.338584e+05  -4.406984e+10   7.971016e+10   2.533270e+08   1.474444e+05   6.426206e-25   0.000000e+00   0.000000e+00
     1256000   1.255999e-05   4.255504e-01   1.154742e+01   2.246852e+01   5.021978e+04   3.560544e+04   1.339779e+05  -5.716782e+10   7.038853e+10   2.723012e+09   1.474444e+05   6.375234e-25   0.000000e+00   0.000000e+00
     1264000   1.263999e-05   4.293726e-01   1.155048e+01   2.247925e+01   4.518550e+04   4.079220e+04   1.342912e+05  -6.833850e+10   5.896259e+10   5.084309e+09   1.474445e+05   6.330670e-25   0.000000e+00   0.000000e+00
     1272000   1.271999e-05   4.327586e-01   1.155392e+01   2.249001e+01   3.934522e+04   4.499370e+04   1.347865e+05  -7.727290e+10   4.582705e+10   7.259423e+09   1.474445e+05   6.292970e-25   0.000000e+00   0.000000e+00
     1280000   1.279999e-05   4.356514e-01   1.155765e+01   2.250082e+01   3.288525e+04   4.809340e+04   1.354454e+05  -8.414466e+10   3.190821e+10   9.100529e+09   1.474445e+05   6.337401e-25   0.000000e+00   0.000000e+00
     1288000   1.287999e-05   4.380079e-01   1.156159e+01   2.251169e+01   2.597524e+04   5.003858e+04   1.362399e+05  -8.815706e+10   1.661862e+10   1.070472e+10   1.474445e+05   6.322809e-25   0.000000e+00   0.000000e+00
     1296000   1.295999e-05   4.398017e-01   1.156563e+01   2.252262e+01   1.885256e+04   5.074198e+04   1.371486e+05  -8.945468e+10   9.447911e+08   1.194756e+10   1.474445e+05   6.309906e-25   0.000000e+00   0.000000e+00
     1304000   1.303999e-05   4.410245e-01   1.156967e+01   2.253363e+01   1.173501e+04   5.019228e+04   1.381410e+05  -8.803570e+10  -1.462844e+10   1.279429e+10   1.474446e+05   6.296114e-25   0.000000e+00   0.000000e+00
     1312000   1.311999e-05   4.416852e-01   1.157363e+01   2.254473e+01   4.837248e+03   4.841661e+04   1.391846e+05  -8.398040e+10  -2.962740e+10   1.322542e+10   1.474446e+05   6.278636e-25   0.000000e+00   0.000000e+00
     1320000   1.319999e-05   4.418098e-01   1.157739e+01   2.255590e+01  -1.635659e+03   4.547906e+04   1.402458e+05  -7.744722e+10  -4.360360e+10   1.323715e+10   1.474446e+05   6.254753e-25   0.000000e+00   0.000000e+00
     1328000   1.327999e-05   4.414399e-01   1.158087e+01   2.256717e+01  -7.494240e+03   4.147816e+04   1.412916e+05  -6.866654e+10  -5.614670e+10   1.284109e+10   1.474446e+05   6.222122e-25   0.000000e+00   0.000000e+00
     1336000   1.335999e-05   4.406316e-01   1.158400e+01   2.257851e+01  -1.257007e+04   3.654336e+04   1.422902e+05  -5.793264e+10  -6.689621e+10   1.206319e+10   1.474447e+05   6.179037e-25   0.000000e+00   0.000000e+00
     1344000   1.343999e-05   4.394534e-01   1.158670e+01   2.258993e+01  -1.672051e+04   3.083058e+04   1.432125e+05  -4.559374e+10  -7.555158e+10   1.094197e+10   1.474447e+05   6.124617e-25   0.000000e+00   0.000000e+00
     1352000   1.351999e-05   4.379840e-01   1.158892e+01   2.260142e+01  -1.983173e+04   2.451838e+04   1.440329e+05  -3.195875e+10  -8.175639e+10   9.517372e+09   1.474447e+05   6.039017e-25   0.000000e+00   0.000000e+00
     1360000   1.359999e-05   4.363104e-01   1.159061e+01   2.261297e+01  -2.181850e+04   1.780575e+04   1.447303e+05  -1.761680e+10  -8.563654e+10   7.880368e+09   1.474447e+05   5.969320e-25   0.000000e+00   0.000000e+00
     1368000   1.367999e-05   4.345242e-01   1.159176e+01   2.262457e+01  -2.264087e+04   1.088483e+04   1.452889e+05  -2.922322e+09  -8.695736e+10   6.059844e+09   1.474447e+05   5.892460e-25   0.000000e+00   0.000000e+00
     1376000   1.375999e-05   4.327192e-01   1.159235e+01   2.263621e+01  -2.228824e+04   3.960917e+03   1.456966e+05   1.168563e+10  -8.571784e+10   4.118478e+09   1.474448e+05   5.810522e-25   0.000000e+00   0.000000e+00
     1384000   1.383999e-05   4.309888e-01   1.159240e+01   2.264788e+01  -2.078478e+04  -2.763669e+03   1.459463e+05   2.577862e+10  -8.199327e+10   2.119098e+09   1.474448e+05   5.725982e-25   0.000000e+00   0.000000e+00
     1392000   1.391999e-05   4.294228e-01   1.159192e+01   2.265956e+01  -1.818809e+04  -9.095570e+03   1.460357e+05   3.895151e+10  -7.593136e+10   1.224860e+08   1.474448e+05   5.641457e-25   0.000000e+00   0.000000e+00
     1400000   1.399999e-05   4.281055e-01   1.159096e+01   2.267124e+01  -1.458686e+04  -1.485594e+04   1.459675e+05   5.083414e+10  -6.774611e+10  -1.814446e+09   1.474448e+05   5.559449e-25   0.000000e+00   0.000000e+00
     1408000   1.407999e-05   4.271126e-01   1.158956e+01   2.268291e+01  -1.009763e+04  -1.988545e+04   1.457484e+05   6.110169e+10  -5.770985e+10  -3.640063e+09   1.474448e+05   5.482108e-25   0.000000e+00   0.000000e+00
     1416000   1.415999e-05   4.265098e-01   1.158780e+01   2.269456e+01  -4.860839e+03  -2.404857e+04   1.453892e+05   6.948341e+10  -4.614356e+10  -5.308986e+09   1.474449e+05   5.411048e-25   0.000000e+00   0.000000e+00
     1424000   1.423999e-05   4.263506e-01   1.158574e+01   2.270617e+01   9.650051e+02  -2.722334e+04   1.449067e+05   7.580230e+10  -3.307593e+10  -6.718240e+09   1.474449e+05   5.333417e-25   0.000000e+00   0.000000e+00
     1432000   1.431999e-05   4.266753e-01   1.158347e+01   2.271774e+01   7.206989e+03  -2.933059e+04   1.443183e+05   7.986315e+10  -1.950470e+10  -7.951792e+09   1.474449e+05   5.284343e-25   0.000000e+00   0.000000e+00
     1440000   1.439999e-05   4.275099e-01   1.158108e+01   2.272926e+01   1.368089e+04  -3.033295e+04   1.436410e+05   8.159211e+10  -5.520849e+09  -8.936505e+09   1.474449e+05   5.242378e-25   0.000000e+00   0.000000e+00
     1448000   1.447999e-05   4.288654e-01   1.157865e+01   2.274072e+01   2.019905e+04  -3.021355e+04   1.428956e+05   8.097266e+10   8.472082e+09  -9.654125e+09   1.474449e+05   5.206697e-25   0.000000e+00   0.000000e+00
     1456000   1.455999e-05   4.307380e-01   1.157627e+01   2.275212e+01   2.657518e+04  -2.898760e+04   1.421038e+05   7.805585e+10   2.207840e+10  -1.009320e+10   1.474450e+05   5.176095e-25   0.000000e+00   0.000000e+00
     1464000   1.463999e-05   4.331089e-01   1.157404e+01   2.276346e+01   3.262970e+04  -2.670125e+04   1.412882e+05   7.295699e+10   3.492153e+10  -1.024891e+10   1.474450e+05   5.149163e-25   0.000000e+00   0.000000e+00
     1472000   1.471999e-05   4.359456e-01   1.157203e+01   2.277473e+01   3.819466e+04  -2.342968e+04   1.404715e+05   6.585056e+10   4.665432e+10  -1.012289e+10   1.474450e+05   5.124469e-25   0.000000e+00   0.000000e+00
     1480000   1.479999e-05   4.392029e-01   1.157032e+01   2.278593e+01   4.311819e+04  -1.927434e+04   1.396759e+05   5.696361e+10   5.696801e+10  -9.723092e+09   1.474450e+05   5.100728e-25   0.000000e+00   0.000000e+00
     1488000   1.487999e-05   4.428239e-01   1.156897e+01   2.279708e+01   4.726847e+04  -1.435960e+04   1.389227e+05   4.656777e+10   6.559977e+10  -9.063565e+09   1.474450e+05   5.076940e-25   0.000000e+00   0.000000e+00
     1496000   1.495999e-05   4.467422e-01   1.156803e+01   2.280816e+01   5.053286e+04  -8.837572e+03   1.382330e+05   3.492229e+10   7.215989e+10  -8.152467e+09   1.474450e+05   5.029725e-25   0.000000e+00   0.000000e+00
     1504000   1.503999e-05   4.508835e-01   1.156756e+01   2.281920e+01   5.283528e+04  -2.866114e+03   1.376236e+05   2.252748e+10   7.677701e+10  -7.049147e+09   1.474451e+05   4.997817e-25   0.000000e+00   0.000000e+00
     1512000   1.511999e-05   4.551688e-01   1.156758e+01   2.283018e+01   5.412388e+04   3.389973e+03   1.371100e+05   9.635972e+09   7.926569e+10  -5.763113e+09   1.474451e+05   4.964686e-25   0.000000e+00   0.000000e+00
     1520000   1.519999e-05   4.595156e-01   1.156811e+01   2.284114e+01   5.437309e+04   9.758752e+03   1.367055e+05  -3.398655e+09   7.959417e+10  -4.329605e+09   1.474451e+05   4.930923e-25   0.000000e+00   0.000000e+00
     1528000   1.527999e-05   4.638408e-01   1.156914e+01   2.285206e+01   5.358548e+04   1.606808e+04   1.364202e+05  -1.622722e+10   7.778886e+10  -2.787791e+09   1.474451e+05   4.897362e-25   0.000000e+00   0.000000e+00
     1536000   1.535999e-05   4.680624e-01   1.157067e+01   2.286297e+01   5.179108e+04   2.215018e+04   1.362612e+05  -2.851402e+10   7.393184e+10  -1.179861e+09   1.474451e+05   4.864950e-25   0.000000e+00   0.000000e+00
     1544000   1.543999e-05   4.721020e-01   1.157268e+01   2.287387e+01   4.904596e+04   2.784595e+04   1.362320e+05  -3.994511e+10   6.815703e+10   4.500532e+08   1.474451e+05   4.834614e-25   0.000000e+00   0.000000e+00
     1552000   1.551999e-05   4.758865e-01   1.157511e+01   2.288477e+01   4.543019e+04   3.300888e+04   1.363326e+05  -5.023578e+10   6.064522e+10   2.057115e+09   1.474452e+05   4.807126e-25   0.000000e+00   0.000000e+00
     1560000   1.559999e-05   4.793503e-01   1.157794e+01   2.289568e+01   4.104523e+04   3.750866e+04   1.365594e+05  -5.913693e+10   5.161818e+10   3.597128e+09   1.474452e+05   4.782992e-25   0.000000e+00   0.000000e+00
     1568000   1.567999e-05   4.824356e-01   1.158110e+01   2.290662e+01   3.597689e+04   4.127146e+04   1.369029e+05  -6.721207e+10   4.207288e+10   4.979695e+09   1.474452e+05   4.889763e-25   0.000000e+00   0.000000e+00
     1576000   1.575999e-05   4.850921e-01   1.158452e+01   2.291759e+01   3.035718e+04   4.418679e+04   1.373538e+05  -7.297091e+10   3.066366e+10   6.263574e+09   1.474452e+05   4.883457e-25   0.000000e+00   0.000000e+00
     1584000   1.583999e-05   4.872825e-01   1.158814e+01   2.292860e+01   2.435246e+04   4.615798e+04   1.379003e+05  -7.682014e+10   1.852187e+10   7.366846e+09   1.474452e+05   4.879134e-25   0.000000e+00   0.000000e+00
     1592000   1.591999e-05   4.889824e-01   1.159188e+01   2.293966e+01   1.811905e+04   4.713918e+04   1.385269e+05  -7.867931e+10   5.968105e+09   8.260674e+09   1.474452e+05   4.875747e-25   0.000000e+00   0.000000e+00
     1600000   1.599999e-05   4.901797e-01   1.159566e+01   2.295077e+01   1.181764e+04   4.711050e+04   1.392158e+05  -7.851971e+10  -6.670253e+09   8.922976e+09   1.474453e+05   4.872004e-25   0.000000e+00   0.000000e+00
     1608000   1.607999e-05   4.908757e-01   1.159939e+01   2.296193e+01   5.609169e+03   4.607825e+04   1.399480e+05  -7.636441e+10  -1.906735e+10   9.339139e+09   1.474453e+05   4.866466e-25   0.000000e+00   0.000000e+00
     1616000   1.615999e-05   4.910847e-01   1.160300e+01   2.297316e+01  -3.243642e+02   4.407409e+04   1.407035e+05  -7.190616e+10  -3.087087e+10   9.504690e+09   1.474453e+05   4.813436e-25   0.000000e+00   0.000000e+00
     1624000   1.623999e-05   4.908345e-01   1.160642e+01   2.298444e+01  -5.853260e+03   4.116253e+04   1.414620e+05  -6.603427e+10  -4.175008e+10   9.416553e+09   1.474453e+05   4.796722e-25   0.000000e+00   0.000000e+00
     1632000   1.631999e-05   4.901625e-01   1.160957e+01   2.299579e+01  -1.084695e+04   3.742408e+04   1.422038e+05  -5.855739e+10  -5.150133e+10   9.087540e+09   1.474453e+05   4.774780e-25   0.000000e+00   0.000000e+00
     1640000   1.639999e-05   4.891162e-01   1.161239e+01   2.300720e+01  -1.519467e+04   3.297657e+04   1.429049e+05  -4.989124e+10  -5.955186e+10   8.437756e+09   1.474453e+05   4.730487e-25   0.000000e+00   0.000000e+00
     1648000   1.647999e-05   4.877514e-01   1.161483e+01   2.301865e+01  -1.879340e+04   2.792564e+04   1.435517e+05  -3.990386e+10  -6.644849e+10   7.702781e+09   1.474454e+05   4.699733e-25   0.000000e+00   0.000000e+00
     1656000   1.655999e-05   4.861316e-01   1.161684e+01   2.303016e+01  -2.155486e+04   2.239024e+04   1.441326e+05  -2.900498e+10  -7.164079e+10   6.791777e+09   1.474454e+05   4.663146e-25   0.000000e+00   0.000000e+00
     1664000   1.663999e-05   4.843266e-01   1.161840e+01   2.304171e+01  -2.341728e+04   1.651159e+04   1.446345e+05  -1.747626e+10  -7.501519e+10   5.734682e+09   1.474454e+05   4.621136e-25   0.000000e+00   0.000000e+00
     1672000   1.671999e-05   4.824099e-01   1.161948e+01   2.305330e+01  -2.434199e+04   1.043808e+04   1.450471e+05  -5.611852e+09  -7.650511e+10   4.564187e+09   1.474454e+05   4.574483e-25   0.000000e+00   0.000000e+00
     1680000   1.679999e-05   4.804573e-01   1.162007e+01   2.306492e+01  -2.431409e+04   4.321552e+03   1.453627e+05   6.289101e+09  -7.609207e+10   3.314523e+09   1.474454e+05   4.524277e-25   0.000000e+00   0.000000e+00
     1688000   1.687999e-05   4.785448e-01   1.162017e+01   2.307656e+01  -2.334256e+04  -1.686634e+03   1.455762e+05   1.793010e+10  -7.380556e+10   2.020310e+09   1.474454e+05   4.471827e-25   0.000000e+00   0.000000e+00
     1696000   1.695999e-05   4.767468e-01   1.161981e+01   2.308821e+01  -2.145974e+04  -7.439338e+03   1.456856e+05   2.902472e+10  -6.972171e+10   7.154911e+08   1.474455e+05   4.418558e-25   0.000000e+00   0.000000e+00
     1704000   1.703999e-05   4.751341e-01   1.161899e+01   2.309986e+01  -1.872026e+04  -1.279730e+04   1.456913e+05   3.930379e+10  -6.396068e+10  -5.675713e+08   1.474455e+05   4.365896e-25   0.000000e+00   0.000000e+00
     1712000   1.711999e-05   4.737721e-01   1.161777e+01   2.311152e+01  -1.520859e+04  -1.761000e+04   1.455979e+05   4.840146e+10  -5.641126e+10  -1.766706e+09   1.474455e+05   4.282217e-25   0.000000e+00   0.000000e+00
     1720000   1.719999e-05   4.727191e-01   1.161619e+01   2.312316e+01  -1.100983e+04  -2.178794e+04   1.454106e+05   5.633794e+10  -4.783564e+10  -2.901537e+09   1.474455e+05   4.237736e-25   0.000000e+00   0.000000e+00
     1728000   1.727999e-05   4.720259e-01   1.161431e+01   2.313478e+01  -6.233314e+03  -2.523427e+04   1.451363e+05   6.281826e+10  -3.816073e+10  -3.936562e+09   1.474455e+05   4.196867e-25   0.000000e+00   0.000000e+00
     1736000   1.735999e-05   4.717339e-01   1.161218e+01   2.314638e+01  -1.001554e+03  -2.787089e+04   1.447840e+05   6.769866e+10  -2.763636e+10  -4.851314e+09   1.474455e+05   4.160103e-25   0.000000e+00   0.000000e+00
     1744000   1.743999e-05   4.718743e-01   1.160987e+01   2.315794e+01   4.553090e+03  -2.964044e+04   1.443638e+05   7.087720e+10  -1.652971e+10  -5.628869e+09   1.474455e+05   4.127631e-25   0.000000e+00   0.000000e+00
     1752000   1.751999e-05   4.724673e-01   1.160746e+01   2.316947e+01   1.029184e+04  -3.050740e+04   1.438874e+05   7.229551e+10  -5.118244e+09  -6.255903e+09   1.474456e+05   4.099343e-25   0.000000e+00   0.000000e+00
     1760000   1.759999e-05   4.735221e-01   1.160501e+01   2.318096e+01   1.607302e+04  -3.045860e+04   1.433671e+05   7.193945e+10   6.317511e+09  -6.722666e+09   1.474456e+05   4.074878e-25   0.000000e+00   0.000000e+00
     1768000   1.767999e-05   4.750364e-01   1.160261e+01   2.319241e+01   2.175557e+04  -2.950322e+04   1.428162e+05   6.983852e+10   1.750108e+10  -7.022921e+09   1.474456e+05   4.053683e-25   0.000000e+00   0.000000e+00
     1776000   1.775999e-05   4.769967e-01   1.160032e+01   2.320381e+01   2.719939e+04  -2.766709e+04   1.422495e+05   6.594682e+10   2.835001e+10  -7.095271e+09   1.474456e+05   4.030460e-25   0.000000e+00   0.000000e+00
     1784000   1.783999e-05   4.793783e-01   1.159820e+01   2.321517e+01   3.227021e+04  -2.499874e+04   1.416824e+05   6.058182e+10   3.820549e+10  -7.056957e+09   1.474456e+05   4.012310e-25   0.000000e+00   0.000000e+00
     1792000   1.791999e-05   4.821469e-01   1.159634e+01   2.322648e+01   3.685495e+04  -2.158073e+04   1.411248e+05   5.381701e+10   4.706061e+10  -6.857545e+09   1.474456e+05   3.995563e-25   0.000000e+00   0.000000e+00
     1800000   1.799999e-05   4.852593e-01   1.159477e+01   2.323775e+01   4.084803e+04  -1.750077e+04   1.405894e+05   4.582232e+10   5.472410e+10  -6.501105e+09   1.474456e+05   3.979048e-25   0.000000e+00   0.000000e+00
     1808000   1.807999e-05   4.886644e-01   1.159355e+01   2.324898e+01   4.415906e+04  -1.286100e+04   1.400885e+05   3.680173e+10   6.103137e+10  -5.997312e+09   1.474457e+05   3.962384e-25   0.000000e+00   0.000000e+00
     1816000   1.815999e-05   4.923046e-01   1.159272e+01   2.326017e+01   4.671483e+04  -7.775348e+03   1.396334e+05   2.697953e+10   6.585274e+10  -5.358781e+09   1.474457e+05   3.945367e-25   0.000000e+00   0.000000e+00
     1824000   1.823999e-05   4.961172e-01   1.159232e+01   2.327132e+01   4.846067e+04  -2.366646e+03   1.392343e+05   1.659445e+10   6.909560e+10  -4.600897e+09   1.474457e+05   3.927979e-25   0.000000e+00   0.000000e+00
     1832000   1.831999e-05   5.000358e-01   1.159235e+01   2.328245e+01   4.936134e+04   3.236726e+03   1.389000e+05   5.782675e+09   7.116580e+10  -3.712985e+09   1.474457e+05   3.959778e-25   0.000000e+00   0.000000e+00
     1840000   1.839999e-05   5.039915e-01   1.159284e+01   2.329355e+01   4.938826e+04   8.941623e+03   1.386401e+05  -5.100969e+09   7.117902e+10  -2.773201e+09   1.474457e+05   3.950767e-25   0.000000e+00   0.000000e+00
     1848000   1.847999e-05   5.079147e-01   1.159378e+01   2.330463e+01   4.854589e+04   1.458578e+04   1.384586e+05  -1.593545e+10   6.967517e+10  -1.752256e+09   1.474457e+05   3.959656e-25   0.000000e+00   0.000000e+00
     1856000   1.855999e-05   5.117362e-01   1.159517e+01   2.331570e+01   4.685348e+04   2.004068e+04   1.383596e+05  -2.628595e+10   6.643665e+10  -7.212794e+08   1.474457e+05   3.954746e-25   0.000000e+00   0.000000e+00
     1864000   1.863999e-05   5.153898e-01   1.159698e+01   2.332677e+01   4.435711e+04   2.517516e+04   1.383434e+05  -3.599705e+10   6.168259e+10   3.173792e+08   1.474458e+05   3.951129e-25   0.000000e+00   0.000000e+00
     1872000   1.871999e-05   5.188135e-01   1.159918e+01   2.333784e+01   4.111666e+04   2.987265e+04   1.384099e+05  -4.485383e+10   5.553486e+10   1.338903e+09   1.474458e+05   3.948922e-25   0.000000e+00   0.000000e+00
     1880000   1.879999e-05   5.219508e-01   1.160174e+01   2.334892e+01   3.721310e+04   3.402472e+04   1.385560e+05  -5.256276e+10   4.809675e+10   2.306617e+09   1.474458e+05   3.936282e-25   0.000000e+00   0.000000e+00
     1888000   1.887999e-05   5.247523e-01   1.160461e+01   2.336001e+01   3.273703e+04   3.754147e+04   1.387775e+05  -5.912348e+10   3.966359e+10   3.217731e+09   1.474458e+05   3.934484e-25   0.000000e+00   0.000000e+00
     1896000   1.895999e-05   5.271761e-01   1.160773e+01   2.337112e+01   2.778929e+04   4.034802e+04   1.390685e+05  -6.433488e+10   3.037672e+10   4.042834e+09   1.474458e+05   3.933654e-25   0.000000e+00   0.000000e+00
     1904000   1.903999e-05   5.291890e-01   1.161104e+01   2.338226e+01   2.248218e+04   4.238463e+04   1.394215e+05  -6.809326e+10   2.045214e+10   4.763105e+09   1.474458e+05   3.933347e-25   0.000000e+00   0.000000e+00
     1912000   1.911999e-05   5.307669e-01   1.161449e+01   2.339343e+01   1.693499e+04   4.360932e+04   1.398274e+05  -7.032826e+10   1.011733e+10   5.362679e+09   1.474458e+05   3.932970e-25   0.000000e+00   0.000000e+00
     1920000   1.919999e-05   5.318954e-01   1.161800e+01   2.340464e+01   1.126552e+04   4.400167e+04   1.402755e+05  -7.118857e+10  -3.113087e+08   5.815168e+09   1.474459e+05   3.951982e-25   0.000000e+00   0.000000e+00
     1928000   1.927999e-05   5.325693e-01   1.162151e+01   2.341588e+01   5.593568e+03   4.355507e+04   1.407549e+05  -7.034964e+10  -1.082625e+10   6.146104e+09   1.474459e+05   3.953787e-25   0.000000e+00   0.000000e+00
     1936000   1.935999e-05   5.327938e-01   1.162495e+01   2.342716e+01   5.081807e+01   4.227665e+04   1.412550e+05  -6.796611e+10  -2.106818e+10   6.330374e+09   1.474459e+05   3.953230e-25   0.000000e+00   0.000000e+00
     1944000   1.943999e-05   5.325841e-01   1.162825e+01   2.343848e+01  -5.241412e+03   4.019740e+04   1.417638e+05  -6.409992e+10  -3.081028e+10   6.366714e+09   1.474459e+05   3.949571e-25   0.000000e+00   0.000000e+00
     1952000   1.951999e-05   5.319649e-01   1.163136e+01   2.344984e+01  -1.016808e+04   3.736597e+04   1.422698e+05  -5.884551e+10  -3.983829e+10   6.257842e+09   1.474459e+05   3.942163e-25   0.000000e+00   0.000000e+00
     1960000   1.959999e-05   5.309698e-01   1.163421e+01   2.346124e+01  -1.462291e+04   3.384750e+04   1.427614e+05  -5.232748e+10  -4.795521e+10   6.010271e+09   1.474459e+05   3.930504e-25   0.000000e+00   0.000000e+00
     1968000   1.967999e-05   5.296404e-01   1.163676e+01   2.347268e+01  -1.851074e+04   2.972206e+04   1.432280e+05  -4.469775e+10  -5.498550e+10   5.633988e+09   1.474459e+05   3.914273e-25   0.000000e+00   0.000000e+00
     1976000   1.975999e-05   5.280254e-01   1.163895e+01   2.348416e+01  -2.174949e+04   2.508277e+04   1.436597e+05  -3.613199e+10  -6.077897e+10   5.142029e+09   1.474460e+05   3.893365e-25   0.000000e+00   0.000000e+00
     1984000   1.983999e-05   5.261796e-01   1.164076e+01   2.349567e+01  -2.427200e+04   2.003363e+04   1.440480e+05  -2.682557e+10  -6.521393e+10   4.549951e+09   1.474460e+05   3.867901e-25   0.000000e+00   0.000000e+00
     1992000   1.991999e-05   5.241624e-01   1.164215e+01   2.350720e+01  -2.602500e+04   1.469316e+04   1.443853e+05  -1.694412e+10  -6.807879e+10   3.874154e+09   1.474460e+05   3.824263e-25   0.000000e+00   0.000000e+00
     2000000   1.999999e-05   5.220370e-01   1.164311e+01   2.351877e+01  -2.697634e+04   9.177603e+03   1.446664e+05  -6.808759e+09  -6.955633e+10   3.143328e+09   1.474460e+05   3.791332e-25   0.000000e+00   0.000000e+00
     2008000   2.007999e-05   5.198680e-01   1.164362e+01   2.353035e+01  -2.711223e+04   3.604860e+03   1.448870e+05   3.404348e+09  -6.950790e+10   2.366769e+09   1.474460e+05   3.755868e-25   0.000000e+00   0.000000e+00
     2016000   2.015999e-05   5.177207e-01   1.164368e+01   2.354195e+01  -2.643549e+04  -1.903252e+03   1.450444e+05   1.346981e+10  -6.794557e+10   1.563739e+09   1.474460e+05   3.718641e-25   0.000000e+00   0.000000e+00
     2024000   2.023999e-05   5.156594e-01   1.164332e+01   2.355355e+01  -2.496678e+04  -7.227223e+03   1.451370e+05   2.316748e+10  -6.491486e+10   7.531543e+08   1.474460e+05   3.680496e-25   0.000000e+00   0.000000e+00
     2032000   2.031999e-05   5.137461e-01   1.164254e+01   2.356517e+01  -2.274402e+04  -1.225248e+04   1.451652e+05   3.228731e+10  -6.049345e+10  -4.687550e+07   1.474460e+05   3.642300e-25   0.000000e+00   0.000000e+00
     2040000   2.039999e-05   5.120391e-01   1.164137e+01   2.357678e+01  -1.982136e+04  -1.687189e+04   1.451303e+05   4.063403e+10  -5.478904e+10  -8.194449e+08   1.474461e+05   3.604890e-25   0.000000e+00   0.000000e+00
     2048000   2.047999e-05   5.105916e-01   1.163985e+01   2.358839e+01  -1.626783e+04  -2.098803e+04   1.450352e+05   4.803140e+10  -4.793663e+10  -1.549161e+09   1.474461e+05   3.569025e-25   0.000000e+00   0.000000e+00
     2056000   2.055999e-05   5.094509e-01   1.163803e+01   2.359998e+01  -1.216570e+04  -2.451528e+04   1.448839e+05   5.432589e+10  -4.009514e+10  -2.222371e+09   1.474461e+05   3.535349e-25   0.000000e+00   0.000000e+00
     2064000   2.063999e-05   5.086573e-01   1.163595e+01   2.361157e+01  -7.605599e+03  -2.737864e+04   1.446821e+05   5.943945e+10  -3.140985e+10  -2.818877e+09   1.474461e+05   3.507238e-25   0.000000e+00   0.000000e+00
     2072000   2.071999e-05   5.082434e-01   1.163366e+01   2.362313e+01  -2.690770e+03  -2.952400e+04   1.444349e+05   6.320255e+10  -2.213729e+10  -3.347341e+09   1.474461e+05   3.482646e-25   0.000000e+00   0.000000e+00
     2080000   2.079999e-05   5.082333e-01   1.163124e+01   2.363467e+01   2.469475e+03  -3.090921e+04   1.441488e+05   6.556553e+10  -1.244117e+10  -3.790628e+09   1.474461e+05   3.461083e-25   0.000000e+00   0.000000e+00
     2088000   2.087999e-05   5.086420e-01   1.162874e+01   2.364619e+01   7.761263e+03  -3.150885e+04   1.438309e+05   6.648705e+10  -2.533753e+09  -4.142467e+09   1.474461e+05   3.442583e-25   0.000000e+00   0.000000e+00
     2096000   2.095999e-05   5.094755e-01   1.162622e+01   2.365769e+01   1.306868e+04  -3.131460e+04   1.434886e+05   6.595745e+10   7.370273e+09  -4.398506e+09   1.474461e+05   3.427048e-25   0.000000e+00   0.000000e+00
     2104000   2.103999e-05   5.107304e-01   1.162375e+01   2.366915e+01   1.827630e+04  -3.033527e+04   1.431297e+05   6.399853e+10   1.705854e+10  -4.556266e+09   1.474462e+05   3.414276e-25   0.000000e+00   0.000000e+00
     2112000   2.111999e-05   5.123941e-01   1.162139e+01   2.368059e+01   2.327167e+04  -2.859639e+04   1.427622e+05   6.066262e+10   2.632559e+10  -4.615087e+09   1.474462e+05   3.403992e-25   0.000000e+00   0.000000e+00
     2120000   2.119999e-05   5.144453e-01   1.161919e+01   2.369199e+01   2.794770e+04  -2.613951e+04   1.423939e+05   5.603093e+10   3.497725e+10  -4.576063e+09   1.474462e+05   3.395878e-25   0.000000e+00   0.000000e+00
     2128000   2.127999e-05   5.168545e-01   1.161722e+01   2.370337e+01   3.220372e+04  -2.302145e+04   1.420328e+05   5.016208e+10   4.281640e+10  -4.433248e+09   1.474462e+05   3.384505e-25   0.000000e+00   0.000000e+00
     2136000   2.135999e-05   5.195843e-01   1.161553e+01   2.371472e+01   3.594808e+04  -1.931457e+04   1.416865e+05   4.328537e+10   4.968296e+10  -4.209134e+09   1.474462e+05   3.377228e-25   0.000000e+00   0.000000e+00
     2144000   2.143999e-05   5.225905e-01   1.161415e+01   2.372604e+01   3.910547e+04  -1.510133e+04   1.413616e+05   3.551513e+10   5.545480e+10  -3.900288e+09   1.474462e+05   3.371058e-25   0.000000e+00   0.000000e+00
     2152000   2.151999e-05   5.258237e-01   1.161312e+01   2.373734e+01   4.161114e+04  -1.047394e+04   1.410645e+05   2.702228e+10   6.002042e+10  -3.514236e+09   1.474462e+05   3.365816e-25   0.000000e+00   0.000000e+00
     2160000   2.159999e-05   5.292296e-01   1.161248e+01   2.374861e+01   4.341457e+04  -5.532480e+03   1.408011e+05   1.799069e+10   6.329497e+10  -3.059893e+09   1.474462e+05   3.361384e-25   0.000000e+00   0.000000e+00
     2168000   2.167999e-05   5.327504e-01   1.161224e+01   2.375987e+01   4.448033e+04  -3.826918e+02   1.405765e+05   8.613048e+09   6.522159e+10  -2.547425e+09   1.474462e+05   3.357703e-25   0.000000e+00   0.000000e+00
     2176000   2.175999e-05   5.363262e-01   1.161242e+01   2.377111e+01   4.478860e+04   4.866263e+03   1.403948e+05  -9.132319e+08   6.577200e+10  -1.988095e+09   1.474463e+05   3.354770e-25   0.000000e+00   0.000000e+00
     2184000   2.183999e-05   5.398962e-01   1.161302e+01   2.378233e+01   4.433543e+04   1.010411e+04   1.402593e+05  -1.039017e+10   6.494661e+10  -1.394076e+09   1.474463e+05   3.352616e-25   0.000000e+00   0.000000e+00
     2192000   2.191999e-05   5.433999e-01   1.161403e+01   2.379355e+01   4.313259e+04   1.522176e+04   1.401723e+05  -1.962322e+10   6.277398e+10  -7.782306e+08   1.474463e+05   3.351290e-25   0.000000e+00   0.000000e+00
     2200000   2.199999e-05   5.467781e-01   1.161545e+01   2.380476e+01   4.120304e+04   2.012080e+04   1.401352e+05  -2.855981e+10   5.952889e+10  -1.496712e+08   1.474463e+05   3.376950e-25   0.000000e+00   0.000000e+00
     2208000   2.207999e-05   5.499740e-01   1.161724e+01   2.381597e+01   3.858297e+04   2.470411e+04   1.401480e+05  -3.682693e+10   5.485767e+10   4.689790e+08   1.474463e+05   3.381933e-25   0.000000e+00   0.000000e+00
     2216000   2.215999e-05   5.529345e-01   1.161939e+01   2.382719e+01   3.533102e+04   2.886794e+04   1.402098e+05  -4.433071e+10   4.906096e+10   1.069855e+09   1.474463e+05   3.387765e-25   0.000000e+00   0.000000e+00
     2224000   2.223999e-05   5.556119e-01   1.162185e+01   2.383841e+01   3.151436e+04   3.252706e+04   1.403184e+05  -5.092133e+10   4.226238e+10   1.640024e+09   1.474463e+05   3.394308e-25   0.000000e+00   0.000000e+00
     2232000   2.231999e-05   5.579638e-01   1.162458e+01   2.384964e+01   2.721140e+04   3.560693e+04   1.404710e+05  -5.646824e+10   3.460506e+10   2.167305e+09   1.474463e+05   3.401350e-25   0.000000e+00   0.000000e+00
     2240000   2.239999e-05   5.599550e-01   1.162753e+01   2.386088e+01   2.251015e+04   3.804514e+04   1.406637e+05  -6.086265e+10   2.624872e+10   2.640588e+09   1.474464e+05   3.408601e-25   0.000000e+00   0.000000e+00
     2248000   2.247999e-05   5.615574e-01   1.163065e+01   2.387215e+01   1.750636e+04   3.979261e+04   1.408918e+05  -6.401953e+10   1.736641e+10   3.050129e+09   1.474464e+05   3.415702e-25   0.000000e+00   0.000000e+00
     2256000   2.255999e-05   5.627507e-01   1.163388e+01   2.388343e+01   1.230161e+04   4.081452e+04   1.411498e+05  -6.587917e+10   8.141067e+09   3.387821e+09   1.474464e+05   3.422228e-25   0.000000e+00   0.000000e+00
     2264000   2.263999e-05   5.635231e-01   1.163716e+01   2.389473e+01   7.001186e+03   4.109098e+04   1.414318e+05  -6.640830e+10  -1.238190e+09   3.647409e+09   1.474464e+05   3.427713e-25   0.000000e+00   0.000000e+00
     2272000   2.271999e-05   5.638713e-01   1.164043e+01   2.390606e+01   1.715741e+03   4.062455e+04   1.417291e+05  -6.551195e+10  -1.040267e+10   3.775156e+09   1.474464e+05   3.419490e-25   0.000000e+00   0.000000e+00
     2280000   2.279999e-05   5.638008e-01   1.164364e+01   2.391741e+01  -3.449059e+03   3.942689e+04   1.420355e+05  -6.339372e+10  -1.948344e+10   3.869222e+09   1.474464e+05   3.418760e-25   0.000000e+00   0.000000e+00
     2288000   2.287999e-05   5.633253e-01   1.164672e+01   2.392878e+01  -8.393644e+03   3.751817e+04   1.423460e+05  -6.001699e+10  -2.814973e+10   3.880749e+09   1.474464e+05   3.415792e-25   0.000000e+00   0.000000e+00
     2296000   2.295999e-05   5.624663e-01   1.164962e+01   2.394018e+01  -1.302013e+04   3.493854e+04   1.426542e+05  -5.545566e+10  -3.622826e+10   3.811781e+09   1.474464e+05   3.410246e-25   0.000000e+00   0.000000e+00
     2304000   2.303999e-05   5.612530e-01   1.165230e+01   2.395161e+01  -1.723749e+04   3.174154e+04   1.429538e+05  -4.980706e+10  -4.355844e+10   3.666269e+09   1.474465e+05   3.401862e-25   0.000000e+00   0.000000e+00
     2312000   2.311999e-05   5.597214e-01   1.165469e+01   2.396305e+01  -2.096335e+04   2.799295e+04   1.432389e+05  -4.318994e+10  -4.999551e+10   3.449898e+09   1.474465e+05   3.390477e-25   0.000000e+00   0.000000e+00
     2320000   2.319999e-05   5.579139e-01   1.165676e+01   2.397452e+01  -2.412564e+04   2.376940e+04   1.435041e+05  -3.574197e+10  -5.541341e+10   3.169868e+09   1.474465e+05   3.376037e-25   0.000000e+00   0.000000e+00
     2328000   2.327999e-05   5.558780e-01   1.165848e+01   2.398601e+01  -2.666392e+04   1.915675e+04   1.437446e+05  -2.761695e+10  -5.970724e+10   2.834639e+09   1.474465e+05   3.358611e-25   0.000000e+00   0.000000e+00
     2336000   2.335999e-05   5.536656e-01   1.165982e+01   2.399752e+01  -2.853065e+04   1.424838e+04   1.439564e+05  -1.898162e+10  -6.279533e+10   2.453637e+09   1.474465e+05   3.338387e-25   0.000000e+00   0.000000e+00
     2344000   2.343999e-05   5.513317e-01   1.166076e+01   2.400905e+01  -2.969929e+04   9.138648e+03   1.441350e+05  -1.011391e+10  -6.471464e+10   2.019436e+09   1.474465e+05   3.326596e-25   0.000000e+00   0.000000e+00
     2352000   2.351999e-05   5.489331e-01   1.166128e+01   2.402058e+01  -3.014203e+04   3.929522e+03   1.442792e+05  -9.431930e+08  -6.529480e+10   1.581588e+09   1.474465e+05   3.305253e-25   0.000000e+00   0.000000e+00
     2360000   2.359999e-05   5.465285e-01   1.166138e+01   2.403213e+01  -2.985061e+04  -1.273532e+03   1.443877e+05   8.208680e+09  -6.456385e+10   1.127883e+09   1.474465e+05   3.282280e-25   0.000000e+00   0.000000e+00
     2368000   2.367999e-05   5.441764e-01   1.166108e+01   2.404368e+01  -2.883401e+04  -6.366185e+03   1.444595e+05   1.715596e+10  -6.254023e+10   6.685212e+08   1.474465e+05   3.258197e-25   0.000000e+00   0.000000e+00
     2376000   2.375999e-05   5.419338e-01   1.166037e+01   2.405524e+01  -2.711586e+04  -1.124665e+04   1.444947e+05   2.571766e+10  -5.926885e+10   2.133123e+08   1.474466e+05   3.233553e-25   0.000000e+00   0.000000e+00
     2384000   2.383999e-05   5.398555e-01   1.165929e+01   2.406680e+01  -2.473399e+04  -1.581774e+04   1.444940e+05   3.372140e+10  -5.482000e+10  -2.285403e+08   1.474466e+05   3.208902e-25   0.000000e+00   0.000000e+00
     2392000   2.391999e-05   5.379927e-01   1.165785e+01   2.407836e+01  -2.173953e+04  -1.998889e+04   1.444588e+05   4.100687e+10  -4.928784e+10  -6.486141e+08   1.474466e+05   3.184778e-25   0.000000e+00   0.000000e+00
     2400000   2.399999e-05   5.363919e-01   1.165610e+01   2.408991e+01  -1.819585e+04  -2.367792e+04   1.443910e+05   4.742923e+10  -4.278822e+10  -1.039401e+09   1.474466e+05   3.161670e-25   0.000000e+00   0.000000e+00
     2408000   2.407999e-05   5.350940e-01   1.165408e+01   2.410146e+01  -1.417862e+04  -2.681161e+04   1.442935e+05   5.271981e+10  -3.534889e+10  -1.387632e+09   1.474466e+05   3.122476e-25   0.000000e+00   0.000000e+00
     2416000   2.415999e-05   5.341334e-01   1.165183e+01   2.411300e+01  -9.781072e+03  -2.932468e+04   1.441697e+05   5.702924e+10  -2.738012e+10  -1.699845e+09   1.474466e+05   3.102371e-25   0.000000e+00   0.000000e+00
     2424000   2.423999e-05   5.335370e-01   1.164940e+01   2.412453e+01  -5.085151e+03  -3.117877e+04   1.440227e+05   6.016779e+10  -1.890230e+10  -1.967387e+09   1.474466e+05   3.084118e-25   0.000000e+00   0.000000e+00
     2432000   2.431999e-05   5.333251e-01   1.164686e+01   2.413604e+01  -1.869534e+02  -3.233999e+04   1.438562e+05   6.207897e+10  -1.008795e+10  -2.186898e+09   1.474466e+05   3.067865e-25   0.000000e+00   0.000000e+00
     2440000   2.439999e-05   5.335099e-01   1.164425e+01   2.414755e+01   4.813911e+03  -3.278852e+04   1.436741e+05   6.273153e+10  -1.115024e+09  -2.356058e+09   1.474466e+05   3.053682e-25   0.000000e+00   0.000000e+00
     2448000   2.447999e-05   5.340954e-01   1.164163e+01   2.415903e+01   9.816355e+03  -3.251887e+04   1.434806e+05   6.211979e+10   7.836817e+09  -2.473548e+09   1.474467e+05   3.041569e-25   0.000000e+00   0.000000e+00
     2456000   2.455999e-05   5.350778e-01   1.163906e+01   2.417050e+01   1.471985e+04  -3.153985e+04   1.432797e+05   6.026346e+10   1.658987e+10  -2.539008e+09   1.474467e+05   3.031462e-25   0.000000e+00   0.000000e+00
     2464000   2.463999e-05   5.364453e-01   1.163660e+01   2.418196e+01   1.942646e+04  -2.987430e+04   1.430757e+05   5.720699e+10   2.497199e+10  -2.552980e+09   1.474467e+05   3.023253e-25   0.000000e+00   0.000000e+00
     2472000   2.471999e-05   5.381783e-01   1.163430e+01   2.419339e+01   2.384272e+04  -2.755850e+04   1.428726e+05   5.301826e+10   3.282003e+10  -2.516856e+09   1.474467e+05   3.016798e-25   0.000000e+00   0.000000e+00
     2480000   2.479999e-05   5.402501e-01   1.163221e+01   2.420482e+01   2.788307e+04  -2.463527e+04   1.426750e+05   4.782877e+10   4.017052e+10  -2.410807e+09   1.474467e+05   3.026596e-25   0.000000e+00   0.000000e+00
     2488000   2.487999e-05   5.426274e-01   1.163037e+01   2.421622e+01   3.146752e+04  -2.116031e+04   1.424871e+05   4.163544e+10   4.655575e+10  -2.280844e+09   1.474467e+05   3.025882e-25   0.000000e+00   0.000000e+00
     2496000   2.495999e-05   5.452708e-01   1.162884e+01   2.422761e+01   3.452277e+04  -1.721138e+04   1.423112e+05   3.462127e+10   5.200079e+10  -2.109304e+09   1.474467e+05   3.026667e-25   0.000000e+00   0.000000e+00
     2504000   2.503999e-05   5.481354e-01   1.162763e+01   2.423899e+01   3.698869e+04  -1.286796e+04   1.421506e+05   2.692673e+10   5.640290e+10  -1.900484e+09   1.474467e+05   3.028823e-25   0.000000e+00   0.000000e+00
     2512000   2.511999e-05   5.511720e-01   1.162679e+01   2.425036e+01   3.881689e+04  -8.216894e+03   1.420080e+05   1.870463e+10   5.968026e+10  -1.659274e+09   1.474467e+05   3.032234e-25   0.000000e+00   0.000000e+00
     2520000   2.519999e-05   5.543281e-01   1.162632e+01   2.426171e+01   3.997160e+04  -3.350696e+03   1.418858e+05   1.011711e+10   6.177332e+10  -1.391079e+09   1.474467e+05   3.036792e-25   0.000000e+00   0.000000e+00
     2528000   2.527999e-05   5.575489e-01   1.162625e+01   2.427306e+01   4.043028e+04   1.634279e+03   1.417860e+05   1.332430e+09   6.264572e+10  -1.101744e+09   1.474468e+05   3.042403e-25   0.000000e+00   0.000000e+00
     2536000   2.535999e-05   5.607781e-01   1.162658e+01   2.428440e+01   4.018401e+04   6.639713e+03   1.417100e+05  -7.478284e+09   6.228481e+10  -7.974495e+08   1.474468e+05   3.048974e-25   0.000000e+00   0.000000e+00
     2544000   2.543999e-05   5.639596e-01   1.162731e+01   2.429574e+01   3.923753e+04   1.156723e+04   1.416586e+05  -1.614425e+10   6.070167e+10  -4.846151e+08   1.474468e+05   3.056415e-25   0.000000e+00   0.000000e+00
     2552000   2.551999e-05   5.670379e-01   1.162843e+01   2.430707e+01   3.760979e+04   1.632112e+04   1.416322e+05  -2.447723e+10   5.794505e+10  -1.772544e+08   1.474468e+05   3.065116e-25   0.000000e+00   0.000000e+00
     2560000   2.559999e-05   5.699599e-01   1.162992e+01   2.431840e+01   3.533385e+04   2.080775e+04   1.416302e+05  -3.232787e+10   5.404004e+10   1.260751e+08   1.474468e+05   3.071808e-25   0.000000e+00   0.000000e+00
     2568000   2.567999e-05   5.726752e-01   1.163175e+01   2.432973e+01   3.245398e+04   2.493966e+04   1.416521e+05  -3.955165e+10   4.909225e+10   4.186616e+08   1.474468e+05   3.078876e-25   0.000000e+00   0.000000e+00
     2576000   2.575999e-05   5.751379e-01   1.163390e+01   2.434106e+01   2.902588e+04   2.863728e+04   1.416968e+05  -4.601256e+10   4.320088e+10   6.947163e+08   1.474468e+05   3.086156e-25   0.000000e+00   0.000000e+00
     2584000   2.583999e-05   5.773065e-01   1.163632e+01   2.435240e+01   2.511549e+04   3.182967e+04   1.417627e+05  -5.158981e+10   3.648250e+10   9.488938e+08   1.474468e+05   3.093460e-25   0.000000e+00   0.000000e+00
     2592000   2.591999e-05   5.791455e-01   1.163897e+01   2.436374e+01   2.079780e+04   3.445585e+04   1.418479e+05  -5.617994e+10   2.906870e+10   1.176418e+09   1.474468e+05   3.100569e-25   0.000000e+00   0.000000e+00
     2600000   2.599999e-05   5.806255e-01   1.164181e+01   2.437510e+01   1.615525e+04   3.646588e+04   1.419501e+05  -5.969863e+10   2.110361e+10   1.373194e+09   1.474469e+05   3.107243e-25   0.000000e+00   0.000000e+00
     2608000   2.607999e-05   5.817240e-01   1.164479e+01   2.438646e+01   1.127628e+04   3.782174e+04   1.420667e+05  -6.208214e+10   1.274117e+10   1.535916e+09   1.474469e+05   3.113220e-25   0.000000e+00   0.000000e+00
     2616000   2.615999e-05   5.824259e-01   1.164785e+01   2.439783e+01   6.253506e+03   3.849807e+04   1.421948e+05  -6.328843e+10   4.142222e+09   1.662137e+09   1.474469e+05   3.118223e-25   0.000000e+00   0.000000e+00
     2624000   2.623999e-05   5.827226e-01   1.165093e+01   2.440921e+01   1.160733e+03   3.849132e+04   1.423294e+05  -6.364825e+10  -4.423402e+09   1.715611e+09   1.474469e+05   3.155610e-25   0.000000e+00   0.000000e+00
     2632000   2.631999e-05   5.826127e-01   1.165399e+01   2.442060e+01  -3.893294e+03   3.778971e+04   1.424688e+05  -6.250189e+10  -1.308875e+10   1.764054e+09   1.474469e+05   3.161269e-25   0.000000e+00   0.000000e+00
     2640000   2.639999e-05   5.821034e-01   1.165696e+01   2.443200e+01  -8.807831e+03   3.640360e+04   1.426106e+05  -6.016675e+10  -2.150815e+10   1.774598e+09   1.474469e+05   3.165045e-25   0.000000e+00   0.000000e+00
     2648000   2.647999e-05   5.812097e-01   1.165979e+01   2.444342e+01  -1.348943e+04   3.435922e+04   1.427518e+05  -5.668790e+10  -2.951905e+10   1.748526e+09   1.474469e+05   3.166721e-25   0.000000e+00   0.000000e+00
     2656000   2.655999e-05   5.799537e-01   1.166244e+01   2.445484e+01  -1.784913e+04   3.169551e+04   1.428895e+05  -5.213255e+10  -3.696661e+10   1.687987e+09   1.474469e+05   3.166127e-25   0.000000e+00   0.000000e+00
     2664000   2.663999e-05   5.783646e-01   1.166485e+01   2.446628e+01  -2.180421e+04   2.846337e+04   1.430210e+05  -4.658880e+10  -4.370671e+10   1.595912e+09   1.474469e+05   3.163151e-25   0.000000e+00   0.000000e+00
     2672000   2.671999e-05   5.764778e-01   1.166698e+01   2.447773e+01  -2.527977e+04   2.472473e+04   1.431441e+05  -4.016403e+10  -4.960880e+10   1.475909e+09   1.474470e+05   3.157746e-25   0.000000e+00   0.000000e+00
     2680000   2.679999e-05   5.743344e-01   1.166880e+01   2.448918e+01  -2.821020e+04   2.055132e+04   1.432565e+05  -3.298284e+10  -5.455852e+10   1.332139e+09   1.474470e+05   3.149933e-25   0.000000e+00   0.000000e+00
     2688000   2.687999e-05   5.719802e-01   1.167026e+01   2.450065e+01  -3.054028e+04   1.602463e+04   1.433566e+05  -2.513998e+10  -5.816450e+10   1.146251e+09   1.474470e+05   3.111331e-25   0.000000e+00   0.000000e+00
     2696000   2.695999e-05   5.694652e-01   1.167135e+01   2.451212e+01  -3.222545e+04   1.125334e+04   1.434416e+05  -1.692695e+10  -6.092657e+10   9.773229e+08   1.474470e+05   3.098226e-25   0.000000e+00   0.000000e+00
     2704000   2.703999e-05   5.668420e-01   1.167206e+01   2.452360e+01  -3.324053e+04   6.307490e+03   1.435127e+05  -8.414919e+09  -6.252175e+10   7.990841e+08   1.474470e+05   3.083427e-25   0.000000e+00   0.000000e+00
     2712000   2.711999e-05   5.641650e-01   1.167236e+01   2.453508e+01  -3.356817e+04   1.281764e+03   1.435693e+05   2.313558e+08  -6.292077e+10   6.161160e+08   1.474470e+05   3.067190e-25   0.000000e+00   0.000000e+00
     2720000   2.719999e-05   5.614896e-01   1.167226e+01   2.454657e+01  -3.320430e+04  -3.727754e+03   1.436113e+05   8.844694e+09  -6.211768e+10   4.328478e+08   1.474470e+05   3.049811e-25   0.000000e+00   0.000000e+00
     2728000   2.727999e-05   5.588706e-01   1.167177e+01   2.455806e+01  -3.215825e+04  -8.625438e+03   1.436387e+05   1.725877e+10  -6.012991e+10   2.534420e+08   1.474470e+05   3.031618e-25   0.000000e+00   0.000000e+00
     2736000   2.735999e-05   5.563618e-01   1.167089e+01   2.456955e+01  -3.045246e+04  -1.331798e+04   1.436520e+05   2.531142e+10  -5.699798e+10   8.169536e+07   1.474470e+05   3.012956e-25   0.000000e+00   0.000000e+00
     2744000   2.743999e-05   5.540148e-01   1.166964e+01   2.458104e+01  -2.812212e+04  -1.771622e+04   1.436521e+05   3.284784e+10  -5.278463e+10  -7.904285e+07   1.474471e+05   2.994179e-25   0.000000e+00   0.000000e+00
     2752000   2.751999e-05   5.518777e-01   1.166806e+01   2.459253e+01  -2.521436e+04  -2.173685e+04   1.436398e+05   3.972369e+10  -4.757353e+10  -2.259318e+08   1.474471e+05   2.975634e-25   0.000000e+00   0.000000e+00
     2760000   2.759999e-05   5.499944e-01   1.166618e+01   2.460402e+01  -2.178725e+04  -2.530397e+04   1.436164e+05   4.581791e+10  -4.146675e+10  -3.550346e+08   1.474471e+05   2.958308e-25   0.000000e+00   0.000000e+00
     2768000   2.767999e-05   5.484038e-01   1.166403e+01   2.461551e+01  -1.790705e+04  -2.835104e+04   1.435834e+05   5.102695e+10  -3.459040e+10  -4.658857e+08   1.474471e+05   2.944027e-25   0.000000e+00   0.000000e+00
     2776000   2.775999e-05   5.471393e-01   1.166166e+01   2.462700e+01  -1.364967e+04  -3.082096e+04   1.435423e+05   5.523241e+10  -2.706167e+10  -5.581914e+08   1.474471e+05   2.930706e-25   0.000000e+00   0.000000e+00
     2784000   2.783999e-05   5.462277e-01   1.165911e+01   2.463848e+01  -9.098752e+03  -3.266732e+04   1.434946e+05   5.835406e+10  -1.902690e+10  -6.311804e+08   1.474471e+05   2.918584e-25   0.000000e+00   0.000000e+00
     2792000   2.791999e-05   5.456890e-01   1.165645e+01   2.464996e+01  -4.343494e+03  -3.385583e+04   1.434419e+05   6.033293e+10  -1.064200e+10  -6.846011e+08   1.474471e+05   2.907868e-25   0.000000e+00   0.000000e+00
     2800000   2.799999e-05   5.455357e-01   1.165371e+01   2.466143e+01   5.230606e+02  -3.436494e+04   1.433856e+05   6.113245e+10  -2.069294e+09  -7.186895e+08   1.474471e+05   2.898721e-25   0.000000e+00   0.000000e+00
     2808000   2.807999e-05   5.457731e-01   1.165097e+01   2.467290e+01   5.405867e+03  -3.418624e+04   1.433274e+05   6.073902e+10   6.525698e+09  -7.341281e+08   1.474471e+05   2.891268e-25   0.000000e+00   0.000000e+00
     2816000   2.815999e-05   5.463986e-01   1.164826e+01   2.468436e+01   1.020972e+04  -3.332457e+04   1.432686e+05   5.916218e+10   1.497753e+10  -7.319970e+08   1.474471e+05   2.885592e-25   0.000000e+00   0.000000e+00
     2824000   2.823999e-05   5.474021e-01   1.164565e+01   2.469582e+01   1.484108e+04  -3.179790e+04   1.432107e+05   5.643426e+10   2.312404e+10  -7.137198e+08   1.474472e+05   2.881742e-25   0.000000e+00   0.000000e+00
     2832000   2.831999e-05   5.487660e-01   1.164319e+01   2.470728e+01   1.920295e+04  -2.963795e+04   1.431555e+05   5.247283e+10   3.077692e+10  -6.666262e+08   1.474472e+05   2.867028e-25   0.000000e+00   0.000000e+00
     2840000   2.839999e-05   5.504652e-01   1.164093e+01   2.471873e+01   2.321364e+04  -2.688980e+04   1.431039e+05   4.763386e+10   3.781262e+10  -6.215357e+08   1.474472e+05   2.865559e-25   0.000000e+00   0.000000e+00
     2848000   2.847999e-05   5.524688e-01   1.163890e+01   2.473017e+01   2.679987e+04  -2.360768e+04   1.430563e+05   4.187896e+10   4.410582e+10  -5.667549e+08   1.474472e+05   2.865813e-25   0.000000e+00   0.000000e+00
     2856000   2.855999e-05   5.547400e-01   1.163716e+01   2.474162e+01   2.989278e+04  -1.985576e+04   1.430134e+05   3.532072e+10   4.953926e+10  -5.045539e+08   1.474472e+05   2.867715e-25   0.000000e+00   0.000000e+00
     2864000   2.863999e-05   5.572369e-01   1.163574e+01   2.475306e+01   3.243308e+04  -1.570696e+04   1.429758e+05   2.808638e+10   5.401266e+10  -4.372486e+08   1.474472e+05   2.871168e-25   0.000000e+00   0.000000e+00
     2872000   2.871999e-05   5.599133e-01   1.163466e+01   2.476449e+01   3.437220e+04  -1.124148e+04   1.429436e+05   2.031524e+10   5.744449e+10  -3.671443e+08   1.474472e+05   2.876055e-25   0.000000e+00   0.000000e+00
     2880000   2.879999e-05   5.627194e-01   1.163395e+01   2.477593e+01   3.567308e+04  -6.545247e+03   1.429170e+05   1.215596e+10   5.977329e+10  -2.964825e+08   1.474472e+05   2.882243e-25   0.000000e+00   0.000000e+00
     2888000   2.887999e-05   5.656033e-01   1.163361e+01   2.478736e+01   3.631085e+04  -1.708252e+03   1.428961e+05   3.763706e+09   6.095864e+10  -2.273916e+08   1.474472e+05   2.889582e-25   0.000000e+00   0.000000e+00
     2896000   2.895999e-05   5.685111e-01   1.163367e+01   2.479879e+01   3.627321e+04   3.177130e+03   1.428805e+05  -4.702801e+09   6.098178e+10  -1.618411e+08   1.474472e+05   2.897907e-25   0.000000e+00   0.000000e+00
     2904000   2.903999e-05   5.713886e-01   1.163412e+01   2.481022e+01   3.555013e+04   8.043220e+03   1.428712e+05  -1.327333e+10   6.020799e+10  -8.650872e+07   1.474473e+05   2.944595e-25   0.000000e+00   0.000000e+00
     2912000   2.911999e-05   5.741813e-01   1.163496e+01   2.482165e+01   3.415642e+04   1.277670e+04   1.428663e+05  -2.151656e+10   5.793981e+10  -3.718764e+07   1.474473e+05   2.959155e-25   0.000000e+00   0.000000e+00
     2920000   2.919999e-05   5.768365e-01   1.163616e+01   2.483308e+01   3.211773e+04   1.728389e+04   1.428650e+05  -2.937259e+10   5.455972e+10   2.905161e+06   1.474473e+05   2.974282e-25   0.000000e+00   0.000000e+00
     2928000   2.927999e-05   5.793039e-01   1.163771e+01   2.484451e+01   2.947103e+04   2.147823e+04   1.428665e+05  -3.669268e+10   5.013068e+10   3.283952e+07   1.474473e+05   2.989718e-25   0.000000e+00   0.000000e+00
     2936000   2.935999e-05   5.815369e-01   1.163959e+01   2.485594e+01   2.626484e+04   2.527897e+04   1.428700e+05  -4.333788e+10   4.473536e+10   5.205740e+07   1.474473e+05   3.005202e-25   0.000000e+00   0.000000e+00
     2944000   2.943999e-05   5.834929e-01   1.164175e+01   2.486737e+01   2.255829e+04   2.861273e+04   1.428746e+05  -4.918159e+10   3.847462e+10   6.038566e+07   1.474473e+05   3.020465e-25   0.000000e+00   0.000000e+00
     2952000   2.951999e-05   5.851347e-01   1.164415e+01   2.487880e+01   1.842010e+04   3.141488e+04   1.428794e+05  -5.411194e+10   3.146579e+10   5.803926e+07   1.474473e+05   3.035240e-25   0.000000e+00   0.000000e+00
     2960000   2.959999e-05   5.864307e-01   1.164676e+01   2.489023e+01   1.392725e+04   3.363074e+04   1.428836e+05  -5.803390e+10   2.384052e+10   4.561450e+07   1.474473e+05   3.049265e-25   0.000000e+00   0.000000e+00
     2968000   2.967999e-05   5.873558e-01   1.164951e+01   2.490166e+01   9.165516e+03   3.521748e+04   1.428861e+05  -6.070325e+10   1.581599e+10  -4.083746e+06   1.474473e+05   3.048279e-25   0.000000e+00   0.000000e+00
     2976000   2.975999e-05   5.878927e-01   1.165237e+01   2.491309e+01   4.234382e+03   3.614966e+04   1.428845e+05  -6.238292e+10   7.451068e+09  -3.612005e+07   1.474474e+05   3.057666e-25   0.000000e+00   0.000000e+00
     2984000   2.983999e-05   5.880310e-01   1.165528e+01   2.492452e+01  -7.847098e+02   3.640552e+04   1.428802e+05  -6.289883e+10  -1.065607e+09  -7.365457e+07   1.474474e+05   3.065611e-25   0.000000e+00   0.000000e+00
     2992000   2.991999e-05   5.877673e-01   1.165818e+01   2.493595e+01  -5.798105e+03   3.597932e+04   1.428727e+05  -6.224080e+10  -9.573351e+09  -1.147625e+08   1.474474e+05   3.071945e-25   0.000000e+00   0.000000e+00
     3000000   2.999999e-05   5.871059e-01   1.166102e+01   2.494738e+01  -1.071222e+04   3.487822e+04   1.428618e+05  -6.042066e+10  -1.791144e+10  -1.573568e+08   1.474474e+05   3.076533e-25   0.000000e+00   0.000000e+00
     3008000   3.007999e-05   5.860585e-01   1.166374e+01   2.495881e+01  -1.543528e+04   3.312215e+04   1.428475e+05  -5.747207e+10  -2.592207e+10  -1.992529e+08   1.474474e+05   3.079269e-25   0.000000e+00   0.000000e+00
     3016000   3.015999e-05   5.846438e-01   1.166630e+01   2.497024e+01  -1.987907e+04   3.074341e+04   1.428300e+05  -5.345001e+10  -3.345333e+10  -2.382361e+08   1.474474e+05   3.080086e-25   0.000000e+00   0.000000e+00
     3024000   3.023999e-05   5.828875e-01   1.166865e+01   2.498166e+01  -2.396060e+04   2.778615e+04   1.428095e+05  -4.842985e+10  -4.036203e+10  -2.721310e+08   1.474474e+05   3.078950e-25   0.000000e+00   0.000000e+00
     3032000   3.031999e-05   5.808218e-01   1.167073e+01   2.499308e+01  -2.760368e+04   2.430554e+04   1.427866e+05  -4.250604e+10  -4.651649e+10  -2.988703e+08   1.474474e+05   3.075866e-25   0.000000e+00   0.000000e+00
     3040000   3.039999e-05   5.784843e-01   1.167252e+01   2.500451e+01  -3.074551e+04   2.036421e+04   1.427612e+05  -3.594654e+10  -5.189250e+10  -3.390624e+08   1.474474e+05   3.087071e-25   0.000000e+00   0.000000e+00
     3048000   3.047999e-05   5.759174e-01   1.167398e+01   2.501593e+01  -3.332828e+04   1.603089e+04   1.427340e+05  -2.852127e+10  -5.626905e+10  -3.396656e+08   1.474474e+05   3.082953e-25   0.000000e+00   0.000000e+00
     3056000   3.055999e-05   5.731683e-01   1.167508e+01   2.502734e+01  -3.529435e+04   1.138955e+04   1.427072e+05  -2.055332e+10  -5.958048e+10  -3.278169e+08   1.474475e+05   3.077218e-25   0.000000e+00   0.000000e+00
     3064000   3.063999e-05   5.702878e-01   1.167580e+01   2.503876e+01  -3.660632e+04   6.528202e+03   1.426819e+05  -1.219515e+10  -6.175971e+10  -3.027725e+08   1.474475e+05   3.070011e-25   0.000000e+00   0.000000e+00
     3072000   3.071999e-05   5.673294e-01   1.167612e+01   2.505017e+01  -3.723937e+04   1.539396e+03   1.426591e+05  -3.607499e+09  -6.276150e+10  -2.641727e+08   1.474475e+05   3.061502e-25   0.000000e+00   0.000000e+00
     3080000   3.079999e-05   5.643479e-01   1.167604e+01   2.506159e+01  -3.718174e+04  -3.481626e+03   1.426400e+05   5.043730e+09  -6.256348e+10  -2.120625e+08   1.474475e+05   3.051883e-25   0.000000e+00   0.000000e+00
     3088000   3.087999e-05   5.613987e-01   1.167557e+01   2.507300e+01  -3.643506e+04  -8.438765e+03   1.426255e+05   1.359076e+10  -6.116672e+10  -1.469020e+08   1.474475e+05   3.041368e-25   0.000000e+00   0.000000e+00
     3096000   3.095999e-05   5.585363e-01   1.167470e+01   2.508441e+01  -3.501435e+04  -1.323695e+04   1.426168e+05   2.186732e+10  -5.859586e+10  -6.956653e+07   1.474475e+05   3.030184e-25   0.000000e+00   0.000000e+00
     3104000   3.103999e-05   5.558136e-01   1.167345e+01   2.509581e+01  -3.294774e+04  -1.778402e+04   1.426147e+05   2.971197e+10  -5.489871e+10   1.866315e+07   1.474475e+05   3.018573e-25   0.000000e+00   0.000000e+00
     3112000   3.111999e-05   5.532805e-01   1.167186e+01   2.510722e+01  -3.028751e+04  -2.197648e+04   1.426200e+05   3.671837e+10  -4.984401e+10   1.174498e+08   1.474475e+05   2.969001e-25   0.000000e+00   0.000000e+00
     3120000   3.119999e-05   5.509821e-01   1.166995e+01   2.511863e+01  -2.708646e+04  -2.574360e+04   1.426337e+05   4.317628e+10  -4.418513e+10   2.246754e+08   1.474475e+05   2.956522e-25   0.000000e+00   0.000000e+00
     3128000   3.127999e-05   5.489596e-01   1.166776e+01   2.513005e+01  -2.340181e+04  -2.902362e+04   1.426561e+05   4.878874e+10  -3.768601e+10   3.364639e+08   1.474476e+05   2.944223e-25   0.000000e+00   0.000000e+00
     3136000   3.135999e-05   5.472488e-01   1.166532e+01   2.514146e+01  -1.930566e+04  -3.175422e+04   1.426876e+05   5.344718e+10  -3.047200e+10   4.503318e+08   1.474476e+05   2.932337e-25   0.000000e+00   0.000000e+00
     3144000   3.143999e-05   5.458795e-01   1.166269e+01   2.515288e+01  -1.487808e+04  -3.388370e+04   1.427282e+05   5.706165e+10  -2.268242e+10   5.635960e+08   1.474476e+05   2.921101e-25   0.000000e+00   0.000000e+00
     3152000   3.151999e-05   5.448748e-01   1.165992e+01   2.516430e+01  -1.020548e+04  -3.537198e+04   1.427777e+05   5.956265e+10  -1.446775e+10   6.734256e+08   1.474476e+05   2.910749e-25   0.000000e+00   0.000000e+00
     3160000   3.159999e-05   5.442507e-01   1.165705e+01   2.517572e+01  -5.379020e+03  -3.619135e+04   1.428357e+05   6.090240e+10  -5.986614e+09   7.768997e+08   1.474476e+05   2.901506e-25   0.000000e+00   0.000000e+00
     3168000   3.167999e-05   5.440158e-01   1.165414e+01   2.518715e+01  -4.927456e+02  -3.632701e+04   1.429017e+05   6.105583e+10   2.597379e+09   8.710696e+08   1.474476e+05   2.893584e-25   0.000000e+00   0.000000e+00
     3176000   3.175999e-05   5.441710e-01   1.165126e+01   2.519858e+01   4.358199e+03  -3.577735e+04   1.429748e+05   6.002091e+10   1.111890e+10   9.530267e+08   1.474476e+05   2.887177e-25   0.000000e+00   0.000000e+00
     3184000   3.183999e-05   5.447100e-01   1.164844e+01   2.521003e+01   9.088392e+03  -3.454761e+04   1.430548e+05   5.794911e+10   1.952847e+10   1.034814e+09   1.474476e+05   2.897621e-25   0.000000e+00   0.000000e+00
     3192000   3.191999e-05   5.456192e-01   1.164575e+01   2.522147e+01   1.359849e+04  -3.266346e+04   1.431397e+05   5.461910e+10   2.749813e+10   1.086239e+09   1.474476e+05   2.897655e-25   0.000000e+00   0.000000e+00
     3200000   3.199999e-05   5.468774e-01   1.164323e+01   2.523293e+01   1.779878e+04  -3.016204e+04   1.432280e+05   5.021605e+10   3.493518e+10   1.116888e+09   1.474476e+05   2.899818e-25   0.000000e+00   0.000000e+00
     3208000   3.207999e-05   5.484565e-01   1.164093e+01   2.524439e+01   2.160662e+04  -2.709180e+04   1.433178e+05   4.482378e+10   4.169601e+10   1.124544e+09   1.474477e+05   2.904177e-25   0.000000e+00   0.000000e+00
     3216000   3.215999e-05   5.503220e-01   1.163891e+01   2.525586e+01   2.494687e+04  -2.351215e+04   1.434073e+05   3.854510e+10   4.764994e+10   1.107408e+09   1.474477e+05   2.910742e-25   0.000000e+00   0.000000e+00
     3224000   3.223999e-05   5.524338e-01   1.163718e+01   2.526734e+01   2.775331e+04  -1.949236e+04   1.434943e+05   3.149989e+10   5.268171e+10   1.064171e+09   1.474477e+05   2.919473e-25   0.000000e+00   0.000000e+00
     3232000   3.231999e-05   5.547468e-01   1.163580e+01   2.527882e+01   2.996992e+04  -1.511024e+04   1.435768e+05   2.382272e+10   5.669364e+10   9.940869e+08   1.474477e+05   2.930273e-25   0.000000e+00   0.000000e+00
     3240000   3.239999e-05   5.572121e-01   1.163477e+01   2.529031e+01   3.155192e+04  -1.045065e+04   1.436526e+05   1.566032e+10   5.960742e+10   8.970318e+08   1.474477e+05   2.942989e-25   0.000000e+00   0.000000e+00
     3248000   3.247999e-05   5.597773e-01   1.163413e+01   2.530180e+01   3.246529e+04  -5.603758e+03   1.437200e+05   7.056726e+09   6.137233e+10   7.991592e+08   1.474477e+05   2.956859e-25   0.000000e+00   0.000000e+00
     3256000   3.255999e-05   5.623879e-01   1.163388e+01   2.531330e+01   3.268431e+04  -6.643789e+02   1.437780e+05  -1.592884e+09   6.191230e+10   6.484572e+08   1.474477e+05   2.971649e-25   0.000000e+00   0.000000e+00
     3264000   3.263999e-05   5.649883e-01   1.163402e+01   2.532481e+01   3.221056e+04   4.270192e+03   1.438231e+05  -1.023465e+10   6.125237e+10   4.737979e+08   1.474477e+05   2.987712e-25   0.000000e+00   0.000000e+00
     3272000   3.271999e-05   5.675233e-01   1.163456e+01   2.533631e+01   3.105130e+04   9.104290e+03   1.438533e+05  -1.870317e+10   5.940453e+10   2.777865e+08   1.474477e+05   3.004722e-25   0.000000e+00   0.000000e+00
     3280000   3.279999e-05   5.699388e-01   1.163548e+01   2.534782e+01   2.922691e+04   1.374411e+04   1.438670e+05  -2.683628e+10   5.640325e+10   6.372509e+07   1.474477e+05   3.022333e-25   0.000000e+00   0.000000e+00
     3288000   3.287999e-05   5.721828e-01   1.163675e+01   2.535933e+01   2.677052e+04   1.809950e+04   1.438631e+05  -3.447808e+10   5.230488e+10  -1.644390e+08   1.474478e+05   3.040188e-25   0.000000e+00   0.000000e+00
     3296000   3.295999e-05   5.742064e-01   1.163836e+01   2.537084e+01   2.372737e+04   2.208563e+04   1.438405e+05  -4.148181e+10   4.718654e+10  -4.021873e+08   1.474478e+05   3.057933e-25   0.000000e+00   0.000000e+00
     3304000   3.303999e-05   5.759650e-01   1.164027e+01   2.538235e+01   2.015399e+04   2.562465e+04   1.437986e+05  -4.771257e+10   4.114477e+10  -6.445266e+08   1.474478e+05   3.075228e-25   0.000000e+00   0.000000e+00
     3312000   3.311999e-05   5.774187e-01   1.164245e+01   2.539385e+01   1.611715e+04   2.864714e+04   1.437374e+05  -5.304983e+10   3.429376e+10  -8.861038e+08   1.474478e+05   3.091755e-25   0.000000e+00   0.000000e+00
     3320000   3.319999e-05   5.785333e-01   1.164484e+01   2.540534e+01   1.168606e+04   3.110189e+04   1.436557e+05  -5.757993e+10   2.698401e+10  -1.157844e+09   1.474478e+05   3.133428e-25   0.000000e+00   0.000000e+00
     3328000   3.327999e-05   5.792801e-01   1.164741e+01   2.541683e+01   6.939458e+03   3.293952e+04   1.435538e+05  -6.089711e+10   1.887782e+10  -1.387584e+09   1.474478e+05   3.150339e-25   0.000000e+00   0.000000e+00
     3336000   3.335999e-05   5.796377e-01   1.165009e+01   2.542831e+01   1.973342e+03   3.411157e+04   1.434342e+05  -6.305818e+10   1.037097e+10  -1.598599e+09   1.474478e+05   3.165594e-25   0.000000e+00   0.000000e+00
     3344000   3.343999e-05   5.795925e-01   1.165285e+01   2.543978e+01  -3.117747e+03   3.459246e+04   1.432987e+05  -6.401555e+10   1.626713e+09  -1.785189e+09   1.474478e+05   3.179055e-25   0.000000e+00   0.000000e+00
     3352000   3.351999e-05   5.791381e-01   1.165561e+01   2.545124e+01  -8.236371e+03   3.436993e+04   1.431494e+05  -6.374455e+10  -7.185861e+09  -1.942063e+09   1.474478e+05   3.190639e-25   0.000000e+00   0.000000e+00
     3360000   3.359999e-05   5.782765e-01   1.165833e+01   2.546268e+01  -1.328406e+04   3.344539e+04   1.429888e+05  -6.224424e+10  -1.589503e+10  -2.064495e+09   1.474479e+05   3.200310e-25   0.000000e+00   0.000000e+00
     3368000   3.367999e-05   5.770172e-01   1.166094e+01   2.547412e+01  -1.816324e+04   3.183396e+04   1.428201e+05  -5.953765e+10  -2.432971e+10  -2.148466e+09   1.474479e+05   3.208076e-25   0.000000e+00   0.000000e+00
     3376000   3.375999e-05   5.753774e-01   1.166340e+01   2.548554e+01  -2.277912e+04   2.956433e+04   1.426462e+05  -5.567167e+10  -3.232287e+10  -2.190776e+09   1.474479e+05   3.213978e-25   0.000000e+00   0.000000e+00
     3384000   3.383999e-05   5.733820e-01   1.166566e+01   2.549694e+01  -2.704159e+04   2.667827e+04   1.424707e+05  -5.071637e+10  -3.971478e+10  -2.189139e+09   1.474479e+05   3.218088e-25   0.000000e+00   0.000000e+00
     3392000   3.391999e-05   5.710625e-01   1.166766e+01   2.550833e+01  -3.086614e+04   2.324693e+04   1.422946e+05  -4.476832e+10  -4.605398e+10  -2.186804e+09   1.474479e+05   3.199302e-25   0.000000e+00   0.000000e+00
     3400000   3.399999e-05   5.684569e-01   1.166936e+01   2.551971e+01  -3.418203e+04   1.932708e+04   1.421230e+05  -3.799430e+10  -5.178510e+10  -2.095552e+09   1.474479e+05   3.199071e-25   0.000000e+00   0.000000e+00
     3408000   3.407999e-05   5.656086e-01   1.167074e+01   2.553107e+01  -3.692527e+04   1.498774e+04   1.419605e+05  -3.047510e+10  -5.652371e+10  -1.958976e+09   1.474479e+05   3.197401e-25   0.000000e+00   0.000000e+00
     3416000   3.415999e-05   5.625656e-01   1.167175e+01   2.554242e+01  -3.904195e+04   1.031234e+04   1.418107e+05  -2.235584e+10  -6.017218e+10  -1.778839e+09   1.474479e+05   3.194412e-25   0.000000e+00   0.000000e+00
     3424000   3.423999e-05   5.593798e-01   1.167238e+01   2.555376e+01  -4.049032e+04   5.391295e+03   1.416770e+05  -1.379451e+10  -6.265389e+10  -1.557890e+09   1.474479e+05   3.190219e-25   0.000000e+00   0.000000e+00
     3432000   3.431999e-05   5.561058e-01   1.167261e+01   2.556509e+01  -4.124167e+04   3.202690e+02   1.415624e+05  -4.958891e+09  -6.391493e+10  -1.299793e+09   1.474480e+05   3.184930e-25   0.000000e+00   0.000000e+00
     3440000   3.439999e-05   5.528001e-01   1.167243e+01   2.557641e+01  -4.128099e+04  -4.801730e+03   1.414699e+05   3.976699e+09  -6.392545e+10  -1.009046e+09   1.474480e+05   3.178654e-25   0.000000e+00   0.000000e+00
     3448000   3.447999e-05   5.495198e-01   1.167184e+01   2.558773e+01  -4.060737e+04  -9.874295e+03   1.414017e+05   1.283493e+10  -6.268050e+10  -6.908823e+08   1.474480e+05   3.171499e-25   0.000000e+00   0.000000e+00
     3456000   3.455999e-05   5.463216e-01   1.167086e+01   2.559904e+01  -3.923409e+04  -1.479763e+04   1.413599e+05   2.143904e+10  -6.020032e+10  -3.511606e+08   1.474480e+05   3.163580e-25   0.000000e+00   0.000000e+00
     3464000   3.463999e-05   5.432605e-01   1.166948e+01   2.561034e+01  -3.718390e+04  -1.947801e+04   1.413467e+05   2.969674e+10  -5.658051e+10   1.560630e+07   1.474480e+05   3.163128e-25   0.000000e+00   0.000000e+00
     3472000   3.471999e-05   5.403891e-01   1.166775e+01   2.562165e+01  -3.449849e+04  -2.381996e+04   1.413626e+05   3.732613e+10  -5.178701e+10   3.832094e+08   1.474480e+05   3.156955e-25   0.000000e+00   0.000000e+00
     3480000   3.479999e-05   5.377562e-01   1.166568e+01   2.563296e+01  -3.123149e+04  -2.773608e+04   1.414080e+05   4.421181e+10  -4.595205e+10   7.518060e+08   1.474480e+05   3.150416e-25   0.000000e+00   0.000000e+00
     3488000   3.487999e-05   5.354058e-01   1.166332e+01   2.564428e+01  -2.744818e+04  -3.114745e+04   1.414827e+05   5.021156e+10  -3.918859e+10   1.114141e+09   1.474480e+05   3.143714e-25   0.000000e+00   0.000000e+00
     3496000   3.495999e-05   5.333763e-01   1.166072e+01   2.565560e+01  -2.322456e+04  -3.398495e+04   1.415859e+05   5.520043e+10  -3.162920e+10   1.462924e+09   1.474480e+05   3.137088e-25   0.000000e+00   0.000000e+00
     3504000   3.503999e-05   5.316994e-01   1.165790e+01   2.566693e+01  -1.864584e+04  -3.619079e+04   1.417162e+05   5.907346e+10  -2.342334e+10   1.790943e+09   1.474481e+05   3.130815e-25   0.000000e+00   0.000000e+00
     3512000   3.511999e-05   5.303999e-01   1.165494e+01   2.567828e+01  -1.380475e+04  -3.771971e+04   1.418717e+05   6.174799e+10  -1.473443e+10   2.091170e+09   1.474481e+05   3.125204e-25   0.000000e+00   0.000000e+00
     3520000   3.519999e-05   5.294950e-01   1.165189e+01   2.568963e+01  -8.799688e+03  -3.853996e+04   1.420499e+05   6.316542e+10  -5.736444e+09   2.356876e+09   1.474481e+05   3.120588e-25   0.000000e+00   0.000000e+00
     3528000   3.527999e-05   5.289936e-01   1.164880e+01   2.570101e+01  -3.733857e+03  -3.863349e+04   1.422479e+05   6.312863e+10   3.463908e+09   2.598114e+09   1.474481e+05   3.101718e-25   0.000000e+00   0.000000e+00
     3536000   3.535999e-05   5.288960e-01   1.164573e+01   2.571239e+01   1.277076e+03  -3.799398e+04   1.424632e+05   6.193063e+10   1.249677e+10   2.777924e+09   1.474481e+05   3.098090e-25   0.000000e+00   0.000000e+00
     3544000   3.543999e-05   5.291940e-01   1.164274e+01   2.572380e+01   6.141136e+03  -3.664050e+04   1.426909e+05   5.946264e+10   2.128305e+10   2.906236e+09   1.474481e+05   3.096488e-25   0.000000e+00   0.000000e+00
     3552000   3.551999e-05   5.298720e-01   1.163988e+01   2.573522e+01   1.075844e+04  -3.459994e+04   1.429267e+05   5.577180e+10   2.964465e+10   2.978630e+09   1.474481e+05   3.097224e-25   0.000000e+00   0.000000e+00
     3560000   3.559999e-05   5.309063e-01   1.163722e+01   2.574667e+01   1.503387e+04  -3.191314e+04   1.431659e+05   5.093019e+10   3.741174e+10   2.991551e+09   1.474481e+05   3.100556e-25   0.000000e+00   0.000000e+00
     3568000   3.567999e-05   5.322659e-01   1.163479e+01   2.575813e+01   1.887905e+04  -2.863407e+04   1.434037e+05   4.503337e+10   4.442627e+10   2.942444e+09   1.474481e+05   3.106663e-25   0.000000e+00   0.000000e+00
     3576000   3.575999e-05   5.339133e-01   1.163265e+01   2.576961e+01   2.221412e+04  -2.482877e+04   1.436350e+05   3.819846e+10   5.054516e+10   2.829878e+09   1.474482e+05   3.115640e-25   0.000000e+00   0.000000e+00
     3584000   3.583999e-05   5.358047e-01   1.163083e+01   2.578111e+01   2.496934e+04  -2.057403e+04   1.438548e+05   3.056168e+10   5.564324e+10   2.653656e+09   1.474482e+05   3.127481e-25   0.000000e+00   0.000000e+00
     3592000   3.591999e-05   5.378914e-01   1.162937e+01   2.579263e+01   2.708658e+04  -1.595584e+04   1.440580e+05   2.227566e+10   5.961570e+10   2.414917e+09   1.474482e+05   3.142075e-25   0.000000e+00   0.000000e+00
     3600000   3.599999e-05   5.401203e-01   1.162829e+01   2.580416e+01   2.852016e+04  -1.106313e+04   1.442400e+05   1.348942e+10   6.254634e+10   2.130331e+09   1.474482e+05   3.174982e-25   0.000000e+00   0.000000e+00
     3608000   3.607999e-05   5.424354e-01   1.162760e+01   2.581571e+01   2.923592e+04  -5.989399e+03   1.443965e+05   4.366981e+09   6.408108e+10   1.774112e+09   1.474482e+05   3.198265e-25   0.000000e+00   0.000000e+00
     3616000   3.615999e-05   5.447784e-01   1.162733e+01   2.582726e+01   2.921507e+04  -8.450700e+02   1.445225e+05  -4.894621e+09   6.430729e+10   1.365757e+09   1.474482e+05   3.223556e-25   0.000000e+00   0.000000e+00
     3624000   3.623999e-05   5.470901e-01   1.162747e+01   2.583883e+01   2.845397e+04   4.264548e+03   1.446138e+05  -1.410824e+10   6.321379e+10   9.120784e+08   1.474482e+05   3.250366e-25   0.000000e+00   0.000000e+00
     3632000   3.631999e-05   5.493116e-01   1.162801e+01   2.585040e+01   2.696394e+04   9.234310e+03   1.446674e+05  -2.308649e+10   6.081583e+10   4.213306e+08   1.474482e+05   3.278154e-25   0.000000e+00   0.000000e+00
     3640000   3.639999e-05   5.513856e-01   1.162894e+01   2.586197e+01   2.477123e+04   1.396135e+04   1.446805e+05  -3.164540e+10   5.715498e+10  -9.692171e+07   1.474482e+05   3.306355e-25   0.000000e+00   0.000000e+00
     3648000   3.647999e-05   5.532573e-01   1.163023e+01   2.587355e+01   2.191651e+04   1.834716e+04   1.446514e+05  -3.960811e+10   5.229861e+10  -6.319795e+08   1.474483e+05   3.334409e-25   0.000000e+00   0.000000e+00
     3656000   3.655999e-05   5.548760e-01   1.163186e+01   2.588512e+01   1.845420e+04   2.229963e+04   1.445793e+05  -4.680842e+10   4.633875e+10  -1.172239e+09   1.474483e+05   3.361783e-25   0.000000e+00   0.000000e+00
     3664000   3.663999e-05   5.561956e-01   1.163379e+01   2.589668e+01   1.445149e+04   2.573492e+04   1.444641e+05  -5.309420e+10   3.939055e+10  -1.705467e+09   1.474483e+05   3.387995e-25   0.000000e+00   0.000000e+00
     3672000   3.671999e-05   5.571760e-01   1.163596e+01   2.590823e+01   9.989249e+03   2.858249e+04   1.443061e+05  -5.828794e+10   3.165419e+10  -2.234546e+09   1.474483e+05   3.411970e-25   0.000000e+00   0.000000e+00
     3680000   3.679999e-05   5.577840e-01   1.163834e+01   2.591977e+01   5.155625e+03   3.078006e+04   1.441076e+05  -6.235052e+10   2.318519e+10  -2.721171e+09   1.474483e+05   3.433723e-25   0.000000e+00   0.000000e+00
     3688000   3.687999e-05   5.579935e-01   1.164087e+01   2.593129e+01   4.649017e+01   3.227817e+04   1.438719e+05  -6.516296e+10   1.419678e+10  -3.163731e+09   1.474483e+05   3.453264e-25   0.000000e+00   0.000000e+00
     3696000   3.695999e-05   5.577868e-01   1.164349e+01   2.594279e+01  -5.235387e+03   3.304245e+04   1.436029e+05  -6.666065e+10   4.870721e+09  -3.550694e+09   1.474483e+05   3.470465e-25   0.000000e+00   0.000000e+00
     3704000   3.703999e-05   5.571541e-01   1.164614e+01   2.595426e+01  -1.058312e+04   3.305345e+04   1.433056e+05  -6.680527e+10  -4.602862e+09  -3.871605e+09   1.474483e+05   3.485299e-25   0.000000e+00   0.000000e+00
     3712000   3.711999e-05   5.560946e-01   1.164876e+01   2.596571e+01  -1.588783e+04   3.230715e+04   1.429855e+05  -6.558593e+10  -1.402921e+10  -4.117404e+09   1.474484e+05   3.497822e-25   0.000000e+00   0.000000e+00
     3720000   3.719999e-05   5.546161e-01   1.165129e+01   2.597714e+01  -2.104090e+04   3.081516e+04   1.426490e+05  -6.301963e+10  -2.321281e+10  -4.280705e+09   1.474484e+05   3.508163e-25   0.000000e+00   0.000000e+00
     3728000   3.727999e-05   5.527350e-01   1.165367e+01   2.598854e+01  -2.593619e+04   2.860462e+04   1.423029e+05  -5.915139e+10  -3.196139e+10  -4.356013e+09   1.474484e+05   3.516498e-25   0.000000e+00   0.000000e+00
     3736000   3.735999e-05   5.504759e-01   1.165584e+01   2.599991e+01  -3.047227e+04   2.571780e+04   1.419544e+05  -5.405362e+10  -4.008988e+10  -4.339895e+09   1.474484e+05   3.523034e-25   0.000000e+00   0.000000e+00
     3744000   3.743999e-05   5.478710e-01   1.165776e+01   2.601125e+01  -3.456687e+04   2.221096e+04   1.416080e+05  -4.798086e+10  -4.746065e+10  -4.267808e+09   1.474484e+05   3.542449e-25   0.000000e+00   0.000000e+00
     3752000   3.751999e-05   5.449596e-01   1.165938e+01   2.602257e+01  -3.812166e+04   1.814936e+04   1.412741e+05  -4.073025e+10  -5.390735e+10  -4.064971e+09   1.474484e+05   3.549104e-25   0.000000e+00   0.000000e+00
     3760000   3.759999e-05   5.417880e-01   1.166066e+01   2.603386e+01  -4.106013e+04   1.361495e+04   1.409601e+05  -3.259894e+10  -5.925867e+10  -3.771756e+09   1.474484e+05   3.554549e-25   0.000000e+00   0.000000e+00
     3768000   3.767999e-05   5.384081e-01   1.166155e+01   2.604512e+01  -4.331833e+04   8.700454e+03   1.406729e+05  -2.375290e+10  -6.339112e+10  -3.393394e+09   1.474484e+05   3.558920e-25   0.000000e+00   0.000000e+00
     3776000   3.775999e-05   5.348766e-01   1.166204e+01   2.605636e+01  -4.484632e+04   3.507499e+03   1.404192e+05  -1.437554e+10  -6.620600e+10  -2.937110e+09   1.474485e+05   3.562304e-25   0.000000e+00   0.000000e+00
     3784000   3.783999e-05   5.312531e-01   1.166211e+01   2.606759e+01  -4.560940e+04  -1.855465e+03   1.402048e+05  -4.663968e+09  -6.763204e+10  -2.411926e+09   1.474485e+05   3.564741e-25   0.000000e+00   0.000000e+00
     3792000   3.791999e-05   5.276000e-01   1.166174e+01   2.607880e+01  -4.558905e+04  -7.275455e+03   1.400349e+05   5.175168e+09  -6.762739e+10  -1.828423e+09   1.474485e+05   3.566235e-25   0.000000e+00   0.000000e+00
     3800000   3.799999e-05   5.239799e-01   1.166095e+01   2.609000e+01  -4.478352e+04  -1.263737e+04   1.399135e+05   1.493014e+10  -6.618105e+10  -1.198482e+09   1.474485e+05   3.566768e-25   0.000000e+00   0.000000e+00
     3808000   3.807999e-05   5.204551e-01   1.165973e+01   2.610119e+01  -4.320891e+04  -1.782485e+04   1.398439e+05   2.428399e+10  -6.312193e+10  -5.420935e+08   1.474485e+05   3.543613e-25   0.000000e+00   0.000000e+00
     3816000   3.815999e-05   5.170858e-01   1.165810e+01   2.611237e+01  -4.090576e+04  -2.271437e+04   1.398279e+05   3.319270e+10  -5.889609e+10   1.432518e+08   1.474485e+05   3.540623e-25   0.000000e+00   0.000000e+00
     3824000   3.823999e-05   5.139285e-01   1.165610e+01   2.612356e+01  -3.791670e+04  -2.721411e+04   1.398670e+05   4.140015e+10  -5.339364e+10   8.346664e+08   1.474485e+05   3.536770e-25   0.000000e+00   0.000000e+00
     3832000   3.831999e-05   5.110357e-01   1.165376e+01   2.613475e+01  -3.430526e+04  -3.122620e+04   1.399612e+05   4.872329e+10  -4.672608e+10   1.517795e+09   1.474485e+05   3.532153e-25   0.000000e+00   0.000000e+00
     3840000   3.839999e-05   5.084542e-01   1.165112e+01   2.614595e+01  -3.014891e+04  -3.466280e+04   1.401093e+05   5.499701e+10  -3.903152e+10   2.178325e+09   1.474486e+05   3.526954e-25   0.000000e+00   0.000000e+00
     3848000   3.847999e-05   5.062241e-01   1.164823e+01   2.615717e+01  -2.553751e+04  -3.744808e+04   1.403088e+05   6.007808e+10  -3.047190e+10   2.802216e+09   1.474486e+05   3.521445e-25   0.000000e+00   0.000000e+00
     3856000   3.855999e-05   5.043777e-01   1.164515e+01   2.616841e+01  -2.057135e+04  -3.951999e+04   1.405563e+05   6.384858e+10  -2.122951e+10   3.375919e+09   1.474486e+05   3.515996e-25   0.000000e+00   0.000000e+00
     3864000   3.863999e-05   5.029392e-01   1.164193e+01   2.617966e+01  -1.535907e+04  -4.083178e+04   1.408473e+05   6.621881e+10  -1.150302e+10   3.886591e+09   1.474486e+05   3.511059e-25   0.000000e+00   0.000000e+00
     3872000   3.871999e-05   5.019237e-01   1.163864e+01   2.619094e+01  -1.001527e+04  -4.135308e+04   1.411762e+05   6.712954e+10  -1.503161e+09   4.322298e+09   1.474486e+05   3.507156e-25   0.000000e+00   0.000000e+00
     3880000   3.879999e-05   5.013371e-01   1.163533e+01   2.620225e+01  -4.657064e+03  -4.107110e+04   1.415365e+05   6.661636e+10   8.529614e+09   4.667367e+09   1.474486e+05   3.510999e-25   0.000000e+00   0.000000e+00
     3888000   3.887999e-05   5.011760e-01   1.163209e+01   2.621359e+01   6.007813e+02  -3.999010e+04   1.419209e+05   6.458415e+10   1.845043e+10   4.925838e+09   1.474486e+05   3.513724e-25   0.000000e+00   0.000000e+00
     3896000   3.895999e-05   5.014274e-01   1.162896e+01   2.622496e+01   5.637630e+03  -3.812886e+04   1.423218e+05   6.110017e+10   2.799955e+10   5.081273e+09   1.474486e+05   3.519325e-25   0.000000e+00   0.000000e+00
     3904000   3.903999e-05   5.020691e-01   1.162600e+01   2.623636e+01   1.033982e+04  -3.552568e+04   1.427309e+05   5.623171e+10   3.696405e+10   5.127079e+09   1.474487e+05   3.528318e-25   0.000000e+00   0.000000e+00
     3912000   3.911999e-05   5.030699e-01   1.162329e+01   2.624779e+01   1.460033e+04  -3.223550e+04   1.431391e+05   5.007726e+10   4.514225e+10   5.058605e+09   1.474487e+05   3.541109e-25   0.000000e+00   0.000000e+00
     3920000   3.919999e-05   5.043907e-01   1.162086e+01   2.625926e+01   1.832120e+04  -2.832879e+04   1.435372e+05   4.276453e+10   5.234827e+10   4.873380e+09   1.474487e+05   3.557959e-25   0.000000e+00   0.000000e+00
     3928000   3.927999e-05   5.059846e-01   1.161877e+01   2.627076e+01   2.141578e+04  -2.389008e+04   1.439158e+05   3.444784e+10   5.841621e+10   4.571333e+09   1.474487e+05   3.578959e-25   0.000000e+00   0.000000e+00
     3936000   3.935999e-05   5.077986e-01   1.161705e+01   2.628229e+01   2.381072e+04  -1.901630e+04   1.442656e+05   2.530496e+10   6.320396e+10   4.154994e+09   1.474487e+05   3.604013e-25   0.000000e+00   0.000000e+00
     3944000   3.943999e-05   5.097741e-01   1.161574e+01   2.629384e+01   2.544770e+04  -1.381464e+04   1.445776e+05   1.553339e+10   6.659648e+10   3.629636e+09   1.474487e+05   3.632834e-25   0.000000e+00   0.000000e+00
     3952000   3.951999e-05   5.118488e-01   1.161485e+01   2.630542e+01   2.628353e+04  -8.399766e+03   1.448439e+05   5.306068e+09   6.852322e+10   3.011271e+09   1.474487e+05   3.666225e-25   0.000000e+00   0.000000e+00
     3960000   3.959999e-05   5.139574e-01   1.161440e+01   2.631702e+01   2.629274e+04  -2.892604e+03   1.450567e+05  -5.086122e+09   6.889739e+10   2.296127e+09   1.474487e+05   3.701346e-25   0.000000e+00   0.000000e+00
     3968000   3.967999e-05   5.160335e-01   1.161438e+01   2.632863e+01   2.547086e+04   2.582367e+03   1.452092e+05  -1.543260e+10   6.771854e+10   1.503043e+09   1.474488e+05   3.738712e-25   0.000000e+00   0.000000e+00
     3976000   3.975999e-05   5.180109e-01   1.161481e+01   2.634025e+01   2.383082e+04   7.901343e+03   1.452956e+05  -2.550191e+10   6.500333e+10   6.481026e+08   1.474488e+05   3.777427e-25   0.000000e+00   0.000000e+00
     3984000   3.983999e-05   5.198254e-01   1.161564e+01   2.635187e+01   2.140391e+04   1.294322e+04   1.453117e+05  -3.506699e+10   6.080255e+10  -2.502259e+08   1.474488e+05   3.816553e-25   0.000000e+00   0.000000e+00
     3992000   3.991999e-05   5.214159e-01   1.161687e+01   2.636350e+01   1.823927e+04   1.759230e+04   1.452549e+05  -4.391016e+10   5.520033e+10  -1.171471e+09   1.474488e+05   3.855167e-25   0.000000e+00   0.000000e+00
     4000000   3.999999e-05   5.227258e-01   1.161844e+01   2.637511e+01   1.440290e+04   2.174091e+04   1.451242e+05  -5.182793e+10   4.831266e+10  -2.093644e+09   1.474488e+05   3.892414e-25   0.000000e+00   0.000000e+00
     4008000   4.007999e-05   5.237046e-01   1.162033e+01   2.638671e+01   9.976352e+03   2.529183e+04   1.449205e+05  -5.863558e+10   4.028518e+10  -2.993821e+09   1.474488e+05   3.927553e-25   0.000000e+00   0.000000e+00
     4016000   4.015999e-05   5.243088e-01   1.162247e+01   2.639830e+01   5.055081e+03   2.816063e+04   1.446464e+05  -6.417143e+10   3.129035e+10  -3.848787e+09   1.474488e+05   3.959999e-25   0.000000e+00   0.000000e+00
     4024000   4.023999e-05   5.245029e-01   1.162481e+01   2.640985e+01  -2.580566e+02   3.028271e+04   1.443054e+05  -6.838529e+10   2.160056e+10  -4.654844e+09   1.474488e+05   4.001001e-25   0.000000e+00   0.000000e+00
     4032000   4.031999e-05   5.242602e-01   1.162729e+01   2.642138e+01  -5.845757e+03   3.160045e+04   1.439042e+05  -7.104755e+10   1.126729e+10  -5.360000e+09   1.474489e+05   4.030932e-25   0.000000e+00   0.000000e+00
     4040000   4.039999e-05   5.235636e-01   1.162985e+01   2.643288e+01  -1.158330e+04   3.207618e+04   1.434507e+05  -7.212148e+10   5.897478e+08  -5.955138e+09   1.474489e+05   4.057182e-25   0.000000e+00   0.000000e+00
     4048000   4.047999e-05   5.224063e-01   1.163240e+01   2.644433e+01  -1.734169e+04   3.169198e+04   1.429547e+05  -7.156527e+10  -1.018998e+10  -6.422099e+09   1.474489e+05   4.079918e-25   0.000000e+00   0.000000e+00
     4056000   4.055999e-05   5.207919e-01   1.163490e+01   2.645575e+01  -2.299009e+04   3.044957e+04   1.424270e+05  -6.937404e+10  -2.082365e+10  -6.745850e+09   1.474489e+05   4.099457e-25   0.000000e+00   0.000000e+00
     4064000   4.063999e-05   5.187343e-01   1.163725e+01   2.646712e+01  -2.839875e+04   2.837062e+04   1.418795e+05  -6.558075e+10  -3.106242e+10  -6.915009e+09   1.474489e+05   4.116221e-25   0.000000e+00   0.000000e+00
     4072000   4.071999e-05   5.162578e-01   1.163941e+01   2.647845e+01  -3.344210e+04   2.549652e+04   1.413249e+05  -6.025629e+10  -4.066273e+10  -6.922242e+09   1.474489e+05   4.130684e-25   0.000000e+00   0.000000e+00
     4080000   4.079999e-05   5.133965e-01   1.164131e+01   2.648973e+01  -3.800172e+04   2.188773e+04   1.407764e+05  -5.350864e+10  -4.939210e+10  -6.764528e+09   1.474489e+05   4.143326e-25   0.000000e+00   0.000000e+00
     4088000   4.087999e-05   5.101933e-01   1.164290e+01   2.650098e+01  -4.196931e+04   1.762319e+04   1.402469e+05  -4.548981e+10  -5.696339e+10  -6.454656e+09   1.474490e+05   4.148982e-25   0.000000e+00   0.000000e+00
     4096000   4.095999e-05   5.066997e-01   1.164412e+01   2.651217e+01  -4.525087e+04   1.280272e+04   1.397485e+05  -3.638324e+10  -6.332053e+10  -5.979632e+09   1.474490e+05   4.159187e-25   0.000000e+00   0.000000e+00
     4104000   4.103999e-05   5.029736e-01   1.164493e+01   2.652334e+01  -4.776661e+04   7.530259e+03   1.392941e+05  -2.638061e+10  -6.823839e+10  -5.357051e+09   1.474490e+05   4.168583e-25   0.000000e+00   0.000000e+00
     4112000   4.111999e-05   4.990791e-01   1.164531e+01   2.653446e+01  -4.945227e+04   1.923119e+03   1.388956e+05  -1.561853e+10  -7.177018e+10  -4.566704e+09   1.474490e+05   4.195417e-25   0.000000e+00   0.000000e+00
     4120000   4.119999e-05   4.950848e-01   1.164524e+01   2.654556e+01  -5.025734e+04  -3.898717e+03   1.385648e+05  -4.459339e+09  -7.348927e+10  -3.684730e+09   1.474490e+05   4.209659e-25   0.000000e+00   0.000000e+00
     4128000   4.127999e-05   4.910620e-01   1.164469e+01   2.655664e+01  -5.016120e+04  -9.788730e+03   1.383085e+05   6.866556e+09  -7.346816e+10  -2.708949e+09   1.474490e+05   4.223544e-25   0.000000e+00   0.000000e+00
     4136000   4.135999e-05   4.870831e-01   1.164367e+01   2.656769e+01  -4.916140e+04  -1.560667e+04   1.381333e+05   1.808650e+10  -7.168806e+10  -1.662160e+09   1.474491e+05   4.236717e-25   0.000000e+00   0.000000e+00
     4144000   4.143999e-05   4.832198e-01   1.164220e+01   2.657874e+01  -4.727739e+04  -2.121250e+04   1.380439e+05   2.892622e+10  -6.817326e+10  -5.687597e+08   1.474491e+05   4.248789e-25   0.000000e+00   0.000000e+00
     4152000   4.151999e-05   4.795412e-01   1.164029e+01   2.658978e+01  -4.455042e+04  -2.646986e+04   1.380429e+05   3.911681e+10  -6.299142e+10   5.458556e+08   1.474491e+05   4.259401e-25   0.000000e+00   0.000000e+00
     4160000   4.159999e-05   4.761125e-01   1.163798e+01   2.660083e+01  -4.104475e+04  -3.124695e+04   1.381311e+05   4.806936e+10  -5.582854e+10   1.654788e+09   1.474491e+05   4.206635e-25   0.000000e+00   0.000000e+00
     4168000   4.167999e-05   4.729917e-01   1.163530e+01   2.661189e+01  -3.686785e+04  -3.539935e+04   1.383072e+05   5.614619e+10  -4.776399e+10   2.741934e+09   1.474491e+05   4.215224e-25   0.000000e+00   0.000000e+00
     4176000   4.175999e-05   4.702295e-01   1.163233e+01   2.662296e+01  -3.209696e+04  -3.885672e+04   1.385683e+05   6.288628e+10  -3.848630e+10   3.774753e+09   1.474491e+05   4.222055e-25   0.000000e+00   0.000000e+00
     4184000   4.183999e-05   4.678690e-01   1.162911e+01   2.663406e+01  -2.684649e+04  -4.153045e+04   1.389091e+05   6.810852e+10  -2.821157e+10   4.728920e+09   1.474491e+05   4.227399e-25   0.000000e+00   0.000000e+00
     4192000   4.191999e-05   4.659435e-01   1.162571e+01   2.664519e+01  -2.124395e+04  -4.335037e+04   1.393223e+05   7.166737e+10  -1.718401e+10   5.581441e+09   1.474492e+05   4.231760e-25   0.000000e+00   0.000000e+00
     4200000   4.199999e-05   4.644757e-01   1.162220e+01   2.665635e+01  -1.542690e+04  -4.426680e+04   1.397989e+05   7.345726e+10  -5.670117e+09   6.311028e+09   1.474492e+05   4.235862e-25   0.000000e+00   0.000000e+00
     4208000   4.207999e-05   4.634771e-01   1.161865e+01   2.666756e+01  -9.539649e+03  -4.425202e+04   1.403282e+05   7.341597e+10   6.047890e+09   6.898459e+09   1.474492e+05   4.240606e-25   0.000000e+00   0.000000e+00
     4216000   4.215999e-05   4.629473e-01   1.161514e+01   2.667881e+01  -3.729669e+03  -4.330133e+04   1.408984e+05   7.152686e+10   1.767913e+10   7.326956e+09   1.474492e+05   4.247002e-25   0.000000e+00   0.000000e+00
     4224000   4.223999e-05   4.628743e-01   1.161175e+01   2.669010e+01   1.856105e+03  -4.143336e+04   1.414959e+05   6.781995e+10   2.893145e+10   7.582558e+09   1.474492e+05   4.256099e-25   0.000000e+00   0.000000e+00
     4232000   4.231999e-05   4.632345e-01   1.160854e+01   2.670144e+01   7.074912e+03  -3.868797e+04   1.421072e+05   6.236033e+10   3.971310e+10   7.707424e+09   1.474492e+05   4.280328e-25   0.000000e+00   0.000000e+00
     4240000   4.239999e-05   4.639929e-01   1.160558e+01   2.671284e+01   1.178960e+04  -3.511690e+04   1.427203e+05   5.524934e+10   4.938375e+10   7.587513e+09   1.474492e+05   4.298510e-25   0.000000e+00   0.000000e+00
     4248000   4.247999e-05   4.651041e-01   1.160294e+01   2.672428e+01   1.587574e+04  -3.081833e+04   1.433160e+05   4.667743e+10   5.786073e+10   7.271963e+09   1.474493e+05   4.322302e-25   0.000000e+00   0.000000e+00
     4256000   4.255999e-05   4.665133e-01   1.160066e+01   2.673577e+01   1.922433e+04  -2.589698e+04   1.438786e+05   3.684791e+10   6.491863e+10   6.761784e+09   1.474493e+05   4.352043e-25   0.000000e+00   0.000000e+00
     4264000   4.263999e-05   4.681579e-01   1.159881e+01   2.674730e+01   2.174765e+04  -2.046630e+04   1.443934e+05   2.605197e+10   7.052662e+10   6.073040e+09   1.474493e+05   4.407565e-25   0.000000e+00   0.000000e+00
     4272000   4.271999e-05   4.699688e-01   1.159740e+01   2.675887e+01   2.336981e+04  -1.466345e+04   1.448452e+05   1.439905e+10   7.423796e+10   5.192708e+09   1.474493e+05   4.450931e-25   0.000000e+00   0.000000e+00
     4280000   4.279999e-05   4.718717e-01   1.159647e+01   2.677047e+01   2.403863e+04  -8.638576e+03   1.452199e+05   2.268688e+09   7.606192e+10   4.149490e+09   1.474493e+05   4.499124e-25   0.000000e+00   0.000000e+00
     4288000   4.287999e-05   4.737889e-01   1.159602e+01   2.678210e+01   2.372810e+04  -2.545726e+03   1.455053e+05  -1.003299e+10   7.593026e+10   2.964979e+09   1.474493e+05   4.551087e-25   0.000000e+00   0.000000e+00
