     timestep     time              x             y              z              vx             vy             vz             ax             ay             az         v_magnitude      ELoss        Electronic      Nuclear
           0   0.000000e+00   1.000000e-01   1.026152e+01   2.094517e+01   2.203967e+04  -2.198087e+04   2.960167e+05   0.000000e+00   0.000000e+00   0.000000e+00   2.976488e+05   0.000000e+00   0.000000e+00   0.000000e+00
        8000   7.999000e-08   1.025521e-01   1.025941e+01   2.096874e+01   4.208670e+04  -2.939302e+04   2.931887e+05   2.598953e+11  -4.496350e+10  -4.181279e+10   2.976489e+05   2.251280e-23   0.000000e+00   0.000000e+00
       16000   1.599900e-07   1.067500e-01   1.025702e+01   2.099205e+01   6.274840e+04  -2.924378e+04   2.894864e+05   2.515162e+11   4.727857e+10  -4.973966e+10   2.976490e+05   2.145655e-23   0.000000e+00   0.000000e+00
       24000   2.399900e-07   1.125422e-01   1.025492e+01   2.101505e+01   8.156886e+04  -2.210100e+04   2.853998e+05   2.152700e+11   1.278434e+11  -5.162305e+10   2.976491e+05   2.062958e-23   0.000000e+00   0.000000e+00
       32000   3.199900e-07   1.197013e-01   1.025363e+01   2.103772e+01   9.665885e+04  -9.363642e+03   2.813617e+05   1.592178e+11   1.868505e+11  -4.847703e+10   2.976492e+05   1.976574e-23   0.000000e+00   0.000000e+00
       40000   3.999900e-07   1.278728e-01   1.025352e+01   2.106008e+01   1.067153e+05   7.154444e+03   2.777692e+05   9.087991e+10   2.219263e+11  -4.062886e+10   2.976492e+05   1.867597e-23   0.000000e+00   0.000000e+00
       48000   4.799900e-07   1.366239e-01   1.025482e+01   2.108218e+01   1.111003e+05   2.547600e+04   2.749597e+05   1.881510e+10   2.320168e+11  -2.909763e+10   2.976493e+05   1.737267e-23   0.000000e+00   0.000000e+00
       56000   5.599900e-07   1.454972e-01   1.025760e+01   2.110410e+01   1.097725e+05   4.376205e+04   2.731850e+05  -5.354337e+10   2.259328e+11  -1.467560e+10   2.976494e+05   1.708712e-23   0.000000e+00   0.000000e+00
       64000   6.399900e-07   1.540396e-01   1.026179e+01   2.112593e+01   1.029779e+05   6.061732e+04   2.726102e+05  -1.141942e+11   1.924497e+11   3.455307e+08   2.976495e+05   1.580844e-23   0.000000e+00   0.000000e+00
       72000   7.199900e-07   1.618590e-01   1.026720e+01   2.114775e+01   9.189532e+04   7.414560e+04   2.732269e+05  -1.601213e+11   1.436936e+11   1.486169e+10   2.976495e+05   1.468153e-23   0.000000e+00   0.000000e+00
       80000   7.999900e-07   1.686630e-01   1.027354e+01   2.116967e+01   7.782529e+04   8.335711e+04   2.749365e+05  -1.885947e+11   8.554217e+10   2.745117e+10   2.976496e+05   1.377596e-23   0.000000e+00   0.000000e+00
       88000   8.799900e-07   1.742698e-01   1.028041e+01   2.119177e+01   6.220775e+04   8.774209e+04   2.775371e+05  -1.988344e+11   2.401363e+10   3.697685e+10   2.976497e+05   1.309409e-23   0.000000e+00   0.000000e+00
       96000   9.599900e-07   1.786048e-01   1.028746e+01   2.121409e+01   4.612286e+04   8.765842e+04   2.806849e+05  -1.995619e+11  -2.816983e+10   4.159152e+10   2.976497e+05   1.336850e-23   0.000000e+00   0.000000e+00
      104000   1.039990e-06   1.816737e-01   1.029432e+01   2.123668e+01   3.087142e+04   8.312595e+04   2.841345e+05  -1.792711e+11  -8.377713e+10   4.398909e+10   2.976498e+05   1.297183e-23   0.000000e+00   0.000000e+00
      112000   1.119990e-06   1.836023e-01   1.030065e+01   2.125955e+01   1.778694e+04   7.452021e+04   2.876209e+05  -1.460962e+11  -1.293984e+11   4.256227e+10   2.976498e+05   1.259549e-23   0.000000e+00   0.000000e+00
      120000   1.199990e-06   1.846012e-01   1.030616e+01   2.128270e+01   7.754971e+03   6.275920e+04   2.908549e+05  -1.034979e+11  -1.623449e+11   3.779081e+10   2.976499e+05   1.215236e-23   0.000000e+00   0.000000e+00
      128000   1.279990e-06   1.849394e-01   1.031063e+01   2.130608e+01   1.254938e+03   4.907246e+04   2.935742e+05  -6.127508e+10  -1.742413e+11   2.938848e+10   2.976499e+05   1.104197e-23   0.000000e+00   0.000000e+00
      136000   1.359990e-06   1.848948e-01   1.031399e+01   2.132965e+01  -1.727358e+03   3.475862e+04   2.956085e+05  -1.324601e+10  -1.813126e+11   2.124306e+10   2.976500e+05   1.057560e-23   0.000000e+00   0.000000e+00
      144000   1.439990e-06   1.847647e-01   1.031619e+01   2.135336e+01  -9.043647e+02   2.041706e+04   2.969476e+05   3.328413e+10  -1.751174e+11   1.214290e+10   2.976500e+05   1.007697e-23   0.000000e+00   0.000000e+00
      152000   1.519990e-06   1.848452e-01   1.031728e+01   2.137714e+01   3.473854e+03   7.053854e+03   2.975462e+05   7.516101e+10  -1.571744e+11   2.849611e+09   2.976501e+05   9.584415e-24   0.000000e+00   0.000000e+00
      160000   1.599990e-06   1.854028e-01   1.031737e+01   2.140094e+01   1.091882e+04  -4.455721e+03   2.974164e+05   1.061103e+11  -1.232737e+11  -5.741470e+09   2.976501e+05   8.361983e-24   0.000000e+00   0.000000e+00
      168000   1.679990e-06   1.866449e-01   1.031666e+01   2.142471e+01   2.046968e+04  -1.304159e+04   2.966589e+05   1.311615e+11  -9.046872e+10  -1.302652e+10   2.976501e+05   8.068032e-24   0.000000e+00   0.000000e+00
      176000   1.759990e-06   1.887216e-01   1.031536e+01   2.144840e+01   3.165521e+04  -1.882115e+04   2.953630e+05   1.468751e+11  -5.356808e+10  -1.915381e+10   2.976502e+05   7.831617e-24   0.000000e+00   0.000000e+00
      184000   1.839990e-06   1.917330e-01   1.031372e+01   2.147196e+01   4.371316e+04  -2.157443e+04   2.936313e+05   1.529865e+11  -1.524859e+10  -2.389480e+10   2.976502e+05   7.642090e-24   0.000000e+00   0.000000e+00
      192000   1.919990e-06   1.957187e-01   1.031199e+01   2.149537e+01   5.588696e+04  -2.128959e+04   2.915803e+05   1.498874e+11   2.199270e+10  -2.712219e+10   2.976502e+05   7.477045e-24   0.000000e+00   0.000000e+00
      200000   1.999990e-06   2.006519e-01   1.031041e+01   2.151861e+01   6.722954e+04  -1.772994e+04   2.894158e+05   1.337148e+11   6.299788e+10  -2.720105e+10   2.976503e+05   7.130674e-24   0.000000e+00   0.000000e+00
      208000   2.079990e-06   2.064378e-01   1.030922e+01   2.154167e+01   7.714439e+04  -1.147624e+04   2.872503e+05   1.131075e+11   9.232824e+10  -2.668686e+10   2.976503e+05   6.954437e-24   0.000000e+00   0.000000e+00
      216000   2.159990e-06   2.129448e-01   1.030863e+01   2.156457e+01   8.518188e+04  -3.134664e+03   2.851840e+05   8.708179e+10   1.150197e+11  -2.474553e+10   2.976503e+05   6.763489e-24   0.000000e+00   0.000000e+00
      224000   2.239990e-06   2.200071e-01   1.030876e+01   2.158731e+01   9.098220e+04   6.728372e+03   2.833244e+05   5.749411e+10   1.302758e+11  -2.155578e+10   2.976503e+05   6.547851e-24   0.000000e+00   0.000000e+00
      232000   2.319990e-06   2.274361e-01   1.030973e+01   2.160991e+01   9.431055e+04   1.755075e+04   2.817681e+05   2.544424e+10   1.391778e+11  -1.718482e+10   2.976504e+05   6.412485e-24   0.000000e+00   0.000000e+00
      240000   2.399990e-06   2.350286e-01   1.031158e+01   2.163240e+01   9.508021e+04   2.873482e+04   2.805884e+05  -6.056651e+09   1.391877e+11  -1.220104e+10   2.976504e+05   6.174334e-24   0.000000e+00   0.000000e+00
      248000   2.479990e-06   2.425831e-01   1.031432e+01   2.165482e+01   9.338495e+04   3.963112e+04   2.798292e+05  -3.592400e+10   1.320975e+11  -6.719176e+09   2.976504e+05   5.930204e-24   0.000000e+00   0.000000e+00
      256000   2.559990e-06   2.499094e-01   1.031790e+01   2.167719e+01   8.941338e+04   4.970283e+04   2.795186e+05  -6.275257e+10   1.187350e+11  -1.038801e+09   2.976504e+05   5.693928e-24   0.000000e+00   0.000000e+00
      264000   2.639990e-06   2.568362e-01   1.032224e+01   2.169955e+01   8.345556e+04   5.848990e+04   2.796603e+05  -8.541873e+10   1.001784e+11   4.539130e+09   2.976505e+05   5.477915e-24   0.000000e+00   0.000000e+00
      272000   2.719990e-06   2.632137e-01   1.032722e+01   2.172194e+01   7.573369e+04   6.580478e+04   2.802320e+05  -1.052811e+11   7.970827e+10   9.735922e+09   2.976505e+05   5.534615e-24   0.000000e+00   0.000000e+00
      280000   2.799990e-06   2.689203e-01   1.033271e+01   2.174440e+01   6.676236e+04   7.116341e+04   2.812017e+05  -1.180377e+11   5.390309e+10   1.438370e+10   2.976505e+05   5.380888e-24   0.000000e+00   0.000000e+00
      288000   2.879990e-06   2.738747e-01   1.033855e+01   2.176695e+01   5.700374e+04   7.439012e+04   2.825111e+05  -1.249473e+11   2.663841e+10   1.819751e+10   2.976505e+05   5.256902e-24   0.000000e+00   0.000000e+00
      296000   2.959990e-06   2.780324e-01   1.034456e+01   2.178961e+01   4.692574e+04   7.542209e+04   2.840869e+05  -1.260534e+11  -7.490521e+08   2.102107e+10   2.976506e+05   5.155669e-24   0.000000e+00   0.000000e+00
      304000   3.039990e-06   2.813845e-01   1.035056e+01   2.181240e+01   3.689057e+04   7.442410e+04   2.858251e+05  -1.239360e+11  -2.432385e+10   2.233014e+10   2.976506e+05   5.193077e-24   0.000000e+00   0.000000e+00
      312000   3.119990e-06   2.839473e-01   1.035641e+01   2.183534e+01   2.729798e+04   7.146987e+04   2.876504e+05  -1.150719e+11  -4.910711e+10   2.312206e+10   2.976506e+05   5.110136e-24   0.000000e+00   0.000000e+00
      320000   3.199990e-06   2.857760e-01   1.036195e+01   2.185843e+01   1.859886e+04   6.664643e+04   2.894965e+05  -1.017247e+11  -7.090846e+10   2.286010e+10   2.976506e+05   5.018856e-24   0.000000e+00   0.000000e+00
      328000   3.279990e-06   2.869557e-01   1.036703e+01   2.188166e+01   1.112004e+04   6.022463e+04   2.912821e+05  -8.471065e+10  -8.895527e+10   2.162660e+10   2.976507e+05   4.910937e-24   0.000000e+00   0.000000e+00
      336000   3.359990e-06   2.875944e-01   1.037155e+01   2.190503e+01   5.088785e+03   5.257017e+04   2.929273e+05  -6.672817e+10  -1.003436e+11   1.916789e+10   2.976507e+05   4.700146e-24   0.000000e+00   0.000000e+00
      344000   3.439990e-06   2.878103e-01   1.037542e+01   2.192852e+01   5.925476e+02   4.411848e+04   2.943623e+05  -4.543174e+10  -1.101692e+11   1.660391e+10   2.976507e+05   4.570116e-24   0.000000e+00   0.000000e+00
      352000   3.519990e-06   2.877360e-01   1.037859e+01   2.195212e+01  -2.153162e+03   3.506891e+04   2.955698e+05  -2.312531e+10  -1.152809e+11   1.350991e+10   2.976507e+05   4.421743e-24   0.000000e+00   0.000000e+00
      360000   3.599990e-06   2.875137e-01   1.038103e+01   2.197581e+01  -3.105534e+03   2.579838e+04   2.965143e+05  -7.513951e+08  -1.157168e+11   1.006058e+10   2.976507e+05   4.259225e-24   0.000000e+00   0.000000e+00
      368000   3.679990e-06   2.872862e-01   1.038273e+01   2.199956e+01  -2.294968e+03   1.667301e+04   2.971745e+05   2.080804e+10  -1.117046e+11   6.428326e+09   2.976507e+05   4.088777e-24   0.000000e+00   0.000000e+00
      376000   3.759990e-06   2.871859e-01   1.038372e+01   2.202335e+01   4.922142e+01   8.213923e+03   2.975374e+05   3.896409e+10  -1.015990e+11   2.798731e+09   2.976508e+05   3.740323e-24   0.000000e+00   0.000000e+00
      384000   3.839990e-06   2.873339e-01   1.038406e+01   2.204716e+01   3.884740e+03   5.075639e+02   2.976250e+05   5.651569e+10  -9.051988e+10  -5.829156e+08   2.976508e+05   3.595052e-24   0.000000e+00   0.000000e+00
      392000   3.919990e-06   2.878422e-01   1.038382e+01   2.207096e+01   9.020067e+03  -6.190726e+03   2.974497e+05   7.137843e+10  -7.650301e+10  -3.756393e+09   2.976508e+05   3.460410e-24   0.000000e+00   0.000000e+00
      400000   3.999990e-06   2.888056e-01   1.038310e+01   2.209474e+01   1.522248e+04  -1.167210e+04   2.970321e+05   8.313580e+10  -6.021257e+10  -6.626337e+09   2.976508e+05   3.340235e-24   0.000000e+00   0.000000e+00
      408000   4.079990e-06   2.902972e-01   1.038200e+01   2.211848e+01   2.216211e+04  -1.568758e+04   2.964098e+05   9.035176e+10  -4.099904e+10  -8.925016e+09   2.976508e+05   3.132828e-24   0.000000e+00   0.000000e+00
      416000   4.159990e-06   2.923653e-01   1.038063e+01   2.214216e+01   2.960585e+04  -1.823969e+04   2.956126e+05   9.516580e+10  -2.271943e+10  -1.093243e+10   2.976508e+05   3.059653e-24   0.000000e+00   0.000000e+00
      424000   4.239990e-06   2.950407e-01   1.037912e+01   2.216577e+01   3.729705e+04  -1.931771e+04   2.946723e+05   9.654827e+10  -4.258880e+09  -1.249911e+10   2.976508e+05   2.997688e-24   0.000000e+00   0.000000e+00
      432000   4.319990e-06   2.983322e-01   1.037758e+01   2.218931e+01   4.496511e+04  -1.893347e+04   2.936251e+05   9.461696e+10   1.373330e+10  -1.360357e+10   2.976509e+05   2.944052e-24   0.000000e+00   0.000000e+00
      440000   4.399990e-06   3.022264e-01   1.037613e+01   2.221275e+01   5.229532e+04  -1.702238e+04   2.925260e+05   8.810664e+10   3.360808e+10  -1.379496e+10   2.976509e+05   2.867201e-24   0.000000e+00   0.000000e+00
      448000   4.479990e-06   3.066836e-01   1.037489e+01   2.223611e+01   5.902142e+04  -1.369605e+04   2.914188e+05   7.960368e+10   4.923406e+10  -1.380803e+10   2.976509e+05   2.825788e-24   0.000000e+00   0.000000e+00
      456000   4.559990e-06   3.116490e-01   1.037397e+01   2.225938e+01   6.496656e+04  -9.200607e+03   2.903287e+05   6.865553e+10   6.276971e+10  -1.337348e+10   2.976509e+05   2.788243e-24   0.000000e+00   0.000000e+00
      464000   4.639990e-06   3.170527e-01   1.037345e+01   2.228256e+01   6.995320e+04  -3.717959e+03   2.892901e+05   5.572197e+10   7.386437e+10  -1.252451e+10   2.976509e+05   2.752028e-24   0.000000e+00   0.000000e+00
      472000   4.719990e-06   3.228121e-01   1.037339e+01   2.230567e+01   7.383486e+04   2.549397e+03   2.883366e+05   4.091830e+10   8.243440e+10  -1.120659e+10   2.976509e+05   2.713382e-24   0.000000e+00   0.000000e+00
      480000   4.799990e-06   3.288336e-01   1.037387e+01   2.232870e+01   7.649545e+04   9.382947e+03   2.875004e+05   2.548100e+10   8.792390e+10  -9.648964e+09   2.976509e+05   2.674766e-24   0.000000e+00   0.000000e+00
      488000   4.879990e-06   3.350179e-01   1.037490e+01   2.235167e+01   7.789974e+04   1.654021e+04   2.867998e+05   9.596151e+09   9.052698e+10  -7.827025e+09   2.976509e+05   2.635460e-24   0.000000e+00   0.000000e+00
      496000   4.959990e-06   3.412636e-01   1.037652e+01   2.237459e+01   7.803214e+04   2.379136e+04   2.862535e+05  -6.234755e+09   9.028596e+10  -5.804059e+09   2.976510e+05   2.596199e-24   0.000000e+00   0.000000e+00
      504000   5.039990e-06   3.474697e-01   1.037871e+01   2.239748e+01   7.691606e+04   3.091344e+04   2.858748e+05  -2.154089e+10   8.732842e+10  -3.647402e+09   2.976510e+05   2.558144e-24   0.000000e+00   0.000000e+00
      512000   5.119990e-06   3.535376e-01   1.038146e+01   2.242034e+01   7.458534e+04   3.776441e+04   2.856694e+05  -3.631711e+10   8.277835e+10  -1.460674e+09   2.976510e+05   2.580164e-24   0.000000e+00   0.000000e+00
      520000   5.199990e-06   3.593737e-01   1.038474e+01   2.244319e+01   7.114294e+04   4.408799e+04   2.856415e+05  -4.949247e+10   7.495344e+10   7.582020e+08   2.976510e+05   2.546947e-24   0.000000e+00   0.000000e+00
      528000   5.279990e-06   3.648940e-01   1.038849e+01   2.246604e+01   6.671041e+04   4.970382e+04   2.857890e+05  -6.102063e+10   6.514055e+10   2.914937e+09   2.976510e+05   2.517654e-24   0.000000e+00   0.000000e+00
      536000   5.359990e-06   3.700248e-01   1.039267e+01   2.248892e+01   6.143060e+04   5.446671e+04   2.861045e+05  -7.063580e+10   5.369131e+10   4.945361e+09   2.976510e+05   2.492818e-24   0.000000e+00   0.000000e+00
      544000   5.439990e-06   3.747040e-01   1.039718e+01   2.251183e+01   5.543724e+04   5.829522e+04   2.865737e+05  -7.885533e+10   4.179041e+10   6.753657e+09   2.976510e+05   2.528673e-24   0.000000e+00   0.000000e+00
      552000   5.519990e-06   3.788802e-01   1.040196e+01   2.253478e+01   4.889381e+04   6.109972e+04   2.871800e+05  -8.437201e+10   2.824090e+10   8.356564e+09   2.976510e+05   2.521034e-24   0.000000e+00   0.000000e+00
      560000   5.599990e-06   3.825178e-01   1.040693e+01   2.255778e+01   4.200255e+04   6.279403e+04   2.879042e+05  -8.751980e+10   1.406805e+10   9.700256e+09   2.976510e+05   2.510207e-24   0.000000e+00   0.000000e+00
      568000   5.679990e-06   3.855964e-01   1.041198e+01   2.258084e+01   3.495277e+04   6.334768e+04   2.887240e+05  -8.833924e+10  -2.097000e+08   1.074058e+10   2.976511e+05   2.499949e-24   0.000000e+00   0.000000e+00
      576000   5.759990e-06   3.881109e-01   1.041703e+01   2.260398e+01   2.792176e+04   6.278056e+04   2.896120e+05  -8.741265e+10  -1.329922e+10   1.131074e+10   2.976511e+05   2.508331e-24   0.000000e+00   0.000000e+00
      584000   5.839990e-06   3.900681e-01   1.042200e+01   2.262718e+01   2.105743e+04   6.116912e+04   2.905359e+05  -8.384365e+10  -2.684909e+10   1.172986e+10   2.976511e+05   2.490164e-24   0.000000e+00   0.000000e+00
      592000   5.919990e-06   3.914899e-01   1.042679e+01   2.265046e+01   1.456074e+04   5.851066e+04   2.914801e+05  -7.825435e+10  -3.942200e+10   1.182285e+10   2.976511e+05   2.467876e-24   0.000000e+00   0.000000e+00
      600000   5.999990e-06   3.924117e-01   1.043133e+01   2.267382e+01   8.584949e+03   5.489542e+04   2.924192e+05  -7.086064e+10  -5.072358e+10   1.160288e+10   2.976511e+05   2.439820e-24   0.000000e+00   0.000000e+00
      608000   6.079990e-06   3.928810e-01   1.043555e+01   2.269725e+01   3.264503e+03   5.043535e+04   2.933288e+05  -6.191588e+10  -6.050565e+10   1.109275e+10   2.976511e+05   2.404723e-24   0.000000e+00   0.000000e+00
      616000   6.159990e-06   3.929521e-01   1.043939e+01   2.272075e+01  -1.359238e+03   4.533569e+04   2.941751e+05  -5.278794e+10  -6.763354e+10   1.017943e+10   2.976511e+05   2.356400e-24   0.000000e+00   0.000000e+00
      624000   6.239990e-06   3.926860e-01   1.044279e+01   2.274431e+01  -5.144526e+03   3.965115e+04   2.949534e+05  -4.169399e+10  -7.416439e+10   9.243090e+09   2.976511e+05   2.312111e-24   0.000000e+00   0.000000e+00
      632000   6.319990e-06   3.921535e-01   1.044572e+01   2.276794e+01  -8.010057e+03   3.352103e+04   2.956491e+05  -2.984640e+10  -7.875831e+10   8.121316e+09   2.976511e+05   2.260168e-24   0.000000e+00   0.000000e+00
      640000   6.399990e-06   3.914303e-01   1.044815e+01   2.279162e+01  -9.908171e+03   2.710318e+04   2.962490e+05  -1.756166e+10  -8.135151e+10   6.855554e+09   2.976511e+05   2.201403e-24   0.000000e+00   0.000000e+00
      648000   6.479990e-06   3.905940e-01   1.045006e+01   2.281534e+01  -1.084299e+04   2.060743e+04   2.967389e+05  -5.712829e+09  -8.103656e+10   5.419167e+09   2.976512e+05   2.092635e-24   0.000000e+00   0.000000e+00
      656000   6.559990e-06   3.897212e-01   1.045145e+01   2.283909e+01  -1.081455e+04   1.416031e+04   2.971174e+05   6.367345e+09  -7.982387e+10   4.036299e+09   2.976512e+05   2.029423e-24   0.000000e+00   0.000000e+00
      664000   6.639990e-06   3.888890e-01   1.045233e+01   2.286287e+01  -9.836668e+03   7.885120e+03   2.973841e+05   1.797696e+10  -7.675685e+10   2.630042e+09   2.976512e+05   1.964082e-24   0.000000e+00   0.000000e+00
      672000   6.719990e-06   3.881714e-01   1.045272e+01   2.288667e+01  -7.957774e+03   1.925221e+03   2.975386e+05   2.885070e+10  -7.196711e+10   1.237487e+09   2.976512e+05   1.898249e-24   0.000000e+00   0.000000e+00
      680000   6.799990e-06   3.876378e-01   1.045265e+01   2.291047e+01  -5.257884e+03  -3.563629e+03   2.975834e+05   3.843785e+10  -6.495313e+10  -9.849371e+07   2.976512e+05   1.798249e-24   0.000000e+00   0.000000e+00
      688000   6.879990e-06   3.873498e-01   1.045216e+01   2.293428e+01  -1.822424e+03  -8.463966e+03   2.975252e+05   4.724242e+10  -5.734085e+10  -1.341668e+09   2.976512e+05   1.743078e-24   0.000000e+00   0.000000e+00
      696000   6.959990e-06   3.873636e-01   1.045131e+01   2.295808e+01   2.265884e+03  -1.270655e+04   2.973712e+05   5.473194e+10  -4.854690e+10  -2.491251e+09   2.976512e+05   1.691613e-24   0.000000e+00   0.000000e+00
      704000   7.039990e-06   3.877268e-01   1.045015e+01   2.298186e+01   6.895789e+03  -1.620610e+04   2.971297e+05   6.076160e+10  -3.880550e+10  -3.526517e+09   2.976512e+05   1.644792e-24   0.000000e+00   0.000000e+00
      712000   7.119990e-06   3.884780e-01   1.044874e+01   2.300562e+01   1.193407e+04  -1.888378e+04   2.968118e+05   6.458277e+10  -2.771203e+10  -4.359643e+09   2.976512e+05   1.565120e-24   0.000000e+00   0.000000e+00
      720000   7.199990e-06   3.896428e-01   1.044715e+01   2.302935e+01   1.722180e+04  -2.067813e+04   2.964322e+05   6.734190e+10  -1.710083e+10  -5.105091e+09   2.976512e+05   1.532141e-24   0.000000e+00   0.000000e+00
      728000   7.279990e-06   3.912377e-01   1.044545e+01   2.305304e+01   2.266575e+04  -2.161560e+04   2.959988e+05   6.848835e+10  -6.331839e+09  -5.706640e+09   2.976512e+05   1.503691e-24   0.000000e+00   0.000000e+00
      736000   7.359990e-06   3.932700e-01   1.044371e+01   2.307670e+01   2.813744e+04  -2.169351e+04   2.955232e+05   6.804211e+10   4.347779e+09  -6.159129e+09   2.976512e+05   1.479464e-24   0.000000e+00   0.000000e+00
      744000   7.439990e-06   3.957371e-01   1.044200e+01   2.310033e+01   3.351107e+04  -2.092742e+04   2.950175e+05   6.570473e+10   1.571168e+10  -6.348724e+09   2.976512e+05   1.453485e-24   0.000000e+00   0.000000e+00
      752000   7.519990e-06   3.986248e-01   1.044039e+01   2.312391e+01   3.863538e+04  -1.927237e+04   2.945032e+05   6.216678e+10   2.555857e+10  -6.482839e+09   2.976512e+05   1.439501e-24   0.000000e+00   0.000000e+00
      760000   7.599990e-06   4.019094e-01   1.043894e+01   2.314745e+01   4.341010e+04  -1.684860e+04   2.939863e+05   5.697654e+10   3.489627e+10  -6.413083e+09   2.976513e+05   1.422210e-24   0.000000e+00   0.000000e+00
      768000   7.679990e-06   4.055582e-01   1.043771e+01   2.317094e+01   4.772489e+04  -1.371907e+04   2.934798e+05   5.070275e+10   4.316992e+10  -6.226961e+09   2.976513e+05   1.412102e-24   0.000000e+00   0.000000e+00
      776000   7.759990e-06   4.095309e-01   1.043676e+01   2.319440e+01   5.149415e+04  -9.970679e+03   2.929935e+05   4.336748e+10   5.034428e+10  -5.908528e+09   2.976513e+05   1.404845e-24   0.000000e+00   0.000000e+00
      784000   7.839990e-06   4.137806e-01   1.043613e+01   2.321782e+01   5.463915e+04  -5.690564e+03   2.925380e+05   3.514056e+10   5.641004e+10  -5.465960e+09   2.976513e+05   1.403781e-24   0.000000e+00   0.000000e+00
      792000   7.919990e-06   4.182548e-01   1.043586e+01   2.324121e+01   5.709819e+04  -9.814649e+02   2.921217e+05   2.623534e+10   6.109188e+10  -4.922558e+09   2.976513e+05   1.403122e-24   0.000000e+00   0.000000e+00
      800000   7.999990e-06   4.228967e-01   1.043598e+01   2.326457e+01   5.882322e+04   4.047368e+03   2.917529e+05   1.682424e+10   6.439443e+10  -4.285270e+09   2.976513e+05   1.404170e-24   0.000000e+00   0.000000e+00
      808000   8.079990e-06   4.276461e-01   1.043652e+01   2.328789e+01   5.978196e+04   9.283811e+03   2.914382e+05   7.112351e+09   6.627833e+10  -3.570092e+09   2.976513e+05   1.406723e-24   0.000000e+00   0.000000e+00
      816000   8.159990e-06   4.324409e-01   1.043747e+01   2.331120e+01   5.995394e+04   1.462088e+04   2.911839e+05  -2.814119e+09   6.690186e+10  -2.779693e+09   2.976513e+05   1.417884e-24   0.000000e+00   0.000000e+00
      824000   8.239990e-06   4.372178e-01   1.043885e+01   2.333448e+01   5.933974e+04   1.994153e+04   2.909939e+05  -1.250354e+10   6.588363e+10  -1.965054e+09   2.976513e+05   1.420835e-24   0.000000e+00   0.000000e+00
      832000   8.319990e-06   4.419148e-01   1.044066e+01   2.335776e+01   5.796159e+04   2.512611e+04   2.908701e+05  -2.188171e+10   6.351096e+10  -1.125723e+09   2.976513e+05   1.424896e-24   0.000000e+00   0.000000e+00
      840000   8.399990e-06   4.464721e-01   1.044287e+01   2.338102e+01   5.585172e+04   3.006916e+04   2.908139e+05  -3.076771e+10   5.986043e+10  -2.801725e+08   2.976513e+05   1.430037e-24   0.000000e+00   0.000000e+00
      848000   8.479990e-06   4.508328e-01   1.044546e+01   2.340429e+01   5.305301e+04   3.468035e+04   2.908246e+05  -3.922462e+10   5.558152e+10   5.276177e+08   2.976513e+05   1.461021e-24   0.000000e+00   0.000000e+00
      856000   8.559990e-06   4.549432e-01   1.044841e+01   2.342756e+01   4.960762e+04   3.889939e+04   2.908990e+05  -4.676563e+10   4.972541e+10   1.325856e+09   2.976513e+05   1.471516e-24   0.000000e+00   0.000000e+00
      864000   8.639990e-06   4.587549e-01   1.045167e+01   2.345084e+01   4.559511e+04   4.261104e+04   2.910356e+05  -5.338223e+10   4.292054e+10   2.079220e+09   2.976513e+05   1.482489e-24   0.000000e+00   0.000000e+00
      872000   8.719990e-06   4.622254e-01   1.045521e+01   2.347413e+01   4.109407e+04   4.574527e+04   2.912301e+05  -5.896194e+10   3.531605e+10   2.772692e+09   2.976513e+05   1.493621e-24   0.000000e+00   0.000000e+00
      880000   8.799990e-06   4.653192e-01   1.045897e+01   2.349743e+01   3.619122e+04   4.824449e+04   2.914773e+05  -6.341491e+10   2.707318e+10   3.392987e+09   2.976513e+05   1.504512e-24   0.000000e+00   0.000000e+00
      888000   8.879990e-06   4.680074e-01   1.046291e+01   2.352076e+01   3.096737e+04   5.007846e+04   2.917696e+05  -6.685004e+10   1.851842e+10   3.916942e+09   2.976514e+05   1.523858e-24   0.000000e+00   0.000000e+00
      896000   8.959990e-06   4.702683e-01   1.046697e+01   2.354412e+01   2.552996e+04   5.119733e+04   2.921017e+05  -6.887464e+10   9.420086e+09   4.368794e+09   2.976514e+05   1.531541e-24   0.000000e+00   0.000000e+00
      904000   9.039990e-06   4.720892e-01   1.047108e+01   2.356750e+01   1.998122e+04   5.158249e+04   2.924660e+05  -6.963234e+10   2.055415e+08   4.721185e+09   2.976514e+05   1.537683e-24   0.000000e+00   0.000000e+00
      912000   9.119990e-06   4.734651e-01   1.047520e+01   2.359091e+01   1.442239e+04   5.123176e+04   2.928543e+05  -6.913044e+10  -8.947784e+09   4.970000e+09   2.976514e+05   1.541720e-24   0.000000e+00   0.000000e+00
      920000   9.199990e-06   4.743989e-01   1.047926e+01   2.361436e+01   8.941316e+03   5.018276e+04   2.932543e+05  -6.766758e+10  -1.735559e+10   5.033302e+09   2.976514e+05   1.548561e-24   0.000000e+00   0.000000e+00
      928000   9.279990e-06   4.749004e-01   1.048321e+01   2.363783e+01   3.633413e+03   4.844785e+04   2.936596e+05  -6.483758e+10  -2.594034e+10   5.082022e+09   2.976514e+05   1.547674e-24   0.000000e+00   0.000000e+00
      936000   9.359990e-06   4.749875e-01   1.048700e+01   2.366134e+01  -1.402829e+03   4.604637e+04   2.940648e+05  -6.088946e+10  -3.399463e+10   5.032771e+09   2.976514e+05   1.543207e-24   0.000000e+00   0.000000e+00
      944000   9.439990e-06   4.746854e-01   1.049056e+01   2.368488e+01  -6.081401e+03   4.302662e+04   2.944624e+05  -5.591236e+10  -4.137462e+10   4.891061e+09   2.976514e+05   1.534837e-24   0.000000e+00   0.000000e+00
      952000   9.519990e-06   4.740259e-01   1.049386e+01   2.370846e+01  -1.033413e+04   3.945545e+04   2.948437e+05  -5.036598e+10  -4.770359e+10   4.618467e+09   2.976514e+05   1.525910e-24   0.000000e+00   0.000000e+00
      960000   9.599990e-06   4.730450e-01   1.049686e+01   2.373206e+01  -1.410107e+04   3.540192e+04   2.952020e+05  -4.368311e+10  -5.347352e+10   4.326308e+09   2.976514e+05   1.510964e-24   0.000000e+00   0.000000e+00
      968000   9.679990e-06   4.717848e-01   1.049952e+01   2.375569e+01  -1.730521e+04   3.092650e+04   2.955342e+05  -3.631986e+10  -5.823672e+10   3.967671e+09   2.976514e+05   1.492037e-24   0.000000e+00   0.000000e+00
      976000   9.759990e-06   4.702925e-01   1.050180e+01   2.377934e+01  -1.989578e+04   2.611342e+04   2.958355e+05  -2.840148e+10  -6.191201e+10   3.555055e+09   2.976514e+05   1.468674e-24   0.000000e+00   0.000000e+00
      984000   9.839990e-06   4.686187e-01   1.050369e+01   2.380302e+01  -2.184304e+04   2.105365e+04   2.961013e+05  -2.046142e+10  -6.416432e+10   3.053007e+09   2.976514e+05   1.434793e-24   0.000000e+00   0.000000e+00
      992000   9.919990e-06   4.668148e-01   1.050517e+01   2.382672e+01  -2.313962e+04   1.585417e+04   2.963268e+05  -1.192690e+10  -6.562597e+10   2.579941e+09   2.976514e+05   1.406579e-24   0.000000e+00   0.000000e+00
     1000000   9.999990e-06   4.649347e-01   1.050622e+01   2.385043e+01  -2.374905e+04   1.058505e+04   2.965136e+05  -3.309383e+09  -6.590468e+10   2.087774e+09   2.976514e+05   1.375978e-24   0.000000e+00   0.000000e+00
     1008000   1.007999e-05   4.630333e-01   1.050686e+01   2.387416e+01  -2.367109e+04   5.340763e+03   2.966606e+05   5.231353e+09  -6.500880e+10   1.587912e+09   2.976514e+05   1.343556e-24   0.000000e+00   0.000000e+00
     1016000   1.015999e-05   4.611653e-01   1.050708e+01   2.389790e+01  -2.291816e+04   2.142006e+02   2.967678e+05   1.353923e+10  -6.296839e+10   1.091168e+09   2.976515e+05   1.309932e-24   0.000000e+00   0.000000e+00
     1024000   1.023999e-05   4.593832e-01   1.050690e+01   2.392164e+01  -2.152988e+04  -4.687564e+03   2.968348e+05   2.122331e+10  -5.962958e+10   5.978337e+08   2.976515e+05   1.264775e-24   0.000000e+00   0.000000e+00
     1032000   1.031999e-05   4.577367e-01   1.050634e+01   2.394539e+01  -1.953473e+04  -9.301391e+03   2.968641e+05   2.855898e+10  -5.555416e+10   1.387839e+08   2.976515e+05   1.231762e-24   0.000000e+00   0.000000e+00
     1040000   1.039999e-05   4.562727e-01   1.050542e+01   2.396914e+01  -1.697730e+04  -1.355139e+04   2.968578e+05   3.526007e+10  -5.054952e+10  -2.909050e+08   2.976515e+05   1.199156e-24   0.000000e+00   0.000000e+00
     1048000   1.047999e-05   4.550339e-01   1.050418e+01   2.399289e+01  -1.391304e+04  -1.736715e+04   2.968185e+05   4.121201e+10  -4.471613e+10  -6.844929e+08   2.976515e+05   1.167531e-24   0.000000e+00   0.000000e+00
     1056000   1.055999e-05   4.540585e-01   1.050266e+01   2.401663e+01  -1.040373e+04  -2.067538e+04   2.967502e+05   4.637807e+10  -3.797690e+10  -1.019869e+09   2.976515e+05   1.134630e-24   0.000000e+00   0.000000e+00
     1064000   1.063999e-05   4.533794e-01   1.050089e+01   2.404036e+01  -6.517449e+03  -2.343275e+04   2.966561e+05   5.061774e+10  -3.086902e+10  -1.326157e+09   2.976515e+05   1.110196e-24   0.000000e+00   0.000000e+00
     1072000   1.071999e-05   4.530235e-01   1.049892e+01   2.406409e+01  -2.338489e+03  -2.560155e+04   2.965392e+05   5.369274e+10  -2.329137e+10  -1.587314e+09   2.976515e+05   1.082134e-24   0.000000e+00   0.000000e+00
     1080000   1.079999e-05   4.530109e-01   1.049681e+01   2.408781e+01   2.051532e+03  -2.715115e+04   2.964035e+05   5.588161e+10  -1.540644e+10  -1.797928e+09   2.976515e+05   1.061750e-24   0.000000e+00   0.000000e+00
     1088000   1.087999e-05   4.533554e-01   1.049460e+01   2.411152e+01   6.576364e+03  -2.805104e+04   2.962538e+05   5.705345e+10  -7.062540e+09  -1.935107e+09   2.976515e+05   1.044505e-24   0.000000e+00   0.000000e+00
     1096000   1.095999e-05   4.540643e-01   1.049234e+01   2.413521e+01   1.114829e+04  -2.829097e+04   2.960942e+05   5.706535e+10   1.056802e+09  -2.047492e+09   2.976515e+05   1.029681e-24   0.000000e+00   0.000000e+00
     1104000   1.103999e-05   4.551380e-01   1.049009e+01   2.415889e+01   1.567836e+04  -2.788481e+04   2.959274e+05   5.601067e+10   9.066195e+09  -2.113065e+09   2.976515e+05   1.017714e-24   0.000000e+00   0.000000e+00
     1112000   1.111999e-05   4.565695e-01   1.048789e+01   2.418256e+01   2.008233e+04  -2.684696e+04   2.957573e+05   5.391957e+10   1.682628e+10  -2.133723e+09   2.976515e+05   1.008603e-24   0.000000e+00   0.000000e+00
     1120000   1.119999e-05   4.583456e-01   1.048581e+01   2.420621e+01   2.427903e+04  -2.519803e+04   2.955876e+05   5.083890e+10   2.442846e+10  -2.093248e+09   2.976515e+05   1.005676e-24   0.000000e+00   0.000000e+00
     1128000   1.127999e-05   4.604466e-01   1.048388e+01   2.422985e+01   2.819230e+04  -2.296464e+04   2.954221e+05   4.684420e+10   3.131330e+10  -2.036122e+09   2.976515e+05   1.003568e-24   0.000000e+00   0.000000e+00
     1136000   1.135999e-05   4.628469e-01   1.048215e+01   2.425348e+01   3.175125e+04  -2.020411e+04   2.952627e+05   4.199466e+10   3.758835e+10  -1.943732e+09   2.976515e+05   1.003936e-24   0.000000e+00   0.000000e+00
     1144000   1.143999e-05   4.655156e-01   1.048066e+01   2.427710e+01   3.489100e+04  -1.696948e+04   2.951120e+05   3.638055e+10   4.314988e+10  -1.819955e+09   2.976515e+05   1.006636e-24   0.000000e+00   0.000000e+00
     1152000   1.151999e-05   4.684168e-01   1.047944e+01   2.430070e+01   3.755364e+04  -1.332124e+04   2.949724e+05   2.977588e+10   4.802876e+10  -1.621705e+09   2.976515e+05   1.008917e-24   0.000000e+00   0.000000e+00
     1160000   1.159999e-05   4.715092e-01   1.047854e+01   2.432429e+01   3.966467e+04  -9.320590e+03   2.948496e+05   2.292115e+10   5.183418e+10  -1.444812e+09   2.976515e+05   1.014679e-24   0.000000e+00   0.000000e+00
     1168000   1.167999e-05   4.747480e-01   1.047796e+01   2.434788e+01   4.120987e+04  -5.052878e+03   2.947417e+05   1.565109e+10   5.469731e+10  -1.250478e+09   2.976515e+05   1.022277e-24   0.000000e+00   0.000000e+00
     1176000   1.175999e-05   4.780869e-01   1.047773e+01   2.437145e+01   4.216108e+04  -5.952194e+02   2.946498e+05   8.093021e+09   5.657766e+10  -1.043617e+09   2.976515e+05   1.031527e-24   0.000000e+00   0.000000e+00
     1184000   1.183999e-05   4.814775e-01   1.047787e+01   2.439502e+01   4.250048e+04   3.972717e+03   2.945749e+05   3.775376e+08   5.745191e+10  -8.291700e+08   2.976515e+05   1.042239e-24   0.000000e+00   0.000000e+00
     1192000   1.191999e-05   4.848703e-01   1.047837e+01   2.441858e+01   4.221425e+04   8.600826e+03   2.945173e+05  -7.500888e+09   5.780827e+10  -6.129368e+08   2.976516e+05   1.072823e-24   0.000000e+00   0.000000e+00
     1200000   1.199999e-05   4.882151e-01   1.047924e+01   2.444214e+01   4.130378e+04   1.318688e+04   2.944767e+05  -1.523332e+10   5.667546e+10  -4.012012e+08   2.976516e+05   1.087309e-24   0.000000e+00   0.000000e+00
     1208000   1.207999e-05   4.914626e-01   1.048048e+01   2.446570e+01   3.978280e+04   1.764243e+04   2.944529e+05  -2.274251e+10   5.455112e+10  -1.956799e+08   2.976516e+05   1.102702e-24   0.000000e+00   0.000000e+00
     1216000   1.215999e-05   4.945647e-01   1.048206e+01   2.448926e+01   3.767420e+04   2.188966e+04   2.944452e+05  -2.990330e+10   5.147567e+10  -5.647509e+05   2.976516e+05   1.118760e-24   0.000000e+00   0.000000e+00
     1224000   1.223999e-05   4.974755e-01   1.048397e+01   2.451281e+01   3.500586e+04   2.587151e+04   2.944515e+05  -3.670872e+10   4.789378e+10   1.561285e+08   2.976516e+05   1.149512e-24   0.000000e+00   0.000000e+00
     1232000   1.231999e-05   5.001518e-01   1.048619e+01   2.453637e+01   3.181950e+04   2.951689e+04   2.944703e+05  -4.296237e+10   4.318737e+10   3.135162e+08   2.976516e+05   1.171497e-24   0.000000e+00   0.000000e+00
     1240000   1.239999e-05   5.025538e-01   1.048868e+01   2.455993e+01   2.815660e+04   3.275831e+04   2.945005e+05  -4.849022e+10   3.773232e+10   4.390837e+08   2.976516e+05   1.191767e-24   0.000000e+00   0.000000e+00
     1248000   1.247999e-05   5.046459e-01   1.049142e+01   2.458349e+01   2.408121e+04   3.553669e+04   2.945398e+05  -5.326096e+10   3.162836e+10   5.386696e+08   2.976516e+05   1.211387e-24   0.000000e+00   0.000000e+00
     1256000   1.255999e-05   5.063975e-01   1.049436e+01   2.460705e+01   1.965256e+04   3.780610e+04   2.945861e+05  -5.739338e+10   2.504977e+10   6.141903e+08   2.976516e+05   1.238061e-24   0.000000e+00   0.000000e+00
     1264000   1.263999e-05   5.077825e-01   1.049745e+01   2.463062e+01   1.493088e+04   3.952698e+04   2.946373e+05  -6.049408e+10   1.790655e+10   6.634523e+08   2.976516e+05   1.256607e-24   0.000000e+00   0.000000e+00
     1272000   1.271999e-05   5.087808e-01   1.050066e+01   2.465420e+01   1.000151e+04   4.066018e+04   2.946917e+05  -6.246990e+10   1.030902e+10   6.979051e+08   2.976516e+05   1.265647e-24   0.000000e+00   0.000000e+00
     1280000   1.279999e-05   5.093796e-01   1.050394e+01   2.467777e+01   4.954449e+03   4.117822e+04   2.947478e+05  -6.354079e+10   2.624044e+09   7.016050e+08   2.976516e+05   1.276873e-24   0.000000e+00   0.000000e+00
     1288000   1.287999e-05   5.095723e-01   1.050724e+01   2.470136e+01  -1.386827e+02   4.107891e+04   2.948033e+05  -6.367535e+10  -5.049243e+09   6.737629e+08   2.976516e+05   1.288139e-24   0.000000e+00   0.000000e+00
     1296000   1.295999e-05   5.093580e-01   1.051050e+01   2.472494e+01  -5.209222e+03   4.036840e+04   2.948555e+05  -6.292316e+10  -1.269853e+10   6.270189e+08   2.976516e+05   1.300915e-24   0.000000e+00   0.000000e+00
     1304000   1.303999e-05   5.087415e-01   1.051368e+01   2.474853e+01  -1.018013e+04   3.905100e+04   2.949032e+05  -6.118737e+10  -2.020018e+10   5.628406e+08   2.976516e+05   1.310793e-24   0.000000e+00   0.000000e+00
     1312000   1.311999e-05   5.077339e-01   1.051673e+01   2.477213e+01  -1.497357e+04   3.714361e+04   2.949451e+05  -5.849199e+10  -2.742767e+10   4.847348e+08   2.976516e+05   1.317601e-24   0.000000e+00   0.000000e+00
     1320000   1.319999e-05   5.063525e-01   1.051961e+01   2.479572e+01  -1.951429e+04   3.467310e+04   2.949804e+05  -5.487734e+10  -3.425802e+10   3.965732e+08   2.976516e+05   1.321221e-24   0.000000e+00   0.000000e+00
     1328000   1.327999e-05   5.046204e-01   1.052227e+01   2.481932e+01  -2.372507e+04   3.168091e+04   2.950084e+05  -5.027786e+10  -4.046178e+10   3.018969e+08   2.976516e+05   1.314852e-24   0.000000e+00   0.000000e+00
     1336000   1.335999e-05   5.025670e-01   1.052466e+01   2.484292e+01  -2.753910e+04   2.821610e+04   2.950287e+05  -4.495460e+10  -4.604096e+10   2.071948e+08   2.976516e+05   1.307155e-24   0.000000e+00   0.000000e+00
     1344000   1.343999e-05   5.002263e-01   1.052677e+01   2.486653e+01  -3.089999e+04   2.433418e+04   2.950416e+05  -3.896558e+10  -5.087534e+10   1.152890e+08   2.976517e+05   1.296391e-24   0.000000e+00   0.000000e+00
     1352000   1.351999e-05   4.976365e-01   1.052855e+01   2.489013e+01  -3.375378e+04   2.005391e+04   2.950509e+05  -3.228562e+10  -5.556660e+10   8.339834e+07   2.976517e+05   1.303773e-24   0.000000e+00   0.000000e+00
     1360000   1.359999e-05   4.948403e-01   1.052997e+01   2.491374e+01  -3.605965e+04   1.550148e+04   2.950524e+05  -2.529939e+10  -5.820817e+10  -3.366864e+07   2.976517e+05   1.271649e-24   0.000000e+00   0.000000e+00
     1368000   1.367999e-05   4.918824e-01   1.053102e+01   2.493734e+01  -3.778848e+04   1.074331e+04   2.950477e+05  -1.786976e+10  -6.058530e+10  -8.251047e+07   2.976517e+05   1.259546e-24   0.000000e+00   0.000000e+00
     1376000   1.375999e-05   4.888103e-01   1.053168e+01   2.496094e+01  -3.891199e+04   5.834004e+03   2.950396e+05  -1.018732e+10  -6.198083e+10  -1.178585e+08   2.976517e+05   1.245501e-24   0.000000e+00   0.000000e+00
     1384000   1.383999e-05   4.856731e-01   1.053195e+01   2.498455e+01  -3.941509e+04   8.532547e+02   2.950292e+05  -2.381792e+09  -6.236863e+10  -1.376924e+08   2.976517e+05   1.229754e-24   0.000000e+00   0.000000e+00
     1392000   1.391999e-05   4.825205e-01   1.053182e+01   2.500815e+01  -3.929817e+04  -4.112505e+03   2.950174e+05   5.236287e+09  -6.154947e+10  -1.603560e+08   2.976517e+05   1.204577e-24   0.000000e+00   0.000000e+00
     1400000   1.399999e-05   4.794016e-01   1.053130e+01   2.503175e+01  -3.857155e+04  -8.978311e+03   2.950053e+05   1.289408e+10  -5.992884e+10  -1.378872e+08   2.976517e+05   1.186255e-24   0.000000e+00   0.000000e+00
     1408000   1.407999e-05   4.763651e-01   1.053039e+01   2.505535e+01  -3.724228e+04  -1.367478e+04   2.949958e+05   2.028053e+10  -5.732188e+10  -9.672661e+07   2.976517e+05   1.167114e-24   0.000000e+00   0.000000e+00
     1416000   1.415999e-05   4.734582e-01   1.052912e+01   2.507895e+01  -3.533723e+04  -1.812461e+04   2.949904e+05   2.726827e+10  -5.377141e+10  -3.716786e+07   2.976517e+05   1.147484e-24   0.000000e+00   0.000000e+00
     1424000   1.423999e-05   4.707255e-01   1.052750e+01   2.510255e+01  -3.289528e+04  -2.225082e+04   2.949904e+05   3.348876e+10  -4.890707e+10   4.554306e+07   2.976517e+05   1.109120e-24   0.000000e+00   0.000000e+00
     1432000   1.431999e-05   4.682075e-01   1.052557e+01   2.512615e+01  -2.997894e+04  -2.596236e+04   2.949979e+05   3.930786e+10  -4.375409e+10   1.440115e+08   2.976517e+05   1.092120e-24   0.000000e+00   0.000000e+00
     1440000   1.439999e-05   4.659406e-01   1.052336e+01   2.514975e+01  -2.662505e+04  -2.923214e+04   2.950138e+05   4.441173e+10  -3.787842e+10   2.550099e+08   2.976517e+05   1.075608e-24   0.000000e+00   0.000000e+00
     1448000   1.447999e-05   4.639575e-01   1.052090e+01   2.517335e+01  -2.289450e+04  -3.200619e+04   2.950390e+05   4.871049e+10  -3.137843e+10   3.759902e+08   2.976517e+05   1.059892e-24   0.000000e+00   0.000000e+00
     1456000   1.455999e-05   4.622857e-01   1.051825e+01   2.519695e+01  -1.885485e+04  -3.423889e+04   2.950741e+05   5.212789e+10  -2.436376e+10   5.039705e+08   2.976517e+05   1.045278e-24   0.000000e+00   0.000000e+00
     1464000   1.463999e-05   4.609468e-01   1.051544e+01   2.522056e+01  -1.458502e+04  -3.588573e+04   2.951204e+05   5.450561e+10  -1.682503e+10   6.479375e+08   2.976517e+05   1.027346e-24   0.000000e+00   0.000000e+00
     1472000   1.471999e-05   4.599563e-01   1.051252e+01   2.524417e+01  -1.015972e+04  -3.692476e+04   2.951777e+05   5.595828e+10  -9.118534e+09   7.854690e+08   2.976517e+05   1.014950e-24   0.000000e+00   0.000000e+00
     1480000   1.479999e-05   4.593233e-01   1.050955e+01   2.526779e+01  -5.658925e+03  -3.734106e+04   2.952460e+05   5.639008e+10  -1.278677e+09   9.192061e+08   2.976517e+05   1.004604e-24   0.000000e+00   0.000000e+00
     1488000   1.487999e-05   4.590507e-01   1.050657e+01   2.529141e+01  -1.164802e+03  -3.712931e+04   2.953246e+05   5.579151e+10   6.559923e+09   1.044894e+09   2.976517e+05   9.965523e-25   0.000000e+00   0.000000e+00
     1496000   1.495999e-05   4.591343e-01   1.050363e+01   2.531504e+01   3.228667e+03  -3.628840e+04   2.954138e+05   5.393425e+10   1.437523e+10   1.176483e+09   2.976517e+05   9.839619e-25   0.000000e+00   0.000000e+00
     1504000   1.503999e-05   4.595626e-01   1.050078e+01   2.533868e+01   7.444672e+03  -3.484083e+04   2.955119e+05   5.130410e+10   2.175833e+10   1.272934e+09   2.976517e+05   9.808747e-25   0.000000e+00   0.000000e+00
     1512000   1.511999e-05   4.603188e-01   1.049807e+01   2.536232e+01   1.141166e+04  -3.281421e+04   2.956173e+05   4.771545e+10   2.880316e+10   1.355373e+09   2.976518e+05   9.812114e-25   0.000000e+00   0.000000e+00
     1520000   1.519999e-05   4.613798e-01   1.049554e+01   2.538598e+01   1.505537e+04  -3.024741e+04   2.957279e+05   4.323531e+10   3.527002e+10   1.406477e+09   2.976518e+05   9.834275e-25   0.000000e+00   0.000000e+00
     1528000   1.527999e-05   4.627171e-01   1.049324e+01   2.540964e+01   1.830539e+04  -2.717723e+04   2.958427e+05   3.787001e+10   4.143972e+10   1.463694e+09   2.976518e+05   9.955131e-25   0.000000e+00   0.000000e+00
     1536000   1.535999e-05   4.642965e-01   1.049120e+01   2.543331e+01   2.109739e+04  -2.365069e+04   2.959597e+05   3.181523e+10   4.659322e+10   1.455521e+09   2.976518e+05   1.005528e-24   0.000000e+00   0.000000e+00
     1544000   1.543999e-05   4.660791e-01   1.048947e+01   2.545699e+01   2.337869e+04  -1.974426e+04   2.960746e+05   2.512062e+10   5.092241e+10   1.412383e+09   2.976518e+05   1.018431e-24   0.000000e+00   0.000000e+00
     1552000   1.551999e-05   4.680222e-01   1.048805e+01   2.548068e+01   2.510254e+04  -1.552721e+04   2.961847e+05   1.789848e+10   5.434684e+10   1.332244e+09   2.976518e+05   1.034082e-24   0.000000e+00   0.000000e+00
     1560000   1.559999e-05   4.700796e-01   1.048699e+01   2.550438e+01   2.623095e+04  -1.107040e+04   2.962870e+05   1.022743e+10   5.708765e+10   1.227666e+09   2.976518e+05   1.062303e-24   0.000000e+00   0.000000e+00
     1568000   1.567999e-05   4.722024e-01   1.048629e+01   2.552809e+01   2.673334e+04  -6.438861e+03   2.963789e+05   2.299448e+09   5.852710e+10   1.064213e+09   2.976518e+05   1.083369e-24   0.000000e+00   0.000000e+00
     1576000   1.575999e-05   4.743399e-01   1.048596e+01   2.555180e+01   2.659523e+04  -1.734141e+03   2.964562e+05  -5.761832e+09   5.891378e+10   8.616353e+08   2.976518e+05   1.106393e-24   0.000000e+00   0.000000e+00
     1584000   1.583999e-05   4.764404e-01   1.048601e+01   2.557552e+01   2.581155e+04   2.958919e+03   2.965158e+05  -1.381637e+10   5.823519e+10   6.217020e+08   2.976518e+05   1.130966e-24   0.000000e+00   0.000000e+00
     1592000   1.591999e-05   4.784527e-01   1.048643e+01   2.559925e+01   2.438847e+04   7.555210e+03   2.965547e+05  -2.172325e+10   5.649719e+10   3.472727e+08   2.976518e+05   1.156643e-24   0.000000e+00   0.000000e+00
     1600000   1.599999e-05   4.803248e-01   1.048721e+01   2.562297e+01   2.231239e+04   1.198993e+04   2.965721e+05  -2.978413e+10   5.397618e+10   5.874567e+07   2.976518e+05   1.199756e-24   0.000000e+00   0.000000e+00
     1608000   1.607999e-05   4.820066e-01   1.048834e+01   2.564670e+01   1.963484e+04   1.616374e+04   2.965633e+05  -3.707366e+10   5.020483e+10  -2.816376e+08   2.976518e+05   1.229599e-24   0.000000e+00   0.000000e+00
     1616000   1.615999e-05   4.834514e-01   1.048979e+01   2.567042e+01   1.639508e+04   1.999715e+04   2.965264e+05  -4.381782e+10   4.547731e+10  -6.440565e+08   2.976518e+05   1.259128e-24   0.000000e+00   0.000000e+00
     1624000   1.623999e-05   4.846161e-01   1.049153e+01   2.569414e+01   1.264183e+04   2.341652e+04   2.964599e+05  -4.989089e+10   3.986776e+10  -1.021424e+09   2.976518e+05   1.287850e-24   0.000000e+00   0.000000e+00
     1632000   1.631999e-05   4.854619e-01   1.049353e+01   2.571785e+01   8.429977e+03   2.636861e+04   2.963617e+05  -5.524684e+10   3.369009e+10  -1.425924e+09   2.976518e+05   1.322476e-24   0.000000e+00   0.000000e+00
     1640000   1.639999e-05   4.859545e-01   1.049573e+01   2.574156e+01   3.826998e+03   2.878396e+04   2.962321e+05  -5.967010e+10   2.659064e+10  -1.812714e+09   2.976518e+05   1.348236e-24   0.000000e+00   0.000000e+00
     1648000   1.647999e-05   4.860658e-01   1.049811e+01   2.576525e+01  -1.091063e+03   3.060805e+04   2.960719e+05  -6.311079e+10   1.892948e+10  -2.189363e+09   2.976518e+05   1.371982e-24   0.000000e+00   0.000000e+00
     1656000   1.655999e-05   4.857738e-01   1.050062e+01   2.578893e+01  -6.237701e+03   3.180372e+04   2.958821e+05  -6.524249e+10   1.097684e+10  -2.555151e+09   2.976518e+05   1.383825e-24   0.000000e+00   0.000000e+00
     1664000   1.663999e-05   4.850639e-01   1.050319e+01   2.581259e+01  -1.153431e+04   3.236287e+04   2.956624e+05  -6.699328e+10   2.935007e+09  -2.934637e+09   2.976518e+05   1.422250e-24   0.000000e+00   0.000000e+00
     1672000   1.671999e-05   4.839262e-01   1.050578e+01   2.583623e+01  -1.691234e+04   3.225657e+04   2.954152e+05  -6.726448e+10  -5.606906e+09  -3.238475e+09   2.976519e+05   1.441542e-24   0.000000e+00   0.000000e+00
     1680000   1.679999e-05   4.823586e-01   1.050833e+01   2.585986e+01  -2.226558e+04   3.146529e+04   2.951454e+05  -6.637230e+10  -1.416334e+10  -3.496982e+09   2.976519e+05   1.457856e-24   0.000000e+00   0.000000e+00
     1688000   1.687999e-05   4.803668e-01   1.051079e+01   2.588346e+01  -2.750089e+04   2.999417e+04   2.948571e+05  -6.431809e+10  -2.257682e+10  -3.702082e+09   2.976519e+05   1.471154e-24   0.000000e+00   0.000000e+00
     1696000   1.695999e-05   4.779641e-01   1.051311e+01   2.590703e+01  -3.252415e+04   2.787300e+04   2.945538e+05  -6.105102e+10  -3.017999e+10  -3.885127e+09   2.976519e+05   1.468919e-24   0.000000e+00   0.000000e+00
     1704000   1.703999e-05   4.751710e-01   1.051524e+01   2.593058e+01  -3.724556e+04   2.514961e+04   2.942395e+05  -5.680787e+10  -3.781765e+10  -3.958322e+09   2.976519e+05   1.475177e-24   0.000000e+00   0.000000e+00
     1712000   1.711999e-05   4.720150e-01   1.051712e+01   2.595411e+01  -4.158596e+04   2.183784e+04   2.939224e+05  -5.153785e+10  -4.486544e+10  -3.958322e+09   2.976519e+05   1.478886e-24   0.000000e+00   0.000000e+00
     1720000   1.719999e-05   4.685296e-01   1.051872e+01   2.597761e+01  -4.546638e+04   1.799057e+04   2.936082e+05  -4.532428e+10  -5.118255e+10  -3.882320e+09   2.976519e+05   1.480241e-24   0.000000e+00   0.000000e+00
     1728000   1.727999e-05   4.647545e-01   1.051998e+01   2.600109e+01  -4.881619e+04   1.367181e+04   2.933031e+05  -3.849958e+10  -5.656662e+10  -3.770802e+09   2.976519e+05   1.482515e-24   0.000000e+00   0.000000e+00
     1736000   1.735999e-05   4.607341e-01   1.052089e+01   2.602454e+01  -5.159146e+04   8.958190e+03   2.930098e+05  -3.077242e+10  -6.110252e+10  -3.549981e+09   2.976519e+05   1.481519e-24   0.000000e+00   0.000000e+00
     1744000   1.743999e-05   4.565170e-01   1.052141e+01   2.604797e+01  -5.372385e+04   3.923962e+03   2.927371e+05  -2.245151e+10  -6.456657e+10  -3.254722e+09   2.976519e+05   1.478502e-24   0.000000e+00   0.000000e+00
     1752000   1.751999e-05   4.521565e-01   1.052151e+01   2.607138e+01  -5.517181e+04  -1.341674e+03   2.924909e+05  -1.368832e+10  -6.687569e+10  -2.888596e+09   2.976519e+05   1.473631e-24   0.000000e+00   0.000000e+00
     1760000   1.759999e-05   4.477086e-01   1.052119e+01   2.609477e+01  -5.590644e+04  -6.743694e+03   2.922767e+05  -4.646102e+09  -6.796786e+10  -2.456764e+09   2.976519e+05   1.467058e-24   0.000000e+00   0.000000e+00
     1768000   1.767999e-05   4.432306e-01   1.052043e+01   2.611814e+01  -5.592315e+04  -1.215829e+04   2.920984e+05   4.309497e+09  -6.742638e+10  -1.981330e+09   2.976519e+05   1.442297e-24   0.000000e+00   0.000000e+00
     1776000   1.775999e-05   4.387803e-01   1.051925e+01   2.614151e+01  -5.521566e+04  -1.750576e+04   2.919614e+05   1.335235e+10  -6.604957e+10  -1.434929e+09   2.976519e+05   1.434113e-24   0.000000e+00   0.000000e+00
     1784000   1.783999e-05   4.344152e-01   1.051764e+01   2.616486e+01  -5.379299e+04  -2.269266e+04   2.918699e+05   2.215909e+10  -6.341559e+10  -8.463349e+08   2.976519e+05   1.424766e-24   0.000000e+00   0.000000e+00
     1792000   1.791999e-05   4.301918e-01   1.051562e+01   2.618821e+01  -5.168117e+04  -2.761953e+04   2.918268e+05   3.055164e+10  -5.955654e+10  -2.259361e+08   2.976519e+05   1.414398e-24   0.000000e+00   0.000000e+00
     1800000   1.799999e-05   4.261635e-01   1.051323e+01   2.621155e+01  -4.892120e+04  -3.218538e+04   2.918347e+05   3.833029e+10  -5.438881e+10   4.272405e+08   2.976520e+05   1.397699e-24   0.000000e+00   0.000000e+00
     1808000   1.807999e-05   4.223802e-01   1.051049e+01   2.623490e+01  -4.556785e+04  -3.629699e+04   2.918952e+05   4.536317e+10  -4.822946e+10   1.084504e+09   2.976520e+05   1.384294e-24   0.000000e+00   0.000000e+00
     1816000   1.815999e-05   4.188867e-01   1.050744e+01   2.625826e+01  -4.168735e+04  -3.987589e+04   2.920082e+05   5.148462e+10  -4.109090e+10   1.738870e+09   2.976520e+05   1.370744e-24   0.000000e+00   0.000000e+00
     1824000   1.823999e-05   4.157222e-01   1.050412e+01   2.628162e+01  -3.735826e+04  -4.284878e+04   2.921730e+05   5.655667e+10  -3.310234e+10   2.377040e+09   2.976520e+05   1.357461e-24   0.000000e+00   0.000000e+00
     1832000   1.831999e-05   4.129190e-01   1.050060e+01   2.630501e+01  -3.267077e+04  -4.515211e+04   2.923878e+05   6.038219e+10  -2.433791e+10   2.988728e+09   2.976520e+05   1.340793e-24   0.000000e+00   0.000000e+00
     1840000   1.839999e-05   4.105017e-01   1.049692e+01   2.632841e+01  -2.772595e+04  -4.673384e+04   2.926498e+05   6.302102e+10  -1.512258e+10   3.555865e+09   2.976520e+05   1.329969e-24   0.000000e+00   0.000000e+00
     1848000   1.847999e-05   4.084871e-01   1.049314e+01   2.635183e+01  -2.262312e+04  -4.756198e+04   2.929552e+05   6.432127e+10  -5.538237e+09   4.068131e+09   2.976520e+05   1.320960e-24   0.000000e+00   0.000000e+00
     1856000   1.855999e-05   4.068833e-01   1.048933e+01   2.637528e+01  -1.747158e+04  -4.761543e+04   2.932989e+05   6.423352e+10   4.211789e+09   4.510241e+09   2.976520e+05   1.314513e-24   0.000000e+00   0.000000e+00
     1864000   1.863999e-05   4.056899e-01   1.048554e+01   2.639876e+01  -1.238333e+04  -4.688890e+04   2.936746e+05   6.273818e+10   1.392769e+10   4.869345e+09   2.976520e+05   1.311275e-24   0.000000e+00   0.000000e+00
     1872000   1.871999e-05   4.048976e-01   1.048185e+01   2.642227e+01  -7.463977e+03  -4.540213e+04   2.940742e+05   5.995162e+10   2.330781e+10   5.120283e+09   2.976520e+05   1.314398e-24   0.000000e+00   0.000000e+00
     1880000   1.879999e-05   4.044881e-01   1.047830e+01   2.644581e+01  -2.828002e+03  -4.317027e+04   2.944912e+05   5.572419e+10   3.240019e+10   5.284894e+09   2.976520e+05   1.320465e-24   0.000000e+00   0.000000e+00
     1888000   1.887999e-05   4.044346e-01   1.047496e+01   2.646939e+01   1.416977e+03  -4.023464e+04   2.949167e+05   5.019023e+10   4.086912e+10   5.334652e+09   2.976520e+05   1.331487e-24   0.000000e+00   0.000000e+00
     1896000   1.895999e-05   4.047017e-01   1.047188e+01   2.649300e+01   5.170032e+03  -3.665289e+04   2.953414e+05   4.344445e+10   4.852249e+10   5.261446e+09   2.976520e+05   1.347817e-24   0.000000e+00   0.000000e+00
     1904000   1.903999e-05   4.052462e-01   1.046911e+01   2.651664e+01   8.336641e+03  -3.248715e+04   2.957563e+05   3.554220e+10   5.538696e+10   5.082243e+09   2.976520e+05   1.375362e-24   0.000000e+00   0.000000e+00
     1912000   1.911999e-05   4.060177e-01   1.046669e+01   2.654032e+01   1.083157e+04  -2.782561e+04   2.961505e+05   2.668835e+10   6.094418e+10   4.750208e+09   2.976520e+05   1.404478e-24   0.000000e+00   0.000000e+00
     1920000   1.919999e-05   4.069595e-01   1.046467e+01   2.656403e+01   1.258613e+04  -2.277091e+04   2.965128e+05   1.706445e+10   6.519442e+10   4.282469e+09   2.976520e+05   1.439462e-24   0.000000e+00   0.000000e+00
     1928000   1.927999e-05   4.080102e-01   1.046306e+01   2.658776e+01   1.354648e+04  -1.743244e+04   2.968322e+05   6.867374e+09   6.802144e+10   3.681535e+09   2.976520e+05   1.479800e-24   0.000000e+00   0.000000e+00
     1936000   1.935999e-05   4.091047e-01   1.046188e+01   2.661152e+01   1.367292e+04  -1.192249e+04   2.970987e+05  -3.761347e+09   6.949628e+10   2.962132e+09   2.976521e+05   1.531894e-24   0.000000e+00   0.000000e+00
     1944000   1.943999e-05   4.101750e-01   1.046115e+01   2.663529e+01   1.294175e+04  -6.358824e+03   2.973026e+05  -1.452404e+10   6.932855e+10   2.115235e+09   2.976521e+05   1.585312e-24   0.000000e+00   0.000000e+00
     1952000   1.951999e-05   4.111524e-01   1.046086e+01   2.665908e+01   1.135101e+04  -8.729148e+02   2.974343e+05  -2.521012e+10   6.755014e+10   1.160518e+09   2.976521e+05   1.641519e-24   0.000000e+00   0.000000e+00
     1960000   1.959999e-05   4.119687e-01   1.046101e+01   2.668288e+01   8.916567e+03   4.406277e+03   2.974859e+05  -3.557583e+10   6.416437e+10   1.161136e+08   2.976521e+05   1.699226e-24   0.000000e+00   0.000000e+00
     1968000   1.967999e-05   4.125575e-01   1.046156e+01   2.670668e+01   5.673226e+03   9.352240e+03   2.974510e+05  -4.541062e+10   5.925330e+10  -9.967041e+08   2.976521e+05   1.759632e-24   0.000000e+00   0.000000e+00
     1976000   1.975999e-05   4.128562e-01   1.046249e+01   2.673047e+01   1.672261e+03   1.384698e+04   2.973251e+05  -5.446033e+10   5.287466e+10  -2.155972e+09   2.976521e+05   1.820318e-24   0.000000e+00   0.000000e+00
     1984000   1.983999e-05   4.128068e-01   1.046376e+01   2.675425e+01  -3.013194e+03   1.777517e+04   2.971056e+05  -6.248617e+10   4.511167e+10  -3.332455e+09   2.976521e+05   1.878525e-24   0.000000e+00   0.000000e+00
     1992000   1.991999e-05   4.123582e-01   1.046532e+01   2.677801e+01  -8.292641e+03   2.103177e+04   2.967923e+05  -6.927675e+10   3.611285e+10  -4.494535e+09   2.976521e+05   1.933113e-24   0.000000e+00   0.000000e+00
     2000000   1.999999e-05   4.114670e-01   1.046710e+01   2.680173e+01  -1.405974e+04   2.352620e+04   2.963876e+05  -7.468273e+10   2.626835e+10  -5.627601e+09   2.976521e+05   1.988547e-24   0.000000e+00   0.000000e+00
     2008000   2.007999e-05   4.100986e-01   1.046906e+01   2.682543e+01  -2.020108e+04   2.519990e+04   2.958947e+05  -7.857636e+10   1.544789e+10  -6.679904e+09   2.976521e+05   2.038519e-24   0.000000e+00   0.000000e+00
     2016000   2.015999e-05   4.082283e-01   1.047111e+01   2.684908e+01  -2.658644e+04   2.598061e+04   2.953218e+05  -8.076300e+10   3.985408e+09  -7.621102e+09   2.976521e+05   2.082439e-24   0.000000e+00   0.000000e+00
     2024000   2.023999e-05   4.058420e-01   1.047319e+01   2.687268e+01  -3.307490e+04   2.582727e+04   2.946791e+05  -8.114053e+10  -7.857908e+09  -8.418305e+09   2.976521e+05   2.120250e-24   0.000000e+00   0.000000e+00
     2032000   2.031999e-05   4.029375e-01   1.047522e+01   2.689622e+01  -3.951900e+04   2.472055e+04   2.939795e+05  -7.964764e+10  -1.980123e+10  -9.041547e+09   2.976521e+05   2.152194e-24   0.000000e+00   0.000000e+00
     2040000   2.039999e-05   3.995241e-01   1.047712e+01   2.691971e+01  -4.577262e+04   2.265818e+04   2.932376e+05  -7.642213e+10  -3.197441e+10  -9.458167e+09   2.976522e+05   2.194678e-24   0.000000e+00   0.000000e+00
     2048000   2.047999e-05   3.956229e-01   1.047882e+01   2.694314e+01  -5.168446e+04   1.963349e+04   2.924723e+05  -7.105870e+10  -4.353389e+10  -9.634546e+09   2.976522e+05   2.221574e-24   0.000000e+00   0.000000e+00
     2056000   2.055999e-05   3.912680e-01   1.048024e+01   2.696651e+01  -5.709263e+04   1.571403e+04   2.917024e+05  -6.384734e+10  -5.429171e+10  -9.571396e+09   2.976522e+05   2.246299e-24   0.000000e+00   0.000000e+00
     2064000   2.063999e-05   3.865054e-01   1.048131e+01   2.698981e+01  -6.185400e+04   1.097632e+04   2.909475e+05  -5.491436e+10  -6.393997e+10  -9.262068e+09   2.976522e+05   2.269663e-24   0.000000e+00   0.000000e+00
     2072000   2.071999e-05   3.813919e-01   1.048198e+01   2.701306e+01  -6.585026e+04   5.588504e+03   2.902229e+05  -4.479745e+10  -7.065406e+10  -8.803587e+09   2.976522e+05   2.233871e-24   0.000000e+00   0.000000e+00
     2080000   2.079999e-05   3.759924e-01   1.048219e+01   2.703625e+01  -6.898215e+04  -3.358716e+02   2.895482e+05  -3.330882e+10  -7.716619e+10  -8.024779e+09   2.976522e+05   2.250345e-24   0.000000e+00   0.000000e+00
     2088000   2.087999e-05   3.703804e-01   1.048191e+01   2.705939e+01  -7.115248e+04  -6.709193e+03   2.889449e+05  -2.080603e+10  -8.184412e+10  -7.023611e+09   2.976522e+05   2.266820e-24   0.000000e+00   0.000000e+00
     2096000   2.095999e-05   3.646356e-01   1.048111e+01   2.708248e+01  -7.229198e+04  -1.337719e+04   2.884298e+05  -7.591715e+09  -8.450691e+10  -5.821910e+09   2.976522e+05   2.283319e-24   0.000000e+00   0.000000e+00
     2104000   2.103999e-05   3.588423e-01   1.047977e+01   2.710554e+01  -7.236224e+04  -2.016945e+04   2.880169e+05   5.725115e+09  -8.486122e+10  -4.504073e+09   2.976522e+05   2.290119e-24   0.000000e+00   0.000000e+00
     2112000   2.111999e-05   3.530862e-01   1.047788e+01   2.712857e+01  -7.135726e+04  -2.691249e+04   2.877164e+05   1.938063e+10  -8.333692e+10  -2.988298e+09   2.976522e+05   2.313824e-24   0.000000e+00   0.000000e+00
     2120000   2.119999e-05   3.474541e-01   1.047547e+01   2.715158e+01  -6.926908e+04  -3.344258e+04   2.875417e+05   3.274063e+10  -7.953671e+10  -1.363020e+09   2.976523e+05   2.336022e-24   0.000000e+00   0.000000e+00
     2128000   2.127999e-05   3.420310e-01   1.047254e+01   2.717458e+01  -6.613688e+04  -3.957830e+04   2.875002e+05   4.541606e+10  -7.348832e+10   3.311583e+08   2.976523e+05   2.356026e-24   0.000000e+00   0.000000e+00
     2136000   2.135999e-05   3.368981e-01   1.046915e+01   2.719758e+01  -6.203097e+04  -4.514318e+04   2.875954e+05   5.702002e+10  -6.528753e+10   2.050783e+09   2.976523e+05   2.373291e-24   0.000000e+00   0.000000e+00
     2144000   2.143999e-05   3.321281e-01   1.046534e+01   2.722060e+01  -5.709111e+04  -4.991598e+04   2.878296e+05   6.655053e+10  -5.434448e+10   3.776053e+09   2.976523e+05   2.334969e-24   0.000000e+00   0.000000e+00
     2152000   2.151999e-05   3.277830e-01   1.046119e+01   2.724364e+01  -5.142662e+04  -5.379877e+04   2.881976e+05   7.473705e+10  -4.246234e+10   5.409921e+09   2.976523e+05   2.341722e-24   0.000000e+00   0.000000e+00
     2160000   2.159999e-05   3.239151e-01   1.045676e+01   2.726671e+01  -4.518873e+04  -5.667166e+04   2.886922e+05   8.083938e+10  -2.915093e+10   6.931508e+09   2.976523e+05   2.346421e-24   0.000000e+00   0.000000e+00
     2168000   2.167999e-05   3.205634e-01   1.045215e+01   2.728983e+01  -3.855455e+04  -5.843396e+04   2.893025e+05   8.460819e+10  -1.476051e+10   8.294399e+09   2.976523e+05   2.350332e-24   0.000000e+00   0.000000e+00
     2176000   2.175999e-05   3.177518e-01   1.044744e+01   2.731300e+01  -3.171913e+04  -5.900938e+04   2.900150e+05   8.585123e+10   4.593814e+08   9.483333e+09   2.976523e+05   2.355181e-24   0.000000e+00   0.000000e+00
     2184000   2.183999e-05   3.154882e-01   1.044274e+01   2.733624e+01  -2.488864e+04  -5.835586e+04   2.908128e+05   8.446062e+10   1.588587e+10   1.041639e+10   2.976523e+05   2.365876e-24   0.000000e+00   0.000000e+00
     2192000   2.191999e-05   3.137637e-01   1.043814e+01   2.735954e+01  -1.827796e+04  -5.647236e+04   2.916740e+05   8.035416e+10   3.112925e+10   1.106279e+10   2.976523e+05   2.382843e-24   0.000000e+00   0.000000e+00
     2200000   2.199999e-05   3.125521e-01   1.043374e+01   2.738291e+01  -1.210370e+04  -5.339285e+04   2.925741e+05   7.356297e+10   4.570443e+10   1.138430e+10   2.976524e+05   2.408665e-24   0.000000e+00   0.000000e+00
     2208000   2.207999e-05   3.118098e-01   1.042963e+01   2.740635e+01  -6.579482e+03  -4.918517e+04   2.934867e+05   6.405168e+10   5.937950e+10   1.138755e+10   2.976524e+05   2.449137e-24   0.000000e+00   0.000000e+00
     2216000   2.215999e-05   3.114764e-01   1.042589e+01   2.742986e+01  -1.913791e+03  -4.394578e+04   2.943842e+05   5.221752e+10   7.129267e+10   1.098233e+10   2.976524e+05   2.503341e-24   0.000000e+00   0.000000e+00
     2224000   2.223999e-05   3.114761e-01   1.042262e+01   2.745345e+01   1.719622e+03  -3.783382e+04   2.952331e+05   3.830228e+10   8.112294e+10   1.017300e+10   2.976524e+05   2.573282e-24   0.000000e+00   0.000000e+00
     2232000   2.231999e-05   3.117200e-01   1.041986e+01   2.747710e+01   4.169117e+03  -3.103225e+04   2.960010e+05   2.269046e+10   8.847178e+10   8.955930e+09   2.976524e+05   2.658779e-24   0.000000e+00   0.000000e+00
     2240000   2.239999e-05   3.121084e-01   1.041767e+01   2.750081e+01   5.316558e+03  -2.375294e+04   2.966555e+05   5.713097e+09   9.318733e+10   7.359334e+09   2.976524e+05   2.768746e-24   0.000000e+00   0.000000e+00
     2248000   2.247999e-05   3.125332e-01   1.041607e+01   2.752456e+01   5.068000e+03  -1.621099e+04   2.971674e+05  -1.200838e+10   9.482784e+10   5.378125e+09   2.976524e+05   2.893366e-24   0.000000e+00   0.000000e+00
     2256000   2.255999e-05   3.128811e-01   1.041507e+01   2.754835e+01   3.389596e+03  -8.667925e+03   2.975069e+05  -2.993265e+10   9.319299e+10   3.056552e+09   2.976524e+05   3.027467e-24   0.000000e+00   0.000000e+00
     2264000   2.263999e-05   3.130376e-01   1.041467e+01   2.757215e+01   2.896732e+02  -1.389753e+03   2.976491e+05  -4.744098e+10   8.820177e+10   4.583295e+08   2.976524e+05   3.166420e-24   0.000000e+00   0.000000e+00
     2272000   2.271999e-05   3.128911e-01   1.041484e+01   2.759597e+01  -4.173014e+03   5.355600e+03   2.975750e+05  -6.389502e+10   7.988873e+10  -2.333470e+09   2.976525e+05   3.305265e-24   0.000000e+00   0.000000e+00
     2280000   2.279999e-05   3.123362e-01   1.041551e+01   2.761976e+01  -9.898563e+03   1.133068e+04   2.972720e+05  -7.888670e+10   6.884950e+10  -5.250635e+09   2.976525e+05   3.469643e-24   0.000000e+00   0.000000e+00
     2288000   2.287999e-05   3.112777e-01   1.041662e+01   2.764352e+01  -1.673387e+04   1.628997e+04   2.967349e+05  -9.156825e+10   5.467420e+10  -8.164922e+09   2.976525e+05   3.611622e-24   0.000000e+00   0.000000e+00
     2296000   2.295999e-05   3.096346e-01   1.041808e+01   2.766723e+01  -2.447404e+04   2.001050e+04   2.959689e+05  -1.014191e+11   3.795703e+10  -1.095235e+10   2.976525e+05   3.739743e-24   0.000000e+00   0.000000e+00
     2304000   2.303999e-05   3.073443e-01   1.041978e+01   2.769087e+01  -3.287216e+04   2.230879e+04   2.949894e+05  -1.079415e+11   1.921373e+10  -1.348110e+10   2.976525e+05   3.852047e-24   0.000000e+00   0.000000e+00
     2312000   2.311999e-05   3.043649e-01   1.042161e+01   2.771443e+01  -4.165194e+04   2.305562e+04   2.938207e+05  -1.109430e+11  -7.288366e+08  -1.566964e+10   2.976525e+05   3.963220e-24   0.000000e+00   0.000000e+00
     2320000   2.319999e-05   3.006777e-01   1.042343e+01   2.773788e+01  -5.051532e+04   2.216741e+04   2.924959e+05  -1.099555e+11  -2.154079e+10  -1.735685e+10   2.976526e+05   4.058260e-24   0.000000e+00   0.000000e+00
     2328000   2.327999e-05   2.962905e-01   1.042511e+01   2.776122e+01  -5.908357e+04   1.951902e+04   2.910759e+05  -1.037935e+11  -4.389263e+10  -1.812455e+10   2.976526e+05   4.112774e-24   0.000000e+00   0.000000e+00
     2336000   2.335999e-05   2.912412e-01   1.042651e+01   2.778445e+01  -6.701418e+04   1.518526e+04   2.896128e+05  -9.377192e+10  -6.420873e+10  -1.833099e+10   2.976526e+05   4.183425e-24   0.000000e+00   0.000000e+00
     2344000   2.343999e-05   2.855936e-01   1.042750e+01   2.780756e+01  -7.401071e+04   9.356097e+03   2.881527e+05  -8.100816e+10  -8.037509e+10  -1.819640e+10   2.976526e+05   4.215506e-24   0.000000e+00   0.000000e+00
     2352000   2.351999e-05   2.794310e-01   1.042797e+01   2.783056e+01  -7.982326e+04   2.266102e+03   2.867406e+05  -6.371966e+10  -9.636603e+10  -1.697631e+10   2.976526e+05   4.304280e-24   0.000000e+00   0.000000e+00
     2360000   2.359999e-05   2.728623e-01   1.042783e+01   2.785344e+01  -8.411956e+04  -5.970614e+03   2.854564e+05  -4.320819e+10  -1.089104e+11  -1.501026e+10   2.976526e+05   4.404957e-24   0.000000e+00   0.000000e+00
     2368000   2.367999e-05   2.660185e-01   1.042699e+01   2.787623e+01  -8.666958e+04  -1.504784e+04   2.843573e+05  -2.019868e+10  -1.172661e+11  -1.236145e+10   2.976527e+05   4.518100e-24   0.000000e+00   0.000000e+00
     2376000   2.375999e-05   2.590463e-01   1.042541e+01   2.789895e+01  -8.730817e+04  -2.460540e+04   2.834942e+05   4.416379e+09  -1.208336e+11  -9.126912e+09   2.976527e+05   4.641672e-24   0.000000e+00   0.000000e+00
     2384000   2.383999e-05   2.520994e-01   1.042306e+01   2.792160e+01  -8.603370e+04  -3.412252e+04   2.828975e+05   2.833347e+10  -1.178162e+11  -5.593566e+09   2.976527e+05   4.645194e-24   0.000000e+00   0.000000e+00
     2392000   2.391999e-05   2.453337e-01   1.041996e+01   2.794422e+01  -8.278228e+04  -4.331943e+04   2.826087e+05   5.278032e+10  -1.112073e+11  -1.585262e+09   2.976527e+05   4.784286e-24   0.000000e+00   0.000000e+00
     2400000   2.399999e-05   2.389050e-01   1.041615e+01   2.796683e+01  -7.763153e+04  -5.177274e+04   2.826483e+05   7.561743e+10  -9.925050e+10   2.589726e+09   2.976527e+05   4.916885e-24   0.000000e+00   0.000000e+00
     2408000   2.407999e-05   2.329587e-01   1.041171e+01   2.798945e+01  -7.075805e+04  -5.906394e+04   2.830228e+05   9.565244e+10  -8.222477e+10   6.755005e+09   2.976528e+05   5.037027e-24   0.000000e+00   0.000000e+00
     2416000   2.415999e-05   2.276219e-01   1.040674e+01   2.801212e+01  -6.246220e+04  -6.476480e+04   2.837273e+05   1.109826e+11  -5.970461e+10   1.080480e+10   2.976528e+05   5.050472e-24   0.000000e+00   0.000000e+00
     2424000   2.423999e-05   2.229932e-01   1.040139e+01   2.803486e+01  -5.311064e+04  -6.855714e+04   2.847391e+05   1.219053e+11  -3.457229e+10   1.441479e+10   2.976528e+05   5.134264e-24   0.000000e+00   0.000000e+00
     2432000   2.431999e-05   2.191415e-01   1.039583e+01   2.805768e+01  -4.311318e+04  -7.023001e+04   2.860178e+05   1.270216e+11  -6.897591e+09   1.745364e+10   2.976528e+05   5.204589e-24   0.000000e+00   0.000000e+00
     2440000   2.439999e-05   2.160993e-01   1.039022e+01   2.808062e+01  -3.295715e+04  -6.962380e+04   2.875127e+05   1.257801e+11   2.215334e+10   1.978319e+10   2.976529e+05   5.272803e-24   0.000000e+00   0.000000e+00
     2448000   2.447999e-05   2.138586e-01   1.038475e+01   2.810369e+01  -2.317149e+04  -6.668039e+04   2.891609e+05   1.174891e+11   5.174655e+10   2.134813e+10   2.976529e+05   5.346782e-24   0.000000e+00   0.000000e+00
     2456000   2.455999e-05   2.123668e-01   1.037961e+01   2.812689e+01  -1.432000e+04  -6.142103e+04   2.908946e+05   1.026944e+11   7.932325e+10   2.180472e+10   2.976529e+05   5.465677e-24   0.000000e+00   0.000000e+00
     2464000   2.463999e-05   2.115289e-01   1.037498e+01   2.815023e+01  -6.910494e+03  -5.407598e+04   2.926180e+05   8.154072e+10   1.036180e+11   2.107496e+10   2.976529e+05   5.628556e-24   0.000000e+00   0.000000e+00
     2472000   2.471999e-05   2.112098e-01   1.037101e+01   2.817371e+01  -1.422143e+03  -4.497172e+04   2.942326e+05   5.483444e+10   1.230509e+11   1.907327e+10   2.976529e+05   5.843969e-24   0.000000e+00   0.000000e+00
     2480000   2.479999e-05   2.112394e-01   1.036782e+01   2.819730e+01   1.746400e+03  -3.455548e+04   2.956352e+05   2.377797e+10   1.361997e+11   1.577997e+10   2.976530e+05   6.113123e-24   0.000000e+00   0.000000e+00
     2488000   2.487999e-05   2.114186e-01   1.036550e+01   2.822100e+01   2.275077e+03  -2.334157e+04   2.967277e+05  -1.071576e+10   1.426294e+11   1.130255e+10   2.976530e+05   6.498559e-24   0.000000e+00   0.000000e+00
     2496000   2.495999e-05   2.115286e-01   1.036409e+01   2.824477e+01   4.087548e+00  -1.196117e+04   2.974126e+05  -4.606907e+10   1.404316e+11   5.649168e+09   2.976530e+05   6.905656e-24   0.000000e+00   0.000000e+00
     2504000   2.503999e-05   2.113443e-01   1.036357e+01   2.826857e+01  -5.069517e+03  -1.108461e+03   2.976078e+05  -8.041282e+10   1.294062e+11  -8.870075e+08   2.976531e+05   7.327935e-24   0.000000e+00   0.000000e+00
     2512000   2.511999e-05   2.106471e-01   1.036388e+01   2.829237e+01  -1.277532e+04   8.510033e+03   2.972570e+05  -1.114956e+11   1.096395e+11  -7.929783e+09   2.976531e+05   7.738968e-24   0.000000e+00   0.000000e+00
     2520000   2.519999e-05   2.092386e-01   1.036488e+01   2.831612e+01  -2.279056e+04   1.626275e+04   2.963334e+05  -1.378360e+11   8.280327e+10  -1.514412e+10   2.976531e+05   8.234438e-24   0.000000e+00   0.000000e+00
     2528000   2.527999e-05   2.069520e-01   1.036641e+01   2.833977e+01  -3.462526e+04   2.155456e+04   2.948455e+05  -1.566194e+11   4.844340e+10  -2.193314e+10   2.976532e+05   8.636303e-24   0.000000e+00   0.000000e+00
     2536000   2.535999e-05   2.036681e-01   1.036825e+01   2.836328e+01  -4.760074e+04   2.387178e+04   2.928510e+05  -1.660793e+11   8.795040e+09  -2.771090e+10   2.976532e+05   8.974135e-24   0.000000e+00   0.000000e+00
     2544000   2.543999e-05   1.993271e-01   1.037014e+01   2.838662e+01  -6.087901e+04   2.281804e+04   2.904661e+05  -1.617451e+11  -3.969776e+10  -3.078077e+10   2.976532e+05   9.055364e-24   0.000000e+00   0.000000e+00
     2552000   2.551999e-05   1.939503e-01   1.037180e+01   2.840975e+01  -7.341159e+04   1.811833e+04   2.878888e+05  -1.505766e+11  -7.663908e+10  -3.357267e+10   2.976533e+05   9.367612e-24   0.000000e+00   0.000000e+00
     2560000   2.559999e-05   1.876191e-01   1.037296e+01   2.843268e+01  -8.453364e+04   1.032539e+04   2.852104e+05  -1.255443e+11  -1.173598e+11  -3.296033e+10   2.976533e+05   9.666596e-24   0.000000e+00   0.000000e+00
     2568000   2.567999e-05   1.804903e-01   1.037337e+01   2.845539e+01  -9.320529e+04  -4.818767e+02   2.826837e+05  -8.955579e+10  -1.514208e+11  -2.978496e+10   2.976534e+05   1.005000e-23   0.000000e+00   0.000000e+00
     2576000   2.575999e-05   1.727932e-01   1.037282e+01   2.847791e+01  -9.862091e+04  -1.363559e+04   2.805094e+05  -4.455380e+10  -1.754994e+11  -2.419399e+10   2.976534e+05   1.053451e-23   0.000000e+00   0.000000e+00
     2584000   2.583999e-05   1.648143e-01   1.037115e+01   2.850029e+01  -1.001736e+05  -2.821406e+04   2.788670e+05   3.568647e+09  -1.813460e+11  -1.706438e+10   2.976534e+05   1.047763e-23   0.000000e+00   0.000000e+00
     2592000   2.591999e-05   1.568672e-01   1.036831e+01   2.852255e+01  -9.780783e+04  -4.274146e+04   2.778568e+05   5.569464e+10  -1.793159e+11  -7.977124e+09   2.976535e+05   1.114985e-23   0.000000e+00   0.000000e+00
     2600000   2.599999e-05   1.492758e-01   1.036433e+01   2.854476e+01  -9.130195e+04  -5.649025e+04   2.776156e+05   1.063066e+11  -1.617964e+11   2.040431e+09   2.976535e+05   1.183289e-23   0.000000e+00   0.000000e+00
     2608000   2.607999e-05   1.423614e-01   1.035933e+01   2.856699e+01  -8.096446e+04  -6.821944e+04   2.781879e+05   1.506884e+11  -1.289830e+11   1.222791e+10   2.976536e+05   1.246737e-23   0.000000e+00   0.000000e+00
     2616000   2.615999e-05   1.364056e-01   1.035350e+01   2.858929e+01  -6.748279e+04  -7.676348e+04   2.795552e+05   1.841613e+11  -8.258478e+10   2.177971e+10   2.976536e+05   1.300937e-23   0.000000e+00   0.000000e+00
     2624000   2.623999e-05   1.316184e-01   1.034716e+01   2.861174e+01  -5.199939e+04  -8.102601e+04   2.816533e+05   2.000376e+11  -2.286689e+10   3.035446e+10   2.976537e+05   1.308810e-23   0.000000e+00   0.000000e+00
     2632000   2.631999e-05   1.281033e-01   1.034067e+01   2.863437e+01  -3.588441e+04  -8.039278e+04   2.843362e+05   1.996214e+11   3.921465e+10   3.628204e+10   2.976538e+05   1.348068e-23   0.000000e+00   0.000000e+00
     2640000   2.639999e-05   1.258551e-01   1.033443e+01   2.865724e+01  -2.059091e+04  -7.474860e+04   2.873786e+05   1.793643e+11   1.013627e+11   3.921808e+10   2.976538e+05   1.388511e-23   0.000000e+00   0.000000e+00
     2648000   2.647999e-05   1.247443e-01   1.032884e+01   2.868036e+01  -7.711819e+03  -6.434641e+04   2.905132e+05   1.394800e+11   1.570477e+11   3.848897e+10   2.976539e+05   1.439526e-23   0.000000e+00   0.000000e+00
     2656000   2.655999e-05   1.245167e-01   1.032424e+01   2.870372e+01   1.240310e+03  -4.993415e+04   2.934330e+05   8.034757e+10   2.025703e+11   3.413388e+10   2.976539e+05   1.535981e-23   0.000000e+00   0.000000e+00
     2664000   2.663999e-05   1.247998e-01   1.032093e+01   2.872729e+01   4.883394e+03  -3.260075e+04   2.958230e+05   9.049153e+09   2.270789e+11   2.487728e+10   2.976540e+05   1.649941e-23   0.000000e+00   0.000000e+00
     2672000   2.671999e-05   1.251373e-01   1.031905e+01   2.875103e+01   2.517870e+03  -1.425017e+04   2.973021e+05  -6.854696e+10   2.273359e+11   1.147900e+10   2.976541e+05   1.783996e-23   0.000000e+00   0.000000e+00
     2680000   2.679999e-05   1.250373e-01   1.031862e+01   2.877483e+01  -6.022030e+03   3.051538e+03   2.975776e+05  -1.437534e+11   2.006470e+11  -4.964621e+09   2.976542e+05   1.924063e-23   0.000000e+00   0.000000e+00
     2688000   2.687999e-05   1.240237e-01   1.031946e+01   2.879860e+01  -2.016276e+04   1.714145e+04   2.964754e+05  -2.069433e+11   1.473988e+11  -2.259387e+10   2.976542e+05   2.053925e-23   0.000000e+00   0.000000e+00
     2696000   2.695999e-05   1.216899e-01   1.032123e+01   2.882223e+01  -3.878513e+04   2.631659e+04   2.939409e+05  -2.530198e+11   7.556473e+10  -4.014854e+10   2.976543e+05   2.252131e-23   0.000000e+00   0.000000e+00
     2704000   2.703999e-05   1.177525e-01   1.032349e+01   2.884560e+01  -5.985236e+04   2.876278e+04   2.901526e+05  -2.681620e+11  -1.638687e+10  -5.368913e+10   2.976544e+05   2.369601e-23   0.000000e+00   0.000000e+00
     2712000   2.711999e-05   1.121178e-01   1.032563e+01   2.886863e+01  -8.074786e+04   2.353784e+04   2.855240e+05  -2.480853e+11  -1.140882e+11  -6.075210e+10   2.976545e+05   2.470352e-23   0.000000e+00   0.000000e+00
     2720000   2.719999e-05   1.049151e-01   1.032705e+01   2.889128e+01  -9.856436e+04   1.072387e+04   2.806570e+05  -1.914016e+11  -2.036482e+11  -5.943432e+10   2.976546e+05   2.577254e-23   0.000000e+00   0.000000e+00
     2728000   2.727999e-05   9.650503e-02   1.032717e+01   2.891355e+01  -1.104721e+05  -8.516311e+03   2.762639e+05  -1.003262e+11  -2.744869e+11  -4.857668e+10   2.976548e+05   2.770707e-23   0.000000e+00   0.000000e+00
     2736000   2.735999e-05   8.746712e-02   1.032556e+01   2.893551e+01  -1.138973e+05  -3.221413e+04   2.731082e+05   1.777750e+10  -3.104417e+11  -2.920024e+10   2.976549e+05   3.079275e-23   0.000000e+00   0.000000e+00
     2744000   2.743999e-05   7.854803e-02   1.032199e+01   2.895729e+01  -1.073788e+05  -5.685515e+04   2.717274e+05   1.450040e+11  -2.966973e+11  -4.774357e+09   2.976550e+05   3.443436e-23   0.000000e+00   0.000000e+00
     2752000   2.751999e-05   7.055047e-02   1.031655e+01   2.897904e+01  -9.102329e+04  -7.824355e+04   2.723808e+05   2.598833e+11  -2.292184e+11   2.100652e+10   2.976552e+05   3.804703e-23   0.000000e+00   0.000000e+00
     2760000   2.759999e-05   6.419724e-02   1.030967e+01   2.900093e+01  -6.678208e+04  -9.217578e+04   2.750318e+05   3.266793e+11  -9.516749e+10   4.743221e+10   2.976553e+05   3.725928e-23   0.000000e+00   0.000000e+00
     2768000   2.767999e-05   5.993686e-02   1.030214e+01   2.902310e+01  -3.946552e+04  -9.428595e+04   2.795558e+05   3.461224e+11   4.578970e+10   6.431091e+10   2.976555e+05   3.978721e-23   0.000000e+00   0.000000e+00
     2776000   2.775999e-05   5.785640e-02   1.029490e+01   2.904568e+01  -1.315546e+04  -8.468780e+04   2.850505e+05   3.004151e+11   1.929306e+11   7.118839e+10   2.976557e+05   4.184114e-23   0.000000e+00   0.000000e+00
     2784000   2.783999e-05   5.766334e-02   1.028889e+01   2.906871e+01   6.846796e+03  -6.405263e+04   2.906018e+05   1.895113e+11   3.161989e+11   6.523438e+10   2.976559e+05   4.424433e-23   0.000000e+00   0.000000e+00
     2792000   2.791999e-05   5.865574e-02   1.028486e+01   2.909215e+01   1.580432e+04  -3.558156e+04   2.950988e+05   2.810631e+10   3.839565e+11   4.479541e+10   2.976561e+05   4.742248e-23   0.000000e+00   0.000000e+00
     2800000   2.799999e-05   5.979342e-02   1.028329e+01   2.911587e+01   9.845490e+03  -3.634917e+03   2.974712e+05  -1.752445e+11   3.921732e+11   1.059844e+10   2.976563e+05   5.828321e-23   0.000000e+00   0.000000e+00
     2808000   2.807999e-05   5.982490e-02   1.028416e+01   2.913965e+01  -1.136426e+04   2.400152e+04   2.964696e+05  -3.473273e+11   2.827160e+11  -3.619498e+10   2.976565e+05   6.372970e-23   0.000000e+00   0.000000e+00
     2816000   2.815999e-05   5.767134e-02   1.028680e+01   2.916321e+01  -4.383654e+04   3.929026e+04   2.917777e+05  -4.487460e+11   8.770419e+10  -7.922209e+10   2.976568e+05   6.798127e-23   0.000000e+00   0.000000e+00
     2824000   2.823999e-05   5.270612e-02   1.028997e+01   2.918626e+01  -8.015843e+04   3.678801e+04   2.842904e+05  -4.382920e+11  -1.530966e+11  -1.037616e+11   2.976571e+05   7.144260e-23   0.000000e+00   0.000000e+00
     2832000   2.831999e-05   4.499821e-02   1.029218e+01   2.920866e+01  -1.109977e+05   1.611019e+04   2.757171e+05  -3.185779e+11  -3.511690e+11  -1.077251e+11   2.976574e+05   7.463442e-23   0.000000e+00   0.000000e+00
     2840000   2.839999e-05   3.532491e-02   1.029216e+01   2.923040e+01  -1.276667e+05  -1.878968e+04   2.682318e+05  -8.192875e+10  -5.017693e+11  -7.413372e+10   2.976578e+05   8.333608e-23   0.000000e+00   0.000000e+00
     2848000   2.847999e-05   2.516079e-02   1.028900e+01   2.925168e+01  -1.224522e+05  -6.018850e+04   2.645433e+05   2.152237e+11  -5.042424e+11  -1.509004e+10   2.976581e+05   9.496278e-23   0.000000e+00   0.000000e+00
     2856000   2.855999e-05   1.635537e-02   1.028271e+01   2.927287e+01  -9.417639e+04  -9.462752e+04   2.660396e+05   4.763481e+11  -3.274761e+11   5.215712e+10   2.976586e+05   1.063471e-22   0.000000e+00   0.000000e+00
     2864000   2.863999e-05   1.052080e-02   1.027441e+01   2.929439e+01  -5.011301e+04  -1.086468e+05   2.725536e+05   5.931419e+11  -5.602789e+09   1.068378e+11   2.976591e+05   1.146805e-22   0.000000e+00   0.000000e+00
     2872000   2.871999e-05   8.352090e-03   1.026611e+01   2.931657e+01  -5.613666e+03  -9.378898e+04   2.824417e+05   4.807055e+11   3.707034e+11   1.326655e+11   2.976596e+05   1.218896e-22   0.000000e+00   0.000000e+00
     2880000   2.879999e-05   9.135357e-03   1.026012e+01   2.933958e+01   2.067863e+04  -5.228069e+04   2.923023e+05   1.437976e+11   6.352707e+11   1.034655e+11   2.976601e+05   1.373118e-22   0.000000e+00   0.000000e+00
     2888000   2.887999e-05   1.077156e-02   1.025806e+01   2.936321e+01   1.407825e+04   8.621092e+02   2.973264e+05  -3.136762e+11   6.405506e+11   1.301222e+10   2.976607e+05   1.606470e-22   0.000000e+00   0.000000e+00
     2896000   2.895999e-05   1.044640e-02   1.025993e+01   2.938691e+01  -2.718560e+04   4.139928e+04   2.935122e+05  -6.830661e+11   3.213812e+11  -1.085771e+11   2.976615e+05   1.836275e-22   0.000000e+00   0.000000e+00
     2904000   2.903999e-05   5.914981e-03   1.026373e+01   2.940993e+01  -8.710603e+04   4.656590e+04   2.807971e+05  -7.559273e+11  -2.090023e+11  -1.998130e+11   2.976623e+05   2.067941e-22   0.000000e+00   0.000000e+00
