     timestep     time              x             y              z              vx             vy             vz             ax             ay             az         v_magnitude      ELoss        Electronic      Nuclear
           0   0.000000e+00   1.000000e-01   1.097019e+01   2.099370e+01   5.214168e+03  -4.395683e+02   1.473375e+05   0.000000e+00   0.000000e+00   0.000000e+00   1.474304e+05   0.000000e+00   0.000000e+00   0.000000e+00
        8000   7.999000e-08   1.006463e-01   1.096990e+01   2.100547e+01   1.126332e+04  -6.305427e+03   1.468642e+05   8.679302e+10  -5.851585e+10  -9.167890e+09   1.474304e+05   8.551144e-25   0.000000e+00   0.000000e+00
       16000   1.599900e-07   1.018420e-01   1.096924e+01   2.101718e+01   1.880257e+04  -9.649881e+03   1.459078e+05   9.968415e+10  -2.445774e+10  -1.446273e+10   1.474304e+05   8.321197e-25   0.000000e+00   0.000000e+00
       24000   2.399900e-07   1.036692e-01   1.096843e+01   2.102881e+01   2.688619e+04  -1.017473e+04   1.446006e+05   1.003765e+11   1.123904e+10  -1.787186e+10   1.474305e+05   8.148394e-25   0.000000e+00   0.000000e+00
       32000   3.199900e-07   1.061326e-01   1.096769e+01   2.104032e+01   3.455148e+04  -7.921554e+03   1.431055e+05   8.944043e+10   4.432183e+10  -1.914041e+10   1.474305e+05   8.000632e-25   0.000000e+00   0.000000e+00
       40000   3.999900e-07   1.091631e-01   1.096723e+01   2.105170e+01   4.093578e+04  -3.250634e+03   1.415961e+05   6.876025e+10   7.114930e+10  -1.824467e+10   1.474305e+05   7.840084e-25   0.000000e+00   0.000000e+00
       48000   4.799900e-07   1.126300e-01   1.096722e+01   2.106297e+01   4.536881e+04   3.223710e+03   1.402392e+05   4.119603e+10   8.906037e+10  -1.537388e+10   1.474305e+05   7.640399e-25   0.000000e+00   0.000000e+00
       56000   5.599900e-07   1.163587e-01   1.096777e+01   2.107415e+01   4.743432e+04   1.072108e+04   1.391791e+05   1.016582e+10   9.658581e+10  -1.090407e+10   1.474306e+05   7.397100e-25   0.000000e+00   0.000000e+00
       64000   6.399900e-07   1.201525e-01   1.096894e+01   2.108525e+01   4.699728e+04   1.839344e+04   1.385233e+05  -2.078977e+10   9.349903e+10  -5.360929e+09   1.474306e+05   7.127555e-25   0.000000e+00   0.000000e+00
       72000   7.199900e-07   1.238151e-01   1.097070e+01   2.109633e+01   4.419724e+04   2.542162e+04   1.383334e+05  -4.840662e+10   8.072304e+10   6.319312e+08   1.474306e+05   6.861746e-25   0.000000e+00   0.000000e+00
       80000   7.999900e-07   1.271693e-01   1.097297e+01   2.110740e+01   3.934352e+04   3.119844e+04   1.386165e+05  -7.154960e+10   6.182949e+10   6.392598e+09   1.474306e+05   6.957223e-25   0.000000e+00   0.000000e+00
       88000   8.799900e-07   1.300702e-01   1.097564e+01   2.111852e+01   3.298807e+04   3.511099e+04   1.393370e+05  -8.588422e+10   3.529026e+10   1.144108e+10   1.474307e+05   6.778551e-25   0.000000e+00   0.000000e+00
       96000   9.599900e-07   1.324263e-01   1.097853e+01   2.112970e+01   2.584419e+04   3.677322e+04   1.404123e+05  -9.116762e+10   6.077287e+09   1.518925e+10   1.474307e+05   6.644395e-25   0.000000e+00   0.000000e+00
      104000   1.039990e-06   1.342038e-01   1.098146e+01   2.114099e+01   1.864564e+04   3.609245e+04   1.417233e+05  -8.731657e+10  -2.279155e+10   1.729257e+10   1.474307e+05   6.538670e-25   0.000000e+00   0.000000e+00
      112000   1.119990e-06   1.354270e-01   1.098425e+01   2.115238e+01   1.209609e+04   3.321053e+04   1.431313e+05  -7.514803e+10  -4.851796e+10   1.760892e+10   1.474307e+05   6.436925e-25   0.000000e+00   0.000000e+00
      120000   1.199990e-06   1.361728e-01   1.098672e+01   2.116389e+01   6.802576e+03   2.847564e+04   1.444946e+05  -5.623018e+10  -6.878077e+10   1.620246e+10   1.474308e+05   6.315998e-25   0.000000e+00   0.000000e+00
      128000   1.279990e-06   1.365613e-01   1.098877e+01   2.117550e+01   3.223422e+03   2.239596e+04   1.456841e+05  -3.267431e+10  -8.192549e+10   1.331787e+10   1.474308e+05   6.162359e-25   0.000000e+00   0.000000e+00
      136000   1.359990e-06   1.367418e-01   1.099029e+01   2.118719e+01   1.634320e+03   1.558144e+04   1.465960e+05  -6.893133e+09  -8.707344e+10   9.332261e+09   1.474308e+05   5.976202e-25   0.000000e+00   0.000000e+00
      144000   1.439990e-06   1.368781e-01   1.099126e+01   2.119894e+01   2.114225e+03   8.680191e+03   1.471599e+05   1.864849e+10  -8.414673e+10   4.695961e+09   1.474308e+05   5.770271e-25   0.000000e+00   0.000000e+00
      152000   1.519990e-06   1.371290e-01   1.099170e+01   2.121073e+01   4.451957e+03   2.444919e+03   1.473433e+05   4.018905e+10  -7.235238e+10  -1.327327e+07   1.474308e+05   5.305220e-25   0.000000e+00   0.000000e+00
      160000   1.599990e-06   1.376348e-01   1.099168e+01   2.122251e+01   8.440996e+03  -2.747673e+03   1.471634e+05   5.869986e+10  -5.657149e+10  -4.422694e+09   1.474309e+05   5.162358e-25   0.000000e+00   0.000000e+00
      168000   1.679990e-06   1.385133e-01   1.099130e+01   2.123426e+01   1.369349e+04  -6.487230e+03   1.466502e+05   7.158249e+10  -3.633384e+10  -8.290852e+09   1.474309e+05   5.044148e-25   0.000000e+00   0.000000e+00
      176000   1.759990e-06   1.398465e-01   1.099068e+01   2.124596e+01   1.972070e+04  -8.493993e+03   1.458589e+05   7.797605e+10  -1.359153e+10  -1.133373e+10   1.474309e+05   4.951604e-25   0.000000e+00   0.000000e+00
      184000   1.839990e-06   1.416751e-01   1.098999e+01   2.125759e+01   2.598948e+04  -8.649643e+03   1.448641e+05   7.763187e+10   9.603853e+09  -1.335375e+10   1.474309e+05   4.877110e-25   0.000000e+00   0.000000e+00
      192000   1.919990e-06   1.439971e-01   1.098935e+01   2.126914e+01   3.197070e+04  -6.997685e+03   1.437525e+05   7.089025e+10   3.128768e+10  -1.424259e+10   1.474309e+05   4.807358e-25   0.000000e+00   0.000000e+00
      200000   1.999990e-06   1.467698e-01   1.098891e+01   2.128059e+01   3.718369e+04  -3.729819e+03   1.426161e+05   5.860710e+10   4.974391e+10  -1.397901e+10   1.474309e+05   4.727948e-25   0.000000e+00   0.000000e+00
      208000   2.079990e-06   1.499153e-01   1.098879e+01   2.129196e+01   4.123327e+04   8.392187e+02   1.415451e+05   4.204202e+10   6.362986e+10  -1.262403e+10   1.474310e+05   4.628040e-25   0.000000e+00   0.000000e+00
      216000   2.159990e-06   1.533281e-01   1.098907e+01   2.130325e+01   4.380435e+04   6.366402e+03   1.406291e+05   2.120954e+10   7.467327e+10  -9.986618e+09   1.474310e+05   4.744229e-25   0.000000e+00   0.000000e+00
      224000   2.239990e-06   1.568778e-01   1.098982e+01   2.131447e+01   4.465607e+04   1.246655e+04   1.399511e+05   5.287207e+07   7.681360e+10  -6.858838e+09   1.474310e+05   4.606143e-25   0.000000e+00   0.000000e+00
      232000   2.319990e-06   1.604282e-01   1.099106e+01   2.132564e+01   4.382952e+04   1.849701e+04   1.395447e+05  -2.047431e+10   7.298559e+10  -3.243247e+09   1.474310e+05   4.458403e-25   0.000000e+00   0.000000e+00
      240000   2.399990e-06   1.638487e-01   1.099277e+01   2.133680e+01   4.143819e+04   2.399908e+04   1.394375e+05  -3.882725e+10   6.372917e+10   5.704745e+08   1.474310e+05   4.313323e-25   0.000000e+00   0.000000e+00
      248000   2.479990e-06   1.670226e-01   1.099488e+01   2.134796e+01   3.770976e+04   2.857314e+04   1.396333e+05  -5.371279e+10   4.996665e+10   4.281543e+09   1.474310e+05   4.182259e-25   0.000000e+00   0.000000e+00
      256000   2.559990e-06   1.698550e-01   1.099730e+01   2.135915e+01   3.296246e+04   3.190552e+04   1.401122e+05  -6.416979e+10   3.290744e+10   7.603318e+09   1.474311e+05   4.072599e-25   0.000000e+00   0.000000e+00
      264000   2.639990e-06   1.722795e-01   1.099994e+01   2.137039e+01   2.757643e+04   3.378718e+04   1.408328e+05  -6.961794e+10   1.393911e+10   1.028810e+10   1.474311e+05   3.986110e-25   0.000000e+00   0.000000e+00
      272000   2.719990e-06   1.742609e-01   1.100267e+01   2.138169e+01   2.195676e+04   3.411874e+04   1.417383e+05  -6.993935e+10  -5.557717e+09   1.217254e+10   1.474311e+05   3.927071e-25   0.000000e+00   0.000000e+00
      280000   2.799990e-06   1.757975e-01   1.100536e+01   2.139307e+01   1.651985e+04   3.292343e+04   1.427553e+05  -6.518691e+10  -2.405231e+10   1.309102e+10   1.474311e+05   3.871811e-25   0.000000e+00   0.000000e+00
      288000   2.879990e-06   1.769182e-01   1.100790e+01   2.140453e+01   1.158111e+04   3.041819e+04   1.437934e+05  -5.817674e+10  -3.764988e+10   1.265039e+10   1.474311e+05   3.843044e-25   0.000000e+00   0.000000e+00
      296000   2.959990e-06   1.776707e-01   1.101020e+01   2.141607e+01   7.395224e+03   2.683063e+04   1.447804e+05  -4.590534e+10  -5.144979e+10   1.187978e+10   1.474311e+05   3.791490e-25   0.000000e+00   0.000000e+00
      304000   3.039990e-06   1.781309e-01   1.101217e+01   2.142769e+01   4.313055e+03   2.229021e+04   1.456725e+05  -3.076415e+10  -6.135618e+10   1.029966e+10   1.474311e+05   3.730762e-25   0.000000e+00   0.000000e+00
      312000   3.119990e-06   1.783952e-01   1.101375e+01   2.143938e+01   2.519331e+03   1.713189e+04   1.464107e+05  -1.389210e+10  -6.683650e+10   8.060077e+09   1.474312e+05   3.659494e-25   0.000000e+00   0.000000e+00
      320000   3.199990e-06   1.785709e-01   1.101490e+01   2.145111e+01   2.104601e+03   1.172009e+04   1.469495e+05   3.509919e+09  -6.768699e+10   5.348484e+09   1.474312e+05   3.580019e-25   0.000000e+00   0.000000e+00
      328000   3.279990e-06   1.787687e-01   1.101563e+01   2.146288e+01   3.063740e+03   6.422523e+03   1.472594e+05   2.026480e+10  -6.402719e+10   2.371158e+09   1.474312e+05   3.497390e-25   0.000000e+00   0.000000e+00
      336000   3.359990e-06   1.790952e-01   1.101594e+01   2.147467e+01   5.301052e+03   1.585228e+03   1.473273e+05   3.529747e+10  -5.627222e+10  -6.642709e+08   1.474312e+05   3.417735e-25   0.000000e+00   0.000000e+00
      344000   3.439990e-06   1.796463e-01   1.101590e+01   2.148645e+01   8.641157e+03  -2.489283e+03   1.471567e+05   4.770065e+10  -4.508652e+10  -3.563404e+09   1.474312e+05   3.346427e-25   0.000000e+00   0.000000e+00
      352000   3.519990e-06   1.805009e-01   1.101557e+01   2.149821e+01   1.284453e+04  -5.559660e+03   1.467654e+05   5.678472e+10  -3.132370e+10  -6.155946e+09   1.474312e+05   3.286581e-25   0.000000e+00   0.000000e+00
      360000   3.599990e-06   1.817134e-01   1.101505e+01   2.150993e+01   1.751716e+04  -7.282703e+03   1.462056e+05   6.027618e+10  -1.356112e+10  -7.897031e+09   1.474312e+05   3.004599e-25   0.000000e+00   0.000000e+00
      368000   3.679990e-06   1.833096e-01   1.101444e+01   2.152160e+01   2.240274e+04  -7.750139e+03   1.455130e+05   6.122468e+10   1.874232e+09  -9.325881e+09   1.474312e+05   2.973202e-25   0.000000e+00   0.000000e+00
      376000   3.759990e-06   1.852958e-01   1.101384e+01   2.153321e+01   2.721294e+04  -6.995345e+03   1.447290e+05   5.842502e+10   1.683700e+10  -1.017141e+10   1.474312e+05   2.943368e-25   0.000000e+00   0.000000e+00
      384000   3.839990e-06   1.876540e-01   1.101335e+01   2.154475e+01   3.165874e+04  -5.092736e+03   1.439019e+05   5.218361e+10   3.042930e+10  -1.040335e+10   1.474313e+05   2.909971e-25   0.000000e+00   0.000000e+00
      392000   3.919990e-06   1.903446e-01   1.101305e+01   2.155623e+01   3.548372e+04  -2.183784e+03   1.430808e+05   4.300282e+10   4.188023e+10  -1.002515e+10   1.474313e+05   2.868460e-25   0.000000e+00   0.000000e+00
      400000   3.999990e-06   1.933092e-01   1.101302e+01   2.156765e+01   3.847810e+04   1.534806e+03   1.423132e+05   3.153833e+10   5.058530e+10  -9.072503e+09   1.474313e+05   2.815912e-25   0.000000e+00   0.000000e+00
      408000   4.079990e-06   1.964748e-01   1.101331e+01   2.157900e+01   4.048905e+04   5.825545e+03   1.416428e+05   1.855010e+10   5.613261e+10  -7.611000e+09   1.474313e+05   2.751674e-25   0.000000e+00   0.000000e+00
      416000   4.159990e-06   1.997587e-01   1.101396e+01   2.159031e+01   4.142701e+04   1.042616e+04   1.411066e+05   4.850607e+09   5.831550e+10  -5.732674e+09   1.474313e+05   2.677468e-25   0.000000e+00   0.000000e+00
      424000   4.239990e-06   2.030693e-01   1.101499e+01   2.160159e+01   4.113784e+04   1.526223e+04   1.407506e+05  -1.092880e+10   5.980647e+10  -3.290613e+09   1.474313e+05   2.871079e-25   0.000000e+00   0.000000e+00
      432000   4.319990e-06   2.063106e-01   1.101640e+01   2.161284e+01   3.971247e+04   1.988409e+04   1.405828e+05  -2.449123e+10   5.520224e+10  -8.891734e+08   1.474313e+05   2.825244e-25   0.000000e+00   0.000000e+00
      440000   4.399990e-06   2.093960e-01   1.101816e+01   2.162408e+01   3.726249e+04   2.401396e+04   1.406088e+05  -3.643119e+10   4.758196e+10   1.528507e+09   1.474313e+05   2.783198e-25   0.000000e+00   0.000000e+00
      448000   4.479990e-06   2.122494e-01   1.102022e+01   2.163534e+01   3.394306e+04   2.743047e+04   1.408241e+05  -4.613793e+10   3.746610e+10   3.823106e+09   1.474313e+05   2.747124e-25   0.000000e+00   0.000000e+00
      456000   4.559990e-06   2.148089e-01   1.102252e+01   2.164662e+01   2.995233e+04   2.995878e+04   1.412138e+05  -5.315071e+10   2.549110e+10   5.865862e+09   1.474313e+05   2.717825e-25   0.000000e+00   0.000000e+00
      464000   4.639990e-06   2.170299e-01   1.102499e+01   2.165794e+01   2.551872e+04   3.147828e+04   1.417530e+05  -5.717593e+10   1.236837e+10   7.546620e+09   1.474314e+05   2.694444e-25   0.000000e+00   0.000000e+00
      472000   4.719990e-06   2.188866e-01   1.102753e+01   2.166930e+01   2.088717e+04   3.192683e+04   1.424093e+05  -5.809413e+10  -1.158247e+09   8.780573e+09   1.474314e+05   2.674581e-25   0.000000e+00   0.000000e+00
      480000   4.799990e-06   2.203732e-01   1.103007e+01   2.168073e+01   1.630527e+04   3.130169e+04   1.431445e+05  -5.595724e+10  -1.435412e+10   9.513047e+09   1.474314e+05   2.654742e-25   0.000000e+00   0.000000e+00
      488000   4.879990e-06   2.215032e-01   1.103251e+01   2.169221e+01   1.200999e+04   2.965724e+04   1.439174e+05  -5.097688e+10  -2.653259e+10   9.721891e+09   1.474314e+05   2.631031e-25   0.000000e+00   0.000000e+00
      496000   4.959990e-06   2.223081e-01   1.103479e+01   2.170375e+01   8.208860e+03   2.711008e+04   1.446847e+05  -4.377313e+10  -3.671586e+10   9.363331e+09   1.474314e+05   2.595931e-25   0.000000e+00   0.000000e+00
      504000   5.039990e-06   2.228344e-01   1.103683e+01   2.171536e+01   5.073843e+03   2.381280e+04   1.454071e+05  -3.430052e+10  -4.533095e+10   8.620798e+09   1.474314e+05   2.560249e-25   0.000000e+00   0.000000e+00
      512000   5.119990e-06   2.231419e-01   1.103858e+01   2.172702e+01   2.761757e+03   1.992310e+04   1.460529e+05  -2.329691e+10  -5.147412e+10   7.462342e+09   1.474314e+05   2.515546e-25   0.000000e+00   0.000000e+00
      520000   5.199990e-06   2.233009e-01   1.104001e+01   2.173872e+01   1.371191e+03   1.564937e+04   1.465921e+05  -1.136638e+10  -5.490411e+10   5.967800e+09   1.474314e+05   2.462304e-25   0.000000e+00   0.000000e+00
      528000   5.279990e-06   2.233872e-01   1.104108e+01   2.175047e+01   9.512136e+02   1.121341e+04   1.470013e+05   8.628311e+08  -5.552716e+10   4.230296e+09   1.474314e+05   2.402387e-25   0.000000e+00   0.000000e+00
      536000   5.359990e-06   2.234789e-01   1.104180e+01   2.176224e+01   1.500778e+03   6.838628e+03   1.472651e+05   1.277140e+10  -5.339509e+10   2.349588e+09   1.474314e+05   2.338693e-25   0.000000e+00   0.000000e+00
      544000   5.439990e-06   2.236519e-01   1.104218e+01   2.177403e+01   2.970689e+03   2.738791e+03   1.473761e+05   2.377983e+10  -4.869587e+10   4.258133e+08   1.474314e+05   2.274631e-25   0.000000e+00   0.000000e+00
      552000   5.519990e-06   2.239764e-01   1.104225e+01   2.178582e+01   5.267907e+03  -8.923265e+02   1.473346e+05   3.337574e+10  -4.173773e+10  -1.445929e+09   1.474314e+05   2.213539e-25   0.000000e+00   0.000000e+00
      560000   5.599990e-06   2.245134e-01   1.104206e+01   2.179760e+01   8.261855e+03  -3.889722e+03   1.471484e+05   4.113624e+10  -3.292788e+10  -3.179879e+09   1.474315e+05   2.158146e-25   0.000000e+00   0.000000e+00
      568000   5.679990e-06   2.253121e-01   1.104165e+01   2.180936e+01   1.177665e+04  -6.100430e+03   1.468337e+05   4.649380e+10  -2.242657e+10  -4.660551e+09   1.474315e+05   2.080539e-25   0.000000e+00   0.000000e+00
      576000   5.759990e-06   2.264071e-01   1.104110e+01   2.182109e+01   1.564262e+04  -7.462063e+03   1.464092e+05   4.975647e+10  -1.151687e+10  -5.902870e+09   1.474315e+05   2.047114e-25   0.000000e+00   0.000000e+00
      584000   5.839990e-06   2.278193e-01   1.104048e+01   2.183278e+01   1.967321e+04  -7.934456e+03   1.458974e+05   5.060474e+10  -2.858933e+08  -6.839055e+09   1.474315e+05   2.019624e-25   0.000000e+00   0.000000e+00
      592000   5.919990e-06   2.295541e-01   1.103986e+01   2.184443e+01   2.367565e+04  -7.513403e+03   1.453240e+05   4.906687e+10   1.073206e+10  -7.438758e+09   1.474315e+05   1.996681e-25   0.000000e+00   0.000000e+00
      600000   5.999990e-06   2.316017e-01   1.103930e+01   2.185603e+01   2.746387e+04  -6.236386e+03   1.447166e+05   4.528182e+10   2.103305e+10  -7.686876e+09   1.474315e+05   1.976428e-25   0.000000e+00   0.000000e+00
      608000   6.079990e-06   2.339380e-01   1.103888e+01   2.186758e+01   3.086703e+04  -4.179233e+03   1.441035e+05   3.948737e+10   3.016583e+10  -7.583181e+09   1.474315e+05   1.956922e-25   0.000000e+00   0.000000e+00
      616000   6.159990e-06   2.365261e-01   1.103865e+01   2.187909e+01   3.373670e+04  -1.451135e+03   1.435123e+05   3.200432e+10   3.775026e+10  -7.141649e+09   1.474315e+05   1.936497e-25   0.000000e+00   0.000000e+00
      624000   6.239990e-06   2.393184e-01   1.103866e+01   2.189055e+01   3.595283e+04   1.811633e+03   1.429691e+05   2.321751e+10   4.349127e+10  -6.389499e+09   1.474315e+05   1.914043e-25   0.000000e+00   0.000000e+00
      632000   6.319990e-06   2.422588e-01   1.103895e+01   2.190196e+01   3.742333e+04   5.462907e+03   1.424981e+05   1.320096e+10   4.790872e+10  -5.303369e+09   1.474315e+05   1.934388e-25   0.000000e+00   0.000000e+00
      640000   6.399990e-06   2.452840e-01   1.103954e+01   2.191335e+01   3.807173e+04   9.369349e+03   1.421225e+05   2.978078e+09   4.938677e+10  -4.053389e+09   1.474315e+05   1.908609e-25   0.000000e+00   0.000000e+00
      648000   6.479990e-06   2.483284e-01   1.104045e+01   2.192471e+01   3.790064e+04   1.330664e+04   1.418539e+05  -7.210901e+09   4.868708e+10  -2.640317e+09   1.474315e+05   1.881540e-25   0.000000e+00   0.000000e+00
      656000   6.559990e-06   2.513268e-01   1.104167e+01   2.193605e+01   3.693052e+04   1.710346e+04   1.417027e+05  -1.692731e+10   4.589772e+10  -1.128078e+09   1.474315e+05   1.854439e-25   0.000000e+00   0.000000e+00
      664000   6.639990e-06   2.542174e-01   1.104318e+01   2.194738e+01   3.521556e+04   2.059910e+04   1.416743e+05  -2.576860e+10   4.119343e+10   4.159652e+08   1.474315e+05   1.828637e-25   0.000000e+00   0.000000e+00
      672000   6.719990e-06   2.569437e-01   1.104495e+01   2.195872e+01   3.284021e+04   2.364991e+04   1.417683e+05  -3.338396e+10   3.482429e+10   1.924042e+09   1.474316e+05   1.805270e-25   0.000000e+00   0.000000e+00
      680000   6.799990e-06   2.594571e-01   1.104695e+01   2.197007e+01   2.991446e+04   2.613479e+04   1.419794e+05  -3.948688e+10   2.710183e+10   3.331123e+09   1.474316e+05   1.785053e-25   0.000000e+00   0.000000e+00
      688000   6.879990e-06   2.617187e-01   1.104912e+01   2.198144e+01   2.656834e+04   2.795953e+04   1.422971e+05  -4.386427e+10   1.838324e+10   4.578007e+09   1.474316e+05   1.768135e-25   0.000000e+00   0.000000e+00
      696000   6.959990e-06   2.637007e-01   1.105140e+01   2.199284e+01   2.294580e+04   2.905974e+04   1.427063e+05  -4.638209e+10   9.054615e+09   5.614132e+09   1.474316e+05   1.754061e-25   0.000000e+00   0.000000e+00
      704000   7.039990e-06   2.653865e-01   1.105375e+01   2.200427e+01   1.918028e+04   2.942860e+04   1.431857e+05  -4.762317e+10   3.578042e+08   6.305931e+09   1.474316e+05   1.787407e-25   0.000000e+00   0.000000e+00
      712000   7.119990e-06   2.667692e-01   1.105609e+01   2.201575e+01   1.540291e+04   2.907315e+04   1.437135e+05  -4.649558e+10  -9.187812e+09   6.842145e+09   1.474316e+05   1.775953e-25   0.000000e+00   0.000000e+00
      720000   7.199990e-06   2.678553e-01   1.105838e+01   2.202727e+01   1.178998e+04   2.797224e+04   1.442727e+05  -4.353367e+10  -1.821739e+10   7.089804e+09   1.474316e+05   1.763755e-25   0.000000e+00   0.000000e+00
      728000   7.279990e-06   2.686637e-01   1.106055e+01   2.203883e+01   8.482195e+03   2.618142e+04   1.448401e+05  -3.889994e+10  -2.638092e+10   7.046869e+09   1.474316e+05   1.749425e-25   0.000000e+00   0.000000e+00
      736000   7.359990e-06   2.692240e-01   1.106255e+01   2.205044e+01   5.604696e+03   2.378249e+04   1.453928e+05  -3.281857e+10  -3.337380e+10   6.724354e+09   1.474316e+05   1.731821e-25   0.000000e+00   0.000000e+00
      744000   7.439990e-06   2.695748e-01   1.106434e+01   2.206209e+01   3.262605e+03   2.087945e+04   1.459092e+05  -2.556420e+10  -3.894741e+10   6.145115e+09   1.474316e+05   1.710218e-25   0.000000e+00   0.000000e+00
      752000   7.519990e-06   2.697625e-01   1.106588e+01   2.207379e+01   1.537475e+03   1.759369e+04   1.463700e+05  -1.744911e+10  -4.291694e+10   5.342056e+09   1.474316e+05   1.684414e-25   0.000000e+00   0.000000e+00
      760000   7.599990e-06   2.698387e-01   1.106715e+01   2.208551e+01   4.848261e+02   1.405864e+04   1.467590e+05  -8.809520e+09  -4.516633e+10   4.355915e+09   1.474316e+05   1.654756e-25   0.000000e+00   0.000000e+00
      768000   7.679990e-06   2.698587e-01   1.106813e+01   2.209727e+01   1.327940e+02   1.041421e+04   1.470633e+05   8.528552e+06  -4.565027e+10   3.232833e+09   1.474316e+05   1.622088e-25   0.000000e+00   0.000000e+00
      776000   7.759990e-06   2.698775e-01   1.106882e+01   2.210904e+01   4.423614e+02   6.849736e+03   1.472718e+05   7.966915e+09  -4.367390e+10   2.007514e+09   1.474316e+05   1.529547e-25   0.000000e+00   0.000000e+00
      784000   7.839990e-06   2.699472e-01   1.106923e+01   2.212083e+01   1.406302e+03   3.453485e+03   1.473845e+05   1.603116e+10  -4.097107e+10   8.071929e+08   1.474316e+05   1.499626e-25   0.000000e+00   0.000000e+00
      792000   7.919990e-06   2.701190e-01   1.106938e+01   2.213262e+01   2.987707e+03   3.341733e+02   1.474010e+05   2.335724e+10  -3.677844e+10  -3.899243e+08   1.474316e+05   1.470264e-25   0.000000e+00   0.000000e+00
      800000   7.999990e-06   2.704398e-01   1.106929e+01   2.214441e+01   5.116924e+03  -2.396358e+03   1.473233e+05   2.968714e+10  -3.128752e+10  -1.539907e+09   1.474316e+05   1.442568e-25   0.000000e+00   0.000000e+00
      808000   8.079990e-06   2.709500e-01   1.106901e+01   2.215619e+01   7.705419e+03  -4.643377e+03   1.471569e+05   3.480801e+10  -2.473293e+10  -2.602910e+09   1.474316e+05   1.417384e-25   0.000000e+00   0.000000e+00
      816000   8.159990e-06   2.716822e-01   1.106857e+01   2.216795e+01   1.064966e+04  -6.332298e+03   1.469101e+05   3.855857e+10  -1.738183e+10  -3.544239e+09   1.474317e+05   1.395205e-25   0.000000e+00   0.000000e+00
      824000   8.239990e-06   2.726604e-01   1.106801e+01   2.217969e+01   1.383541e+04  -7.410836e+03   1.465938e+05   4.083327e+10  -9.522667e+09  -4.335095e+09   1.474317e+05   1.376135e-25   0.000000e+00   0.000000e+00
      832000   8.319990e-06   2.738991e-01   1.106740e+01   2.219140e+01   1.714231e+04  -7.850246e+03   1.462211e+05   4.158406e+10  -1.453497e+09  -4.953044e+09   1.474317e+05   1.359908e-25   0.000000e+00   0.000000e+00
      840000   8.399990e-06   2.754031e-01   1.106677e+01   2.220309e+01   2.044269e+04  -7.628805e+03   1.458081e+05   4.053469e+10   7.316534e+09  -5.300149e+09   1.474317e+05   1.335748e-25   0.000000e+00   0.000000e+00
      848000   8.479990e-06   2.771661e-01   1.106619e+01   2.221473e+01   2.360191e+04  -6.738257e+03   1.453742e+05   3.821351e+10   1.486007e+10  -5.515174e+09   1.474317e+05   1.325545e-25   0.000000e+00   0.000000e+00
      856000   8.559990e-06   2.791730e-01   1.106571e+01   2.222635e+01   2.652133e+04  -5.268273e+03   1.449309e+05   3.456265e+10   2.176141e+10  -5.533571e+09   1.474317e+05   1.315667e-25   0.000000e+00   0.000000e+00
      864000   8.639990e-06   2.814004e-01   1.106536e+01   2.223792e+01   2.910062e+04  -3.279654e+03   1.444939e+05   2.974019e+10   2.779070e+10  -5.358682e+09   1.474317e+05   1.305414e-25   0.000000e+00   0.000000e+00
      872000   8.719990e-06   2.838177e-01   1.106520e+01   2.224947e+01   3.125363e+04  -8.501263e+02   1.440784e+05   2.394094e+10   3.275568e+10  -4.999903e+09   1.474317e+05   1.294250e-25   0.000000e+00   0.000000e+00
      880000   8.799990e-06   2.863878e-01   1.106524e+01   2.226098e+01   3.291099e+04   1.928895e+03   1.436985e+05   1.738818e+10   3.650710e+10  -4.472310e+09   1.474317e+05   1.281871e-25   0.000000e+00   0.000000e+00
      888000   8.879990e-06   2.890689e-01   1.106551e+01   2.227246e+01   3.402204e+04   4.955897e+03   1.433668e+05   1.032473e+10   3.894225e+10  -3.796178e+09   1.474317e+05   1.268233e-25   0.000000e+00   0.000000e+00
      896000   8.959990e-06   2.918159e-01   1.106603e+01   2.228392e+01   3.455601e+04   8.123081e+03   1.430944e+05   3.003790e+09   4.000682e+10  -2.996354e+09   1.474317e+05   1.253546e-25   0.000000e+00   0.000000e+00
      904000   9.039990e-06   2.945821e-01   1.106681e+01   2.229536e+01   3.450250e+04   1.132024e+04   1.428899e+05  -4.320226e+09   3.969488e+10  -2.101485e+09   1.474317e+05   1.238225e-25   0.000000e+00   0.000000e+00
      912000   9.119990e-06   2.973201e-01   1.106785e+01   2.230678e+01   3.383900e+04   1.449006e+04   1.427623e+05  -1.214173e+10   3.910075e+10  -1.090565e+09   1.474317e+05   1.299190e-25   0.000000e+00   0.000000e+00
      920000   9.199990e-06   2.999810e-01   1.106913e+01   2.231820e+01   3.259145e+04   1.750520e+04   1.427147e+05  -1.894532e+10   3.607228e+10  -9.795887e+07   1.474317e+05   1.285764e-25   0.000000e+00   0.000000e+00
      928000   9.279990e-06   3.025206e-01   1.107064e+01   2.232962e+01   3.081625e+04   2.024205e+04   1.427471e+05  -2.521532e+10   3.206579e+10   8.965558e+08   1.474317e+05   1.289392e-25   0.000000e+00   0.000000e+00
      936000   9.359990e-06   3.048993e-01   1.107236e+01   2.234104e+01   2.858051e+04   2.260835e+04   1.428570e+05  -3.051645e+10   2.693696e+10   1.842347e+09   1.474317e+05   1.285842e-25   0.000000e+00   0.000000e+00
      944000   9.439990e-06   3.070832e-01   1.107424e+01   2.235248e+01   2.596126e+04   2.452967e+04   1.430399e+05  -3.478020e+10   2.097481e+10   2.715671e+09   1.474317e+05   1.283312e-25   0.000000e+00   0.000000e+00
      952000   9.519990e-06   3.090452e-01   1.107627e+01   2.236393e+01   2.304651e+04   2.594764e+04   1.432888e+05  -3.788780e+10   1.438994e+10   3.488150e+09   1.474317e+05   1.281563e-25   0.000000e+00   0.000000e+00
      960000   9.599990e-06   3.107653e-01   1.107838e+01   2.237540e+01   1.993214e+04   2.682139e+04   1.435947e+05  -3.976103e+10   7.407873e+09   4.135596e+09   1.474317e+05   1.280167e-25   0.000000e+00   0.000000e+00
      968000   9.679990e-06   3.122317e-01   1.108054e+01   2.238691e+01   1.671865e+04   2.712844e+04   1.439467e+05  -4.036353e+10   2.613126e+08   4.638880e+09   1.474317e+05   1.278527e-25   0.000000e+00   0.000000e+00
      976000   9.759990e-06   3.134404e-01   1.108271e+01   2.239844e+01   1.350776e+04   2.686494e+04   1.443327e+05  -3.970059e+10  -6.817537e+09   4.984561e+09   1.474317e+05   1.275940e-25   0.000000e+00   0.000000e+00
      984000   9.839990e-06   3.143954e-01   1.108483e+01   2.241000e+01   1.039204e+04   2.605666e+04   1.447383e+05  -3.792879e+10  -1.346010e+10   5.146524e+09   1.474318e+05   1.275005e-25   0.000000e+00   0.000000e+00
      992000   9.919990e-06   3.151083e-01   1.108686e+01   2.242159e+01   7.470808e+03   2.472248e+04   1.451520e+05  -3.491980e+10  -1.979452e+10   5.168822e+09   1.474318e+05   1.268560e-25   0.000000e+00   0.000000e+00
     1000000   9.999990e-06   3.155983e-01   1.108877e+01   2.243322e+01   4.832468e+03   2.290778e+04   1.455610e+05  -3.087841e+10  -2.544331e+10   5.029402e+09   1.474318e+05   1.259422e-25   0.000000e+00   0.000000e+00
     1008000   1.007999e-05   3.158911e-01   1.109052e+01   2.244488e+01   2.553985e+03   2.067421e+04   1.459527e+05  -2.594992e+10  -3.024141e+10   4.737899e+09   1.474318e+05   1.247229e-25   0.000000e+00   0.000000e+00
     1016000   1.015999e-05   3.160183e-01   1.109207e+01   2.245658e+01   6.996808e+02   1.809541e+04   1.463154e+05  -2.030402e+10  -3.405427e+10   4.308831e+09   1.474318e+05   1.231836e-25   0.000000e+00   0.000000e+00
     1024000   1.023999e-05   3.160158e-01   1.109340e+01   2.246829e+01  -6.804725e+02   1.525448e+04   1.466389e+05  -1.412877e+10  -3.678122e+10   3.760803e+09   1.474318e+05   1.213335e-25   0.000000e+00   0.000000e+00
     1032000   1.031999e-05   3.159230e-01   1.109450e+01   2.248004e+01  -1.552073e+03   1.224111e+04   1.469145e+05  -7.624233e+09  -3.835770e+10   3.115573e+09   1.474318e+05   1.192056e-25   0.000000e+00   0.000000e+00
     1040000   1.039999e-05   3.157815e-01   1.109536e+01   2.249180e+01  -1.896985e+03   9.148685e+03   1.471354e+05  -9.959576e+08  -3.875621e+10   2.397071e+09   1.474318e+05   1.168537e-25   0.000000e+00   0.000000e+00
     1048000   1.047999e-05   3.156335e-01   1.109597e+01   2.250358e+01  -1.715127e+03   6.071936e+03   1.472967e+05   5.487436e+09  -3.796914e+10   1.629178e+09   1.474318e+05   1.141926e-25   0.000000e+00   0.000000e+00
     1056000   1.055999e-05   3.155207e-01   1.109633e+01   2.251536e+01  -1.022016e+03   3.100685e+03   1.473956e+05   1.177989e+10  -3.612952e+10   8.418157e+08   1.474318e+05   1.118997e-25   0.000000e+00   0.000000e+00
     1064000   1.063999e-05   3.154830e-01   1.109647e+01   2.252716e+01   1.577452e+02   3.193762e+02   1.474314e+05   1.762403e+10  -3.323567e+10   5.323650e+07   1.474318e+05   1.096074e-25   0.000000e+00   0.000000e+00
     1072000   1.071999e-05   3.155578e-01   1.109639e+01   2.253895e+01   1.781415e+03  -2.191628e+03   1.474047e+05   2.285131e+10  -2.939170e+10  -7.130672e+08   1.474318e+05   1.073880e-25   0.000000e+00   0.000000e+00
     1080000   1.079999e-05   3.157784e-01   1.109613e+01   2.255074e+01   3.793626e+03  -4.361380e+03   1.473184e+05   2.731531e+10  -2.472819e+10  -1.435391e+09   1.474318e+05   1.053052e-25   0.000000e+00   0.000000e+00
     1088000   1.087999e-05   3.161734e-01   1.109571e+01   2.256252e+01   6.128313e+03  -6.130281e+03   1.471768e+05   3.089559e+10  -1.939744e+10  -2.094327e+09   1.474318e+05   1.034088e-25   0.000000e+00   0.000000e+00
     1096000   1.095999e-05   3.167656e-01   1.109516e+01   2.257429e+01   8.710919e+03  -7.451615e+03   1.469855e+05   3.350066e+10  -1.356834e+10  -2.673151e+09   1.474318e+05   1.017324e-25   0.000000e+00   0.000000e+00
     1104000   1.103999e-05   3.175716e-01   1.109453e+01   2.258604e+01   1.146079e+04  -8.292659e+03   1.467516e+05   3.506991e+10  -7.420811e+09  -3.158087e+09   1.474318e+05   1.002919e-25   0.000000e+00   0.000000e+00
     1112000   1.111999e-05   3.186015e-01   1.109385e+01   2.259777e+01   1.429370e+04  -8.635332e+03   1.464830e+05   3.557462e+10  -1.140130e+09  -3.538469e+09   1.474318e+05   9.908624e-26   0.000000e+00   0.000000e+00
     1120000   1.119999e-05   3.198585e-01   1.109316e+01   2.260947e+01   1.712226e+04  -8.464572e+03   1.461893e+05   3.497871e+10   5.258680e+09  -3.792269e+09   1.474318e+05   9.801517e-26   0.000000e+00   0.000000e+00
     1128000   1.127999e-05   3.213387e-01   1.109250e+01   2.262116e+01   1.986336e+04  -7.803103e+03   1.458791e+05   3.338312e+10   1.122428e+10  -3.945078e+09   1.474318e+05   9.727443e-26   0.000000e+00   0.000000e+00
     1136000   1.135999e-05   3.230321e-01   1.109192e+01   2.263281e+01   2.243792e+04  -6.679296e+03   1.455612e+05   3.082795e+10   1.679042e+10  -3.981517e+09   1.474318e+05   9.666662e-26   0.000000e+00   0.000000e+00
     1144000   1.143999e-05   3.249224e-01   1.109145e+01   2.264445e+01   2.477257e+04  -5.131309e+03   1.452451e+05   2.740230e+10   2.180500e+10  -3.903230e+09   1.474318e+05   9.615904e-26   0.000000e+00   0.000000e+00
     1152000   1.151999e-05   3.269876e-01   1.109111e+01   2.265605e+01   2.680201e+04  -3.208719e+03   1.449396e+05   2.321806e+10   2.613522e+10  -3.714772e+09   1.474318e+05   9.572130e-26   0.000000e+00   0.000000e+00
     1160000   1.159999e-05   3.292011e-01   1.109094e+01   2.266764e+01   2.847066e+04  -9.708489e+02   1.446535e+05   1.840602e+10   2.967075e+10  -3.423447e+09   1.474318e+05   9.532843e-26   0.000000e+00   0.000000e+00
     1168000   1.167999e-05   3.315321e-01   1.109096e+01   2.267920e+01   2.973405e+04   1.515140e+03   1.443944e+05   1.311157e+10   3.232625e+10  -3.039084e+09   1.474318e+05   9.496291e-26   0.000000e+00   0.000000e+00
     1176000   1.175999e-05   3.339469e-01   1.109119e+01   2.269074e+01   3.055974e+04   4.176313e+03   1.441694e+05   7.490202e+09   3.404296e+10  -2.573781e+09   1.474318e+05   9.461554e-26   0.000000e+00   0.000000e+00
     1184000   1.183999e-05   3.364094e-01   1.109163e+01   2.270227e+01   3.092557e+04   6.940454e+03   1.439847e+05   1.542977e+09   3.506342e+10  -2.021473e+09   1.474318e+05   9.571995e-26   0.000000e+00   0.000000e+00
     1192000   1.191999e-05   3.388822e-01   1.109230e+01   2.271378e+01   3.081438e+04   9.742398e+03   1.438461e+05  -4.309951e+09   3.482204e+10  -1.435071e+09   1.474318e+05   9.551080e-26   0.000000e+00   0.000000e+00
     1200000   1.199999e-05   3.413274e-01   1.109319e+01   2.272528e+01   3.023995e+04   1.248625e+04   1.437560e+05  -1.001191e+10   3.361683e+10  -8.137135e+08   1.474319e+05   9.533903e-26   0.000000e+00   0.000000e+00
     1208000   1.207999e-05   3.437087e-01   1.109430e+01   2.273678e+01   2.922054e+04   1.509659e+04   1.437164e+05  -1.540968e+10   3.149420e+10  -1.750919e+08   1.474319e+05   9.521369e-26   0.000000e+00   0.000000e+00
     1216000   1.215999e-05   3.459916e-01   1.109560e+01   2.274828e+01   2.778626e+04   1.750269e+04   1.437280e+05  -2.036121e+10   2.852461e+10   4.627968e+08   1.474319e+05   9.514188e-26   0.000000e+00   0.000000e+00
     1224000   1.223999e-05   3.481445e-01   1.109709e+01   2.275978e+01   2.597801e+04   1.964034e+04   1.437900e+05  -2.473919e+10   2.480009e+10   1.082169e+09   1.474319e+05   9.512611e-26   0.000000e+00   0.000000e+00
     1232000   1.231999e-05   3.501394e-01   1.109873e+01   2.277129e+01   2.384619e+04   2.145347e+04   1.439002e+05  -2.843409e+10   2.043128e+10   1.665983e+09   1.474319e+05   9.516231e-26   0.000000e+00   0.000000e+00
     1240000   1.239999e-05   3.519528e-01   1.110051e+01   2.278281e+01   2.145110e+04   2.289611e+04   1.440548e+05  -3.126830e+10   1.557573e+10   2.180616e+09   1.474319e+05   9.487999e-26   0.000000e+00   0.000000e+00
     1248000   1.247999e-05   3.535664e-01   1.110239e+01   2.279434e+01   1.886081e+04   2.393435e+04   1.442483e+05  -3.334506e+10   1.032959e+10   2.646098e+09   1.474319e+05   9.492107e-26   0.000000e+00   0.000000e+00
     1256000   1.255999e-05   3.549669e-01   1.110433e+01   2.280589e+01   1.613314e+04   2.455221e+04   1.444751e+05  -3.470378e+10   5.075140e+09   3.012888e+09   1.474319e+05   9.597372e-26   0.000000e+00   0.000000e+00
     1264000   1.263999e-05   3.561459e-01   1.110630e+01   2.281745e+01   1.333759e+04   2.473373e+04   1.447291e+05  -3.503369e+10  -5.394609e+08   3.320827e+09   1.474319e+05   9.593437e-26   0.000000e+00   0.000000e+00
     1272000   1.271999e-05   3.571012e-01   1.110827e+01   2.282904e+01   1.055180e+04   2.446735e+04   1.450040e+05  -3.446272e+10  -6.097748e+09   3.536810e+09   1.474319e+05   9.583310e-26   0.000000e+00   0.000000e+00
     1280000   1.279999e-05   3.578364e-01   1.111021e+01   2.284066e+01   7.846871e+03   2.376339e+04   1.452924e+05  -3.301855e+10  -1.145532e+10   3.656915e+09   1.474319e+05   9.563573e-26   0.000000e+00   0.000000e+00
     1288000   1.287999e-05   3.583607e-01   1.111207e+01   2.285229e+01   5.290820e+03   2.264345e+04   1.455865e+05  -3.075106e+10  -1.647566e+10   3.680122e+09   1.474319e+05   9.531017e-26   0.000000e+00   0.000000e+00
     1296000   1.295999e-05   3.586886e-01   1.111382e+01   2.286395e+01   2.946824e+03   2.113959e+04   1.458787e+05  -2.773055e+10  -2.103346e+10   3.608257e+09   1.474319e+05   9.482930e-26   0.000000e+00   0.000000e+00
     1304000   1.303999e-05   3.588393e-01   1.111544e+01   2.287563e+01   8.717018e+02   1.929336e+04   1.461615e+05  -2.404545e+10  -2.501766e+10   3.445829e+09   1.474319e+05   9.417343e-26   0.000000e+00   0.000000e+00
     1312000   1.311999e-05   3.588365e-01   1.111690e+01   2.288733e+01  -8.854447e+02   1.715455e+04   1.464278e+05  -1.979966e+10  -2.833398e+10   3.199784e+09   1.474319e+05   9.333233e-26   0.000000e+00   0.000000e+00
     1320000   1.319999e-05   3.587072e-01   1.111818e+01   2.289906e+01  -2.284343e+03   1.477974e+04   1.466714e+05  -1.510958e+10  -3.090701e+10   2.879183e+09   1.474319e+05   9.230633e-26   0.000000e+00   0.000000e+00
     1328000   1.327999e-05   3.584809e-01   1.111926e+01   2.291080e+01  -3.308878e+03   1.224824e+04   1.468850e+05  -1.030675e+10  -3.247052e+10   2.475505e+09   1.474319e+05   9.035927e-26   0.000000e+00   0.000000e+00
     1336000   1.335999e-05   3.581887e-01   1.112013e+01   2.292256e+01  -3.926820e+03   9.604878e+03   1.470663e+05  -5.120031e+09  -3.347302e+10   2.049486e+09   1.474319e+05   8.913295e-26   0.000000e+00   0.000000e+00
     1344000   1.343999e-05   3.578638e-01   1.112080e+01   2.293433e+01  -4.126239e+03   6.915110e+03   1.472118e+05   1.338971e+08  -3.363015e+10   1.583569e+09   1.474319e+05   8.778960e-26   0.000000e+00   0.000000e+00
     1352000   1.351999e-05   3.575397e-01   1.112124e+01   2.294611e+01  -3.907122e+03   4.246447e+03   1.473189e+05   5.321295e+09  -3.294835e+10   1.090936e+09   1.474319e+05   8.636357e-26   0.000000e+00   0.000000e+00
     1360000   1.359999e-05   3.572495e-01   1.112148e+01   2.295790e+01  -3.280026e+03   1.665039e+03   1.473860e+05   1.031225e+10  -3.145521e+10   5.849235e+08   1.474319e+05   8.489320e-26   0.000000e+00   0.000000e+00
     1368000   1.367999e-05   3.570252e-01   1.112151e+01   2.296969e+01  -2.265638e+03  -7.659866e+02   1.474125e+05   1.498390e+10  -2.919839e+10   7.864517e+07   1.474319e+05   8.341816e-26   0.000000e+00   0.000000e+00
     1376000   1.375999e-05   3.568965e-01   1.112136e+01   2.298149e+01  -8.940920e+02  -2.988062e+03   1.473989e+05   1.922343e+10  -2.624399e+10  -4.153393e+08   1.474319e+05   8.197686e-26   0.000000e+00   0.000000e+00
     1384000   1.383999e-05   3.568906e-01   1.112104e+01   2.299328e+01   7.959447e+02  -4.948578e+03   1.473467e+05   2.293073e+10  -2.267449e+10  -8.853110e+08   1.474319e+05   8.060402e-26   0.000000e+00   0.000000e+00
     1392000   1.391999e-05   3.570311e-01   1.112058e+01   2.300506e+01   2.752871e+03  -6.593610e+03   1.472587e+05   2.585443e+10  -1.835024e+10  -1.304902e+09   1.474319e+05   7.798242e-26   0.000000e+00   0.000000e+00
     1400000   1.399999e-05   3.573368e-01   1.111999e+01   2.301684e+01   4.921246e+03  -7.886132e+03   1.471386e+05   2.823711e+10  -1.390476e+10  -1.689608e+09   1.474319e+05   7.694816e-26   0.000000e+00   0.000000e+00
     1408000   1.407999e-05   3.578228e-01   1.111932e+01   2.302860e+01   7.251430e+03  -8.810502e+03   1.469897e+05   2.989296e+10  -9.166061e+09  -2.024050e+09   1.474319e+05   7.603200e-26   0.000000e+00   0.000000e+00
     1416000   1.415999e-05   3.584997e-01   1.111860e+01   2.304035e+01   9.683899e+03  -9.348018e+03   1.468163e+05   3.079070e+10  -4.253631e+09  -2.301702e+09   1.474319e+05   7.523859e-26   0.000000e+00   0.000000e+00
     1424000   1.423999e-05   3.593733e-01   1.111784e+01   2.305209e+01   1.215739e+04  -9.489646e+03   1.466231e+05   3.091812e+10   7.108552e+08  -2.517532e+09   1.474319e+05   7.456594e-26   0.000000e+00   0.000000e+00
     1432000   1.431999e-05   3.604444e-01   1.111709e+01   2.306381e+01   1.461042e+04  -9.236070e+03   1.464152e+05   3.028197e+10   5.606567e+09  -2.668029e+09   1.474319e+05   7.400644e-26   0.000000e+00   0.000000e+00
     1440000   1.439999e-05   3.617088e-01   1.111637e+01   2.307552e+01   1.698279e+04  -8.597508e+03   1.461980e+05   2.890736e+10   1.031646e+10  -2.751216e+09   1.474319e+05   7.354830e-26   0.000000e+00   0.000000e+00
     1448000   1.447999e-05   3.631579e-01   1.111572e+01   2.308720e+01   1.921700e+04  -7.593301e+03   1.459768e+05   2.683679e+10   1.473003e+10  -2.766630e+09   1.474319e+05   7.317708e-26   0.000000e+00   0.000000e+00
     1456000   1.455999e-05   3.647784e-01   1.111517e+01   2.309887e+01   2.125963e+04  -6.251278e+03   1.457571e+05   2.412866e+10   1.874585e+10  -2.715282e+09   1.474319e+05   7.287742e-26   0.000000e+00   0.000000e+00
     1464000   1.463999e-05   3.665527e-01   1.111473e+01   2.311053e+01   2.305294e+04  -4.579407e+03   1.455465e+05   2.069891e+10   2.265319e+10  -2.565663e+09   1.474320e+05   7.343679e-26   0.000000e+00   0.000000e+00
     1472000   1.471999e-05   3.684593e-01   1.111444e+01   2.312216e+01   2.455934e+04  -2.644931e+03   1.453479e+05   1.688848e+10   2.560741e+10  -2.387584e+09   1.474320e+05   7.331798e-26   0.000000e+00   0.000000e+00
     1480000   1.479999e-05   3.704737e-01   1.111431e+01   2.313378e+01   2.574470e+04  -4.991317e+02   1.451659e+05   1.268972e+10   2.792703e+10  -2.154392e+09   1.474320e+05   7.323503e-26   0.000000e+00   0.000000e+00
     1488000   1.487999e-05   3.725691e-01   1.111436e+01   2.314539e+01   2.658203e+04   1.805207e+03   1.450045e+05   8.205591e+09   2.956444e+10  -1.872229e+09   1.474320e+05   7.318107e-26   0.000000e+00   0.000000e+00
     1496000   1.495999e-05   3.747170e-01   1.111460e+01   2.315698e+01   2.705281e+04   4.212159e+03   1.448675e+05   3.544185e+09   3.048871e+10  -1.548270e+09   1.474320e+05   7.315216e-26   0.000000e+00   0.000000e+00
     1504000   1.503999e-05   3.768875e-01   1.111504e+01   2.316857e+01   2.714728e+04   6.664006e+03   1.447577e+05  -1.183869e+09   3.068603e+10  -1.190566e+09   1.474320e+05   7.314687e-26   0.000000e+00   0.000000e+00
     1512000   1.511999e-05   3.790505e-01   1.111567e+01   2.318015e+01   2.686452e+04   9.102610e+03   1.446777e+05  -5.868026e+09   3.015968e+10  -8.078697e+08   1.474320e+05   7.316558e-26   0.000000e+00   0.000000e+00
     1520000   1.519999e-05   3.811760e-01   1.111649e+01   2.319172e+01   2.621240e+04   1.147077e+04   1.446289e+05  -1.040037e+10   2.892965e+10  -4.094424e+08   1.474320e+05   7.320951e-26   0.000000e+00   0.000000e+00
     1528000   1.527999e-05   3.832350e-01   1.111750e+01   2.320329e+01   2.520409e+04   1.371841e+04   1.446124e+05  -1.481880e+10   2.724259e+10  -1.528165e+06   1.474320e+05   7.448704e-26   0.000000e+00   0.000000e+00
     1536000   1.535999e-05   3.851996e-01   1.111868e+01   2.321486e+01   2.385803e+04   1.579985e+04   1.446283e+05  -1.876554e+10   2.469572e+10   3.977745e+08   1.474320e+05   7.452011e-26   0.000000e+00   0.000000e+00
     1544000   1.543999e-05   3.870443e-01   1.112002e+01   2.322643e+01   2.221335e+04   1.765491e+04   1.446757e+05  -2.227076e+10   2.159486e+10   7.842536e+08   1.474320e+05   7.457881e-26   0.000000e+00   0.000000e+00
     1552000   1.551999e-05   3.887468e-01   1.112150e+01   2.323801e+01   2.030845e+04   1.924226e+04   1.447532e+05  -2.525968e+10   1.801665e+10   1.148946e+09   1.474320e+05   7.465866e-26   0.000000e+00   0.000000e+00
     1560000   1.559999e-05   3.902879e-01   1.112310e+01   2.324959e+01   1.818721e+04   2.052710e+04   1.448587e+05  -2.767029e+10   1.404740e+10   1.483532e+09   1.474320e+05   7.475191e-26   0.000000e+00   0.000000e+00
     1568000   1.567999e-05   3.916523e-01   1.112478e+01   2.326118e+01   1.589790e+04   2.148187e+04   1.449896e+05  -2.945454e+10   9.781028e+09   1.780543e+09   1.474320e+05   7.484747e-26   0.000000e+00   0.000000e+00
     1576000   1.575999e-05   3.928285e-01   1.112652e+01   2.327279e+01   1.349207e+04   2.208675e+04   1.451425e+05  -3.057918e+10   5.316783e+09   2.033558e+09   1.474320e+05   7.493118e-26   0.000000e+00   0.000000e+00
     1584000   1.583999e-05   3.938093e-01   1.112830e+01   2.328441e+01   1.102331e+04   2.232996e+04   1.453136e+05  -3.102620e+10   7.569291e+08   2.237359e+09   1.474320e+05   7.498647e-26   0.000000e+00   0.000000e+00
     1592000   1.591999e-05   3.945920e-01   1.113009e+01   2.329604e+01   8.546030e+03   2.220801e+04   1.454990e+05  -3.079298e+10  -3.795579e+09   2.388055e+09   1.474320e+05   7.499526e-26   0.000000e+00   0.000000e+00
     1600000   1.599999e-05   3.951774e-01   1.113185e+01   2.330769e+01   6.096172e+03   2.174318e+04   1.456924e+05  -3.025137e+10  -7.929791e+09   2.449314e+09   1.474320e+05   7.621195e-26   0.000000e+00   0.000000e+00
     1608000   1.607999e-05   3.955698e-01   1.113356e+01   2.331935e+01   3.731910e+03   2.093433e+04   1.458904e+05  -2.874877e+10  -1.225015e+10   2.493284e+09   1.474320e+05   7.611501e-26   0.000000e+00   0.000000e+00
     1616000   1.615999e-05   3.957784e-01   1.113519e+01   2.333103e+01   1.512867e+03   1.979086e+04   1.460898e+05  -2.662862e+10  -1.628018e+10   2.481310e+09   1.474320e+05   7.592216e-26   0.000000e+00   0.000000e+00
     1624000   1.623999e-05   3.958170e-01   1.113671e+01   2.334272e+01  -5.135635e+02   1.833955e+04   1.462860e+05  -2.394330e+10  -1.993235e+10   2.414884e+09   1.474320e+05   7.562227e-26   0.000000e+00   0.000000e+00
     1632000   1.631999e-05   3.957025e-01   1.113811e+01   2.335444e+01  -2.304670e+03   1.661382e+04   1.464748e+05  -2.075726e+10  -2.312850e+10   2.296804e+09   1.474320e+05   7.520831e-26   0.000000e+00   0.000000e+00
     1640000   1.639999e-05   3.954555e-01   1.113937e+01   2.336616e+01  -3.823328e+03   1.465293e+04   1.466522e+05  -1.714539e+10  -2.580143e+10   2.131053e+09   1.474320e+05   7.467803e-26   0.000000e+00   0.000000e+00
     1648000   1.647999e-05   3.950989e-01   1.114045e+01   2.337790e+01  -5.038762e+03   1.250100e+04   1.468146e+05  -1.319125e+10  -2.789629e+10   1.922652e+09   1.474320e+05   7.403437e-26   0.000000e+00   0.000000e+00
     1656000   1.655999e-05   3.946580e-01   1.114136e+01   2.338965e+01  -5.927163e+03   1.020603e+04   1.469589e+05  -8.985088e+09  -2.937164e+10   1.677486e+09   1.474320e+05   7.328549e-26   0.000000e+00   0.000000e+00
     1664000   1.663999e-05   3.941597e-01   1.114208e+01   2.340141e+01  -6.473312e+03   7.823284e+03   1.470819e+05  -4.748943e+09  -2.973258e+10   1.372528e+09   1.474320e+05   7.035971e-26   0.000000e+00   0.000000e+00
     1672000   1.671999e-05   3.936313e-01   1.114261e+01   2.341318e+01  -6.679708e+03   5.432567e+03   1.471804e+05  -4.091915e+08  -2.992764e+10   1.086147e+09   1.474320e+05   6.947279e-26   0.000000e+00   0.000000e+00
     1680000   1.679999e-05   3.931002e-01   1.114295e+01   2.342496e+01  -6.539635e+03   3.052013e+03   1.472553e+05   3.897051e+09  -2.948005e+10   7.841323e+08   1.474320e+05   6.853291e-26   0.000000e+00   0.000000e+00
     1688000   1.687999e-05   3.925940e-01   1.114310e+01   2.343674e+01  -6.059517e+03   7.324998e+02   1.473056e+05   8.076709e+09  -2.840542e+10   4.735505e+08   1.474320e+05   6.756097e-26   0.000000e+00   0.000000e+00
     1696000   1.695999e-05   3.921394e-01   1.114307e+01   2.344853e+01  -5.253081e+03  -1.476884e+03   1.473310e+05   1.204057e+10  -2.673280e+10   1.613878e+08   1.474320e+05   6.657880e-26   0.000000e+00   0.000000e+00
     1704000   1.703999e-05   3.917617e-01   1.114287e+01   2.346032e+01  -4.140975e+03  -3.529883e+03   1.473316e+05   1.570515e+10  -2.450382e+10  -1.456070e+08   1.474320e+05   6.560807e-26   0.000000e+00   0.000000e+00
     1712000   1.711999e-05   3.914843e-01   1.114251e+01   2.347210e+01  -2.750237e+03  -5.384042e+03   1.473080e+05   1.899446e+10  -2.177161e+10  -4.410598e+08   1.474320e+05   6.466916e-26   0.000000e+00   0.000000e+00
     1720000   1.719999e-05   3.913282e-01   1.114202e+01   2.348388e+01  -1.113633e+03  -7.001573e+03   1.472615e+05   2.184152e+10  -1.859949e+10  -7.190885e+08   1.474320e+05   6.378024e-26   0.000000e+00   0.000000e+00
     1728000   1.727999e-05   3.913116e-01   1.114140e+01   2.349566e+01   7.311171e+02  -8.350109e+03   1.471936e+05   2.418964e+10  -1.505942e+10  -9.743981e+08   1.474320e+05   6.295652e-26   0.000000e+00   0.000000e+00
     1736000   1.735999e-05   3.914496e-01   1.114069e+01   2.350743e+01   2.740144e+03  -9.393921e+03   1.471069e+05   2.595223e+10  -1.104415e+10  -1.188610e+09   1.474320e+05   6.171960e-26   0.000000e+00   0.000000e+00
     1744000   1.743999e-05   3.917533e-01   1.113991e+01   2.351920e+01   4.869219e+03  -1.011707e+04   1.470039e+05   2.717575e+10  -7.007548e+09  -1.382363e+09   1.474320e+05   6.114911e-26   0.000000e+00   0.000000e+00
     1752000   1.751999e-05   3.922306e-01   1.113908e+01   2.353095e+01   7.072236e+03  -1.051186e+04   1.468867e+05   2.779831e+10  -2.849803e+09  -1.542312e+09   1.474320e+05   6.066181e-26   0.000000e+00   0.000000e+00
     1760000   1.759999e-05   3.928855e-01   1.113823e+01   2.354270e+01   9.300684e+03  -1.057216e+04   1.467581e+05   2.781125e+10   1.339536e+09  -1.665967e+09   1.474320e+05   6.025823e-26   0.000000e+00   0.000000e+00
     1768000   1.767999e-05   3.937181e-01   1.113740e+01   2.355444e+01   1.150588e+04  -1.029903e+04   1.466211e+05   2.721898e+10   5.471201e+09  -1.751608e+09   1.474320e+05   5.993601e-26   0.000000e+00   0.000000e+00
     1776000   1.775999e-05   3.947246e-01   1.113659e+01   2.356616e+01   1.364002e+04  -9.700588e+03   1.464789e+05   2.603872e+10   9.458109e+09  -1.798292e+09   1.474320e+05   5.969043e-26   0.000000e+00   0.000000e+00
     1784000   1.783999e-05   3.958974e-01   1.113585e+01   2.357787e+01   1.565716e+04  -8.791773e+03   1.463344e+05   2.429991e+10   1.321718e+10  -1.805846e+09   1.474321e+05   5.951509e-26   0.000000e+00   0.000000e+00
     1792000   1.791999e-05   3.972254e-01   1.113520e+01   2.358957e+01   1.751418e+04  -7.593949e+03   1.461910e+05   2.204349e+10   1.667102e+10  -1.774849e+09   1.474321e+05   5.940260e-26   0.000000e+00   0.000000e+00
     1800000   1.799999e-05   3.986943e-01   1.113464e+01   2.360126e+01   1.916973e+04  -6.132941e+03   1.460518e+05   1.909707e+10   1.991494e+10  -1.670235e+09   1.474321e+05   5.917833e-26   0.000000e+00   0.000000e+00
     1808000   1.807999e-05   4.002857e-01   1.113422e+01   2.361294e+01   2.057416e+04  -4.432036e+03   1.459221e+05   1.594766e+10   2.258103e+10  -1.562629e+09   1.474321e+05   5.937811e-26   0.000000e+00   0.000000e+00
     1816000   1.815999e-05   4.019791e-01   1.113394e+01   2.362461e+01   2.171176e+04  -2.536002e+03   1.458025e+05   1.244250e+10   2.473380e+10  -1.422582e+09   1.474321e+05   5.952745e-26   0.000000e+00   0.000000e+00
     1824000   1.823999e-05   4.037518e-01   1.113382e+01   2.363627e+01   2.255790e+04  -4.888362e+02   1.456953e+05   8.673853e+09   2.635341e+10  -1.254493e+09   1.474321e+05   5.973742e-26   0.000000e+00   0.000000e+00
     1832000   1.831999e-05   4.055801e-01   1.113387e+01   2.364792e+01   2.309464e+04   1.665529e+03   1.456025e+05   4.721316e+09   2.740984e+10  -1.062353e+09   1.474321e+05   6.000128e-26   0.000000e+00   0.000000e+00
     1840000   1.839999e-05   4.074384e-01   1.113409e+01   2.365957e+01   2.331057e+04   3.881233e+03   1.455258e+05   6.675621e+08   2.788495e+10  -8.505806e+08   1.474321e+05   6.031268e-26   0.000000e+00   0.000000e+00
     1848000   1.847999e-05   4.093011e-01   1.113449e+01   2.367121e+01   2.320095e+04   6.111449e+03   1.454668e+05  -3.403403e+09   2.777271e+10  -6.239328e+08   1.474321e+05   6.066556e-26   0.000000e+00   0.000000e+00
     1856000   1.855999e-05   4.111419e-01   1.113506e+01   2.368284e+01   2.276775e+04   8.309351e+03   1.454263e+05  -7.407971e+09   2.707917e+10  -3.874098e+08   1.474321e+05   6.105386e-26   0.000000e+00   0.000000e+00
     1864000   1.863999e-05   4.129355e-01   1.113581e+01   2.369448e+01   2.201958e+04   1.042907e+04   1.454049e+05  -1.126462e+10   2.582219e+10  -1.461534e+08   1.474321e+05   6.147123e-26   0.000000e+00   0.000000e+00
     1872000   1.871999e-05   4.146571e-01   1.113673e+01   2.370611e+01   2.097218e+04   1.242246e+04   1.454031e+05  -1.486758e+10   2.392429e+10   1.005139e+08   1.474321e+05   6.145022e-26   0.000000e+00   0.000000e+00
     1880000   1.879999e-05   4.162837e-01   1.113780e+01   2.371774e+01   1.964880e+04   1.424715e+04   1.454206e+05  -1.816028e+10   2.161608e+10   3.360458e+08   1.474321e+05   6.173962e-26   0.000000e+00   0.000000e+00
     1888000   1.887999e-05   4.177942e-01   1.113900e+01   2.372938e+01   1.807635e+04   1.586939e+04   1.454566e+05  -2.108395e+10   1.887237e+10   5.612400e+08   1.474321e+05   6.203788e-26   0.000000e+00   0.000000e+00
     1896000   1.895999e-05   4.191701e-01   1.114033e+01   2.374101e+01   1.628667e+04   1.725665e+04   1.455100e+05  -2.358276e+10   1.575223e+10   7.715068e+08   1.474321e+05   6.233686e-26   0.000000e+00   0.000000e+00
     1904000   1.903999e-05   4.203953e-01   1.114176e+01   2.375266e+01   1.431567e+04   1.838143e+04   1.455795e+05  -2.561002e+10   1.232162e+10   9.626609e+08   1.474321e+05   6.262709e-26   0.000000e+00   0.000000e+00
     1912000   1.911999e-05   4.214568e-01   1.114326e+01   2.376431e+01   1.220262e+04   1.922170e+04   1.456635e+05  -2.712899e+10   8.651955e+09   1.131015e+09   1.474321e+05   6.289783e-26   0.000000e+00   0.000000e+00
     1920000   1.919999e-05   4.223450e-01   1.114482e+01   2.377596e+01   9.989284e+03   1.976134e+04   1.457598e+05  -2.811350e+10   4.818617e+09   1.273462e+09   1.474321e+05   6.313731e-26   0.000000e+00   0.000000e+00
     1928000   1.927999e-05   4.230536e-01   1.114642e+01   2.378763e+01   7.719119e+03   1.999035e+04   1.458665e+05  -2.854827e+10   8.994324e+08   1.387541e+09   1.474321e+05   6.333311e-26   0.000000e+00   0.000000e+00
     1936000   1.935999e-05   4.235797e-01   1.114801e+01   2.379930e+01   5.436342e+03   1.990502e+04   1.459810e+05  -2.842907e+10  -3.026910e+09   1.471486e+09   1.474321e+05   6.347264e-26   0.000000e+00   0.000000e+00
     1944000   1.943999e-05   4.239239e-01   1.114959e+01   2.381099e+01   3.175291e+03   1.951846e+04   1.460999e+05  -2.790654e+10  -6.748824e+09   1.508190e+09   1.474321e+05   6.401921e-26   0.000000e+00   0.000000e+00
     1952000   1.951999e-05   4.240897e-01   1.115113e+01   2.382268e+01   9.861579e+02   1.882813e+04   1.462216e+05  -2.673438e+10  -1.047961e+10   1.529761e+09   1.474321e+05   6.404194e-26   0.000000e+00   0.000000e+00
     1960000   1.959999e-05   4.240847e-01   1.115260e+01   2.383438e+01  -1.088573e+03   1.784732e+04   1.463438e+05  -2.505169e+10  -1.399908e+10   1.520964e+09   1.474321e+05   6.396335e-26   0.000000e+00   0.000000e+00
     1968000   1.967999e-05   4.239197e-01   1.115398e+01   2.384609e+01  -3.009422e+03   1.659574e+04   1.464642e+05  -2.289414e+10  -1.723779e+10   1.482848e+09   1.474321e+05   6.377805e-26   0.000000e+00   0.000000e+00
     1976000   1.975999e-05   4.236083e-01   1.115525e+01   2.385782e+01  -4.740140e+03   1.509843e+04   1.465803e+05  -2.030669e+10  -2.013228e+10   1.417090e+09   1.474321e+05   6.348347e-26   0.000000e+00   0.000000e+00
     1984000   1.983999e-05   4.231672e-01   1.115639e+01   2.386955e+01  -6.248415e+03   1.338524e+04   1.466902e+05  -1.734265e+10  -2.262621e+10   1.325932e+09   1.474321e+05   6.308018e-26   0.000000e+00   0.000000e+00
     1992000   1.991999e-05   4.226152e-01   1.115738e+01   2.388129e+01  -7.506500e+03   1.149019e+04   1.467919e+05  -1.406259e+10  -2.467152e+10   1.212107e+09   1.474321e+05   6.257201e-26   0.000000e+00   0.000000e+00
     2000000   1.999999e-05   4.219734e-01   1.115822e+01   2.389303e+01  -8.491741e+03   9.450786e+03   1.468836e+05  -1.053311e+10  -2.622930e+10   1.078752e+09   1.474321e+05   6.196611e-26   0.000000e+00   0.000000e+00
     2008000   2.007999e-05   4.212643e-01   1.115889e+01   2.390479e+01  -9.186155e+03   7.307008e+03   1.469641e+05  -6.800094e+09  -2.728371e+10   9.315437e+08   1.474321e+05   6.130189e-26   0.000000e+00   0.000000e+00
     2016000   2.015999e-05   4.205117e-01   1.115939e+01   2.391655e+01  -9.578277e+03   5.099405e+03   1.470322e+05  -2.992388e+09  -2.781647e+10   7.698541e+08   1.474321e+05   6.066630e-26   0.000000e+00   0.000000e+00
     2024000   2.023999e-05   4.197399e-01   1.115971e+01   2.392831e+01  -9.664141e+03   2.870797e+03   1.470870e+05   8.437182e+08  -2.780857e+10   5.982467e+08   1.474321e+05   5.997571e-26   0.000000e+00   0.000000e+00
     2032000   2.031999e-05   4.189736e-01   1.115985e+01   2.394008e+01  -9.444504e+03   6.643727e+02   1.471278e+05   4.632643e+09  -2.726341e+10   4.205441e+08   1.474321e+05   5.924346e-26   0.000000e+00   0.000000e+00
     2040000   2.039999e-05   4.182368e-01   1.115982e+01   2.395185e+01  -8.926118e+03  -1.477376e+03   1.471542e+05   8.300298e+09  -2.619494e+10   2.405449e+08   1.474321e+05   5.848414e-26   0.000000e+00   0.000000e+00
     2048000   2.047999e-05   4.175530e-01   1.115962e+01   2.396362e+01  -8.121555e+03  -3.513484e+03   1.471663e+05   1.177554e+10  -2.462729e+10   6.194066e+07   1.474321e+05   5.771297e-26   0.000000e+00   0.000000e+00
     2056000   2.055999e-05   4.169445e-01   1.115926e+01   2.397540e+01  -7.048915e+03  -5.405305e+03   1.471643e+05   1.499156e+10  -2.259420e+10  -1.117591e+08   1.474321e+05   5.694518e-26   0.000000e+00   0.000000e+00
     2064000   2.063999e-05   4.164317e-01   1.115876e+01   2.398717e+01  -5.731427e+03  -7.117251e+03   1.471487e+05   1.788713e+10  -2.013827e+10  -2.772916e+08   1.474321e+05   5.619541e-26   0.000000e+00   0.000000e+00
     2072000   2.071999e-05   4.160333e-01   1.115813e+01   2.399894e+01  -4.196951e+03  -8.617468e+03   1.471202e+05   2.040782e+10  -1.731005e+10  -4.316948e+08   1.474321e+05   5.547721e-26   0.000000e+00   0.000000e+00
     2080000   2.079999e-05   4.157652e-01   1.115738e+01   2.401071e+01  -2.476111e+03  -9.868790e+03   1.470806e+05   2.252552e+10  -1.402300e+10  -5.616468e+08   1.474321e+05   5.455214e-26   0.000000e+00   0.000000e+00
     2088000   2.087999e-05   4.156411e-01   1.115655e+01   2.402247e+01  -6.053236e+02  -1.085513e+04   1.470307e+05   2.416396e+10  -1.059871e+10  -6.829621e+08   1.474321e+05   5.395865e-26   0.000000e+00   0.000000e+00
     2096000   2.095999e-05   4.156713e-01   1.115565e+01   2.403423e+01   1.376971e+03  -1.155951e+04   1.469718e+05   2.530901e+10  -6.985483e+09  -7.864883e+08   1.474321e+05   5.343706e-26   0.000000e+00   0.000000e+00
     2104000   2.103999e-05   4.158633e-01   1.115471e+01   2.404599e+01   3.430414e+03  -1.196963e+04   1.469054e+05   2.594014e+10  -3.254506e+09  -8.708586e+08   1.474321e+05   5.299401e-26   0.000000e+00   0.000000e+00
     2112000   2.111999e-05   4.162210e-01   1.115375e+01   2.405774e+01   5.513407e+03  -1.207900e+04   1.468330e+05   2.604698e+10   5.211107e+08  -9.351187e+08   1.474321e+05   5.263384e-26   0.000000e+00   0.000000e+00
     2120000   2.119999e-05   4.167451e-01   1.115279e+01   2.406948e+01   7.583936e+03  -1.188699e+04   1.467563e+05   2.562942e+10   4.267778e+09  -9.787250e+08   1.474321e+05   5.235873e-26   0.000000e+00   0.000000e+00
     2128000   2.127999e-05   4.174330e-01   1.115185e+01   2.408122e+01   9.600385e+03  -1.139883e+04   1.466770e+05   2.469759e+10   7.912877e+09  -1.001535e+09   1.474321e+05   5.216888e-26   0.000000e+00   0.000000e+00
     2136000   2.135999e-05   4.182787e-01   1.115097e+01   2.409295e+01   1.152235e+04  -1.062548e+04   1.465966e+05   2.327155e+10   1.138617e+10  -1.003794e+09   1.474321e+05   5.206275e-26   0.000000e+00   0.000000e+00
     2144000   2.143999e-05   4.192730e-01   1.115016e+01   2.410468e+01   1.331001e+04  -9.585776e+03   1.465169e+05   2.133939e+10   1.453714e+10  -9.874021e+08   1.474321e+05   5.171078e-26   0.000000e+00   0.000000e+00
     2152000   2.151999e-05   4.204037e-01   1.114944e+01   2.411639e+01   1.492785e+04  -8.304896e+03   1.464392e+05   1.904093e+10   1.742985e+10  -9.524799e+08   1.474321e+05   5.167908e-26   0.000000e+00   0.000000e+00
     2160000   2.159999e-05   4.216561e-01   1.114884e+01   2.412811e+01   1.634665e+04  -6.806402e+03   1.463649e+05   1.637198e+10   1.996921e+10  -8.998183e+08   1.474321e+05   5.170671e-26   0.000000e+00   0.000000e+00
     2168000   2.167999e-05   4.230131e-01   1.114836e+01   2.413981e+01   1.753888e+04  -5.120461e+03   1.462956e+05   1.338594e+10   2.210899e+10  -8.309164e+08   1.474321e+05   5.178885e-26   0.000000e+00   0.000000e+00
     2176000   2.175999e-05   4.244557e-01   1.114802e+01   2.415151e+01   1.848148e+04  -3.280625e+03   1.462324e+05   1.014179e+10   2.381103e+10  -7.475334e+08   1.474322e+05   5.192040e-26   0.000000e+00   0.000000e+00
     2184000   2.183999e-05   4.259630e-01   1.114784e+01   2.416321e+01   1.915633e+04  -1.323149e+03   1.461763e+05   6.702868e+09   2.504587e+10  -6.516529e+08   1.474322e+05   5.209612e-26   0.000000e+00   0.000000e+00
     2192000   2.191999e-05   4.275132e-01   1.114781e+01   2.417490e+01   1.955048e+04   7.137163e+02   1.461284e+05   3.135606e+09   2.579322e+10  -5.454444e+08   1.474322e+05   5.231072e-26   0.000000e+00   0.000000e+00
     2200000   2.199999e-05   4.290834e-01   1.114795e+01   2.418659e+01   1.965639e+04   2.790473e+03   1.460893e+05  -4.917622e+08   2.604219e+10  -4.312224e+08   1.474322e+05   5.255886e-26   0.000000e+00   0.000000e+00
     2208000   2.207999e-05   4.306505e-01   1.114826e+01   2.419828e+01   1.947200e+04   4.867132e+03   1.460596e+05  -4.110523e+09   2.579142e+10  -3.114026e+08   1.474322e+05   5.283511e-26   0.000000e+00   0.000000e+00
     2216000   2.215999e-05   4.321910e-01   1.114873e+01   2.420996e+01   1.899086e+04   6.920337e+03   1.460401e+05  -7.825853e+09   2.529027e+10  -1.807072e+08   1.474322e+05   5.428215e-26   0.000000e+00   0.000000e+00
     2224000   2.223999e-05   4.336815e-01   1.114936e+01   2.422164e+01   1.822481e+04   8.897754e+03   1.460306e+05  -1.129658e+10   2.406572e+10  -5.646549e+07   1.474322e+05   5.473912e-26   0.000000e+00   0.000000e+00
     2232000   2.231999e-05   4.350997e-01   1.115015e+01   2.423333e+01   1.718878e+04   1.075846e+04   1.460310e+05  -1.456477e+10   2.237735e+10   6.582162e+07   1.474322e+05   5.521217e-26   0.000000e+00   0.000000e+00
     2240000   2.239999e-05   4.364250e-01   1.115108e+01   2.424501e+01   1.590145e+04   1.246661e+04   1.460410e+05  -1.756913e+10   2.025799e+10   1.837388e+08   1.474322e+05   5.569326e-26   0.000000e+00   0.000000e+00
     2248000   2.247999e-05   4.376379e-01   1.115214e+01   2.425669e+01   1.438623e+04   1.398931e+04   1.460602e+05  -2.025346e+10   1.774849e+10   2.950089e+08   1.474322e+05   5.617379e-26   0.000000e+00   0.000000e+00
     2256000   2.255999e-05   4.387214e-01   1.115331e+01   2.426838e+01   1.267075e+04   1.529721e+04   1.460880e+05  -2.256772e+10   1.489692e+10   3.975405e+08   1.474322e+05   5.664465e-26   0.000000e+00   0.000000e+00
     2264000   2.263999e-05   4.396607e-01   1.115458e+01   2.428007e+01   1.078640e+04   1.636511e+04   1.461235e+05  -2.446891e+10   1.175765e+10   4.894728e+08   1.474322e+05   5.709629e-26   0.000000e+00   0.000000e+00
     2272000   2.271999e-05   4.404436e-01   1.115593e+01   2.429176e+01   8.767669e+03   1.717232e+04   1.461660e+05  -2.592187e+10   8.390365e+09   5.692146e+08   1.474322e+05   5.751888e-26   0.000000e+00   0.000000e+00
     2280000   2.279999e-05   4.410610e-01   1.115732e+01   2.430345e+01   6.654901e+03   1.770385e+04   1.462140e+05  -2.675443e+10   4.893706e+09   6.252345e+08   1.474322e+05   5.732317e-26   0.000000e+00   0.000000e+00
     2288000   2.287999e-05   4.415071e-01   1.115875e+01   2.431515e+01   4.492711e+03   1.795216e+04   1.462661e+05  -2.721844e+10   1.305217e+09   6.758951e+08   1.474322e+05   5.754510e-26   0.000000e+00   0.000000e+00
     2296000   2.295999e-05   4.417793e-01   1.116019e+01   2.432686e+01   2.313089e+03   1.791206e+04   1.463218e+05  -2.718999e+10  -2.305254e+09   7.120757e+08   1.474322e+05   5.770876e-26   0.000000e+00   0.000000e+00
     2304000   2.303999e-05   4.418778e-01   1.116161e+01   2.433856e+01   1.553830e+02   1.758449e+04   1.463797e+05  -2.667180e+10  -5.870517e+09   7.335844e+08   1.474322e+05   5.780705e-26   0.000000e+00   0.000000e+00
     2312000   2.311999e-05   4.418058e-01   1.116299e+01   2.435028e+01  -1.941637e+03   1.697571e+04   1.464387e+05  -2.567561e+10  -9.324602e+09   7.405588e+08   1.474322e+05   5.783397e-26   0.000000e+00   0.000000e+00
     2320000   2.319999e-05   4.415698e-01   1.116432e+01   2.436199e+01  -3.940495e+03   1.609718e+04   1.464978e+05  -2.422192e+10  -1.260395e+10   7.334529e+08   1.474322e+05   5.778484e-26   0.000000e+00   0.000000e+00
     2328000   2.327999e-05   4.411789e-01   1.116556e+01   2.437372e+01  -5.805689e+03   1.496531e+04   1.465557e+05  -2.233956e+10  -1.564857e+10   7.130162e+08   1.474322e+05   5.765652e-26   0.000000e+00   0.000000e+00
     2336000   2.335999e-05   4.406453e-01   1.116671e+01   2.438544e+01  -7.504341e+03   1.360112e+04   1.466115e+05  -2.006510e+10  -1.840310e+10   6.802656e+08   1.474322e+05   5.744766e-26   0.000000e+00   0.000000e+00
     2344000   2.343999e-05   4.399835e-01   1.116773e+01   2.439717e+01  -9.006783e+03   1.202986e+04   1.466643e+05  -1.744217e+10  -2.081779e+10   6.364505e+08   1.474322e+05   5.715877e-26   0.000000e+00   0.000000e+00
     2352000   2.351999e-05   4.392098e-01   1.116863e+01   2.440891e+01  -1.029725e+04   1.027659e+04   1.467127e+05  -1.468253e+10  -2.293738e+10   5.762005e+08   1.474322e+05   5.746989e-26   0.000000e+00   0.000000e+00
     2360000   2.359999e-05   4.383424e-01   1.116937e+01   2.442065e+01  -1.134575e+04   8.371718e+03   1.467564e+05  -1.149237e+10  -2.461122e+10   5.155209e+08   1.474322e+05   5.716168e-26   0.000000e+00   0.000000e+00
     2368000   2.367999e-05   4.374015e-01   1.116996e+01   2.443239e+01  -1.213069e+04   6.350865e+03   1.467950e+05  -8.103699e+09  -2.583235e+10   4.479826e+08   1.474322e+05   5.678440e-26   0.000000e+00   0.000000e+00
     2376000   2.375999e-05   4.364089e-01   1.117039e+01   2.444413e+01  -1.263871e+04   4.251219e+03   1.468279e+05  -4.580203e+09  -2.657802e+10   3.753263e+08   1.474322e+05   5.634522e-26   0.000000e+00   0.000000e+00
     2384000   2.383999e-05   4.353870e-01   1.117064e+01   2.445588e+01  -1.286166e+04   2.111432e+03   1.468549e+05  -9.880957e+08  -2.683443e+10   2.993276e+08   1.474322e+05   5.585284e-26   0.000000e+00   0.000000e+00
     2392000   2.391999e-05   4.343587e-01   1.117073e+01   2.446763e+01  -1.279674e+04  -2.911285e+01   1.468758e+05   2.605127e+09  -2.659702e+10   2.217518e+08   1.474322e+05   5.531727e-26   0.000000e+00   0.000000e+00
     2400000   2.399999e-05   4.333471e-01   1.117064e+01   2.447938e+01  -1.244658e+04  -2.131037e+03   1.468904e+05   6.131970e+09  -2.587055e+10   1.443117e+08   1.474322e+05   5.474953e-26   0.000000e+00   0.000000e+00
     2408000   2.407999e-05   4.323746e-01   1.117039e+01   2.449113e+01  -1.181913e+04  -4.155714e+03   1.468989e+05   9.526226e+09  -2.466899e+10   6.862862e+07   1.474322e+05   5.416135e-26   0.000000e+00   0.000000e+00
     2416000   2.415999e-05   4.314631e-01   1.116998e+01   2.450289e+01  -1.092921e+04  -6.062184e+03   1.469015e+05   1.263634e+10  -2.282169e+10  -1.615428e+06   1.474322e+05   5.270484e-26   0.000000e+00   0.000000e+00
     2424000   2.423999e-05   4.306323e-01   1.116942e+01   2.451464e+01  -9.800391e+03  -7.807923e+03   1.468988e+05   1.553635e+10  -2.075653e+10  -6.668809e+07   1.474322e+05   5.206277e-26   0.000000e+00   0.000000e+00
     2432000   2.431999e-05   4.299009e-01   1.116873e+01   2.452639e+01  -8.451638e+03  -9.373283e+03   1.468910e+05   1.812638e+10  -1.831944e+10  -1.260056e+08   1.474322e+05   5.144062e-26   0.000000e+00   0.000000e+00
     2440000   2.439999e-05   4.292852e-01   1.116793e+01   2.453814e+01  -6.909676e+03  -1.073032e+04   1.468788e+05   2.035930e+10  -1.555673e+10  -1.786911e+08   1.474322e+05   5.084902e-26   0.000000e+00   0.000000e+00
     2448000   2.447999e-05   4.287997e-01   1.116702e+01   2.454989e+01  -5.204733e+03  -1.185503e+04   1.468626e+05   2.219484e+10  -1.252059e+10  -2.240691e+08   1.474322e+05   5.029769e-26   0.000000e+00   0.000000e+00
     2456000   2.455999e-05   4.284559e-01   1.116604e+01   2.456164e+01  -3.369962e+03  -1.272781e+04   1.468431e+05   2.360026e+10  -9.268107e+09  -2.616689e+08   1.474322e+05   4.979522e-26   0.000000e+00   0.000000e+00
     2464000   2.463999e-05   4.282630e-01   1.116499e+01   2.457338e+01  -1.440812e+03  -1.333375e+04   1.468210e+05   2.455099e+10  -5.860115e+09  -2.912225e+08   1.474322e+05   4.934897e-26   0.000000e+00   0.000000e+00
     2472000   2.471999e-05   4.282269e-01   1.116391e+01   2.458513e+01   5.456427e+02  -1.366294e+04   1.467968e+05   2.503099e+10  -2.360068e+09  -3.126576e+08   1.474322e+05   4.896491e-26   0.000000e+00   0.000000e+00
     2480000   2.479999e-05   4.283508e-01   1.116281e+01   2.459687e+01   2.551395e+03  -1.371060e+04   1.467712e+05   2.503303e+10   1.167173e+09  -3.260874e+08   1.474322e+05   4.864759e-26   0.000000e+00   0.000000e+00
     2488000   2.487999e-05   4.286348e-01   1.116172e+01   2.460861e+01   4.542108e+03  -1.347476e+04   1.467449e+05   2.462533e+10   4.705474e+09  -3.300933e+08   1.474322e+05   4.868912e-26   0.000000e+00   0.000000e+00
     2496000   2.495999e-05   4.290760e-01   1.116067e+01   2.462035e+01   6.477458e+03  -1.296096e+04   1.467185e+05   2.368107e+10   8.117365e+09  -3.283705e+08   1.474322e+05   4.854469e-26   0.000000e+00   0.000000e+00
     2504000   2.503999e-05   4.296686e-01   1.115966e+01   2.463209e+01   8.318947e+03  -1.218025e+04   1.466925e+05   2.228253e+10   1.136811e+10  -3.196792e+08   1.474322e+05   4.847147e-26   0.000000e+00   0.000000e+00
     2512000   2.511999e-05   4.304036e-01   1.115872e+01   2.464382e+01   1.003122e+04  -1.114794e+04   1.466675e+05   2.045587e+10   1.439756e+10  -3.046895e+08   1.474322e+05   4.846975e-26   0.000000e+00   0.000000e+00
     2520000   2.519999e-05   4.312693e-01   1.115788e+01   2.465555e+01   1.158135e+04  -9.884008e+03   1.466439e+05   1.823515e+10   1.714974e+10  -2.841799e+08   1.474322e+05   4.853863e-26   0.000000e+00   0.000000e+00
     2528000   2.527999e-05   4.322515e-01   1.115715e+01   2.466729e+01   1.293941e+04  -8.412709e+03   1.466222e+05   1.566167e+10   1.957384e+10  -2.590160e+08   1.474322e+05   4.867614e-26   0.000000e+00   0.000000e+00
     2536000   2.535999e-05   4.333338e-01   1.115654e+01   2.467901e+01   1.407905e+04  -6.762117e+03   1.466026e+05   1.278323e+10   2.162520e+10  -2.301277e+08   1.474322e+05   4.887927e-26   0.000000e+00   0.000000e+00
     2544000   2.543999e-05   4.344977e-01   1.115607e+01   2.469074e+01   1.497798e+04  -4.963612e+03   1.465854e+05   9.653188e+09   2.326606e+10  -1.984868e+08   1.474322e+05   4.914412e-26   0.000000e+00   0.000000e+00
     2552000   2.551999e-05   4.357234e-01   1.115575e+01   2.470247e+01   1.561786e+04  -3.052898e+03   1.465709e+05   6.302826e+09   2.436833e+10  -1.639907e+08   1.474322e+05   4.906941e-26   0.000000e+00   0.000000e+00
     2560000   2.559999e-05   4.369893e-01   1.115558e+01   2.471419e+01   1.598596e+04  -1.071631e+03   1.465591e+05   2.884530e+09   2.508583e+10  -1.311610e+08   1.474322e+05   4.938448e-26   0.000000e+00   0.000000e+00
     2568000   2.567999e-05   4.382737e-01   1.115558e+01   2.472592e+01   1.607770e+04   9.483300e+02   1.465499e+05  -5.955042e+08   2.533452e+10  -9.856521e+07   1.474322e+05   4.973808e-26   0.000000e+00   0.000000e+00
     2576000   2.575999e-05   4.395543e-01   1.115573e+01   2.473764e+01   1.589070e+04   2.969300e+03   1.465433e+05  -4.073499e+09   2.511132e+10  -6.705066e+07   1.474322e+05   5.012332e-26   0.000000e+00   0.000000e+00
     2584000   2.583999e-05   4.408089e-01   1.115605e+01   2.474936e+01   1.542765e+04   4.953692e+03   1.465391e+05  -7.486017e+09   2.442175e+10  -3.739371e+07   1.474322e+05   5.053285e-26   0.000000e+00   0.000000e+00
     2592000   2.591999e-05   4.420156e-01   1.115652e+01   2.476109e+01   1.469630e+04   6.864700e+03   1.465372e+05  -1.077110e+10   2.327980e+10  -1.028325e+07   1.474322e+05   5.095896e-26   0.000000e+00   0.000000e+00
     2600000   2.599999e-05   4.431535e-01   1.115715e+01   2.477281e+01   1.370923e+04   8.666965e+03   1.465374e+05  -1.386939e+10   2.170756e+10   1.369365e+07   1.474323e+05   5.139367e-26   0.000000e+00   0.000000e+00
     2608000   2.607999e-05   4.442027e-01   1.115791e+01   2.478453e+01   1.248364e+04   1.032721e+04   1.465393e+05  -1.672516e+10   1.973485e+10   3.406383e+07   1.474323e+05   5.182878e-26   0.000000e+00   0.000000e+00
     2616000   2.615999e-05   4.451451e-01   1.115879e+01   2.479626e+01   1.104101e+04   1.181482e+04   1.465427e+05  -1.928730e+10   1.739857e+10   5.047756e+07   1.474323e+05   5.225601e-26   0.000000e+00   0.000000e+00
     2624000   2.623999e-05   4.459639e-01   1.115979e+01   2.480798e+01   9.396494e+03   1.311381e+04   1.465469e+05  -2.171851e+10   1.494147e+10   5.558062e+07   1.474323e+05   5.382293e-26   0.000000e+00   0.000000e+00
     2632000   2.631999e-05   4.466440e-01   1.116089e+01   2.481970e+01   7.580224e+03   1.419213e+04   1.465517e+05  -2.362110e+10   1.197372e+10   6.228202e+07   1.474323e+05   5.431752e-26   0.000000e+00   0.000000e+00
     2640000   2.639999e-05   4.471731e-01   1.116206e+01   2.483143e+01   5.628250e+03   1.502338e+04   1.465568e+05  -2.510585e+10   8.773986e+09   6.478109e+07   1.474323e+05   5.477915e-26   0.000000e+00   0.000000e+00
     2648000   2.647999e-05   4.475418e-01   1.116328e+01   2.484315e+01   3.575172e+03   1.559131e+04   1.465619e+05  -2.614475e+10   5.400688e+09   6.328601e+07   1.474323e+05   5.519961e-26   0.000000e+00   0.000000e+00
     2656000   2.655999e-05   4.477434e-01   1.116454e+01   2.485488e+01   1.457510e+03   1.588448e+04   1.465668e+05  -2.671789e+10   1.915598e+09   5.813392e+07   1.474323e+05   5.557130e-26   0.000000e+00   0.000000e+00
     2664000   2.663999e-05   4.477743e-01   1.116582e+01   2.486660e+01  -6.869602e+02   1.589649e+04   1.465712e+05  -2.681384e+10  -1.617285e+09   4.978016e+07   1.474323e+05   5.588744e-26   0.000000e+00   0.000000e+00
     2672000   2.671999e-05   4.476338e-01   1.116708e+01   2.487833e+01  -2.819898e+03   1.562614e+04   1.465747e+05  -2.642993e+10  -5.132890e+09   3.878406e+07   1.474323e+05   5.614219e-26   0.000000e+00   0.000000e+00
     2680000   2.679999e-05   4.473244e-01   1.116831e+01   2.489006e+01  -4.903103e+03   1.507739e+04   1.465773e+05  -2.557231e+10  -8.566263e+09   2.579181e+07   1.474323e+05   5.633081e-26   0.000000e+00   0.000000e+00
     2688000   2.687999e-05   4.468516e-01   1.116949e+01   2.490178e+01  -6.897827e+03   1.426177e+04   1.465786e+05  -2.414333e+10  -1.165478e+10  -2.124314e+06   1.474323e+05   5.566551e-26   0.000000e+00   0.000000e+00
     2696000   2.695999e-05   4.462243e-01   1.117059e+01   2.491351e+01  -8.763025e+03   1.320615e+04   1.465779e+05  -2.241836e+10  -1.469627e+10  -1.613016e+07   1.474323e+05   5.565231e-26   0.000000e+00   0.000000e+00
     2704000   2.703999e-05   4.454537e-01   1.117159e+01   2.492523e+01  -1.047424e+04   1.191732e+04   1.465761e+05  -2.029968e+10  -1.747645e+10  -2.963764e+07   1.474323e+05   5.557026e-26   0.000000e+00   0.000000e+00
     2712000   2.711999e-05   4.445533e-01   1.117249e+01   2.493696e+01  -1.200148e+04   1.041822e+04   1.465732e+05  -1.782617e+10  -1.994478e+10  -4.191944e+07   1.474323e+05   5.542035e-26   0.000000e+00   0.000000e+00
     2720000   2.719999e-05   4.435390e-01   1.117325e+01   2.494869e+01  -1.331814e+04   8.735645e+03   1.465694e+05  -1.504319e+10  -2.205641e+10  -5.228394e+07   1.474323e+05   5.520484e-26   0.000000e+00   0.000000e+00
     2728000   2.727999e-05   4.424286e-01   1.117388e+01   2.496041e+01  -1.440147e+04   6.899713e+03   1.465649e+05  -1.200170e+10  -2.377300e+10  -6.009654e+07   1.474323e+05   5.492715e-26   0.000000e+00   0.000000e+00
     2736000   2.735999e-05   4.412415e-01   1.117436e+01   2.497214e+01  -1.523297e+04   4.943321e+03   1.465599e+05  -8.757359e+09  -2.506342e+10  -6.479953e+07   1.474323e+05   5.459184e-26   0.000000e+00   0.000000e+00
     2744000   2.743999e-05   4.399985e-01   1.117467e+01   2.498386e+01  -1.579878e+04   2.901550e+03   1.465546e+05  -5.369528e+09  -2.590432e+10  -6.592995e+07   1.474323e+05   5.420454e-26   0.000000e+00   0.000000e+00
     2752000   2.751999e-05   4.387211e-01   1.117482e+01   2.499559e+01  -1.608989e+04   8.110225e+02   1.465494e+05  -1.900167e+09  -2.628056e+10  -6.313506e+07   1.474323e+05   5.377182e-26   0.000000e+00   0.000000e+00
     2760000   2.759999e-05   4.374315e-01   1.117480e+01   2.500731e+01  -1.610251e+04  -1.293365e+03   1.465446e+05   1.593470e+09  -2.624322e+10  -5.647623e+07   1.474323e+05   5.353686e-26   0.000000e+00   0.000000e+00
     2768000   2.767999e-05   4.361521e-01   1.117461e+01   2.501903e+01  -1.583534e+04  -3.373890e+03   1.465406e+05   5.073287e+09  -2.569091e+10  -4.322500e+07   1.474323e+05   5.311197e-26   0.000000e+00   0.000000e+00
     2776000   2.775999e-05   4.349052e-01   1.117426e+01   2.503076e+01  -1.529353e+04  -5.391407e+03   1.465378e+05   8.448980e+09  -2.467031e+10  -2.583752e+07   1.474323e+05   5.266643e-26   0.000000e+00   0.000000e+00
     2784000   2.783999e-05   4.337122e-01   1.117375e+01   2.504248e+01  -1.448793e+04  -7.309107e+03   1.465365e+05   1.165755e+10  -2.319926e+10  -4.540564e+06   1.474323e+05   5.220900e-26   0.000000e+00   0.000000e+00
     2792000   2.791999e-05   4.325937e-01   1.117309e+01   2.505420e+01  -1.343435e+04  -9.091953e+03   1.465372e+05   1.463891e+10  -2.130406e+10   2.030452e+07   1.474323e+05   5.174872e-26   0.000000e+00   0.000000e+00
     2800000   2.799999e-05   4.315688e-01   1.117230e+01   2.506592e+01  -1.215323e+04  -1.070733e+04   1.465399e+05   1.733703e+10  -1.901906e+10   4.820686e+07   1.474323e+05   5.129475e-26   0.000000e+00   0.000000e+00
     2808000   2.807999e-05   4.306546e-01   1.117139e+01   2.507765e+01  -1.066932e+04  -1.212569e+04   1.465449e+05   1.970104e+10  -1.638599e+10   7.855453e+07   1.474323e+05   5.085627e-26   0.000000e+00   0.000000e+00
     2816000   2.815999e-05   4.298663e-01   1.117037e+01   2.508937e+01  -9.011155e+03  -1.332107e+04   1.465525e+05   2.168619e+10  -1.345324e+10   1.106262e+08   1.474323e+05   5.044228e-26   0.000000e+00   0.000000e+00
     2824000   2.823999e-05   4.292166e-01   1.116926e+01   2.510110e+01  -7.211792e+03  -1.427045e+04   1.465627e+05   2.309654e+10  -1.011976e+10   1.511994e+08   1.474323e+05   4.924877e-26   0.000000e+00   0.000000e+00
     2832000   2.831999e-05   4.287149e-01   1.116809e+01   2.511282e+01  -5.317904e+03  -1.494782e+04   1.465761e+05   2.417497e+10  -6.790406e+09   1.846458e+08   1.474323e+05   4.883753e-26   0.000000e+00   0.000000e+00
     2840000   2.839999e-05   4.283676e-01   1.116688e+01   2.512455e+01  -3.356107e+03  -1.535380e+04   1.465922e+05   2.479175e+10  -3.345464e+09   2.172314e+08   1.474323e+05   4.847332e-26   0.000000e+00   0.000000e+00
     2848000   2.847999e-05   4.281787e-01   1.116564e+01   2.513628e+01  -1.363840e+03  -1.548168e+04   1.466109e+05   2.493561e+10   1.513630e+08   2.479881e+08   1.474323e+05   4.816342e-26   0.000000e+00   0.000000e+00
     2856000   2.855999e-05   4.281492e-01   1.116441e+01   2.514801e+01   6.209039e+02  -1.532989e+04   1.466318e+05   2.460406e+10   3.635447e+09   2.759321e+08   1.474323e+05   4.791428e-26   0.000000e+00   0.000000e+00
     2864000   2.863999e-05   4.282768e-01   1.116320e+01   2.515974e+01   2.560287e+03  -1.490203e+04   1.466549e+05   2.380344e+10   7.042454e+09   3.000880e+08   1.474323e+05   4.773131e-26   0.000000e+00   0.000000e+00
     2872000   2.871999e-05   4.285566e-01   1.116203e+01   2.517147e+01   4.417329e+03  -1.420680e+04   1.466797e+05   2.254879e+10   1.030954e+10   3.195144e+08   1.474323e+05   4.761876e-26   0.000000e+00   0.000000e+00
     2880000   2.879999e-05   4.289805e-01   1.116093e+01   2.518321e+01   6.156590e+03  -1.325781e+04   1.467059e+05   2.086355e+10   1.337654e+10   3.333299e+08   1.474323e+05   4.757956e-26   0.000000e+00   0.000000e+00
     2888000   2.887999e-05   4.295376e-01   1.115992e+01   2.519494e+01   7.744826e+03  -1.207336e+04   1.467329e+05   1.877909e+10   1.618706e+10   3.407394e+08   1.474323e+05   4.761521e-26   0.000000e+00   0.000000e+00
     2896000   2.895999e-05   4.302149e-01   1.115900e+01   2.520668e+01   9.155521e+03  -1.067171e+04   1.467603e+05   1.641772e+10   1.879782e+10   3.427240e+08   1.474323e+05   4.825226e-26   0.000000e+00   0.000000e+00
     2904000   2.903999e-05   4.309970e-01   1.115821e+01   2.521843e+01   1.035988e+04  -9.077685e+03   1.467875e+05   1.364139e+10   2.098983e+10   3.353298e+08   1.474323e+05   4.854317e-26   0.000000e+00   0.000000e+00
     2912000   2.911999e-05   4.318662e-01   1.115756e+01   2.523017e+01   1.133077e+04  -7.323866e+03   1.468137e+05   1.058989e+10   2.278644e+10   3.194493e+08   1.474323e+05   4.890689e-26   0.000000e+00   0.000000e+00
     2920000   2.919999e-05   4.328031e-01   1.115705e+01   2.524192e+01   1.204838e+04  -5.443310e+03   1.468383e+05   7.319250e+09   2.415319e+10   2.948449e+08   1.474323e+05   4.933795e-26   0.000000e+00   0.000000e+00
     2928000   2.927999e-05   4.337868e-01   1.115669e+01   2.525366e+01   1.249758e+04  -3.471522e+03   1.468606e+05   3.889767e+09   2.506354e+10   2.614886e+08   1.474323e+05   4.982933e-26   0.000000e+00   0.000000e+00
     2936000   2.935999e-05   4.347953e-01   1.115649e+01   2.526541e+01   1.266817e+04  -1.445800e+03   1.468799e+05   3.648733e+08   2.549928e+10   2.195745e+08   1.474323e+05   5.037263e-26   0.000000e+00   0.000000e+00
     2944000   2.943999e-05   4.358062e-01   1.115646e+01   2.527717e+01   1.255512e+04   5.954490e+02   1.468956e+05  -3.190000e+09   2.545096e+10   1.695263e+08   1.474323e+05   5.095827e-26   0.000000e+00   0.000000e+00
     2952000   2.951999e-05   4.367966e-01   1.115659e+01   2.528892e+01   1.215870e+04   2.613421e+03   1.469069e+05  -6.708620e+09   2.491808e+10   1.119982e+08   1.474323e+05   5.157574e-26   0.000000e+00   0.000000e+00
     2960000   2.959999e-05   4.377441e-01   1.115687e+01   2.530067e+01   1.148437e+04   4.569320e+03   1.469133e+05  -1.013778e+10   2.384053e+10   5.103493e+07   1.474323e+05   5.197999e-26   0.000000e+00   0.000000e+00
     2968000   2.967999e-05   4.386269e-01   1.115731e+01   2.531242e+01   1.054303e+04   6.420310e+03   1.469147e+05  -1.336178e+10   2.236109e+10  -1.827394e+07   1.474323e+05   5.255371e-26   0.000000e+00   0.000000e+00
     2976000   2.975999e-05   4.394244e-01   1.115790e+01   2.532418e+01   9.352620e+03   8.135744e+03   1.469103e+05  -1.635478e+10   2.045688e+10  -9.165499e+07   1.474323e+05   5.312800e-26   0.000000e+00   0.000000e+00
     2984000   2.983999e-05   4.401173e-01   1.115861e+01   2.533593e+01   7.933881e+03   9.682991e+03   1.468999e+05  -1.906124e+10   1.816292e+10  -1.676982e+08   1.474323e+05   5.369183e-26   0.000000e+00   0.000000e+00
     2992000   2.991999e-05   4.406884e-01   1.115944e+01   2.534768e+01   6.311782e+03   1.103251e+04   1.468834e+05  -2.143092e+10   1.552143e+10  -2.448618e+08   1.474323e+05   5.423463e-26   0.000000e+00   0.000000e+00
     3000000   2.999999e-05   4.411225e-01   1.116037e+01   2.535943e+01   4.515075e+03   1.215842e+04   1.468608e+05  -2.341971e+10   1.258104e+10  -3.215068e+08   1.474323e+05   5.474654e-26   0.000000e+00   0.000000e+00
     3008000   3.007999e-05   4.414070e-01   1.116138e+01   2.537118e+01   2.575764e+03   1.303892e+04   1.468320e+05  -2.499049e+10   9.395910e+09  -3.959339e+08   1.474323e+05   5.521865e-26   0.000000e+00   0.000000e+00
     3016000   3.015999e-05   4.415317e-01   1.116245e+01   2.538292e+01   5.285229e+02   1.365677e+04   1.467975e+05  -2.611379e+10   6.024764e+09  -4.664239e+08   1.474323e+05   5.564317e-26   0.000000e+00   0.000000e+00
     3024000   3.023999e-05   4.414896e-01   1.116356e+01   2.539467e+01  -1.589944e+03   1.399954e+04   1.467576e+05  -2.676836e+10   2.529820e+09  -5.312796e+08   1.474323e+05   5.601350e-26   0.000000e+00   0.000000e+00
     3032000   3.031999e-05   4.412763e-01   1.116468e+01   2.540640e+01  -3.749035e+03   1.406372e+04   1.467121e+05  -2.711962e+10  -9.465560e+08  -6.022199e+08   1.474323e+05   5.705950e-26   0.000000e+00   0.000000e+00
     3040000   3.039999e-05   4.408898e-01   1.116580e+01   2.541814e+01  -5.910219e+03   1.384427e+04   1.466619e+05  -2.682774e+10  -4.533921e+09  -6.530775e+08   1.474324e+05   5.736759e-26   0.000000e+00   0.000000e+00
     3048000   3.047999e-05   4.403318e-01   1.116689e+01   2.542987e+01  -8.028382e+03   1.333999e+04   1.466079e+05  -2.604544e+10  -8.056172e+09  -6.931821e+08   1.474324e+05   5.760279e-26   0.000000e+00   0.000000e+00
     3056000   3.055999e-05   4.396074e-01   1.116793e+01   2.544160e+01  -1.006472e+04   1.255877e+04   1.465513e+05  -2.478495e+10  -1.144639e+10  -7.212045e+08   1.474324e+05   5.776441e-26   0.000000e+00   0.000000e+00
     3064000   3.063999e-05   4.387246e-01   1.116889e+01   2.545332e+01  -1.198177e+04   1.151379e+04   1.464929e+05  -2.306765e+10  -1.463966e+10  -7.360480e+08   1.474324e+05   5.785305e-26   0.000000e+00   0.000000e+00
     3072000   3.071999e-05   4.376945e-01   1.116976e+01   2.546503e+01  -1.374414e+04   1.022330e+04   1.464339e+05  -2.092377e+10  -1.757432e+10  -7.368800e+08   1.474324e+05   5.787054e-26   0.000000e+00   0.000000e+00
     3080000   3.079999e-05   4.365306e-01   1.117052e+01   2.547675e+01  -1.531919e+04   8.710299e+03   1.463754e+05  -1.839186e+10  -2.019317e+10  -7.231572e+08   1.474324e+05   5.781971e-26   0.000000e+00   0.000000e+00
     3088000   3.087999e-05   4.352492e-01   1.117115e+01   2.548846e+01  -1.667769e+04   7.002168e+03   1.463186e+05  -1.551820e+10  -2.244461e+10  -6.946440e+08   1.474324e+05   5.770435e-26   0.000000e+00   0.000000e+00
     3096000   3.095999e-05   4.338686e-01   1.117164e+01   2.550016e+01  -1.779438e+04   5.130375e+03   1.462646e+05  -1.235725e+10  -2.406820e+10  -6.591027e+08   1.474324e+05   5.672514e-26   0.000000e+00   0.000000e+00
     3104000   3.103999e-05   4.324090e-01   1.117197e+01   2.551186e+01  -1.865071e+04   3.146813e+03   1.462141e+05  -9.019446e+09  -2.544460e+10  -6.028309e+08   1.474324e+05   5.647168e-26   0.000000e+00   0.000000e+00
     3112000   3.111999e-05   4.308918e-01   1.117214e+01   2.552355e+01  -1.923318e+04   1.071729e+03   1.461685e+05  -5.521311e+09  -2.635248e+10  -5.332364e+08   1.474324e+05   5.616814e-26   0.000000e+00   0.000000e+00
     3120000   3.119999e-05   4.293393e-01   1.117214e+01   2.553524e+01  -1.953156e+04  -1.056593e+03   1.461291e+05  -1.928594e+09  -2.677327e+10  -4.513113e+08   1.474324e+05   5.582029e-26   0.000000e+00   0.000000e+00
     3128000   3.127999e-05   4.277745e-01   1.117197e+01   2.554693e+01  -1.954100e+04  -3.198748e+03   1.460966e+05   1.690882e+09  -2.669757e+10  -3.583253e+08   1.474324e+05   5.543434e-26   0.000000e+00   0.000000e+00
     3136000   3.135999e-05   4.262204e-01   1.117163e+01   2.555862e+01  -1.926210e+04  -5.314953e+03   1.460720e+05   5.268499e+09  -2.612539e+10  -2.558037e+08   1.474324e+05   5.501694e-26   0.000000e+00   0.000000e+00
     3144000   3.143999e-05   4.247001e-01   1.117112e+01   2.557031e+01  -1.870094e+04  -7.365806e+03   1.460559e+05   8.736147e+09  -2.506618e+10  -1.455018e+08   1.474324e+05   5.457521e-26   0.000000e+00   0.000000e+00
     3152000   3.151999e-05   4.232355e-01   1.117045e+01   2.558199e+01  -1.786899e+04  -9.313035e+03   1.460489e+05   1.202754e+10  -2.353874e+10  -2.937497e+07   1.474324e+05   5.411673e-26   0.000000e+00   0.000000e+00
     3160000   3.159999e-05   4.218478e-01   1.116963e+01   2.559367e+01  -1.678289e+04  -1.112024e+04   1.460513e+05   1.507950e+10  -2.157090e+10   9.045485e+07   1.474324e+05   5.364959e-26   0.000000e+00   0.000000e+00
     3168000   3.167999e-05   4.205565e-01   1.116868e+01   2.560536e+01  -1.545959e+04  -1.275604e+04   1.460637e+05   1.796827e+10  -1.926325e+10   2.195354e+08   1.474324e+05   5.374841e-26   0.000000e+00   0.000000e+00
     3176000   3.175999e-05   4.193800e-01   1.116760e+01   2.561704e+01  -1.392188e+04  -1.418933e+04   1.460861e+05   2.041115e+10  -1.651170e+10   3.414322e+08   1.474324e+05   5.339122e-26   0.000000e+00   0.000000e+00
     3184000   3.183999e-05   4.183338e-01   1.116641e+01   2.562873e+01  -1.220450e+04  -1.538936e+04   1.461182e+05   2.245258e+10  -1.344089e+10   4.597817e+08   1.474324e+05   5.305197e-26   0.000000e+00   0.000000e+00
     3192000   3.191999e-05   4.174311e-01   1.116514e+01   2.564042e+01  -1.034127e+04  -1.633287e+04   1.461595e+05   2.405090e+10  -1.010866e+10   5.721164e+08   1.474324e+05   5.273989e-26   0.000000e+00   0.000000e+00
     3200000   3.199999e-05   4.166821e-01   1.116381e+01   2.565212e+01  -8.369051e+03  -1.700143e+04   1.462095e+05   2.517279e+10  -6.578313e+09   6.760053e+08   1.474324e+05   5.246435e-26   0.000000e+00   0.000000e+00
     3208000   3.207999e-05   4.160940e-01   1.116243e+01   2.566382e+01  -6.326977e+03  -1.738188e+04   1.462674e+05   2.579403e+10  -2.917459e+09   7.690987e+08   1.474324e+05   5.223469e-26   0.000000e+00   0.000000e+00
     3216000   3.215999e-05   4.156706e-01   1.116103e+01   2.567552e+01  -4.255751e+03  -1.746659e+04   1.463322e+05   2.590004e+10   8.032906e+08   8.491745e+08   1.474324e+05   5.205990e-26   0.000000e+00   0.000000e+00
     3224000   3.223999e-05   4.154127e-01   1.115964e+01   2.568723e+01  -2.196844e+03  -1.725364e+04   1.464029e+05   2.548622e+10   4.511701e+09   9.141845e+08   1.474324e+05   5.194838e-26   0.000000e+00   0.000000e+00
     3232000   3.231999e-05   4.153177e-01   1.115828e+01   2.569895e+01  -1.916860e+02  -1.674694e+04   1.464780e+05   2.455813e+10   8.135323e+09   9.623006e+08   1.474324e+05   5.190752e-26   0.000000e+00   0.000000e+00
     3240000   3.239999e-05   4.153790e-01   1.115697e+01   2.571067e+01   1.705317e+03  -1.595286e+04   1.465569e+05   2.293442e+10   1.163643e+10   9.998201e+08   1.474324e+05   5.130205e-26   0.000000e+00   0.000000e+00
     3248000   3.247999e-05   4.155869e-01   1.115574e+01   2.572239e+01   3.466658e+03  -1.489157e+04   1.466374e+05   2.102430e+10   1.485205e+10   1.011290e+09   1.474324e+05   5.139760e-26   0.000000e+00   0.000000e+00
     3256000   3.255999e-05   4.159291e-01   1.115460e+01   2.573413e+01   5.057689e+03  -1.358427e+04   1.467181e+05   1.868340e+10   1.777658e+10   1.001878e+09   1.474324e+05   5.158756e-26   0.000000e+00   0.000000e+00
     3264000   3.263999e-05   4.163907e-01   1.115357e+01   2.574587e+01   6.445666e+03  -1.205659e+04   1.467972e+05   1.595608e+10   2.035230e+10   9.709898e+08   1.474324e+05   5.187218e-26   0.000000e+00   0.000000e+00
     3272000   3.271999e-05   4.169543e-01   1.115267e+01   2.575762e+01   7.601709e+03  -1.033854e+04   1.468729e+05   1.289437e+10   2.252810e+10   9.184491e+08   1.474324e+05   5.224920e-26   0.000000e+00   0.000000e+00
     3280000   3.279999e-05   4.176002e-01   1.115192e+01   2.576937e+01   8.501377e+03  -8.463908e+03   1.469435e+05   9.557012e+09   2.426051e+10   8.445271e+08   1.474324e+05   5.271380e-26   0.000000e+00   0.000000e+00
     3288000   3.287999e-05   4.183071e-01   1.115132e+01   2.578113e+01   9.125157e+03  -6.469612e+03   1.470075e+05   6.008314e+09   2.551459e+10   7.499590e+08   1.474324e+05   5.325860e-26   0.000000e+00   0.000000e+00
     3296000   3.295999e-05   4.190524e-01   1.115089e+01   2.579289e+01   9.458862e+03  -4.395015e+03   1.470630e+05   2.316891e+09   2.626459e+10   6.359523e+08   1.474324e+05   5.387388e-26   0.000000e+00   0.000000e+00
     3304000   3.303999e-05   4.198126e-01   1.115062e+01   2.580466e+01   9.494698e+03  -2.279217e+03   1.471087e+05  -1.425675e+09   2.655520e+10   5.034949e+08   1.474324e+05   5.479271e-26   0.000000e+00   0.000000e+00
     3312000   3.311999e-05   4.205635e-01   1.115052e+01   2.581643e+01   9.228970e+03  -1.633284e+02   1.471432e+05  -5.211160e+09   2.625341e+10   3.560391e+08   1.474324e+05   5.549439e-26   0.000000e+00   0.000000e+00
     3320000   3.319999e-05   4.212812e-01   1.115059e+01   2.582820e+01   8.662810e+03   1.907218e+03   1.471653e+05  -8.924081e+09   2.542304e+10   1.958858e+08   1.474324e+05   5.622894e-26   0.000000e+00   0.000000e+00
     3328000   3.327999e-05   4.219418e-01   1.115082e+01   2.583997e+01   7.804984e+03   3.890594e+03   1.471743e+05  -1.249069e+10   2.407725e+10   2.597069e+07   1.474324e+05   5.698201e-26   0.000000e+00   0.000000e+00
     3336000   3.335999e-05   4.225226e-01   1.115121e+01   2.585175e+01   6.670076e+03   5.746433e+03   1.471693e+05  -1.583952e+10   2.223944e+10  -1.504337e+08   1.474324e+05   5.773899e-26   0.000000e+00   0.000000e+00
     3344000   3.343999e-05   4.230022e-01   1.115174e+01   2.586352e+01   5.278249e+03   7.436644e+03   1.471501e+05  -1.890279e+10   1.994294e+10  -3.297815e+08   1.474324e+05   5.848554e-26   0.000000e+00   0.000000e+00
     3352000   3.351999e-05   4.233609e-01   1.115240e+01   2.587529e+01   3.654894e+03   8.926177e+03   1.471166e+05  -2.161778e+10   1.723041e+10  -5.083272e+08   1.474324e+05   5.920808e-26   0.000000e+00   0.000000e+00
     3360000   3.359999e-05   4.235816e-01   1.115316e+01   2.588706e+01   1.830175e+03   1.018375e+04   1.470689e+05  -2.392815e+10   1.415316e+10  -6.822092e+08   1.474324e+05   5.989427e-26   0.000000e+00   0.000000e+00
     3368000   3.367999e-05   4.236493e-01   1.115402e+01   2.589882e+01  -1.615320e+02   1.118249e+04   1.470076e+05  -2.578508e+10   1.077019e+10  -8.475400e+08   1.474324e+05   6.053337e-26   0.000000e+00   0.000000e+00
     3376000   3.375999e-05   4.235523e-01   1.115494e+01   2.591058e+01  -2.280940e+03   1.191421e+04   1.469325e+05  -2.713727e+10   7.361816e+09  -1.018159e+09   1.474324e+05   6.131397e-26   0.000000e+00   0.000000e+00
     3384000   3.383999e-05   4.232820e-01   1.115592e+01   2.592233e+01  -4.489955e+03   1.235454e+04   1.468453e+05  -2.800011e+10   3.624990e+09  -1.161061e+09   1.474324e+05   6.184302e-26   0.000000e+00   0.000000e+00
     3392000   3.391999e-05   4.228327e-01   1.115691e+01   2.593407e+01  -6.746680e+03   1.249163e+04   1.467473e+05  -2.832765e+10  -2.068446e+08  -1.284696e+09   1.474324e+05   6.228093e-26   0.000000e+00   0.000000e+00
     3400000   3.399999e-05   4.222024e-01   1.115791e+01   2.594581e+01  -9.007848e+03   1.232090e+04   1.466403e+05  -2.811061e+10  -4.057789e+09  -1.385788e+09   1.474324e+05   6.262507e-26   0.000000e+00   0.000000e+00
     3408000   3.407999e-05   4.213925e-01   1.115888e+01   2.595754e+01  -1.122988e+04   1.184389e+04   1.465262e+05  -2.735047e+10  -7.851032e+09  -1.461496e+09   1.474324e+05   6.287528e-26   0.000000e+00   0.000000e+00
     3416000   3.415999e-05   4.204078e-01   1.115979e+01   2.596925e+01  -1.336975e+04   1.106827e+04   1.464072e+05  -2.605955e+10  -1.151036e+10  -1.509500e+09   1.474324e+05   6.303364e-26   0.000000e+00   0.000000e+00
     3424000   3.423999e-05   4.192566e-01   1.116064e+01   2.598096e+01  -1.538584e+04   1.000774e+04   1.462855e+05  -2.426086e+10  -1.496168e+10  -1.528059e+09   1.474324e+05   6.310405e-26   0.000000e+00   0.000000e+00
     3432000   3.431999e-05   4.179504e-01   1.116139e+01   2.599266e+01  -1.723881e+04   8.681799e+03   1.461635e+05  -2.198774e+10  -1.813449e+10  -1.516070e+09   1.474324e+05   6.309190e-26   0.000000e+00   0.000000e+00
     3440000   3.439999e-05   4.165037e-01   1.116202e+01   2.600435e+01  -1.889409e+04   7.109795e+03   1.460438e+05  -1.933825e+10  -2.116052e+10  -1.471638e+09   1.474324e+05   6.381078e-26   0.000000e+00   0.000000e+00
     3448000   3.447999e-05   4.149335e-01   1.116252e+01   2.601603e+01  -2.031908e+04   5.314986e+03   1.459288e+05  -1.622637e+10  -2.363717e+10  -1.398391e+09   1.474325e+05   6.381583e-26   0.000000e+00   0.000000e+00
     3456000   3.455999e-05   4.132596e-01   1.116287e+01   2.602770e+01  -2.148144e+04   3.340074e+03   1.458208e+05  -1.278323e+10  -2.565481e+10  -1.295460e+09   1.474325e+05   6.376104e-26   0.000000e+00   0.000000e+00
     3464000   3.463999e-05   4.115041e-01   1.116305e+01   2.603936e+01  -2.235734e+04   1.223658e+03   1.457223e+05  -9.076796e+09  -2.716806e+10  -1.164409e+09   1.474325e+05   6.365177e-26   0.000000e+00   0.000000e+00
     3472000   3.471999e-05   4.096906e-01   1.116306e+01   2.605101e+01  -2.292864e+04  -9.924222e+02   1.456352e+05  -5.181272e+09  -2.814143e+10  -1.007445e+09   1.474325e+05   6.349325e-26   0.000000e+00   0.000000e+00
     3480000   3.479999e-05   4.078440e-01   1.116289e+01   2.606266e+01  -2.318336e+04  -3.263914e+03   1.455617e+05  -1.175658e+09  -2.855027e+10  -8.273685e+08   1.474325e+05   6.329063e-26   0.000000e+00   0.000000e+00
     3488000   3.487999e-05   4.059899e-01   1.116254e+01   2.607430e+01  -2.311596e+04  -5.545050e+03   1.455034e+05   2.857846e+09  -2.838141e+10  -6.275203e+08   1.474325e+05   6.304904e-26   0.000000e+00   0.000000e+00
     3496000   3.495999e-05   4.041540e-01   1.116200e+01   2.608594e+01  -2.272756e+04  -7.789486e+03   1.454617e+05   6.835535e+09  -2.763363e+10  -4.117144e+08   1.474325e+05   6.277383e-26   0.000000e+00   0.000000e+00
     3504000   3.503999e-05   4.023618e-01   1.116129e+01   2.609758e+01  -2.202595e+04  -9.951265e+03   1.454378e+05   1.067395e+10  -2.631789e+10  -1.841630e+08   1.474325e+05   6.247074e-26   0.000000e+00   0.000000e+00
     3512000   3.511999e-05   4.006378e-01   1.116042e+01   2.610921e+01  -2.102796e+04  -1.197442e+04   1.454330e+05   1.423595e+10  -2.427265e+10   5.989025e+07   1.474325e+05   6.132675e-26   0.000000e+00   0.000000e+00
     3520000   3.519999e-05   3.990047e-01   1.115938e+01   2.612085e+01  -1.975262e+04  -1.383544e+04   1.454467e+05   1.759600e+10  -2.212807e+10   2.848011e+08   1.474325e+05   6.190950e-26   0.000000e+00   0.000000e+00
     3528000   3.527999e-05   3.974841e-01   1.115821e+01   2.613248e+01  -1.822344e+04  -1.549595e+04   1.454789e+05   2.056613e+10  -1.931152e+10   5.192722e+08   1.474325e+05   6.166307e-26   0.000000e+00   0.000000e+00
     3536000   3.535999e-05   3.960949e-01   1.115691e+01   2.614412e+01  -1.647357e+04  -1.691428e+04   1.455296e+05   2.310311e+10  -1.608365e+10   7.459332e+08   1.474325e+05   6.141707e-26   0.000000e+00   0.000000e+00
     3544000   3.543999e-05   3.948532e-01   1.115551e+01   2.615577e+01  -1.454000e+04  -1.806007e+04   1.455979e+05   2.515011e+10  -1.250959e+10   9.599484e+08   1.474325e+05   6.118051e-26   0.000000e+00   0.000000e+00
     3552000   3.551999e-05   3.937723e-01   1.115403e+01   2.616742e+01  -1.246386e+04  -1.890849e+04   1.456827e+05   2.666017e+10  -8.662471e+09   1.156639e+09   1.474325e+05   6.096377e-26   0.000000e+00   0.000000e+00
     3560000   3.559999e-05   3.928616e-01   1.115249e+01   2.617908e+01  -1.028965e+04  -1.944086e+04   1.457824e+05   2.759731e+10  -4.621950e+09   1.331572e+09   1.474325e+05   6.077838e-26   0.000000e+00   0.000000e+00
     3568000   3.567999e-05   3.921273e-01   1.115093e+01   2.619075e+01  -8.064219e+03  -1.964506e+04   1.458951e+05   2.793745e+10  -4.725605e+08   1.480640e+09   1.474325e+05   6.063660e-26   0.000000e+00   0.000000e+00
     3576000   3.575999e-05   3.915714e-01   1.114936e+01   2.620242e+01  -5.840900e+03  -1.951131e+04   1.460189e+05   2.736306e+10   3.966248e+09   1.624579e+09   1.474325e+05   5.941219e-26   0.000000e+00   0.000000e+00
     3584000   3.583999e-05   3.911909e-01   1.114781e+01   2.621411e+01  -3.684211e+03  -1.903159e+04   1.461525e+05   2.645583e+10   8.006926e+09   1.709591e+09   1.474325e+05   5.939955e-26   0.000000e+00   0.000000e+00
     3592000   3.591999e-05   3.909794e-01   1.114632e+01   2.622581e+01  -1.623477e+03  -1.823441e+04   1.462915e+05   2.496786e+10   1.188838e+10   1.758954e+09   1.474325e+05   5.946747e-26   0.000000e+00   0.000000e+00
     3600000   3.599999e-05   3.909273e-01   1.114490e+01   2.623752e+01   2.958692e+02  -1.713589e+04   1.464330e+05   2.292681e+10   1.552693e+10   1.770722e+09   1.474325e+05   5.962530e-26   0.000000e+00   0.000000e+00
     3608000   3.607999e-05   3.910218e-01   1.114359e+01   2.624924e+01   2.031090e+03  -1.575866e+04   1.465738e+05   2.037240e+10   1.884333e+10   1.743662e+09   1.474325e+05   5.987983e-26   0.000000e+00   0.000000e+00
     3616000   3.615999e-05   3.912464e-01   1.114239e+01   2.626097e+01   3.543089e+03  -1.413147e+04   1.467109e+05   1.735572e+10   2.176451e+10   1.677309e+09   1.474325e+05   6.023468e-26   0.000000e+00   0.000000e+00
     3624000   3.623999e-05   3.915818e-01   1.114133e+01   2.627271e+01   4.797276e+03  -1.228860e+04   1.468411e+05   1.393821e+10   2.422521e+10   1.572015e+09   1.474325e+05   6.068989e-26   0.000000e+00   0.000000e+00
     3632000   3.631999e-05   3.920063e-01   1.114043e+01   2.628446e+01   5.764354e+03  -1.026920e+04   1.469614e+05   1.019049e+10   2.616948e+10   1.428987e+09   1.474325e+05   6.124163e-26   0.000000e+00   0.000000e+00
     3640000   3.639999e-05   3.924958e-01   1.113969e+01   2.629622e+01   6.420993e+03  -8.116463e+03   1.470688e+05   6.190895e+09   2.755195e+10   1.250304e+09   1.474325e+05   6.188221e-26   0.000000e+00   0.000000e+00
     3648000   3.647999e-05   3.930247e-01   1.113913e+01   2.630799e+01   6.742848e+03  -5.857707e+03   1.471617e+05   1.859280e+09   2.869044e+10   1.056876e+09   1.474325e+05   6.410613e-26   0.000000e+00   0.000000e+00
     3656000   3.655999e-05   3.935655e-01   1.113875e+01   2.631977e+01   6.718857e+03  -3.551741e+03   1.472365e+05  -2.464406e+09   2.885249e+10   8.085152e+08   1.474325e+05   6.499507e-26   0.000000e+00   0.000000e+00
     3664000   3.663999e-05   3.940905e-01   1.113856e+01   2.633155e+01   6.348817e+03  -1.258372e+03   1.472904e+05  -6.776197e+09   2.837520e+10   5.345625e+08   1.474325e+05   6.593699e-26   0.000000e+00   0.000000e+00
     3672000   3.671999e-05   3.945722e-01   1.113855e+01   2.634333e+01   5.637466e+03   9.713451e+02   1.473215e+05  -1.098141e+10   2.726320e+10   2.405217e+08   1.474325e+05   6.691106e-26   0.000000e+00   0.000000e+00
     3680000   3.679999e-05   3.949837e-01   1.113872e+01   2.635512e+01   4.597088e+03   3.087284e+03   1.473285e+05  -1.498655e+10   2.553508e+10  -6.740582e+07   1.474325e+05   6.789543e-26   0.000000e+00   0.000000e+00
     3688000   3.687999e-05   3.952995e-01   1.113904e+01   2.636691e+01   3.247328e+03   5.041359e+03   1.473105e+05  -1.870132e+10   2.322322e+10  -3.824462e+08   1.474325e+05   6.886837e-26   0.000000e+00   0.000000e+00
     3696000   3.695999e-05   3.954957e-01   1.113952e+01   2.637869e+01   1.614857e+03   6.788614e+03   1.472673e+05  -2.204075e+10   2.037331e+10  -6.974046e+08   1.474325e+05   6.980933e-26   0.000000e+00   0.000000e+00
     3704000   3.703999e-05   3.955512e-01   1.114012e+01   2.639047e+01  -2.671317e+02   8.288253e+03   1.471991e+05  -2.492706e+10   1.704359e+10  -1.004838e+09   1.474325e+05   7.069993e-26   0.000000e+00   0.000000e+00
     3712000   3.711999e-05   3.954474e-01   1.114083e+01   2.640224e+01  -2.360189e+03   9.507683e+03   1.471067e+05  -2.733336e+10   1.350747e+10  -1.311479e+09   1.474325e+05   7.212752e-26   0.000000e+00   0.000000e+00
     3720000   3.719999e-05   3.951690e-01   1.114163e+01   2.641400e+01  -4.622971e+03   1.042801e+04   1.469906e+05  -2.913596e+10   9.453257e+09  -1.586931e+09   1.474325e+05   7.286351e-26   0.000000e+00   0.000000e+00
     3728000   3.727999e-05   3.947045e-01   1.114249e+01   2.642576e+01  -7.005404e+03   1.101366e+04   1.468536e+05  -3.031827e+10   5.155524e+09  -1.832869e+09   1.474325e+05   7.351018e-26   0.000000e+00   0.000000e+00
     3736000   3.735999e-05   3.940463e-01   1.114339e+01   2.643750e+01  -9.456494e+03   1.124885e+04   1.466983e+05  -3.084827e+10   7.078089e+08  -2.042757e+09   1.474325e+05   7.406424e-26   0.000000e+00   0.000000e+00
     3744000   3.743999e-05   3.931910e-01   1.114428e+01   2.644923e+01  -1.192325e+04   1.112548e+04   1.465279e+05  -3.070816e+10  -3.791842e+09  -2.210810e+09   1.474325e+05   7.452638e-26   0.000000e+00   0.000000e+00
     3752000   3.751999e-05   3.921396e-01   1.114516e+01   2.646094e+01  -1.435183e+04   1.064340e+04   1.463458e+05  -2.989488e+10  -8.242996e+09  -2.332168e+09   1.474325e+05   7.490073e-26   0.000000e+00   0.000000e+00
     3760000   3.759999e-05   3.908972e-01   1.114598e+01   2.647264e+01  -1.668877e+04   9.810535e+03   1.461561e+05  -2.842050e+10  -1.254505e+10  -2.403047e+09   1.474325e+05   7.519411e-26   0.000000e+00   0.000000e+00
     3768000   3.767999e-05   3.894732e-01   1.114672e+01   2.648433e+01  -1.888217e+04   8.642762e+03   1.459627e+05  -2.631214e+10  -1.659949e+10  -2.420859e+09   1.474325e+05   7.541523e-26   0.000000e+00   0.000000e+00
     3776000   3.775999e-05   3.878812e-01   1.114735e+01   2.649600e+01  -2.088289e+04   7.163697e+03   1.457702e+05  -2.361163e+10  -2.031218e+10  -2.384294e+09   1.474325e+05   7.557369e-26   0.000000e+00   0.000000e+00
     3784000   3.783999e-05   3.861380e-01   1.114786e+01   2.650765e+01  -2.265693e+04   5.416754e+03   1.455805e+05  -2.060061e+10  -2.337510e+10  -2.336300e+09   1.474325e+05   7.560936e-26   0.000000e+00   0.000000e+00
     3792000   3.791999e-05   3.842633e-01   1.114821e+01   2.651929e+01  -2.416080e+04   3.429802e+03   1.453989e+05  -1.692280e+10  -2.620832e+10  -2.193753e+09   1.474326e+05   7.575115e-26   0.000000e+00   0.000000e+00
     3800000   3.799999e-05   3.822806e-01   1.114840e+01   2.653092e+01  -2.535385e+04   1.238709e+03   1.452309e+05  -1.284427e+10  -2.846778e+10  -1.999427e+09   1.474326e+05   7.585324e-26   0.000000e+00   0.000000e+00
     3808000   3.807999e-05   3.802158e-01   1.114841e+01   2.654253e+01  -2.620756e+04  -1.108180e+03   1.450803e+05  -8.455268e+09  -3.009461e+10  -1.757181e+09   1.474326e+05   7.592120e-26   0.000000e+00   0.000000e+00
     3816000   3.815999e-05   3.780970e-01   1.114822e+01   2.655413e+01  -2.670100e+04  -3.558360e+03   1.449509e+05  -3.854685e+09  -3.104389e+10  -1.472081e+09   1.474326e+05   7.595865e-26   0.000000e+00   0.000000e+00
     3824000   3.823999e-05   3.759536e-01   1.114784e+01   2.656572e+01  -2.682142e+04  -6.056335e+03   1.448458e+05   8.521634e+08  -3.128597e+10  -1.150274e+09   1.474326e+05   7.596738e-26   0.000000e+00   0.000000e+00
     3832000   3.831999e-05   3.738156e-01   1.114725e+01   2.657731e+01  -2.656469e+04  -8.544885e+03   1.447676e+05   5.555912e+09  -3.080752e+10  -7.988380e+08   1.474326e+05   7.594793e-26   0.000000e+00   0.000000e+00
     3840000   3.839999e-05   3.717132e-01   1.114647e+01   2.658889e+01  -2.593547e+04  -1.096640e+04   1.447185e+05   1.014570e+10  -2.961212e+10  -4.256194e+08   1.474326e+05   7.590022e-26   0.000000e+00   0.000000e+00
     3848000   3.847999e-05   3.696755e-01   1.114550e+01   2.660046e+01  -2.494796e+04  -1.326304e+04   1.446999e+05   1.430198e+10  -2.734888e+10  -4.087389e+07   1.474326e+05   7.377156e-26   0.000000e+00   0.000000e+00
     3856000   3.855999e-05   3.677298e-01   1.114435e+01   2.661204e+01  -2.364250e+04  -1.535456e+04   1.447122e+05   1.827188e+10  -2.483574e+10   3.500771e+08   1.474326e+05   7.363905e-26   0.000000e+00   0.000000e+00
     3864000   3.863999e-05   3.659008e-01   1.114305e+01   2.662362e+01  -2.203566e+04  -1.722088e+04   1.447558e+05   2.182069e+10  -2.172882e+10   7.367812e+08   1.474326e+05   7.348637e-26   0.000000e+00   0.000000e+00
     3872000   3.871999e-05   3.642111e-01   1.114161e+01   2.663520e+01  -2.016476e+04  -1.881709e+04   1.448298e+05   2.485960e+10  -1.809553e+10   1.110214e+09   1.474326e+05   7.332013e-26   0.000000e+00   0.000000e+00
     3880000   3.879999e-05   3.626803e-01   1.114005e+01   2.664679e+01  -1.807378e+04  -2.010424e+04   1.449328e+05   2.731077e+10  -1.401689e+10   1.461501e+09   1.474326e+05   7.315029e-26   0.000000e+00   0.000000e+00
     3888000   3.887999e-05   3.613239e-01   1.113840e+01   2.665839e+01  -1.581243e+04  -2.105034e+04   1.450628e+05   2.910942e+10  -9.585759e+09   1.782101e+09   1.474326e+05   7.299025e-26   0.000000e+00   0.000000e+00
     3896000   3.895999e-05   3.601534e-01   1.113669e+01   2.667000e+01  -1.343501e+04  -2.163125e+04   1.452169e+05   3.020561e+10  -4.904806e+09   2.063980e+09   1.474326e+05   7.285663e-26   0.000000e+00   0.000000e+00
     3904000   3.903999e-05   3.591758e-01   1.113495e+01   2.668163e+01  -1.099917e+04  -2.183134e+04   1.453918e+05   3.056572e+10  -8.415749e+07   2.299783e+09   1.474326e+05   7.276859e-26   0.000000e+00   0.000000e+00
     3912000   3.911999e-05   3.583935e-01   1.113321e+01   2.669326e+01  -8.564570e+03  -2.164401e+04   1.455835e+05   3.017356e+10   4.761174e+09   2.483000e+09   1.474326e+05   7.274681e-26   0.000000e+00   0.000000e+00
     3920000   3.919999e-05   3.578038e-01   1.113150e+01   2.670492e+01  -6.193592e+03  -2.106541e+04   1.457884e+05   2.896056e+10   9.710084e+09   2.633448e+09   1.474326e+05   7.279769e-26   0.000000e+00   0.000000e+00
     3928000   3.927999e-05   3.573992e-01   1.112985e+01   2.671659e+01  -3.948217e+03  -2.010475e+04   1.460020e+05   2.705434e+10   1.426114e+10   2.695459e+09   1.474326e+05   7.300275e-26   0.000000e+00   0.000000e+00
     3936000   3.935999e-05   3.571673e-01   1.112829e+01   2.672828e+01  -1.883489e+03  -1.879226e+04   1.462179e+05   2.445238e+10   1.848717e+10   2.691058e+09   1.474326e+05   7.333987e-26   0.000000e+00   0.000000e+00
     3944000   3.943999e-05   3.570916e-01   1.112685e+01   2.673999e+01  -5.293950e+01  -1.715831e+04   1.464307e+05   2.121072e+10   2.228038e+10   2.618481e+09   1.474326e+05   7.382243e-26   0.000000e+00   0.000000e+00
     3952000   3.951999e-05   3.571513e-01   1.112555e+01   2.675171e+01   1.495060e+03  -1.524155e+04   1.466350e+05   1.740214e+10   2.554204e+10   2.477529e+09   1.474326e+05   7.445764e-26   0.000000e+00   0.000000e+00
     3960000   3.959999e-05   3.573221e-01   1.112442e+01   2.676345e+01   2.718578e+03  -1.308806e+04   1.468254e+05   1.311458e+10   2.818507e+10   2.269667e+09   1.474326e+05   7.524554e-26   0.000000e+00   0.000000e+00
     3968000   3.967999e-05   3.575767e-01   1.112346e+01   2.677520e+01   3.583265e+03  -1.075037e+04   1.469965e+05   8.449287e+09   3.013645e+10   1.998087e+09   1.474326e+05   7.617854e-26   0.000000e+00   0.000000e+00
     3976000   3.975999e-05   3.578852e-01   1.112270e+01   2.678697e+01   4.063329e+03  -8.286191e+03   1.471435e+05   3.518534e+09   3.133929e+10   1.667735e+09   1.474326e+05   7.724146e-26   0.000000e+00   0.000000e+00
     3984000   3.983999e-05   3.582161e-01   1.112214e+01   2.679874e+01   4.142315e+03  -5.757094e+03   1.472619e+05  -1.556999e+09   3.175458e+10   1.285287e+09   1.474326e+05   7.841225e-26   0.000000e+00   0.000000e+00
     3992000   3.991999e-05   3.585367e-01   1.112178e+01   2.681053e+01   3.801803e+03  -3.209512e+03   1.473486e+05  -6.836136e+09   3.160655e+10   8.648991e+08   1.474326e+05   8.104747e-26   0.000000e+00   0.000000e+00
     4000000   3.999999e-05   3.588135e-01   1.112162e+01   2.682232e+01   3.052658e+03  -7.238360e+02   1.473992e+05  -1.186268e+10   3.040114e+10   3.950413e+08   1.474326e+05   8.249219e-26   0.000000e+00   0.000000e+00
     4008000   4.007999e-05   3.590146e-01   1.112166e+01   2.683411e+01   1.910101e+03   1.633511e+03   1.474112e+05  -1.665026e+10   2.840354e+10  -9.892717e+07   1.474326e+05   8.395550e-26   0.000000e+00   0.000000e+00
     4016000   4.015999e-05   3.591093e-01   1.112188e+01   2.684590e+01   3.982771e+02   3.800655e+03   1.473831e+05  -2.107410e+10   2.565468e+10  -6.045486e+08   1.474326e+05   8.539946e-26   0.000000e+00   0.000000e+00
     4024000   4.023999e-05   3.590694e-01   1.112226e+01   2.685769e+01  -1.448953e+03   5.719799e+03   1.473145e+05  -2.501665e+10   2.221532e+10  -1.108539e+09   1.474326e+05   8.678864e-26   0.000000e+00   0.000000e+00
     4032000   4.031999e-05   3.588696e-01   1.112279e+01   2.686947e+01  -3.588719e+03   7.338760e+03   1.472061e+05  -2.837072e+10   1.816495e+10  -1.597157e+09   1.474326e+05   8.809229e-26   0.000000e+00   0.000000e+00
     4040000   4.039999e-05   3.584887e-01   1.112343e+01   2.688124e+01  -5.970090e+03   8.612414e+03   1.470597e+05  -3.104249e+10   1.360010e+10  -2.056611e+09   1.474326e+05   8.928617e-26   0.000000e+00   0.000000e+00
     4048000   4.047999e-05   3.579095e-01   1.112415e+01   2.689300e+01  -8.535255e+03   9.503971e+03   1.468782e+05  -3.295417e+10   8.632275e+09  -2.473488e+09   1.474326e+05   9.035368e-26   0.000000e+00   0.000000e+00
     4056000   4.055999e-05   3.571198e-01   1.112494e+01   2.690474e+01  -1.122663e+04   9.993626e+03   1.466645e+05  -3.423446e+10   3.613218e+09  -2.866642e+09   1.474326e+05   9.241843e-26   0.000000e+00   0.000000e+00
     4064000   4.063999e-05   3.561115e-01   1.112574e+01   2.691646e+01  -1.398257e+04   1.006606e+04   1.464225e+05  -3.451758e+10  -1.816719e+09  -3.171269e+09   1.474326e+05   9.331296e-26   0.000000e+00   0.000000e+00
     4072000   4.071999e-05   3.548829e-01   1.112653e+01   2.692817e+01  -1.672581e+04   9.702398e+03   1.461591e+05  -3.391560e+10  -7.265228e+09  -3.398787e+09   1.474326e+05   9.407068e-26   0.000000e+00   0.000000e+00
     4080000   4.079999e-05   3.534376e-01   1.112728e+01   2.693985e+01  -1.938551e+04   8.906920e+03   1.458810e+05  -3.243139e+10  -1.258805e+10  -3.541011e+09   1.474327e+05   9.470498e-26   0.000000e+00   0.000000e+00
     4088000   4.087999e-05   3.517853e-01   1.112795e+01   2.695151e+01  -2.189198e+04   7.695448e+03   1.455950e+05  -3.009143e+10  -1.764138e+10  -3.592089e+09   1.474327e+05   9.523341e-26   0.000000e+00   0.000000e+00
     4096000   4.095999e-05   3.499408e-01   1.112850e+01   2.696314e+01  -2.417860e+04   6.095163e+03   1.453087e+05  -2.694575e+10  -2.228576e+10  -3.548739e+09   1.474327e+05   9.567535e-26   0.000000e+00   0.000000e+00
     4104000   4.103999e-05   3.479242e-01   1.112891e+01   2.697476e+01  -2.618370e+04   4.144098e+03   1.450298e+05  -2.306714e+10  -2.638998e+10  -3.410390e+09   1.474327e+05   9.604970e-26   0.000000e+00   0.000000e+00
     4112000   4.111999e-05   3.457604e-01   1.112916e+01   2.698635e+01  -2.785226e+04   1.890323e+03   1.447656e+05  -1.854981e+10  -2.983495e+10  -3.179237e+09   1.474327e+05   9.637286e-26   0.000000e+00   0.000000e+00
     4120000   4.119999e-05   3.434781e-01   1.112921e+01   2.699792e+01  -2.913760e+04  -6.091696e+02   1.445234e+05  -1.350727e+10  -3.251724e+10  -2.860196e+09   1.474327e+05   9.665715e-26   0.000000e+00   0.000000e+00
     4128000   4.127999e-05   3.411094e-01   1.112906e+01   2.700947e+01  -3.000983e+04  -3.269174e+03   1.443091e+05  -8.202352e+09  -3.403869e+10  -2.476748e+09   1.474327e+05   9.542161e-26   0.000000e+00   0.000000e+00
     4136000   4.135999e-05   3.386883e-01   1.112868e+01   2.702101e+01  -3.044208e+04  -6.035966e+03   1.441292e+05  -2.574617e+09  -3.497752e+10  -2.008527e+09   1.474327e+05   9.557998e-26   0.000000e+00   0.000000e+00
     4144000   4.143999e-05   3.362508e-01   1.112809e+01   2.703254e+01  -3.041898e+04  -8.840593e+03   1.439893e+05   3.155322e+09  -3.498012e+10  -1.481019e+09   1.474327e+05   9.570924e-26   0.000000e+00   0.000000e+00
     4152000   4.151999e-05   3.338335e-01   1.112727e+01   2.704405e+01  -2.993862e+04  -1.160741e+04   1.438935e+05   8.830588e+09  -3.403232e+10  -9.078881e+08   1.474327e+05   9.580559e-26   0.000000e+00   0.000000e+00
     4160000   4.159999e-05   3.314725e-01   1.112624e+01   2.705556e+01  -2.901172e+04  -1.426071e+04   1.438449e+05   1.429267e+10  -3.214627e+10  -3.042254e+08   1.474327e+05   9.586391e-26   0.000000e+00   0.000000e+00
     4168000   4.167999e-05   3.292029e-01   1.112499e+01   2.706707e+01  -2.766159e+04  -1.672679e+04   1.438452e+05   1.938588e+10  -2.936079e+10   3.138438e+08   1.474327e+05   9.588028e-26   0.000000e+00   0.000000e+00
     4176000   4.175999e-05   3.270570e-01   1.112357e+01   2.707858e+01  -2.592373e+04  -1.893613e+04   1.438950e+05   2.396190e+10  -2.574093e+10   9.295723e+08   1.474327e+05   9.585438e-26   0.000000e+00   0.000000e+00
     4184000   4.183999e-05   3.250642e-01   1.112197e+01   2.709009e+01  -2.384509e+04  -2.082542e+04   1.439934e+05   2.788422e+10  -2.137672e+10   1.526006e+09   1.474327e+05   9.579168e-26   0.000000e+00   0.000000e+00
     4192000   4.191999e-05   3.232494e-01   1.112024e+01   2.710162e+01  -2.148349e+04  -2.233847e+04   1.441383e+05   3.097818e+10  -1.628905e+10   2.092846e+09   1.474327e+05   9.521377e-26   0.000000e+00   0.000000e+00
     4200000   4.199999e-05   3.216325e-01   1.111841e+01   2.711316e+01  -1.890865e+04  -2.342476e+04   1.443265e+05   3.323939e+10  -1.079762e+10   2.602381e+09   1.474327e+05   9.512527e-26   0.000000e+00   0.000000e+00
     4208000   4.207999e-05   3.202278e-01   1.111651e+01   2.712471e+01  -1.619059e+04  -2.405667e+04   1.445529e+05   3.454804e+10  -4.955749e+09   3.044882e+09   1.474327e+05   9.506176e-26   0.000000e+00   0.000000e+00
     4216000   4.215999e-05   3.190437e-01   1.111457e+01   2.713628e+01  -1.340778e+04  -2.421262e+04   1.448115e+05   3.485168e+10   1.073437e+09   3.406405e+09   1.474327e+05   9.506159e-26   0.000000e+00   0.000000e+00
     4224000   4.223999e-05   3.180821e-01   1.111265e+01   2.714788e+01  -1.064179e+04  -2.388445e+04   1.450955e+05   3.412615e+10   7.118018e+09   3.674723e+09   1.474327e+05   9.516754e-26   0.000000e+00   0.000000e+00
     4232000   4.231999e-05   3.173384e-01   1.111077e+01   2.715950e+01  -7.974936e+03  -2.307795e+04   1.453967e+05   3.237696e+10   1.300215e+10   3.839697e+09   1.474327e+05   9.542331e-26   0.000000e+00   0.000000e+00
     4240000   4.239999e-05   3.168013e-01   1.110897e+01   2.717114e+01  -5.487873e+03  -2.181299e+04   1.457068e+05   2.963989e+10   1.855115e+10   3.893629e+09   1.474327e+05   9.586959e-26   0.000000e+00   0.000000e+00
     4248000   4.247999e-05   3.164535e-01   1.110729e+01   2.718281e+01  -3.257202e+03  -2.012315e+04   1.460166e+05   2.598067e+10   2.359676e+10   3.831604e+09   1.474327e+05   9.653987e-26   0.000000e+00   0.000000e+00
     4256000   4.255999e-05   3.162715e-01   1.110576e+01   2.719451e+01  -1.353103e+03  -1.805508e+04   1.463168e+05   2.149370e+10   2.798225e+10   3.651786e+09   1.474327e+05   9.745664e-26   0.000000e+00   0.000000e+00
     4264000   4.263999e-05   3.162266e-01   1.110441e+01   2.720622e+01   1.599344e+02  -1.566316e+04   1.465983e+05   1.622383e+10   3.167309e+10   3.366470e+09   1.474327e+05   9.895983e-26   0.000000e+00   0.000000e+00
     4272000   4.271999e-05   3.162852e-01   1.110326e+01   2.721796e+01   1.229627e+03  -1.301506e+04   1.468520e+05   1.043767e+10   3.436650e+10   2.958494e+09   1.474327e+05   1.005881e-25   0.000000e+00   0.000000e+00
     4280000   4.279999e-05   3.164105e-01   1.110233e+01   2.722972e+01   1.819131e+03  -1.019167e+04   1.470688e+05   4.248147e+09   3.604208e+10   2.445210e+09   1.474327e+05   1.024703e-25   0.000000e+00   0.000000e+00
     4288000   4.287999e-05   3.165628e-01   1.110163e+01   2.724149e+01   1.903320e+03  -7.277270e+03   1.472407e+05  -2.164047e+09   3.663307e+10   1.838630e+09   1.474327e+05   1.045606e-25   0.000000e+00   0.000000e+00
