     timestep     time              x             y              z              vx             vy             vz             ax             ay             az         v_magnitude      ELoss        Electronic      Nuclear
           0   0.000000e+00   1.000000e-01   6.370716e+00   1.829031e+01  -1.500725e+05  -1.377901e+05   2.169952e+05   0.000000e+00   0.000000e+00   0.000000e+00   2.976488e+05   0.000000e+00   0.000000e+00   0.000000e+00
        8000   7.999000e-10   9.988004e-02   6.370606e+00   1.829049e+01  -1.498389e+05  -1.380352e+05   2.170010e+05   2.924021e+11  -3.060864e+11   7.200544e+09   2.976488e+05   5.658171e-27   0.000000e+00  2.524675e-321
       16000   1.599900e-09   9.976026e-02   6.370495e+00   1.829066e+01  -1.496047e+05  -1.382798e+05   2.170068e+05   2.930607e+11  -3.055763e+11   7.318751e+09   2.976488e+05   5.660546e-27   0.000000e+00  2.524675e-321
       24000   2.399900e-09   9.964067e-02   6.370384e+00   1.829083e+01  -1.493700e+05  -1.385241e+05   2.170127e+05   2.937183e+11  -3.050647e+11   7.436849e+09   2.976488e+05   5.662920e-27   0.000000e+00  2.524675e-321
       32000   3.199900e-09   9.952127e-02   6.370274e+00   1.829101e+01  -1.491347e+05  -1.387679e+05   2.170187e+05   2.943749e+11  -3.045516e+11   7.554840e+09   2.976488e+05   5.665292e-27   0.000000e+00  2.524675e-321
       40000   3.999900e-09   9.940205e-02   6.370162e+00   1.829118e+01  -1.488990e+05  -1.390114e+05   2.170248e+05   2.950306e+11  -3.040370e+11   7.672723e+09   2.976488e+05   5.667662e-27   0.000000e+00  2.524675e-321
       48000   4.799900e-09   9.928303e-02   6.370051e+00   1.829135e+01  -1.486627e+05  -1.392544e+05   2.170309e+05   2.956854e+11  -3.035209e+11   7.790498e+09   2.976488e+05   5.670030e-27   0.000000e+00  2.524675e-321
       56000   5.599900e-09   9.916419e-02   6.369940e+00   1.829153e+01  -1.484259e+05  -1.394970e+05   2.170372e+05   2.963391e+11  -3.030033e+11   7.908164e+09   2.976488e+05   5.672396e-27   0.000000e+00  2.524675e-321
       64000   6.399900e-09   9.904555e-02   6.369828e+00   1.829170e+01  -1.481885e+05  -1.397392e+05   2.170436e+05   2.969920e+11  -3.024841e+11   8.025722e+09   2.976488e+05   5.674760e-27   0.000000e+00  2.524675e-321
       72000   7.199900e-09   9.892709e-02   6.369716e+00   1.829187e+01  -1.479507e+05  -1.399810e+05   2.170501e+05   2.976438e+11  -3.019635e+11   8.143171e+09   2.976488e+05   5.677122e-27   0.000000e+00  2.524675e-321
       80000   7.999900e-09   9.880883e-02   6.369604e+00   1.829205e+01  -1.477123e+05  -1.402223e+05   2.170566e+05   2.982947e+11  -3.014414e+11   8.260511e+09   2.976488e+05   5.679482e-27   0.000000e+00  2.524675e-321
       88000   8.799900e-09   9.869075e-02   6.369492e+00   1.829222e+01  -1.474734e+05  -1.404633e+05   2.170633e+05   2.989446e+11  -3.009178e+11   8.377742e+09   2.976488e+05   5.681840e-27   0.000000e+00  2.524675e-321
       96000   9.599900e-09   9.857287e-02   6.369379e+00   1.829240e+01  -1.472340e+05  -1.407038e+05   2.170700e+05   2.995935e+11  -3.003926e+11   8.494864e+09   2.976488e+05   5.684196e-27   0.000000e+00  2.524675e-321
      104000   1.039990e-08   9.845518e-02   6.369267e+00   1.829257e+01  -1.469941e+05  -1.409439e+05   2.170769e+05   3.002415e+11  -2.998660e+11   8.611877e+09   2.976488e+05   5.686550e-27   0.000000e+00  2.524675e-321
      112000   1.119990e-08   9.833768e-02   6.369154e+00   1.829274e+01  -1.467536e+05  -1.411836e+05   2.170838e+05   3.008884e+11  -2.993379e+11   8.728780e+09   2.976488e+05   5.688902e-27   0.000000e+00  2.524675e-321
      120000   1.199990e-08   9.822037e-02   6.369041e+00   1.829292e+01  -1.465126e+05  -1.414229e+05   2.170908e+05   3.015344e+11  -2.988083e+11   8.845574e+09   2.976488e+05   5.691251e-27   0.000000e+00  2.524675e-321
      128000   1.279990e-08   9.810326e-02   6.368927e+00   1.829309e+01  -1.462712e+05  -1.416617e+05   2.170980e+05   3.021794e+11  -2.982773e+11   8.962258e+09   2.976488e+05   5.693599e-27   0.000000e+00  2.524675e-321
      136000   1.359990e-08   9.798634e-02   6.368814e+00   1.829326e+01  -1.460291e+05  -1.419001e+05   2.171052e+05   3.028234e+11  -2.977447e+11   9.078832e+09   2.976488e+05   5.695944e-27   0.000000e+00  2.524675e-321
      144000   1.439990e-08   9.786961e-02   6.368700e+00   1.829344e+01  -1.457866e+05  -1.421381e+05   2.171125e+05   3.034664e+11  -2.972106e+11   9.195296e+09   2.976488e+05   5.698288e-27   0.000000e+00  2.524675e-321
      152000   1.519990e-08   9.775308e-02   6.368587e+00   1.829361e+01  -1.455436e+05  -1.423756e+05   2.171199e+05   3.041084e+11  -2.966751e+11   9.311649e+09   2.976488e+05   5.700629e-27   0.000000e+00  2.524675e-321
      160000   1.599990e-08   9.763674e-02   6.368473e+00   1.829378e+01  -1.453001e+05  -1.426128e+05   2.171274e+05   3.047494e+11  -2.961381e+11   9.427892e+09   2.976488e+05   5.702968e-27   0.000000e+00  2.524675e-321
      168000   1.679990e-08   9.752060e-02   6.368358e+00   1.829396e+01  -1.450560e+05  -1.428495e+05   2.171350e+05   3.053894e+11  -2.955996e+11   9.544025e+09   2.976488e+05   5.705305e-27   0.000000e+00  2.524675e-321
      176000   1.759990e-08   9.740465e-02   6.368244e+00   1.829413e+01  -1.448114e+05  -1.430857e+05   2.171427e+05   3.060283e+11  -2.950596e+11   9.660047e+09   2.976488e+05   5.707640e-27   0.000000e+00  2.524675e-321
      184000   1.839990e-08   9.728890e-02   6.368129e+00   1.829431e+01  -1.445664e+05  -1.433215e+05   2.171504e+05   3.066663e+11  -2.945181e+11   9.775958e+09   2.976488e+05   5.709972e-27   0.000000e+00  2.524675e-321
      192000   1.919990e-08   9.717335e-02   6.368015e+00   1.829448e+01  -1.443208e+05  -1.435569e+05   2.171583e+05   3.073032e+11  -2.939752e+11   9.891759e+09   2.976488e+05   5.712303e-27   0.000000e+00  2.524675e-321
      200000   1.999990e-08   9.705799e-02   6.367900e+00   1.829465e+01  -1.440747e+05  -1.437919e+05   2.171663e+05   3.079392e+11  -2.934308e+11   1.000745e+10   2.976488e+05   5.714631e-27   0.000000e+00  2.524675e-321
      208000   2.079990e-08   9.694283e-02   6.367785e+00   1.829483e+01  -1.438281e+05  -1.440264e+05   2.171743e+05   3.085741e+11  -2.928849e+11   1.012303e+10   2.976488e+05   5.716958e-27   0.000000e+00  2.524675e-321
      216000   2.159990e-08   9.682786e-02   6.367669e+00   1.829500e+01  -1.435810e+05  -1.442605e+05   2.171825e+05   3.092079e+11  -2.923376e+11   1.023849e+10   2.976488e+05   5.719282e-27   0.000000e+00  2.524675e-321
      224000   2.239990e-08   9.671310e-02   6.367554e+00   1.829517e+01  -1.433333e+05  -1.444942e+05   2.171907e+05   3.098408e+11  -2.917887e+11   1.035385e+10   2.976488e+05   5.721603e-27   0.000000e+00  2.524675e-321
      232000   2.319990e-08   9.659853e-02   6.367438e+00   1.829535e+01  -1.430852e+05  -1.447274e+05   2.171990e+05   3.104726e+11  -2.912384e+11   1.046909e+10   2.976488e+05   5.723923e-27   0.000000e+00  2.524675e-321
      240000   2.399990e-08   9.648416e-02   6.367322e+00   1.829552e+01  -1.428366e+05  -1.449602e+05   2.172074e+05   3.111034e+11  -2.906867e+11   1.058422e+10   2.976488e+05   5.726240e-27   0.000000e+00  2.524675e-321
      248000   2.479990e-08   9.636999e-02   6.367206e+00   1.829570e+01  -1.425874e+05  -1.451925e+05   2.172160e+05   3.117331e+11  -2.901334e+11   1.069924e+10   2.976488e+05   5.728556e-27   0.000000e+00  2.524675e-321
      256000   2.559990e-08   9.625602e-02   6.367090e+00   1.829587e+01  -1.423378e+05  -1.454244e+05   2.172246e+05   3.123618e+11  -2.895788e+11   1.081415e+10   2.976488e+05   5.730868e-27   0.000000e+00  2.524675e-321
      264000   2.639990e-08   9.614225e-02   6.366973e+00   1.829604e+01  -1.420877e+05  -1.456558e+05   2.172333e+05   3.129894e+11  -2.890226e+11   1.092895e+10   2.976488e+05   5.733179e-27   0.000000e+00  2.524675e-321
      272000   2.719990e-08   9.602868e-02   6.366857e+00   1.829622e+01  -1.418370e+05  -1.458868e+05   2.172420e+05   3.136160e+11  -2.884650e+11   1.104363e+10   2.976488e+05   5.735488e-27   0.000000e+00  2.524675e-321
      280000   2.799990e-08   9.591531e-02   6.366740e+00   1.829639e+01  -1.415859e+05  -1.461174e+05   2.172509e+05   3.142415e+11  -2.879059e+11   1.115820e+10   2.976488e+05   5.737794e-27   0.000000e+00  2.524675e-321
      288000   2.879990e-08   9.580214e-02   6.366623e+00   1.829656e+01  -1.413342e+05  -1.463475e+05   2.172599e+05   3.148660e+11  -2.873454e+11   1.127266e+10   2.976488e+05   5.740098e-27   0.000000e+00  2.524675e-321
      296000   2.959990e-08   9.568918e-02   6.366506e+00   1.829674e+01  -1.410821e+05  -1.465771e+05   2.172690e+05   3.154894e+11  -2.867834e+11   1.138701e+10   2.976488e+05   5.742399e-27   0.000000e+00  2.524675e-321
      304000   3.039990e-08   9.557641e-02   6.366389e+00   1.829691e+01  -1.408295e+05  -1.468063e+05   2.172781e+05   3.161118e+11  -2.862200e+11   1.150124e+10   2.976488e+05   5.744699e-27   0.000000e+00  2.524675e-321
      312000   3.119990e-08   9.546385e-02   6.366271e+00   1.829709e+01  -1.405763e+05  -1.470351e+05   2.172874e+05   3.167330e+11  -2.856551e+11   1.161536e+10   2.976488e+05   5.746996e-27   0.000000e+00  2.524675e-321
      320000   3.199990e-08   9.535149e-02   6.366153e+00   1.829726e+01  -1.403227e+05  -1.472634e+05   2.172967e+05   3.173532e+11  -2.850887e+11   1.172937e+10   2.976488e+05   5.749291e-27   0.000000e+00  2.524675e-321
      328000   3.279990e-08   9.523933e-02   6.366035e+00   1.829743e+01  -1.400686e+05  -1.474912e+05   2.173061e+05   3.179724e+11  -2.845210e+11   1.184326e+10   2.976488e+05   5.751583e-27   0.000000e+00  2.524675e-321
      336000   3.359990e-08   9.512738e-02   6.365917e+00   1.829761e+01  -1.398139e+05  -1.477186e+05   2.173157e+05   3.185904e+11  -2.839517e+11   1.195704e+10   2.976488e+05   5.753874e-27   0.000000e+00  2.524675e-321
      344000   3.439990e-08   9.501563e-02   6.365799e+00   1.829778e+01  -1.395588e+05  -1.479455e+05   2.173253e+05   3.192074e+11  -2.833811e+11   1.207071e+10   2.976488e+05   5.756161e-27   0.000000e+00  2.524675e-321
      352000   3.519990e-08   9.490409e-02   6.365681e+00   1.829796e+01  -1.393032e+05  -1.481720e+05   2.173350e+05   3.198233e+11  -2.828089e+11   1.218426e+10   2.976488e+05   5.758447e-27   0.000000e+00  2.524675e-321
      360000   3.599990e-08   9.479275e-02   6.365562e+00   1.829813e+01  -1.390471e+05  -1.483980e+05   2.173448e+05   3.204381e+11  -2.822354e+11   1.229770e+10   2.976488e+05   5.760730e-27   0.000000e+00  2.524675e-321
      368000   3.679990e-08   9.468161e-02   6.365443e+00   1.829830e+01  -1.387905e+05  -1.486236e+05   2.173546e+05   3.210519e+11  -2.816604e+11   1.241103e+10   2.976488e+05   5.763011e-27   0.000000e+00  2.524675e-321
      376000   3.759990e-08   9.457068e-02   6.365324e+00   1.829848e+01  -1.385334e+05  -1.488487e+05   2.173646e+05   3.216645e+11  -2.810839e+11   1.252425e+10   2.976488e+05   5.765290e-27   0.000000e+00  2.524675e-321
      384000   3.839990e-08   9.445996e-02   6.365205e+00   1.829865e+01  -1.382758e+05  -1.490733e+05   2.173747e+05   3.222760e+11  -2.805060e+11   1.263734e+10   2.976488e+05   5.767566e-27   0.000000e+00  2.524675e-321
      392000   3.919990e-08   9.434944e-02   6.365086e+00   1.829883e+01  -1.380178e+05  -1.492975e+05   2.173848e+05   3.228864e+11  -2.799267e+11   1.275033e+10   2.976488e+05   5.769840e-27   0.000000e+00  2.524675e-321
      400000   3.999990e-08   9.423913e-02   6.364966e+00   1.829900e+01  -1.377592e+05  -1.495212e+05   2.173951e+05   3.234958e+11  -2.793460e+11   1.286320e+10   2.976488e+05   5.772111e-27   0.000000e+00  2.524675e-321
      408000   4.079990e-08   9.412903e-02   6.364846e+00   1.829917e+01  -1.375002e+05  -1.497444e+05   2.174054e+05   3.241040e+11  -2.787638e+11   1.297596e+10   2.976488e+05   5.774380e-27   0.000000e+00  2.524675e-321
      416000   4.159990e-08   9.401913e-02   6.364727e+00   1.829935e+01  -1.372406e+05  -1.499672e+05   2.174158e+05   3.247111e+11  -2.781802e+11   1.308860e+10   2.976488e+05   5.776647e-27   0.000000e+00  2.524675e-321
      424000   4.239990e-08   9.390944e-02   6.364606e+00   1.829952e+01  -1.369806e+05  -1.501895e+05   2.174264e+05   3.253171e+11  -2.775952e+11   1.320113e+10   2.976488e+05   5.778911e-27   0.000000e+00  2.524675e-321
      432000   4.319990e-08   9.379996e-02   6.364486e+00   1.829969e+01  -1.367201e+05  -1.504114e+05   2.174370e+05   3.259220e+11  -2.770087e+11   1.331354e+10   2.976488e+05   5.781173e-27   0.000000e+00  2.524675e-321
      440000   4.399990e-08   9.369069e-02   6.364366e+00   1.829987e+01  -1.364592e+05  -1.506327e+05   2.174477e+05   3.265257e+11  -2.764208e+11   1.342584e+10   2.976488e+05   5.783432e-27   0.000000e+00  2.524675e-321
      448000   4.479990e-08   9.358163e-02   6.364245e+00   1.830004e+01  -1.361983e+05  -1.508528e+05   2.174586e+05   3.239063e+11  -2.718061e+11   1.431441e+10   2.976488e+05   5.650562e-27   0.000000e+00  2.524675e-321
      456000   4.559990e-08   9.347277e-02   6.364124e+00   1.830022e+01  -1.359390e+05  -1.510701e+05   2.174701e+05   3.245061e+11  -2.712302e+11   1.443087e+10   2.976488e+05   5.653075e-27   0.000000e+00  2.524675e-321
      464000   4.639990e-08   9.336412e-02   6.364004e+00   1.830039e+01  -1.356791e+05  -1.512868e+05   2.174817e+05   3.251049e+11  -2.706529e+11   1.454722e+10   2.976488e+05   5.655585e-27   0.000000e+00  2.524675e-321
      472000   4.719990e-08   9.325569e-02   6.363882e+00   1.830056e+01  -1.354188e+05  -1.515031e+05   2.174934e+05   3.257026e+11  -2.700742e+11   1.466344e+10   2.976488e+05   5.658092e-27   0.000000e+00  2.524675e-321
      480000   4.799990e-08   9.314745e-02   6.363761e+00   1.830074e+01  -1.351580e+05  -1.517189e+05   2.175052e+05   3.262992e+11  -2.694940e+11   1.477955e+10   2.976488e+05   5.660597e-27   0.000000e+00  2.524675e-321
      488000   4.879990e-08   9.303943e-02   6.363640e+00   1.830091e+01  -1.348967e+05  -1.519343e+05   2.175170e+05   3.268947e+11  -2.689124e+11   1.489553e+10   2.976488e+05   5.663100e-27   0.000000e+00  2.524675e-321
      496000   4.959990e-08   9.293162e-02   6.363518e+00   1.830109e+01  -1.346350e+05  -1.521492e+05   2.175290e+05   3.274891e+11  -2.683293e+11   1.501139e+10   2.976488e+05   5.665599e-27   0.000000e+00  2.524675e-321
      504000   5.039990e-08   9.282402e-02   6.363396e+00   1.830126e+01  -1.343727e+05  -1.523636e+05   2.175410e+05   3.280824e+11  -2.677448e+11   1.512714e+10   2.976488e+05   5.668096e-27   0.000000e+00  2.524675e-321
      512000   5.119990e-08   9.271662e-02   6.363274e+00   1.830143e+01  -1.341100e+05  -1.525776e+05   2.175532e+05   3.286745e+11  -2.671589e+11   1.524276e+10   2.976488e+05   5.670590e-27   0.000000e+00  2.524675e-321
      520000   5.199990e-08   9.260944e-02   6.363152e+00   1.830161e+01  -1.338469e+05  -1.527911e+05   2.175654e+05   3.292656e+11  -2.665716e+11   1.535826e+10   2.976488e+05   5.673082e-27   0.000000e+00  2.524675e-321
      528000   5.279990e-08   9.250247e-02   6.363030e+00   1.830178e+01  -1.335832e+05  -1.530041e+05   2.175778e+05   3.298555e+11  -2.659828e+11   1.547364e+10   2.976488e+05   5.675571e-27   0.000000e+00  2.524675e-321
      536000   5.359990e-08   9.239571e-02   6.362907e+00   1.830196e+01  -1.333191e+05  -1.532166e+05   2.175902e+05   3.304443e+11  -2.653926e+11   1.558890e+10   2.976488e+05   5.678057e-27   0.000000e+00  2.524675e-321
      544000   5.439990e-08   9.228916e-02   6.362785e+00   1.830213e+01  -1.330545e+05  -1.534287e+05   2.176027e+05   3.310320e+11  -2.648010e+11   1.570404e+10   2.976488e+05   5.680541e-27   0.000000e+00  2.524675e-321
      552000   5.519990e-08   9.218282e-02   6.362662e+00   1.830231e+01  -1.327894e+05  -1.536403e+05   2.176153e+05   3.316186e+11  -2.642079e+11   1.581906e+10   2.976488e+05   5.683021e-27   0.000000e+00  2.524675e-321
      560000   5.599990e-08   9.207670e-02   6.362539e+00   1.830248e+01  -1.325239e+05  -1.538515e+05   2.176280e+05   3.322040e+11  -2.636135e+11   1.593396e+10   2.976488e+05   5.685499e-27   0.000000e+00  2.524675e-321
      568000   5.679990e-08   9.197078e-02   6.362416e+00   1.830265e+01  -1.322579e+05  -1.540621e+05   2.176408e+05   3.327883e+11  -2.630176e+11   1.604874e+10   2.976488e+05   5.687975e-27   0.000000e+00  2.524675e-321
      576000   5.759990e-08   9.186508e-02   6.362292e+00   1.830283e+01  -1.319914e+05  -1.542723e+05   2.176537e+05   3.333715e+11  -2.624203e+11   1.616339e+10   2.976488e+05   5.690447e-27   0.000000e+00  2.524675e-321
      584000   5.839990e-08   9.175960e-02   6.362169e+00   1.830300e+01  -1.317245e+05  -1.544820e+05   2.176667e+05   3.339535e+11  -2.618216e+11   1.627793e+10   2.976488e+05   5.692917e-27   0.000000e+00  2.524675e-321
      592000   5.919990e-08   9.165432e-02   6.362045e+00   1.830318e+01  -1.314571e+05  -1.546912e+05   2.176797e+05   3.345343e+11  -2.612215e+11   1.639234e+10   2.976488e+05   5.695384e-27   0.000000e+00  2.524675e-321
      600000   5.999990e-08   9.154927e-02   6.361921e+00   1.830335e+01  -1.311893e+05  -1.548999e+05   2.176929e+05   3.351141e+11  -2.606199e+11   1.650663e+10   2.976488e+05   5.697848e-27   0.000000e+00  2.524675e-321
      608000   6.079990e-08   9.144442e-02   6.361797e+00   1.830352e+01  -1.309209e+05  -1.551082e+05   2.177061e+05   3.356926e+11  -2.600170e+11   1.662080e+10   2.976488e+05   5.700310e-27   0.000000e+00  2.524675e-321
      616000   6.159990e-08   9.133979e-02   6.361673e+00   1.830370e+01  -1.306522e+05  -1.553160e+05   2.177195e+05   3.362701e+11  -2.594126e+11   1.673485e+10   2.976488e+05   5.702768e-27   0.000000e+00  2.524675e-321
      624000   6.239990e-08   9.123538e-02   6.361549e+00   1.830387e+01  -1.303829e+05  -1.555232e+05   2.177329e+05   3.368463e+11  -2.588069e+11   1.684878e+10   2.976488e+05   5.705224e-27   0.000000e+00  2.524675e-321
      632000   6.319990e-08   9.113118e-02   6.361424e+00   1.830405e+01  -1.301132e+05  -1.557300e+05   2.177464e+05   3.374214e+11  -2.581997e+11   1.696259e+10   2.976488e+05   5.707677e-27   0.000000e+00  2.524675e-321
      640000   6.399990e-08   9.102720e-02   6.361300e+00   1.830422e+01  -1.298430e+05  -1.559364e+05   2.177601e+05   3.379953e+11  -2.575912e+11   1.707627e+10   2.976488e+05   5.710128e-27   0.000000e+00  2.524675e-321
      648000   6.479990e-08   9.092343e-02   6.361175e+00   1.830439e+01  -1.295724e+05  -1.561422e+05   2.177738e+05   3.385681e+11  -2.569812e+11   1.718984e+10   2.976488e+05   5.712575e-27   0.000000e+00  2.524675e-321
      656000   6.559990e-08   9.081988e-02   6.361050e+00   1.830457e+01  -1.293013e+05  -1.563475e+05   2.177876e+05   3.391397e+11  -2.563698e+11   1.730328e+10   2.976488e+05   5.715020e-27   0.000000e+00  2.524675e-321
      664000   6.639990e-08   9.071655e-02   6.360925e+00   1.830474e+01  -1.290298e+05  -1.565524e+05   2.178015e+05   3.397101e+11  -2.557571e+11   1.741660e+10   2.976488e+05   5.717462e-27   0.000000e+00  2.524675e-321
      672000   6.719990e-08   9.061343e-02   6.360799e+00   1.830492e+01  -1.287578e+05  -1.567567e+05   2.178154e+05   3.402793e+11  -2.551429e+11   1.752980e+10   2.976488e+05   5.719901e-27   0.000000e+00  2.524675e-321
      680000   6.799990e-08   9.051054e-02   6.360674e+00   1.830509e+01  -1.284853e+05  -1.569606e+05   2.178295e+05   3.408474e+11  -2.545274e+11   1.764288e+10   2.976488e+05   5.722337e-27   0.000000e+00  2.524675e-321
      688000   6.879990e-08   9.040786e-02   6.360548e+00   1.830527e+01  -1.282124e+05  -1.571640e+05   2.178437e+05   3.414143e+11  -2.539105e+11   1.775583e+10   2.976488e+05   5.724770e-27   0.000000e+00  2.524675e-321
      696000   6.959990e-08   9.030540e-02   6.360422e+00   1.830544e+01  -1.279391e+05  -1.573669e+05   2.178579e+05   3.419800e+11  -2.532921e+11   1.786866e+10   2.976488e+05   5.727201e-27   0.000000e+00  2.524675e-321
      704000   7.039990e-08   9.020316e-02   6.360296e+00   1.830561e+01  -1.276653e+05  -1.575693e+05   2.178723e+05   3.425445e+11  -2.526724e+11   1.798138e+10   2.976488e+05   5.729629e-27   0.000000e+00  2.524675e-321
      712000   7.119990e-08   9.010113e-02   6.360170e+00   1.830579e+01  -1.273910e+05  -1.577711e+05   2.178867e+05   3.431078e+11  -2.520513e+11   1.809397e+10   2.976488e+05   5.732053e-27   0.000000e+00  2.524675e-321
      720000   7.199990e-08   8.999933e-02   6.360044e+00   1.830596e+01  -1.271163e+05  -1.579725e+05   2.179012e+05   3.436699e+11  -2.514289e+11   1.820643e+10   2.976488e+05   5.734475e-27   0.000000e+00  2.524675e-321
      728000   7.279990e-08   8.989775e-02   6.359917e+00   1.830614e+01  -1.268411e+05  -1.581734e+05   2.179158e+05   3.442308e+11  -2.508050e+11   1.831878e+10   2.976488e+05   5.736894e-27   0.000000e+00  2.524675e-321
      736000   7.359990e-08   8.979638e-02   6.359791e+00   1.830631e+01  -1.265655e+05  -1.583738e+05   2.179305e+05   3.447905e+11  -2.501798e+11   1.843100e+10   2.976488e+05   5.739310e-27   0.000000e+00  2.524675e-321
      744000   7.439990e-08   8.969524e-02   6.359664e+00   1.830649e+01  -1.262895e+05  -1.585737e+05   2.179453e+05   3.453490e+11  -2.495532e+11   1.854311e+10   2.976488e+05   5.741723e-27   0.000000e+00  2.524675e-321
      752000   7.519990e-08   8.959432e-02   6.359537e+00   1.830666e+01  -1.260130e+05  -1.587731e+05   2.179602e+05   3.459062e+11  -2.489252e+11   1.865509e+10   2.976488e+05   5.744134e-27   0.000000e+00  2.524675e-321
      760000   7.599990e-08   8.949362e-02   6.359410e+00   1.830684e+01  -1.257360e+05  -1.589720e+05   2.179752e+05   3.464623e+11  -2.482958e+11   1.876694e+10   2.976488e+05   5.746541e-27   0.000000e+00  2.524675e-321
      768000   7.679990e-08   8.939314e-02   6.359283e+00   1.830701e+01  -1.254586e+05  -1.591704e+05   2.179902e+05   3.470172e+11  -2.476651e+11   1.887868e+10   2.976488e+05   5.748946e-27   0.000000e+00  2.524675e-321
      776000   7.759990e-08   8.929289e-02   6.359155e+00   1.830718e+01  -1.251808e+05  -1.593683e+05   2.180054e+05   3.475708e+11  -2.470330e+11   1.899029e+10   2.976488e+05   5.751347e-27   0.000000e+00  2.524675e-321
      784000   7.839990e-08   8.919285e-02   6.359028e+00   1.830736e+01  -1.249025e+05  -1.595656e+05   2.180206e+05   3.481232e+11  -2.463995e+11   1.910179e+10   2.976488e+05   5.753746e-27   0.000000e+00  2.524675e-321
      792000   7.919990e-08   8.909304e-02   6.358900e+00   1.830753e+01  -1.246238e+05  -1.597625e+05   2.180359e+05   3.486744e+11  -2.457647e+11   1.921315e+10   2.976488e+05   5.756141e-27   0.000000e+00  2.524675e-321
      800000   7.999990e-08   8.899346e-02   6.358772e+00   1.830771e+01  -1.243446e+05  -1.599589e+05   2.180513e+05   3.492243e+11  -2.451285e+11   1.932440e+10   2.976488e+05   5.758534e-27   0.000000e+00  2.524675e-321
      808000   8.079990e-08   8.889409e-02   6.358644e+00   1.830788e+01  -1.240650e+05  -1.601547e+05   2.180668e+05   3.497731e+11  -2.444910e+11   1.943553e+10   2.976488e+05   5.760924e-27   0.000000e+00  2.524675e-321
      816000   8.159990e-08   8.879495e-02   6.358516e+00   1.830806e+01  -1.237850e+05  -1.603500e+05   2.180824e+05   3.503205e+11  -2.438521e+11   1.954653e+10   2.976488e+05   5.763311e-27   0.000000e+00  2.524675e-321
      824000   8.239990e-08   8.869604e-02   6.358388e+00   1.830823e+01  -1.235045e+05  -1.605449e+05   2.180981e+05   3.508668e+11  -2.432118e+11   1.965741e+10   2.976488e+05   5.765695e-27   0.000000e+00  2.524675e-321
      832000   8.319990e-08   8.859735e-02   6.358259e+00   1.830841e+01  -1.232236e+05  -1.607392e+05   2.181139e+05   3.514118e+11  -2.425702e+11   1.976817e+10   2.976488e+05   5.768076e-27   0.000000e+00  2.524675e-321
      840000   8.399990e-08   8.849888e-02   6.358130e+00   1.830858e+01  -1.229423e+05  -1.609330e+05   2.181297e+05   3.519555e+11  -2.419272e+11   1.987881e+10   2.976488e+05   5.770453e-27   0.000000e+00  2.524675e-321
      848000   8.479990e-08   8.840064e-02   6.358002e+00   1.830875e+01  -1.226605e+05  -1.611263e+05   2.181457e+05   3.524980e+11  -2.412829e+11   1.998932e+10   2.976488e+05   5.772828e-27   0.000000e+00  2.524675e-321
      856000   8.559990e-08   8.830262e-02   6.357873e+00   1.830893e+01  -1.223783e+05  -1.613190e+05   2.181617e+05   3.530393e+11  -2.406372e+11   2.009971e+10   2.976488e+05   5.775200e-27   0.000000e+00  2.524675e-321
      864000   8.639990e-08   8.820483e-02   6.357743e+00   1.830910e+01  -1.220956e+05  -1.615113e+05   2.181778e+05   3.535793e+11  -2.399902e+11   2.020998e+10   2.976488e+05   5.777569e-27   0.000000e+00  2.524675e-321
      872000   8.719990e-08   8.810727e-02   6.357614e+00   1.830928e+01  -1.218125e+05  -1.617030e+05   2.181941e+05   3.541180e+11  -2.393419e+11   2.032013e+10   2.976488e+05   5.779935e-27   0.000000e+00  2.524675e-321
      880000   8.799990e-08   8.800993e-02   6.357485e+00   1.830945e+01  -1.215290e+05  -1.618942e+05   2.182104e+05   3.546555e+11  -2.386922e+11   2.043015e+10   2.976488e+05   5.782298e-27   0.000000e+00  2.524675e-321
      888000   8.879990e-08   8.791282e-02   6.357355e+00   1.830963e+01  -1.212451e+05  -1.620849e+05   2.182267e+05   3.551917e+11  -2.380411e+11   2.054005e+10   2.976488e+05   5.784658e-27   0.000000e+00  2.524675e-321
      896000   8.959990e-08   8.781594e-02   6.357225e+00   1.830980e+01  -1.209607e+05  -1.622751e+05   2.182432e+05   3.557266e+11  -2.373888e+11   2.064983e+10   2.976488e+05   5.787015e-27   0.000000e+00  2.524675e-321
      904000   9.039990e-08   8.771929e-02   6.357096e+00   1.830998e+01  -1.206759e+05  -1.624647e+05   2.182598e+05   3.562603e+11  -2.367351e+11   2.075949e+10   2.976488e+05   5.789369e-27   0.000000e+00  2.524675e-321
      912000   9.119990e-08   8.762286e-02   6.356965e+00   1.831015e+01  -1.203907e+05  -1.626539e+05   2.182764e+05   3.567927e+11  -2.360800e+11   2.086903e+10   2.976488e+05   5.791720e-27   0.000000e+00  2.524675e-321
      920000   9.199990e-08   8.752666e-02   6.356835e+00   1.831033e+01  -1.201051e+05  -1.628425e+05   2.182932e+05   3.573238e+11  -2.354236e+11   2.097844e+10   2.976488e+05   5.794067e-27   0.000000e+00  2.524675e-321
      928000   9.279990e-08   8.743069e-02   6.356705e+00   1.831050e+01  -1.198190e+05  -1.630306e+05   2.183100e+05   3.578536e+11  -2.347659e+11   2.108773e+10   2.976488e+05   5.796412e-27   0.000000e+00  2.524675e-321
      936000   9.359990e-08   8.733495e-02   6.356574e+00   1.831067e+01  -1.195325e+05  -1.632181e+05   2.183269e+05   3.583822e+11  -2.341069e+11   2.119690e+10   2.976488e+05   5.798754e-27   0.000000e+00  2.524675e-321
      944000   9.439990e-08   8.723944e-02   6.356444e+00   1.831085e+01  -1.192456e+05  -1.634051e+05   2.183439e+05   3.589095e+11  -2.334466e+11   2.130594e+10   2.976488e+05   5.801093e-27   0.000000e+00  2.524675e-321
      952000   9.519990e-08   8.714416e-02   6.356313e+00   1.831102e+01  -1.189582e+05  -1.635916e+05   2.183610e+05   3.594354e+11  -2.327849e+11   2.141487e+10   2.976488e+05   5.803428e-27   0.000000e+00  2.524675e-321
      960000   9.599990e-08   8.704911e-02   6.356182e+00   1.831120e+01  -1.186705e+05  -1.637776e+05   2.183782e+05   3.599601e+11  -2.321219e+11   2.152367e+10   2.976488e+05   5.805761e-27   0.000000e+00  2.524675e-321
      968000   9.679990e-08   8.695428e-02   6.356051e+00   1.831137e+01  -1.183823e+05  -1.639630e+05   2.183954e+05   3.604835e+11  -2.314576e+11   2.163235e+10   2.976488e+05   5.808090e-27   0.000000e+00  2.524675e-321
      976000   9.759990e-08   8.685969e-02   6.355920e+00   1.831155e+01  -1.180937e+05  -1.641479e+05   2.184128e+05   3.610056e+11  -2.307919e+11   2.174090e+10   2.976488e+05   5.810417e-27   0.000000e+00  2.524675e-321
      984000   9.839990e-08   8.676534e-02   6.355788e+00   1.831172e+01  -1.178047e+05  -1.643323e+05   2.184302e+05   3.615263e+11  -2.301250e+11   2.184934e+10   2.976488e+05   5.812740e-27   0.000000e+00  2.524675e-321
      992000   9.919990e-08   8.667121e-02   6.355657e+00   1.831190e+01  -1.175153e+05  -1.645161e+05   2.184478e+05   3.620458e+11  -2.294567e+11   2.195765e+10   2.976488e+05   5.815060e-27   0.000000e+00  2.524675e-321
     1000000   9.999990e-08   8.657731e-02   6.355525e+00   1.831207e+01  -1.172254e+05  -1.646994e+05   2.184654e+05   3.625640e+11  -2.287872e+11   2.206584e+10   2.976488e+05   5.817377e-27   0.000000e+00  2.524675e-321
     1008000   1.007999e-07   8.648365e-02   6.355393e+00   1.831225e+01  -1.169352e+05  -1.648822e+05   2.184831e+05   3.630808e+11  -2.281163e+11   2.217391e+10   2.976488e+05   5.819691e-27   0.000000e+00  2.524675e-321
     1016000   1.015999e-07   8.639021e-02   6.355261e+00   1.831242e+01  -1.166445e+05  -1.650644e+05   2.185008e+05   3.635963e+11  -2.274441e+11   2.228185e+10   2.976488e+05   5.822002e-27   0.000000e+00  2.524675e-321
     1024000   1.023999e-07   8.629702e-02   6.355129e+00   1.831260e+01  -1.163534e+05  -1.652461e+05   2.185187e+05   3.641105e+11  -2.267707e+11   2.238967e+10   2.976488e+05   5.824310e-27   0.000000e+00  2.524675e-321
     1032000   1.031999e-07   8.620405e-02   6.354997e+00   1.831277e+01  -1.160619e+05  -1.654272e+05   2.185367e+05   3.646234e+11  -2.260959e+11   2.249737e+10   2.976488e+05   5.826615e-27   0.000000e+00  2.524675e-321
     1040000   1.039999e-07   8.611132e-02   6.354864e+00   1.831295e+01  -1.157700e+05  -1.656078e+05   2.185547e+05   3.651350e+11  -2.254198e+11   2.260495e+10   2.976488e+05   5.828916e-27   0.000000e+00  2.524675e-321
     1048000   1.047999e-07   8.601882e-02   6.354732e+00   1.831312e+01  -1.154777e+05  -1.657879e+05   2.185728e+05   3.656452e+11  -2.247424e+11   2.271241e+10   2.976488e+05   5.831215e-27   0.000000e+00  2.524675e-321
     1056000   1.055999e-07   8.592655e-02   6.354599e+00   1.831330e+01  -1.151850e+05  -1.659674e+05   2.185910e+05   3.661541e+11  -2.240638e+11   2.281974e+10   2.976488e+05   5.833510e-27   0.000000e+00  2.524675e-321
     1064000   1.063999e-07   8.583452e-02   6.354466e+00   1.831347e+01  -1.148919e+05  -1.661464e+05   2.186093e+05   3.666617e+11  -2.233838e+11   2.292695e+10   2.976488e+05   5.835802e-27   0.000000e+00  2.524675e-321
     1072000   1.071999e-07   8.574273e-02   6.354333e+00   1.831365e+01  -1.145983e+05  -1.663248e+05   2.186277e+05   3.671679e+11  -2.227026e+11   2.303404e+10   2.976488e+05   5.838091e-27   0.000000e+00  2.524675e-321
     1080000   1.079999e-07   8.565116e-02   6.354200e+00   1.831382e+01  -1.143044e+05  -1.665027e+05   2.186462e+05   3.676728e+11  -2.220200e+11   2.314101e+10   2.976488e+05   5.840377e-27   0.000000e+00  2.524675e-321
     1088000   1.087999e-07   8.555984e-02   6.354067e+00   1.831400e+01  -1.140101e+05  -1.666801e+05   2.186648e+05   3.681763e+11  -2.213362e+11   2.324785e+10   2.976488e+05   5.842660e-27   0.000000e+00  2.524675e-321
     1096000   1.095999e-07   8.546875e-02   6.353934e+00   1.831417e+01  -1.137153e+05  -1.668569e+05   2.186834e+05   3.686785e+11  -2.206511e+11   2.335457e+10   2.976488e+05   5.844940e-27   0.000000e+00  2.524675e-321
     1104000   1.103999e-07   8.537789e-02   6.353800e+00   1.831435e+01  -1.134202e+05  -1.670331e+05   2.187021e+05   3.691794e+11  -2.199648e+11   2.346117e+10   2.976488e+05   5.847216e-27   0.000000e+00  2.524675e-321
     1112000   1.111999e-07   8.528728e-02   6.353666e+00   1.831452e+01  -1.131246e+05  -1.672088e+05   2.187209e+05   3.696789e+11  -2.192771e+11   2.356765e+10   2.976488e+05   5.849490e-27   0.000000e+00  2.524675e-321
     1120000   1.119999e-07   8.519689e-02   6.353532e+00   1.831470e+01  -1.128287e+05  -1.673839e+05   2.187398e+05   3.701770e+11  -2.185882e+11   2.367401e+10   2.976488e+05   5.851760e-27   0.000000e+00  2.524675e-321
     1128000   1.127999e-07   8.510675e-02   6.353398e+00   1.831487e+01  -1.125323e+05  -1.675585e+05   2.187588e+05   3.706738e+11  -2.178980e+11   2.378024e+10   2.976488e+05   5.854027e-27   0.000000e+00  2.524675e-321
     1136000   1.135999e-07   8.501684e-02   6.353264e+00   1.831505e+01  -1.122356e+05  -1.677326e+05   2.187779e+05   3.711692e+11  -2.172065e+11   2.388635e+10   2.976488e+05   5.856291e-27   0.000000e+00  2.524675e-321
     1144000   1.143999e-07   8.492717e-02   6.353130e+00   1.831522e+01  -1.119385e+05  -1.679061e+05   2.187970e+05   3.716632e+11  -2.165138e+11   2.399234e+10   2.976488e+05   5.858551e-27   0.000000e+00  2.524675e-321
     1152000   1.151999e-07   8.483774e-02   6.352996e+00   1.831540e+01  -1.116409e+05  -1.680790e+05   2.188163e+05   3.721559e+11  -2.158198e+11   2.409821e+10   2.976488e+05   5.860809e-27   0.000000e+00  2.524675e-321
     1160000   1.159999e-07   8.474855e-02   6.352861e+00   1.831557e+01  -1.113430e+05  -1.682514e+05   2.188356e+05   3.726472e+11  -2.151245e+11   2.420395e+10   2.976488e+05   5.863063e-27   0.000000e+00  2.524675e-321
     1168000   1.167999e-07   8.465959e-02   6.352726e+00   1.831575e+01  -1.110447e+05  -1.684232e+05   2.188550e+05   3.731371e+11  -2.144280e+11   2.430958e+10   2.976488e+05   5.865314e-27   0.000000e+00  2.524675e-321
     1176000   1.175999e-07   8.457088e-02   6.352592e+00   1.831592e+01  -1.107460e+05  -1.685945e+05   2.188745e+05   3.736257e+11  -2.137302e+11   2.441508e+10   2.976488e+05   5.867562e-27   0.000000e+00  2.524675e-321
     1184000   1.183999e-07   8.448240e-02   6.352457e+00   1.831610e+01  -1.104469e+05  -1.687652e+05   2.188941e+05   3.741128e+11  -2.130312e+11   2.452046e+10   2.976488e+05   5.869807e-27   0.000000e+00  2.524675e-321
     1192000   1.191999e-07   8.439416e-02   6.352322e+00   1.831627e+01  -1.101474e+05  -1.689353e+05   2.189137e+05   3.745986e+11  -2.123309e+11   2.462571e+10   2.976488e+05   5.872048e-27   0.000000e+00  2.524675e-321
     1200000   1.199999e-07   8.430616e-02   6.352186e+00   1.831645e+01  -1.098475e+05  -1.691049e+05   2.189335e+05   3.750830e+11  -2.116293e+11   2.473085e+10   2.976488e+05   5.874286e-27   0.000000e+00  2.524675e-321
     1208000   1.207999e-07   8.421841e-02   6.352051e+00   1.831662e+01  -1.095473e+05  -1.692739e+05   2.189533e+05   3.755660e+11  -2.109266e+11   2.483586e+10   2.976488e+05   5.876521e-27   0.000000e+00  2.524675e-321
     1216000   1.215999e-07   8.413089e-02   6.351916e+00   1.831680e+01  -1.092466e+05  -1.694424e+05   2.189732e+05   3.760476e+11  -2.102225e+11   2.494076e+10   2.976488e+05   5.878753e-27   0.000000e+00  2.524675e-321
     1224000   1.223999e-07   8.404361e-02   6.351780e+00   1.831697e+01  -1.089456e+05  -1.696103e+05   2.189932e+05   3.765278e+11  -2.095172e+11   2.504553e+10   2.976488e+05   5.880982e-27   0.000000e+00  2.524675e-321
     1232000   1.231999e-07   8.395658e-02   6.351644e+00   1.831715e+01  -1.086442e+05  -1.697776e+05   2.190133e+05   3.770067e+11  -2.088107e+11   2.515017e+10   2.976488e+05   5.883207e-27   0.000000e+00  2.524675e-321
     1240000   1.239999e-07   8.386978e-02   6.351508e+00   1.831732e+01  -1.083424e+05  -1.699444e+05   2.190334e+05   3.774841e+11  -2.081030e+11   2.525470e+10   2.976488e+05   5.885430e-27   0.000000e+00  2.524675e-321
     1248000   1.247999e-07   8.378323e-02   6.351372e+00   1.831750e+01  -1.080402e+05  -1.701106e+05   2.190537e+05   3.779601e+11  -2.073940e+11   2.535911e+10   2.976488e+05   5.887649e-27   0.000000e+00  2.524675e-321
     1256000   1.255999e-07   8.369692e-02   6.351236e+00   1.831767e+01  -1.077377e+05  -1.702762e+05   2.190740e+05   3.784347e+11  -2.066837e+11   2.546339e+10   2.976488e+05   5.889864e-27   0.000000e+00  2.524675e-321
     1264000   1.263999e-07   8.361085e-02   6.351100e+00   1.831785e+01  -1.074347e+05  -1.704413e+05   2.190944e+05   3.789079e+11  -2.059723e+11   2.556755e+10   2.976488e+05   5.892077e-27   0.000000e+00  2.524675e-321
     1272000   1.271999e-07   8.352502e-02   6.350963e+00   1.831802e+01  -1.071314e+05  -1.706058e+05   2.191149e+05   3.793796e+11  -2.052596e+11   2.567159e+10   2.976488e+05   5.894286e-27   0.000000e+00  2.524675e-321
     1280000   1.279999e-07   8.343944e-02   6.350827e+00   1.831820e+01  -1.068277e+05  -1.707697e+05   2.191355e+05   3.798500e+11  -2.045457e+11   2.577551e+10   2.976488e+05   5.896492e-27   0.000000e+00  2.524675e-321
     1288000   1.287999e-07   8.335410e-02   6.350690e+00   1.831837e+01  -1.065237e+05  -1.709330e+05   2.191562e+05   3.803189e+11  -2.038305e+11   2.587931e+10   2.976488e+05   5.898695e-27   0.000000e+00  2.524675e-321
     1296000   1.295999e-07   8.326900e-02   6.350553e+00   1.831855e+01  -1.062192e+05  -1.710958e+05   2.191769e+05   3.807864e+11  -2.031142e+11   2.598298e+10   2.976488e+05   5.900895e-27   0.000000e+00  2.524675e-321
     1304000   1.303999e-07   8.318415e-02   6.350416e+00   1.831872e+01  -1.059144e+05  -1.712580e+05   2.191977e+05   3.812525e+11  -2.023966e+11   2.608654e+10   2.976488e+05   5.903091e-27   0.000000e+00  2.524675e-321
     1312000   1.311999e-07   8.309954e-02   6.350279e+00   1.831890e+01  -1.056092e+05  -1.714196e+05   2.192186e+05   3.817171e+11  -2.016778e+11   2.618997e+10   2.976488e+05   5.905284e-27   0.000000e+00  2.524675e-321
     1320000   1.319999e-07   8.301517e-02   6.350142e+00   1.831908e+01  -1.053037e+05  -1.715807e+05   2.192396e+05   3.821803e+11  -2.009578e+11   2.629328e+10   2.976488e+05   5.907474e-27   0.000000e+00  2.524675e-321
     1328000   1.327999e-07   8.293105e-02   6.350005e+00   1.831925e+01  -1.049977e+05  -1.717412e+05   2.192607e+05   3.826421e+11  -2.002365e+11   2.639647e+10   2.976488e+05   5.909660e-27   0.000000e+00  2.524675e-321
     1336000   1.335999e-07   8.284718e-02   6.349867e+00   1.831943e+01  -1.046914e+05  -1.719011e+05   2.192819e+05   3.831025e+11  -1.995141e+11   2.649954e+10   2.976488e+05   5.911844e-27   0.000000e+00  2.524675e-321
     1344000   1.343999e-07   8.276354e-02   6.349730e+00   1.831960e+01  -1.043848e+05  -1.720604e+05   2.193031e+05   3.835614e+11  -1.987905e+11   2.660249e+10   2.976488e+05   5.914024e-27   0.000000e+00  2.524675e-321
     1352000   1.351999e-07   8.268016e-02   6.349592e+00   1.831978e+01  -1.040777e+05  -1.722191e+05   2.193244e+05   3.840188e+11  -1.980656e+11   2.670531e+10   2.976488e+05   5.916200e-27   0.000000e+00  2.524675e-321
     1360000   1.359999e-07   8.259702e-02   6.349454e+00   1.831995e+01  -1.037703e+05  -1.723773e+05   2.193458e+05   3.844748e+11  -1.973396e+11   2.680802e+10   2.976488e+05   5.918374e-27   0.000000e+00  2.524675e-321
     1368000   1.367999e-07   8.251413e-02   6.349316e+00   1.832013e+01  -1.034626e+05  -1.725349e+05   2.193673e+05   3.849294e+11  -1.966124e+11   2.691060e+10   2.976488e+05   5.920544e-27   0.000000e+00  2.524675e-321
     1376000   1.375999e-07   8.243148e-02   6.349178e+00   1.832030e+01  -1.031544e+05  -1.726919e+05   2.193889e+05   3.853825e+11  -1.958839e+11   2.701307e+10   2.976488e+05   5.922711e-27   0.000000e+00  2.524675e-321
     1384000   1.383999e-07   8.234908e-02   6.349040e+00   1.832048e+01  -1.028460e+05  -1.728483e+05   2.194105e+05   3.858341e+11  -1.951543e+11   2.711541e+10   2.976488e+05   5.924875e-27   0.000000e+00  2.524675e-321
     1392000   1.391999e-07   8.226693e-02   6.348902e+00   1.832065e+01  -1.025371e+05  -1.730041e+05   2.194323e+05   3.862843e+11  -1.944235e+11   2.721763e+10   2.976488e+05   5.927035e-27   0.000000e+00  2.524675e-321
     1400000   1.399999e-07   8.218502e-02   6.348763e+00   1.832083e+01  -1.022279e+05  -1.731594e+05   2.194541e+05   3.867330e+11  -1.936915e+11   2.731973e+10   2.976488e+05   5.929192e-27   0.000000e+00  2.524675e-321
     1408000   1.407999e-07   8.210336e-02   6.348625e+00   1.832101e+01  -1.019183e+05  -1.733140e+05   2.194760e+05   3.871803e+11  -1.929583e+11   2.742171e+10   2.976488e+05   5.931346e-27   0.000000e+00  2.524675e-321
     1416000   1.415999e-07   8.202195e-02   6.348486e+00   1.832118e+01  -1.016084e+05  -1.734681e+05   2.194980e+05   3.876260e+11  -1.922239e+11   2.752357e+10   2.976488e+05   5.933496e-27   0.000000e+00  2.524675e-321
     1424000   1.423999e-07   8.194079e-02   6.348347e+00   1.832136e+01  -1.012981e+05  -1.736216e+05   2.195200e+05   3.880703e+11  -1.914884e+11   2.762530e+10   2.976488e+05   5.935644e-27   0.000000e+00  2.524675e-321
     1432000   1.431999e-07   8.185987e-02   6.348208e+00   1.832153e+01  -1.009875e+05  -1.737745e+05   2.195422e+05   3.885132e+11  -1.907516e+11   2.772692e+10   2.976488e+05   5.937788e-27   0.000000e+00  2.524675e-321
     1440000   1.439999e-07   8.177921e-02   6.348069e+00   1.832171e+01  -1.006765e+05  -1.739268e+05   2.195644e+05   3.889545e+11  -1.900137e+11   2.782842e+10   2.976488e+05   5.939928e-27   0.000000e+00  2.524675e-321
     1448000   1.447999e-07   8.169879e-02   6.347930e+00   1.832188e+01  -1.003652e+05  -1.740785e+05   2.195867e+05   3.893944e+11  -1.892746e+11   2.792979e+10   2.976488e+05   5.942066e-27   0.000000e+00  2.524675e-321
     1456000   1.455999e-07   8.161862e-02   6.347791e+00   1.832206e+01  -1.000535e+05  -1.742296e+05   2.196091e+05   3.898328e+11  -1.885344e+11   2.803105e+10   2.976488e+05   5.944200e-27   0.000000e+00  2.524675e-321
     1464000   1.463999e-07   8.153871e-02   6.347651e+00   1.832223e+01  -9.974144e+04  -1.743802e+05   2.196315e+05   3.902697e+11  -1.877930e+11   2.813218e+10   2.976488e+05   5.946330e-27   0.000000e+00  2.524675e-321
     1472000   1.471999e-07   8.145904e-02   6.347511e+00   1.832241e+01  -9.942905e+04  -1.745301e+05   2.196541e+05   3.907051e+11  -1.870504e+11   2.823320e+10   2.976488e+05   5.948458e-27   0.000000e+00  2.524675e-321
     1480000   1.479999e-07   8.137962e-02   6.347372e+00   1.832259e+01  -9.911631e+04  -1.746794e+05   2.196767e+05   3.911391e+11  -1.863066e+11   2.833409e+10   2.976488e+05   5.950582e-27   0.000000e+00  2.524675e-321
     1488000   1.487999e-07   8.130045e-02   6.347232e+00   1.832276e+01  -9.880323e+04  -1.748282e+05   2.196994e+05   3.915715e+11  -1.855617e+11   2.843486e+10   2.976488e+05   5.952703e-27   0.000000e+00  2.524675e-321
     1496000   1.495999e-07   8.122154e-02   6.347092e+00   1.832294e+01  -9.848980e+04  -1.749763e+05   2.197222e+05   3.920024e+11  -1.848157e+11   2.853552e+10   2.976488e+05   5.954820e-27   0.000000e+00  2.524675e-321
     1504000   1.503999e-07   8.114287e-02   6.346952e+00   1.832311e+01  -9.817602e+04  -1.751239e+05   2.197451e+05   3.924319e+11  -1.840685e+11   2.863605e+10   2.976488e+05   5.956935e-27   0.000000e+00  2.524675e-321
     1512000   1.511999e-07   8.106445e-02   6.346812e+00   1.832329e+01  -9.786191e+04  -1.752709e+05   2.197680e+05   3.928598e+11  -1.833201e+11   2.873646e+10   2.976488e+05   5.959046e-27   0.000000e+00  2.524675e-321
     1520000   1.519999e-07   8.098629e-02   6.346672e+00   1.832347e+01  -9.754745e+04  -1.754172e+05   2.197911e+05   3.932862e+11  -1.825706e+11   2.883675e+10   2.976488e+05   5.961153e-27   0.000000e+00  2.524675e-321
     1528000   1.527999e-07   8.090838e-02   6.346531e+00   1.832364e+01  -9.723265e+04  -1.755630e+05   2.198142e+05   3.937111e+11  -1.818200e+11   2.893692e+10   2.976488e+05   5.963258e-27   0.000000e+00  2.524675e-321
     1536000   1.535999e-07   8.083072e-02   6.346391e+00   1.832382e+01  -9.691751e+04  -1.757081e+05   2.198374e+05   3.941345e+11  -1.810682e+11   2.903698e+10   2.976488e+05   5.965359e-27   0.000000e+00  2.524675e-321
     1544000   1.543999e-07   8.075331e-02   6.346250e+00   1.832399e+01  -9.660204e+04  -1.758527e+05   2.198606e+05   3.945564e+11  -1.803152e+11   2.913691e+10   2.976488e+05   5.967456e-27   0.000000e+00  2.524675e-321
     1552000   1.551999e-07   8.067615e-02   6.346109e+00   1.832417e+01  -9.628622e+04  -1.759966e+05   2.198840e+05   3.949768e+11  -1.795611e+11   2.923672e+10   2.976488e+05   5.969551e-27   0.000000e+00  2.524675e-321
     1560000   1.559999e-07   8.059925e-02   6.345968e+00   1.832434e+01  -9.597007e+04  -1.761400e+05   2.199074e+05   3.953956e+11  -1.788059e+11   2.933641e+10   2.976488e+05   5.971642e-27   0.000000e+00  2.524675e-321
     1568000   1.567999e-07   8.052260e-02   6.345828e+00   1.832452e+01  -9.565359e+04  -1.762827e+05   2.199309e+05   3.958129e+11  -1.780496e+11   2.943599e+10   2.976488e+05   5.973729e-27   0.000000e+00  2.524675e-321
     1576000   1.575999e-07   8.044621e-02   6.345686e+00   1.832470e+01  -9.533677e+04  -1.764249e+05   2.199545e+05   3.962287e+11  -1.772921e+11   2.953544e+10   2.976488e+05   5.975814e-27   0.000000e+00  2.524675e-321
     1584000   1.583999e-07   8.037006e-02   6.345545e+00   1.832487e+01  -9.501962e+04  -1.765664e+05   2.199782e+05   3.966430e+11  -1.765335e+11   2.963477e+10   2.976488e+05   5.977895e-27   0.000000e+00  2.524675e-321
     1592000   1.591999e-07   8.029418e-02   6.345404e+00   1.832505e+01  -9.470214e+04  -1.767073e+05   2.200019e+05   3.970557e+11  -1.757738e+11   2.973398e+10   2.976488e+05   5.979973e-27   0.000000e+00  2.524675e-321
     1600000   1.599999e-07   8.021854e-02   6.345263e+00   1.832522e+01  -9.438434e+04  -1.768476e+05   2.200257e+05   3.974669e+11  -1.750130e+11   2.983308e+10   2.976488e+05   5.982047e-27   0.000000e+00  2.524675e-321
     1608000   1.607999e-07   8.014316e-02   6.345121e+00   1.832540e+01  -9.406620e+04  -1.769873e+05   2.200496e+05   3.978766e+11  -1.742510e+11   2.993205e+10   2.976488e+05   5.984118e-27   0.000000e+00  2.524675e-321
     1616000   1.615999e-07   8.006803e-02   6.344979e+00   1.832558e+01  -9.374773e+04  -1.771264e+05   2.200736e+05   3.982847e+11  -1.734879e+11   3.003091e+10   2.976488e+05   5.986186e-27   0.000000e+00  2.524675e-321
     1624000   1.623999e-07   7.999316e-02   6.344838e+00   1.832575e+01  -9.342894e+04  -1.772649e+05   2.200977e+05   3.986913e+11  -1.727237e+11   3.012964e+10   2.976488e+05   5.988250e-27   0.000000e+00  2.524675e-321
     1632000   1.631999e-07   7.991855e-02   6.344696e+00   1.832593e+01  -9.310983e+04  -1.774028e+05   2.201218e+05   3.990963e+11  -1.719585e+11   3.022826e+10   2.976488e+05   5.990312e-27   0.000000e+00  2.524675e-321
     1640000   1.639999e-07   7.984419e-02   6.344554e+00   1.832610e+01  -9.279039e+04  -1.775400e+05   2.201461e+05   3.994998e+11  -1.711921e+11   3.032675e+10   2.976488e+05   5.992369e-27   0.000000e+00  2.524675e-321
     1648000   1.647999e-07   7.977008e-02   6.344412e+00   1.832628e+01  -9.247063e+04  -1.776767e+05   2.201704e+05   3.999017e+11  -1.704245e+11   3.042513e+10   2.976488e+05   5.994424e-27   0.000000e+00  2.524675e-321
     1656000   1.655999e-07   7.969624e-02   6.344269e+00   1.832646e+01  -9.215055e+04  -1.778127e+05   2.201947e+05   4.003021e+11  -1.696559e+11   3.052339e+10   2.976488e+05   5.996475e-27   0.000000e+00  2.524675e-321
     1664000   1.663999e-07   7.962264e-02   6.344127e+00   1.832663e+01  -9.183015e+04  -1.779481e+05   2.202192e+05   4.007009e+11  -1.688862e+11   3.062153e+10   2.976488e+05   5.998523e-27   0.000000e+00  2.524675e-321
     1672000   1.671999e-07   7.954931e-02   6.343985e+00   1.832681e+01  -9.150943e+04  -1.780829e+05   2.202437e+05   4.010981e+11  -1.681154e+11   3.071955e+10   2.976488e+05   6.000567e-27   0.000000e+00  2.524675e-321
     1680000   1.679999e-07   7.947623e-02   6.343842e+00   1.832699e+01  -9.118839e+04  -1.782171e+05   2.202684e+05   4.014938e+11  -1.673435e+11   3.081745e+10   2.976488e+05   6.002609e-27   0.000000e+00  2.524675e-321
     1688000   1.687999e-07   7.940341e-02   6.343700e+00   1.832716e+01  -9.086704e+04  -1.783507e+05   2.202930e+05   4.018879e+11  -1.665706e+11   3.091523e+10   2.976488e+05   6.004646e-27   0.000000e+00  2.524675e-321
     1696000   1.695999e-07   7.933084e-02   6.343557e+00   1.832734e+01  -9.054537e+04  -1.784836e+05   2.203178e+05   4.022805e+11  -1.657965e+11   3.101289e+10   2.976488e+05   6.006681e-27   0.000000e+00  2.524675e-321
     1704000   1.703999e-07   7.925853e-02   6.343414e+00   1.832751e+01  -9.022339e+04  -1.786160e+05   2.203427e+05   4.026715e+11  -1.650213e+11   3.111044e+10   2.976488e+05   6.008712e-27   0.000000e+00  2.524675e-321
     1712000   1.711999e-07   7.918648e-02   6.343271e+00   1.832769e+01  -8.990109e+04  -1.787477e+05   2.203676e+05   4.030609e+11  -1.642451e+11   3.120786e+10   2.976488e+05   6.010740e-27   0.000000e+00  2.524675e-321
     1720000   1.719999e-07   7.911469e-02   6.343128e+00   1.832787e+01  -8.957849e+04  -1.788788e+05   2.203926e+05   4.034487e+11  -1.634678e+11   3.130517e+10   2.976488e+05   6.012765e-27   0.000000e+00  2.524675e-321
     1728000   1.727999e-07   7.904316e-02   6.342985e+00   1.832804e+01  -8.925558e+04  -1.790092e+05   2.204177e+05   4.038349e+11  -1.626894e+11   3.140236e+10   2.976488e+05   6.014786e-27   0.000000e+00  2.524675e-321
     1736000   1.735999e-07   7.897188e-02   6.342842e+00   1.832822e+01  -8.893235e+04  -1.791391e+05   2.204428e+05   4.042196e+11  -1.619100e+11   3.149943e+10   2.976488e+05   6.016804e-27   0.000000e+00  2.524675e-321
     1744000   1.743999e-07   7.890087e-02   6.342698e+00   1.832840e+01  -8.860883e+04  -1.792683e+05   2.204681e+05   4.046027e+11  -1.611294e+11   3.159638e+10   2.976488e+05   6.018818e-27   0.000000e+00  2.524675e-321
     1752000   1.751999e-07   7.883011e-02   6.342555e+00   1.832857e+01  -8.828499e+04  -1.793969e+05   2.204934e+05   4.049842e+11  -1.603478e+11   3.169321e+10   2.976488e+05   6.020830e-27   0.000000e+00  2.524675e-321
     1760000   1.759999e-07   7.875961e-02   6.342411e+00   1.832875e+01  -8.796085e+04  -1.795248e+05   2.205188e+05   4.053641e+11  -1.595652e+11   3.178992e+10   2.976488e+05   6.022838e-27   0.000000e+00  2.524675e-321
     1768000   1.767999e-07   7.868937e-02   6.342268e+00   1.832893e+01  -8.763641e+04  -1.796522e+05   2.205443e+05   4.057424e+11  -1.587815e+11   3.188652e+10   2.976488e+05   6.024842e-27   0.000000e+00  2.524675e-321
     1776000   1.775999e-07   7.861939e-02   6.342124e+00   1.832910e+01  -8.731166e+04  -1.797789e+05   2.205698e+05   4.061191e+11  -1.579967e+11   3.198300e+10   2.976488e+05   6.026843e-27   0.000000e+00  2.524675e-321
     1784000   1.783999e-07   7.854967e-02   6.341980e+00   1.832928e+01  -8.698662e+04  -1.799050e+05   2.205954e+05   4.064942e+11  -1.572109e+11   3.207936e+10   2.976488e+05   6.028841e-27   0.000000e+00  2.524675e-321
     1792000   1.791999e-07   7.848021e-02   6.341836e+00   1.832945e+01  -8.666127e+04  -1.800304e+05   2.206211e+05   4.068677e+11  -1.564240e+11   3.217560e+10   2.976488e+05   6.030836e-27   0.000000e+00  2.524675e-321
     1800000   1.799999e-07   7.841102e-02   6.341692e+00   1.832963e+01  -8.633563e+04  -1.801552e+05   2.206469e+05   4.072396e+11  -1.556361e+11   3.227172e+10   2.976488e+05   6.032827e-27   0.000000e+00  2.524675e-321
     1808000   1.807999e-07   7.834208e-02   6.341548e+00   1.832981e+01  -8.600969e+04  -1.802794e+05   2.206728e+05   4.076099e+11  -1.548471e+11   3.236773e+10   2.976488e+05   6.034815e-27   0.000000e+00  2.524675e-321
     1816000   1.815999e-07   7.827340e-02   6.341403e+00   1.832998e+01  -8.568346e+04  -1.804030e+05   2.206987e+05   4.079786e+11  -1.540571e+11   3.246361e+10   2.976488e+05   6.036800e-27   0.000000e+00  2.524675e-321
     1824000   1.823999e-07   7.820498e-02   6.341259e+00   1.833016e+01  -8.535693e+04  -1.805259e+05   2.207247e+05   4.083456e+11  -1.532660e+11   3.255938e+10   2.976488e+05   6.038781e-27   0.000000e+00  2.524675e-321
     1832000   1.831999e-07   7.813683e-02   6.341115e+00   1.833034e+01  -8.503010e+04  -1.806482e+05   2.207508e+05   4.087111e+11  -1.524739e+11   3.265503e+10   2.976488e+05   6.040759e-27   0.000000e+00  2.524675e-321
     1840000   1.839999e-07   7.806894e-02   6.340970e+00   1.833051e+01  -8.470299e+04  -1.807699e+05   2.207770e+05   4.090749e+11  -1.516808e+11   3.275057e+10   2.976488e+05   6.042734e-27   0.000000e+00  2.524675e-321
     1848000   1.847999e-07   7.800130e-02   6.340825e+00   1.833069e+01  -8.437558e+04  -1.808909e+05   2.208032e+05   4.094371e+11  -1.508866e+11   3.284598e+10   2.976488e+05   6.044705e-27   0.000000e+00  2.524675e-321
     1856000   1.855999e-07   7.793393e-02   6.340681e+00   1.833087e+01  -8.404789e+04  -1.810113e+05   2.208295e+05   4.097977e+11  -1.500914e+11   3.294128e+10   2.976488e+05   6.046673e-27   0.000000e+00  2.524675e-321
     1864000   1.863999e-07   7.786683e-02   6.340536e+00   1.833104e+01  -8.371991e+04  -1.811311e+05   2.208559e+05   4.101567e+11  -1.492952e+11   3.303646e+10   2.976488e+05   6.048638e-27   0.000000e+00  2.524675e-321
     1872000   1.871999e-07   7.779998e-02   6.340391e+00   1.833122e+01  -8.339164e+04  -1.812502e+05   2.208824e+05   4.105140e+11  -1.484980e+11   3.313153e+10   2.976488e+05   6.050599e-27   0.000000e+00  2.524675e-321
     1880000   1.879999e-07   7.773340e-02   6.340246e+00   1.833140e+01  -8.306309e+04  -1.813686e+05   2.209089e+05   4.108697e+11  -1.476997e+11   3.322647e+10   2.976488e+05   6.052558e-27   0.000000e+00  2.524675e-321
     1888000   1.887999e-07   7.766708e-02   6.340101e+00   1.833157e+01  -8.273425e+04  -1.814865e+05   2.209355e+05   4.112238e+11  -1.469005e+11   3.332130e+10   2.976488e+05   6.054512e-27   0.000000e+00  2.524675e-321
     1896000   1.895999e-07   7.760103e-02   6.339955e+00   1.833175e+01  -8.240513e+04  -1.816037e+05   2.209622e+05   4.115762e+11  -1.461002e+11   3.341601e+10   2.976488e+05   6.056464e-27   0.000000e+00  2.524675e-321
     1904000   1.903999e-07   7.753523e-02   6.339810e+00   1.833193e+01  -8.207573e+04  -1.817202e+05   2.209890e+05   4.119270e+11  -1.452989e+11   3.351061e+10   2.976488e+05   6.058412e-27   0.000000e+00  2.524675e-321
     1912000   1.911999e-07   7.746971e-02   6.339665e+00   1.833210e+01  -8.174604e+04  -1.818362e+05   2.210158e+05   4.122762e+11  -1.444966e+11   3.360508e+10   2.976488e+05   6.060357e-27   0.000000e+00  2.524675e-321
     1920000   1.919999e-07   7.740444e-02   6.339519e+00   1.833228e+01  -8.141608e+04  -1.819514e+05   2.210428e+05   4.126237e+11  -1.436933e+11   3.369944e+10   2.976488e+05   6.062298e-27   0.000000e+00  2.524675e-321
     1928000   1.927999e-07   7.733944e-02   6.339373e+00   1.833246e+01  -8.108585e+04  -1.820661e+05   2.210698e+05   4.129695e+11  -1.428890e+11   3.379369e+10   2.976488e+05   6.064237e-27   0.000000e+00  2.524675e-321
     1936000   1.935999e-07   7.727470e-02   6.339228e+00   1.833264e+01  -8.075533e+04  -1.821801e+05   2.210968e+05   4.133137e+11  -1.420837e+11   3.388781e+10   2.976488e+05   6.066172e-27   0.000000e+00  2.524675e-321
     1944000   1.943999e-07   7.721023e-02   6.339082e+00   1.833281e+01  -8.042455e+04  -1.822934e+05   2.211240e+05   4.136563e+11  -1.412774e+11   3.398182e+10   2.976488e+05   6.068103e-27   0.000000e+00  2.524675e-321
     1952000   1.951999e-07   7.714602e-02   6.338936e+00   1.833299e+01  -8.009348e+04  -1.824061e+05   2.211512e+05   4.139972e+11  -1.404701e+11   3.407571e+10   2.976488e+05   6.070032e-27   0.000000e+00  2.524675e-321
     1960000   1.959999e-07   7.708208e-02   6.338790e+00   1.833317e+01  -7.976215e+04  -1.825182e+05   2.211785e+05   4.143364e+11  -1.396619e+11   3.416949e+10   2.976488e+05   6.071957e-27   0.000000e+00  2.524675e-321
     1968000   1.967999e-07   7.701840e-02   6.338644e+00   1.833334e+01  -7.943055e+04  -1.826296e+05   2.212059e+05   4.146740e+11  -1.388526e+11   3.426315e+10   2.976488e+05   6.073879e-27   0.000000e+00  2.524675e-321
     1976000   1.975999e-07   7.695499e-02   6.338498e+00   1.833352e+01  -7.909867e+04  -1.827403e+05   2.212333e+05   4.150099e+11  -1.380424e+11   3.435669e+10   2.976488e+05   6.075797e-27   0.000000e+00  2.524675e-321
     1984000   1.983999e-07   7.689185e-02   6.338352e+00   1.833370e+01  -7.876653e+04  -1.828504e+05   2.212609e+05   4.153442e+11  -1.372312e+11   3.445011e+10   2.976488e+05   6.077712e-27   0.000000e+00  2.524675e-321
     1992000   1.991999e-07   7.682897e-02   6.338205e+00   1.833387e+01  -7.843412e+04  -1.829599e+05   2.212884e+05   4.156768e+11  -1.364190e+11   3.454342e+10   2.976488e+05   6.079624e-27   0.000000e+00  2.524675e-321
     2000000   1.999999e-07   7.676635e-02   6.338059e+00   1.833405e+01  -7.810145e+04  -1.830687e+05   2.213161e+05   4.160077e+11  -1.356058e+11   3.463661e+10   2.976488e+05   6.081533e-27   0.000000e+00  2.524675e-321
     2008000   2.007999e-07   7.670400e-02   6.337912e+00   1.833423e+01  -7.776851e+04  -1.831769e+05   2.213439e+05   4.163369e+11  -1.347917e+11   3.472969e+10   2.976488e+05   6.083438e-27   0.000000e+00  2.524675e-321
     2016000   2.015999e-07   7.664192e-02   6.337766e+00   1.833440e+01  -7.743531e+04  -1.832844e+05   2.213717e+05   4.166645e+11  -1.339766e+11   3.482265e+10   2.976488e+05   6.085340e-27   0.000000e+00  2.524675e-321
     2024000   2.023999e-07   7.658011e-02   6.337619e+00   1.833458e+01  -7.710185e+04  -1.833912e+05   2.213996e+05   4.169904e+11  -1.331605e+11   3.491549e+10   2.976488e+05   6.087239e-27   0.000000e+00  2.524675e-321
     2032000   2.031999e-07   7.651856e-02   6.337472e+00   1.833476e+01  -7.676813e+04  -1.834974e+05   2.214276e+05   4.173146e+11  -1.323435e+11   3.500822e+10   2.976488e+05   6.089134e-27   0.000000e+00  2.524675e-321
     2040000   2.039999e-07   7.645728e-02   6.337326e+00   1.833494e+01  -7.643414e+04  -1.836030e+05   2.214556e+05   4.176371e+11  -1.315255e+11   3.510083e+10   2.976488e+05   6.091027e-27   0.000000e+00  2.524675e-321
     2048000   2.047999e-07   7.639627e-02   6.337179e+00   1.833511e+01  -7.609991e+04  -1.837079e+05   2.214837e+05   4.179579e+11  -1.307066e+11   3.519333e+10   2.976488e+05   6.092915e-27   0.000000e+00  2.524675e-321
     2056000   2.055999e-07   7.633552e-02   6.337032e+00   1.833529e+01  -7.576541e+04  -1.838121e+05   2.215119e+05   4.182771e+11  -1.298867e+11   3.528570e+10   2.976488e+05   6.094801e-27   0.000000e+00  2.524675e-321
     2064000   2.063999e-07   7.627504e-02   6.336885e+00   1.833547e+01  -7.543066e+04  -1.839157e+05   2.215402e+05   4.185945e+11  -1.290659e+11   3.537797e+10   2.976488e+05   6.096684e-27   0.000000e+00  2.524675e-321
     2072000   2.071999e-07   7.621483e-02   6.336737e+00   1.833565e+01  -7.509566e+04  -1.840186e+05   2.215685e+05   4.189103e+11  -1.282441e+11   3.547011e+10   2.976488e+05   6.098563e-27   0.000000e+00  2.524675e-321
     2080000   2.079999e-07   7.615489e-02   6.336590e+00   1.833582e+01  -7.476041e+04  -1.841209e+05   2.215969e+05   4.192243e+11  -1.274214e+11   3.556215e+10   2.976488e+05   6.100439e-27   0.000000e+00  2.524675e-321
     2088000   2.087999e-07   7.609521e-02   6.336443e+00   1.833600e+01  -7.442490e+04  -1.842225e+05   2.216254e+05   4.195367e+11  -1.265977e+11   3.565406e+10   2.976488e+05   6.102311e-27   0.000000e+00  2.524675e-321
     2096000   2.095999e-07   7.603581e-02   6.336295e+00   1.833618e+01  -7.408915e+04  -1.843234e+05   2.216540e+05   4.198474e+11  -1.257732e+11   3.574586e+10   2.976488e+05   6.104181e-27   0.000000e+00  2.524675e-321
     2104000   2.103999e-07   7.597667e-02   6.336148e+00   1.833635e+01  -7.375315e+04  -1.844237e+05   2.216826e+05   4.201563e+11  -1.249476e+11   3.583754e+10   2.976488e+05   6.106047e-27   0.000000e+00  2.524675e-321
     2112000   2.111999e-07   7.591780e-02   6.336000e+00   1.833653e+01  -7.341690e+04  -1.845233e+05   2.217113e+05   4.204636e+11  -1.241212e+11   3.592911e+10   2.976488e+05   6.107910e-27   0.000000e+00  2.524675e-321
     2120000   2.119999e-07   7.585920e-02   6.335853e+00   1.833671e+01  -7.308041e+04  -1.846223e+05   2.217401e+05   4.207691e+11  -1.232938e+11   3.602057e+10   2.976488e+05   6.109769e-27   0.000000e+00  2.524675e-321
     2128000   2.127999e-07   7.580087e-02   6.335705e+00   1.833689e+01  -7.274367e+04  -1.847206e+05   2.217689e+05   4.210729e+11  -1.224655e+11   3.611190e+10   2.976488e+05   6.111626e-27   0.000000e+00  2.524675e-321
     2136000   2.135999e-07   7.574281e-02   6.335557e+00   1.833706e+01  -7.240669e+04  -1.848183e+05   2.217979e+05   4.213751e+11  -1.216363e+11   3.620312e+10   2.976488e+05   6.113479e-27   0.000000e+00  2.524675e-321
     2144000   2.143999e-07   7.568502e-02   6.335409e+00   1.833724e+01  -7.206947e+04  -1.849152e+05   2.218269e+05   4.216755e+11  -1.208062e+11   3.629423e+10   2.976488e+05   6.115329e-27   0.000000e+00  2.524675e-321
     2152000   2.151999e-07   7.562750e-02   6.335261e+00   1.833742e+01  -7.173201e+04  -1.850115e+05   2.218559e+05   4.219741e+11  -1.199752e+11   3.638522e+10   2.976488e+05   6.117175e-27   0.000000e+00  2.524675e-321
     2160000   2.159999e-07   7.557025e-02   6.335113e+00   1.833760e+01  -7.139431e+04  -1.851072e+05   2.218851e+05   4.222711e+11  -1.191432e+11   3.647610e+10   2.976488e+05   6.119019e-27   0.000000e+00  2.524675e-321
     2168000   2.167999e-07   7.551327e-02   6.334965e+00   1.833777e+01  -7.105638e+04  -1.852022e+05   2.219143e+05   4.225663e+11  -1.183104e+11   3.656686e+10   2.976488e+05   6.120859e-27   0.000000e+00  2.524675e-321
     2176000   2.175999e-07   7.545656e-02   6.334817e+00   1.833795e+01  -7.071821e+04  -1.852965e+05   2.219436e+05   4.228599e+11  -1.174767e+11   3.665750e+10   2.976488e+05   6.122696e-27   0.000000e+00  2.524675e-321
     2184000   2.183999e-07   7.540012e-02   6.334669e+00   1.833813e+01  -7.037980e+04  -1.853901e+05   2.219730e+05   4.231516e+11  -1.166420e+11   3.674804e+10   2.976488e+05   6.124530e-27   0.000000e+00  2.524675e-321
     2192000   2.191999e-07   7.534395e-02   6.334520e+00   1.833831e+01  -7.004116e+04  -1.854831e+05   2.220024e+05   4.234417e+11  -1.158065e+11   3.683845e+10   2.976488e+05   6.126361e-27   0.000000e+00  2.524675e-321
     2200000   2.199999e-07   7.528806e-02   6.334372e+00   1.833848e+01  -6.970230e+04  -1.855754e+05   2.220319e+05   4.237300e+11  -1.149700e+11   3.692875e+10   2.976488e+05   6.128188e-27   0.000000e+00  2.524675e-321
     2208000   2.207999e-07   7.523243e-02   6.334223e+00   1.833866e+01  -6.936320e+04  -1.856671e+05   2.220615e+05   4.240166e+11  -1.141327e+11   3.701894e+10   2.976488e+05   6.130012e-27   0.000000e+00  2.524675e-321
     2216000   2.215999e-07   7.517708e-02   6.334075e+00   1.833884e+01  -6.902387e+04  -1.857580e+05   2.220911e+05   4.243014e+11  -1.132945e+11   3.710901e+10   2.976488e+05   6.131833e-27   0.000000e+00  2.524675e-321
     2224000   2.223999e-07   7.512199e-02   6.333926e+00   1.833902e+01  -6.868431e+04  -1.858483e+05   2.221208e+05   4.245845e+11  -1.124554e+11   3.719896e+10   2.976488e+05   6.133651e-27   0.000000e+00  2.524675e-321
     2232000   2.231999e-07   7.506718e-02   6.333777e+00   1.833919e+01  -6.834453e+04  -1.859380e+05   2.221506e+05   4.248659e+11  -1.116154e+11   3.728881e+10   2.976488e+05   6.135465e-27   0.000000e+00  2.524675e-321
     2240000   2.239999e-07   7.501264e-02   6.333629e+00   1.833937e+01  -6.800453e+04  -1.860269e+05   2.221805e+05   4.251455e+11  -1.107746e+11   3.737853e+10   2.976488e+05   6.137277e-27   0.000000e+00  2.524675e-321
     2248000   2.247999e-07   7.495837e-02   6.333480e+00   1.833955e+01  -6.766430e+04  -1.861152e+05   2.222104e+05   4.254234e+11  -1.099329e+11   3.746814e+10   2.976488e+05   6.139085e-27   0.000000e+00  2.524675e-321
     2256000   2.255999e-07   7.490438e-02   6.333331e+00   1.833973e+01  -6.732385e+04  -1.862028e+05   2.222405e+05   4.256995e+11  -1.090903e+11   3.755764e+10   2.976488e+05   6.140890e-27   0.000000e+00  2.524675e-321
     2264000   2.263999e-07   7.485066e-02   6.333182e+00   1.833991e+01  -6.698318e+04  -1.862898e+05   2.222705e+05   4.259739e+11  -1.082469e+11   3.764702e+10   2.976488e+05   6.142692e-27   0.000000e+00  2.524675e-321
     2272000   2.271999e-07   7.479721e-02   6.333033e+00   1.834008e+01  -6.664229e+04  -1.863760e+05   2.223007e+05   4.262465e+11  -1.074026e+11   3.773629e+10   2.976488e+05   6.144491e-27   0.000000e+00  2.524675e-321
     2280000   2.279999e-07   7.474403e-02   6.332884e+00   1.834026e+01  -6.630119e+04  -1.864616e+05   2.223309e+05   4.265173e+11  -1.065574e+11   3.782545e+10   2.976488e+05   6.146286e-27   0.000000e+00  2.524675e-321
     2288000   2.287999e-07   7.469112e-02   6.332734e+00   1.834044e+01  -6.595987e+04  -1.865465e+05   2.223612e+05   4.267864e+11  -1.057114e+11   3.791449e+10   2.976488e+05   6.148078e-27   0.000000e+00  2.524675e-321
     2296000   2.295999e-07   7.463849e-02   6.332585e+00   1.834062e+01  -6.561833e+04  -1.866307e+05   2.223916e+05   4.270538e+11  -1.048645e+11   3.800341e+10   2.976488e+05   6.149868e-27   0.000000e+00  2.524675e-321
     2304000   2.303999e-07   7.458613e-02   6.332436e+00   1.834080e+01  -6.527658e+04  -1.867143e+05   2.224220e+05   4.273193e+11  -1.040168e+11   3.809222e+10   2.976488e+05   6.151654e-27   0.000000e+00  2.524675e-321
     2312000   2.311999e-07   7.453405e-02   6.332286e+00   1.834097e+01  -6.493462e+04  -1.867972e+05   2.224525e+05   4.275831e+11  -1.031682e+11   3.818092e+10   2.976488e+05   6.153437e-27   0.000000e+00  2.524675e-321
     2320000   2.319999e-07   7.448224e-02   6.332137e+00   1.834115e+01  -6.459245e+04  -1.868794e+05   2.224831e+05   4.278452e+11  -1.023188e+11   3.826950e+10   2.976488e+05   6.155216e-27   0.000000e+00  2.524675e-321
     2328000   2.327999e-07   7.443070e-02   6.331987e+00   1.834133e+01  -6.425007e+04  -1.869609e+05   2.225138e+05   4.281054e+11  -1.014685e+11   3.835797e+10   2.976488e+05   6.156993e-27   0.000000e+00  2.524675e-321
     2336000   2.335999e-07   7.437944e-02   6.331838e+00   1.834151e+01  -6.390748e+04  -1.870417e+05   2.225445e+05   4.283639e+11  -1.006175e+11   3.844633e+10   2.976488e+05   6.158766e-27   0.000000e+00  2.524675e-321
     2344000   2.343999e-07   7.432845e-02   6.331688e+00   1.834169e+01  -6.356469e+04  -1.871219e+05   2.225753e+05   4.286206e+11  -9.976554e+10   3.853457e+10   2.976488e+05   6.160537e-27   0.000000e+00  2.524675e-321
     2352000   2.351999e-07   7.427774e-02   6.331538e+00   1.834186e+01  -6.322169e+04  -1.872013e+05   2.226061e+05   4.288756e+11  -9.891280e+10   3.862269e+10   2.976488e+05   6.162304e-27   0.000000e+00  2.524675e-321
     2360000   2.359999e-07   7.422730e-02   6.331389e+00   1.834204e+01  -6.287849e+04  -1.872801e+05   2.226371e+05   4.291287e+11  -9.805923e+10   3.871071e+10   2.976488e+05   6.164068e-27   0.000000e+00  2.524675e-321
     2368000   2.367999e-07   7.417713e-02   6.331239e+00   1.834222e+01  -6.253508e+04  -1.873582e+05   2.226681e+05   4.293801e+11  -9.720485e+10   3.879861e+10   2.976488e+05   6.165829e-27   0.000000e+00  2.524675e-321
     2376000   2.375999e-07   7.412724e-02   6.331089e+00   1.834240e+01  -6.219148e+04  -1.874356e+05   2.226991e+05   4.296297e+11  -9.634964e+10   3.888639e+10   2.976488e+05   6.167587e-27   0.000000e+00  2.524675e-321
     2384000   2.383999e-07   7.407762e-02   6.330939e+00   1.834258e+01  -6.184768e+04  -1.875124e+05   2.227303e+05   4.298775e+11  -9.549362e+10   3.897406e+10   2.976488e+05   6.169342e-27   0.000000e+00  2.524675e-321
     2392000   2.391999e-07   7.402828e-02   6.330789e+00   1.834275e+01  -6.150368e+04  -1.875884e+05   2.227615e+05   4.301235e+11  -9.463679e+10   3.906162e+10   2.976488e+05   6.171094e-27   0.000000e+00  2.524675e-321
     2400000   2.399999e-07   7.397922e-02   6.330639e+00   1.834293e+01  -6.115948e+04  -1.876638e+05   2.227928e+05   4.303677e+11  -9.377916e+10   3.914906e+10   2.976488e+05   6.172842e-27   0.000000e+00  2.524675e-321
     2408000   2.407999e-07   7.393043e-02   6.330489e+00   1.834311e+01  -6.081509e+04  -1.877385e+05   2.228241e+05   4.306101e+11  -9.292072e+10   3.923639e+10   2.976488e+05   6.174588e-27   0.000000e+00  2.524675e-321
     2416000   2.415999e-07   7.388191e-02   6.330338e+00   1.834329e+01  -6.047050e+04  -1.878125e+05   2.228556e+05   4.308507e+11  -9.206148e+10   3.932361e+10   2.976488e+05   6.176330e-27   0.000000e+00  2.524675e-321
     2424000   2.423999e-07   7.383368e-02   6.330188e+00   1.834347e+01  -6.012573e+04  -1.878858e+05   2.228871e+05   4.310896e+11  -9.120144e+10   3.941071e+10   2.976488e+05   6.178069e-27   0.000000e+00  2.524675e-321
     2432000   2.431999e-07   7.378571e-02   6.330038e+00   1.834365e+01  -5.978076e+04  -1.879584e+05   2.229186e+05   4.313266e+11  -9.034061e+10   3.949770e+10   2.976488e+05   6.179806e-27   0.000000e+00  2.524675e-321
     2440000   2.439999e-07   7.373803e-02   6.329887e+00   1.834382e+01  -5.943560e+04  -1.880303e+05   2.229503e+05   4.315618e+11  -8.947899e+10   3.958458e+10   2.976488e+05   6.181539e-27   0.000000e+00  2.524675e-321
     2448000   2.447999e-07   7.369062e-02   6.329737e+00   1.834400e+01  -5.909026e+04  -1.881016e+05   2.229820e+05   4.317952e+11  -8.861659e+10   3.967134e+10   2.976488e+05   6.183269e-27   0.000000e+00  2.524675e-321
     2456000   2.455999e-07   7.364348e-02   6.329586e+00   1.834418e+01  -5.874473e+04  -1.881721e+05   2.230137e+05   4.320268e+11  -8.775340e+10   3.975799e+10   2.976488e+05   6.184996e-27   0.000000e+00  2.524675e-321
     2464000   2.463999e-07   7.359662e-02   6.329436e+00   1.834436e+01  -5.839902e+04  -1.882420e+05   2.230456e+05   4.322566e+11  -8.688943e+10   3.984453e+10   2.976488e+05   6.186720e-27   0.000000e+00  2.524675e-321
     2472000   2.471999e-07   7.355004e-02   6.329285e+00   1.834454e+01  -5.805312e+04  -1.883111e+05   2.230775e+05   4.324846e+11  -8.602469e+10   3.993095e+10   2.976488e+05   6.188441e-27   0.000000e+00  2.524675e-321
     2480000   2.479999e-07   7.350374e-02   6.329134e+00   1.834472e+01  -5.770704e+04  -1.883796e+05   2.231095e+05   4.327108e+11  -8.515917e+10   4.001726e+10   2.976488e+05   6.190159e-27   0.000000e+00  2.524675e-321
     2488000   2.487999e-07   7.345771e-02   6.328984e+00   1.834489e+01  -5.736079e+04  -1.884474e+05   2.231415e+05   4.329351e+11  -8.429289e+10   4.010346e+10   2.976488e+05   6.191874e-27   0.000000e+00  2.524675e-321
     2496000   2.495999e-07   7.341196e-02   6.328833e+00   1.834507e+01  -5.701435e+04  -1.885145e+05   2.231736e+05   4.331577e+11  -8.342584e+10   4.018954e+10   2.976488e+05   6.193586e-27   0.000000e+00  2.524675e-321
     2504000   2.503999e-07   7.336649e-02   6.328682e+00   1.834525e+01  -5.666773e+04  -1.885809e+05   2.232058e+05   4.333784e+11  -8.255802e+10   4.027551e+10   2.976488e+05   6.195295e-27   0.000000e+00  2.524675e-321
     2512000   2.511999e-07   7.332129e-02   6.328531e+00   1.834543e+01  -5.632094e+04  -1.886466e+05   2.232381e+05   4.335973e+11  -8.168946e+10   4.036137e+10   2.976488e+05   6.197001e-27   0.000000e+00  2.524675e-321
     2520000   2.519999e-07   7.327638e-02   6.328380e+00   1.834561e+01  -5.597398e+04  -1.887116e+05   2.232704e+05   4.338144e+11  -8.082013e+10   4.044711e+10   2.976488e+05   6.198704e-27   0.000000e+00  2.524675e-321
     2528000   2.527999e-07   7.323174e-02   6.328229e+00   1.834579e+01  -5.562684e+04  -1.887759e+05   2.233028e+05   4.340296e+11  -7.995006e+10   4.053274e+10   2.976488e+05   6.200404e-27   0.000000e+00  2.524675e-321
     2536000   2.535999e-07   7.318737e-02   6.328078e+00   1.834597e+01  -5.527953e+04  -1.888395e+05   2.233352e+05   4.342430e+11  -7.907924e+10   4.061826e+10   2.976488e+05   6.202101e-27   0.000000e+00  2.524675e-321
     2544000   2.543999e-07   7.314329e-02   6.327927e+00   1.834614e+01  -5.493205e+04  -1.889024e+05   2.233678e+05   4.344546e+11  -7.820767e+10   4.070366e+10   2.976488e+05   6.203795e-27   0.000000e+00  2.524675e-321
     2552000   2.551999e-07   7.309948e-02   6.327776e+00   1.834632e+01  -5.458441e+04  -1.889646e+05   2.234004e+05   4.346644e+11  -7.733536e+10   4.078895e+10   2.976488e+05   6.205486e-27   0.000000e+00  2.524675e-321
     2560000   2.559999e-07   7.305595e-02   6.327625e+00   1.834650e+01  -5.423659e+04  -1.890261e+05   2.234330e+05   4.348723e+11  -7.646232e+10   4.087413e+10   2.976488e+05   6.207174e-27   0.000000e+00  2.524675e-321
     2568000   2.567999e-07   7.301270e-02   6.327474e+00   1.834668e+01  -5.388861e+04  -1.890870e+05   2.234658e+05   4.350784e+11  -7.558855e+10   4.095920e+10   2.976488e+05   6.208859e-27   0.000000e+00  2.524675e-321
     2576000   2.575999e-07   7.296973e-02   6.327322e+00   1.834686e+01  -5.354047e+04  -1.891471e+05   2.234986e+05   4.352826e+11  -7.471404e+10   4.104415e+10   2.976488e+05   6.210541e-27   0.000000e+00  2.524675e-321
     2584000   2.583999e-07   7.292704e-02   6.327171e+00   1.834704e+01  -5.319216e+04  -1.892065e+05   2.235314e+05   4.354850e+11  -7.383881e+10   4.112899e+10   2.976488e+05   6.212220e-27   0.000000e+00  2.524675e-321
     2592000   2.591999e-07   7.288462e-02   6.327020e+00   1.834722e+01  -5.284369e+04  -1.892652e+05   2.235644e+05   4.356855e+11  -7.296286e+10   4.121372e+10   2.976488e+05   6.213896e-27   0.000000e+00  2.524675e-321
     2600000   2.599999e-07   7.284249e-02   6.326868e+00   1.834740e+01  -5.249506e+04  -1.893232e+05   2.235974e+05   4.358842e+11  -7.208619e+10   4.129833e+10   2.976488e+05   6.215569e-27   0.000000e+00  2.524675e-321
     2608000   2.607999e-07   7.280063e-02   6.326717e+00   1.834758e+01  -5.214628e+04  -1.893806e+05   2.236305e+05   4.360811e+11  -7.120880e+10   4.138283e+10   2.976488e+05   6.217240e-27   0.000000e+00  2.524675e-321
     2616000   2.615999e-07   7.275905e-02   6.326565e+00   1.834775e+01  -5.179733e+04  -1.894372e+05   2.236636e+05   4.362761e+11  -7.033070e+10   4.146722e+10   2.976488e+05   6.218907e-27   0.000000e+00  2.524675e-321
     2624000   2.623999e-07   7.271776e-02   6.326414e+00   1.834793e+01  -5.144823e+04  -1.894931e+05   2.236968e+05   4.364692e+11  -6.945190e+10   4.155150e+10   2.976488e+05   6.220572e-27   0.000000e+00  2.524675e-321
     2632000   2.631999e-07   7.267674e-02   6.326262e+00   1.834811e+01  -5.109898e+04  -1.895483e+05   2.237301e+05   4.366605e+11  -6.857239e+10   4.163566e+10   2.976488e+05   6.222233e-27   0.000000e+00  2.524675e-321
     2640000   2.639999e-07   7.263600e-02   6.326110e+00   1.834829e+01  -5.074958e+04  -1.896028e+05   2.237634e+05   4.368500e+11  -6.769218e+10   4.171971e+10   2.976488e+05   6.223892e-27   0.000000e+00  2.524675e-321
     2648000   2.647999e-07   7.259554e-02   6.325959e+00   1.834847e+01  -5.040002e+04  -1.896566e+05   2.237968e+05   4.370376e+11  -6.681127e+10   4.180365e+10   2.976488e+05   6.225548e-27   0.000000e+00  2.524675e-321
     2656000   2.655999e-07   7.255536e-02   6.325807e+00   1.834865e+01  -5.005032e+04  -1.897097e+05   2.238303e+05   4.372233e+11  -6.592967e+10   4.188747e+10   2.976488e+05   6.227201e-27   0.000000e+00  2.524675e-321
     2664000   2.663999e-07   7.251546e-02   6.325655e+00   1.834883e+01  -4.970047e+04  -1.897621e+05   2.238639e+05   4.374071e+11  -6.504738e+10   4.197119e+10   2.976488e+05   6.228851e-27   0.000000e+00  2.524675e-321
     2672000   2.671999e-07   7.247584e-02   6.325503e+00   1.834901e+01  -4.935047e+04  -1.898138e+05   2.238975e+05   4.375891e+11  -6.416441e+10   4.205479e+10   2.976488e+05   6.230498e-27   0.000000e+00  2.524675e-321
     2680000   2.679999e-07   7.243650e-02   6.325351e+00   1.834919e+01  -4.900032e+04  -1.898648e+05   2.239311e+05   4.377693e+11  -6.328075e+10   4.213827e+10   2.976488e+05   6.232142e-27   0.000000e+00  2.524675e-321
     2688000   2.687999e-07   7.239744e-02   6.325199e+00   1.834937e+01  -4.865004e+04  -1.899150e+05   2.239649e+05   4.379475e+11  -6.239641e+10   4.222165e+10   2.976488e+05   6.233783e-27   0.000000e+00  2.524675e-321
     2696000   2.695999e-07   7.235866e-02   6.325047e+00   1.834954e+01  -4.829961e+04  -1.899646e+05   2.239987e+05   4.381239e+11  -6.151140e+10   4.230491e+10   2.976488e+05   6.235422e-27   0.000000e+00  2.524675e-321
     2704000   2.703999e-07   7.232016e-02   6.324895e+00   1.834972e+01  -4.794904e+04  -1.900134e+05   2.240326e+05   4.382984e+11  -6.062572e+10   4.238806e+10   2.976488e+05   6.237058e-27   0.000000e+00  2.524675e-321
     2712000   2.711999e-07   7.228194e-02   6.324743e+00   1.834990e+01  -4.759833e+04  -1.900616e+05   2.240665e+05   4.384711e+11  -5.973937e+10   4.247110e+10   2.976488e+05   6.238691e-27   0.000000e+00  2.524675e-321
     2720000   2.719999e-07   7.224400e-02   6.324591e+00   1.835008e+01  -4.724749e+04  -1.901090e+05   2.241005e+05   4.386418e+11  -5.885236e+10   4.255402e+10   2.976488e+05   6.240321e-27   0.000000e+00  2.524675e-321
     2728000   2.727999e-07   7.220634e-02   6.324439e+00   1.835026e+01  -4.689650e+04  -1.901558e+05   2.241346e+05   4.388107e+11  -5.796469e+10   4.263684e+10   2.976488e+05   6.241948e-27   0.000000e+00  2.524675e-321
     2736000   2.735999e-07   7.216897e-02   6.324287e+00   1.835044e+01  -4.654539e+04  -1.902018e+05   2.241687e+05   4.389777e+11  -5.707636e+10   4.271953e+10   2.976488e+05   6.243573e-27   0.000000e+00  2.524675e-321
     2744000   2.743999e-07   7.213187e-02   6.324135e+00   1.835062e+01  -4.619414e+04  -1.902471e+05   2.242030e+05   4.391429e+11  -5.618738e+10   4.280212e+10   2.976488e+05   6.245194e-27   0.000000e+00  2.524675e-321
     2752000   2.751999e-07   7.209506e-02   6.323983e+00   1.835080e+01  -4.584276e+04  -1.902917e+05   2.242372e+05   4.393061e+11  -5.529775e+10   4.288460e+10   2.976488e+05   6.246813e-27   0.000000e+00  2.524675e-321
     2760000   2.759999e-07   7.205852e-02   6.323830e+00   1.835098e+01  -4.549125e+04  -1.903356e+05   2.242716e+05   4.394674e+11  -5.440747e+10   4.296696e+10   2.976488e+05   6.248429e-27   0.000000e+00  2.524675e-321
     2768000   2.767999e-07   7.202227e-02   6.323678e+00   1.835116e+01  -4.513961e+04  -1.903787e+05   2.243060e+05   4.396269e+11  -5.351656e+10   4.304921e+10   2.976488e+05   6.250042e-27   0.000000e+00  2.524675e-321
     2776000   2.775999e-07   7.198630e-02   6.323526e+00   1.835134e+01  -4.478785e+04  -1.904212e+05   2.243404e+05   4.397845e+11  -5.262500e+10   4.313135e+10   2.976488e+05   6.251653e-27   0.000000e+00  2.524675e-321
     2784000   2.783999e-07   7.195061e-02   6.323374e+00   1.835152e+01  -4.443596e+04  -1.904629e+05   2.243750e+05   4.399402e+11  -5.173282e+10   4.321337e+10   2.976488e+05   6.253261e-27   0.000000e+00  2.524675e-321
     2792000   2.791999e-07   7.191520e-02   6.323221e+00   1.835170e+01  -4.408395e+04  -1.905040e+05   2.244096e+05   4.400939e+11  -5.084000e+10   4.329528e+10   2.976488e+05   6.254866e-27   0.000000e+00  2.524675e-321
     2800000   2.799999e-07   7.188007e-02   6.323069e+00   1.835188e+01  -4.373181e+04  -1.905443e+05   2.244443e+05   4.402458e+11  -4.994656e+10   4.337708e+10   2.976488e+05   6.256468e-27   0.000000e+00  2.524675e-321
     2808000   2.807999e-07   7.184523e-02   6.322916e+00   1.835206e+01  -4.337955e+04  -1.905839e+05   2.244790e+05   4.403958e+11  -4.905249e+10   4.345877e+10   2.976488e+05   6.258068e-27   0.000000e+00  2.524675e-321
     2816000   2.815999e-07   7.181067e-02   6.322764e+00   1.835224e+01  -4.302718e+04  -1.906228e+05   2.245138e+05   4.405439e+11  -4.815780e+10   4.354034e+10   2.976488e+05   6.259665e-27   0.000000e+00  2.524675e-321
     2824000   2.823999e-07   7.177639e-02   6.322611e+00   1.835242e+01  -4.267468e+04  -1.906609e+05   2.245487e+05   4.406901e+11  -4.726250e+10   4.362181e+10   2.976488e+05   6.261259e-27   0.000000e+00  2.524675e-321
     2832000   2.831999e-07   7.174239e-02   6.322459e+00   1.835260e+01  -4.232207e+04  -1.906984e+05   2.245836e+05   4.408344e+11  -4.636659e+10   4.370316e+10   2.976488e+05   6.262850e-27   0.000000e+00  2.524675e-321
     2840000   2.839999e-07   7.170867e-02   6.322306e+00   1.835277e+01  -4.196935e+04  -1.907351e+05   2.246186e+05   4.409768e+11  -4.547008e+10   4.378439e+10   2.976488e+05   6.264439e-27   0.000000e+00  2.524675e-321
     2848000   2.847999e-07   7.167524e-02   6.322154e+00   1.835295e+01  -4.161651e+04  -1.907711e+05   2.246536e+05   4.411173e+11  -4.457295e+10   4.386552e+10   2.976488e+05   6.266025e-27   0.000000e+00  2.524675e-321
     2856000   2.855999e-07   7.164209e-02   6.322001e+00   1.835313e+01  -4.126356e+04  -1.908064e+05   2.246888e+05   4.412558e+11  -4.367523e+10   4.394653e+10   2.976488e+05   6.267608e-27   0.000000e+00  2.524675e-321
     2864000   2.863999e-07   7.160922e-02   6.321848e+00   1.835331e+01  -4.091050e+04  -1.908410e+05   2.247240e+05   4.413925e+11  -4.277691e+10   4.402743e+10   2.976488e+05   6.269189e-27   0.000000e+00  2.524675e-321
     2872000   2.871999e-07   7.157663e-02   6.321696e+00   1.835349e+01  -4.055733e+04  -1.908749e+05   2.247592e+05   4.415272e+11  -4.187800e+10   4.410822e+10   2.976488e+05   6.270767e-27   0.000000e+00  2.524675e-321
     2880000   2.879999e-07   7.154432e-02   6.321543e+00   1.835367e+01  -4.020406e+04  -1.909080e+05   2.247945e+05   4.416600e+11  -4.097851e+10   4.418889e+10   2.976488e+05   6.272342e-27   0.000000e+00  2.524675e-321
     2888000   2.887999e-07   7.151230e-02   6.321390e+00   1.835385e+01  -3.985068e+04  -1.909404e+05   2.248299e+05   4.417909e+11  -4.007842e+10   4.426945e+10   2.976488e+05   6.273915e-27   0.000000e+00  2.524675e-321
     2896000   2.895999e-07   7.148056e-02   6.321237e+00   1.835403e+01  -3.949719e+04  -1.909721e+05   2.248654e+05   4.419199e+11  -3.917776e+10   4.434990e+10   2.976488e+05   6.275485e-27   0.000000e+00  2.524675e-321
     2904000   2.903999e-07   7.144911e-02   6.321085e+00   1.835421e+01  -3.914361e+04  -1.910031e+05   2.249009e+05   4.420470e+11  -3.827652e+10   4.443024e+10   2.976488e+05   6.277053e-27   0.000000e+00  2.524675e-321
     2912000   2.911999e-07   7.141793e-02   6.320932e+00   1.835439e+01  -3.878992e+04  -1.910334e+05   2.249364e+05   4.421722e+11  -3.737471e+10   4.451047e+10   2.976488e+05   6.278617e-27   0.000000e+00  2.524675e-321
     2920000   2.919999e-07   7.138704e-02   6.320779e+00   1.835457e+01  -3.843613e+04  -1.910629e+05   2.249721e+05   4.422954e+11  -3.647232e+10   4.459058e+10   2.976488e+05   6.280180e-27   0.000000e+00  2.524675e-321
     2928000   2.927999e-07   7.135644e-02   6.320626e+00   1.835475e+01  -3.808225e+04  -1.910917e+05   2.250078e+05   4.424167e+11  -3.556937e+10   4.467058e+10   2.976488e+05   6.281739e-27   0.000000e+00  2.524675e-321
     2936000   2.935999e-07   7.132611e-02   6.320473e+00   1.835493e+01  -3.772827e+04  -1.911198e+05   2.250436e+05   4.425361e+11  -3.466587e+10   4.475046e+10   2.976488e+05   6.283296e-27   0.000000e+00  2.524675e-321
     2944000   2.943999e-07   7.129607e-02   6.320320e+00   1.835511e+01  -3.737419e+04  -1.911472e+05   2.250794e+05   4.426535e+11  -3.376180e+10   4.483024e+10   2.976488e+05   6.284851e-27   0.000000e+00  2.524675e-321
     2952000   2.951999e-07   7.126631e-02   6.320167e+00   1.835529e+01  -3.702002e+04  -1.911738e+05   2.251153e+05   4.427690e+11  -3.285718e+10   4.490990e+10   2.976488e+05   6.286403e-27   0.000000e+00  2.524675e-321
     2960000   2.959999e-07   7.123684e-02   6.320014e+00   1.835547e+01  -3.666576e+04  -1.911998e+05   2.251512e+05   4.428826e+11  -3.195201e+10   4.498945e+10   2.976488e+05   6.287952e-27   0.000000e+00  2.524675e-321
     2968000   2.967999e-07   7.120765e-02   6.319861e+00   1.835565e+01  -3.631141e+04  -1.912250e+05   2.251873e+05   4.429942e+11  -3.104629e+10   4.506888e+10   2.976488e+05   6.289499e-27   0.000000e+00  2.524675e-321
     2976000   2.975999e-07   7.117874e-02   6.319708e+00   1.835583e+01  -3.595697e+04  -1.912494e+05   2.252234e+05   4.431039e+11  -3.014003e+10   4.514821e+10   2.976488e+05   6.291043e-27   0.000000e+00  2.524675e-321
     2984000   2.983999e-07   7.115012e-02   6.319555e+00   1.835601e+01  -3.560244e+04  -1.912732e+05   2.252595e+05   4.432117e+11  -2.923323e+10   4.522742e+10   2.976488e+05   6.292585e-27   0.000000e+00  2.524675e-321
     2992000   2.991999e-07   7.112178e-02   6.319402e+00   1.835619e+01  -3.524783e+04  -1.912962e+05   2.252957e+05   4.433176e+11  -2.832590e+10   4.530652e+10   2.976488e+05   6.294124e-27   0.000000e+00  2.524675e-321
     3000000   2.999999e-07   7.109372e-02   6.319249e+00   1.835637e+01  -3.489314e+04  -1.913185e+05   2.253320e+05   4.434214e+11  -2.741804e+10   4.538550e+10   2.976488e+05   6.295661e-27   0.000000e+00  2.524675e-321
     3008000   3.007999e-07   7.106595e-02   6.319096e+00   1.835655e+01  -3.453836e+04  -1.913401e+05   2.253683e+05   4.435234e+11  -2.650965e+10   4.546437e+10   2.976488e+05   6.297195e-27   0.000000e+00  2.524675e-321
     3016000   3.015999e-07   7.103846e-02   6.318943e+00   1.835673e+01  -3.418350e+04  -1.913609e+05   2.254047e+05   4.436234e+11  -2.560074e+10   4.554313e+10   2.976488e+05   6.298727e-27   0.000000e+00  2.524675e-321
     3024000   3.023999e-07   7.101125e-02   6.318790e+00   1.835692e+01  -3.382856e+04  -1.913810e+05   2.254412e+05   4.437215e+11  -2.469131e+10   4.562178e+10   2.976488e+05   6.300256e-27   0.000000e+00  2.524675e-321
     3032000   3.031999e-07   7.098433e-02   6.318637e+00   1.835710e+01  -3.347354e+04  -1.914004e+05   2.254777e+05   4.438176e+11  -2.378137e+10   4.570031e+10   2.976488e+05   6.301783e-27   0.000000e+00  2.524675e-321
     3040000   3.039999e-07   7.095770e-02   6.318484e+00   1.835728e+01  -3.311845e+04  -1.914191e+05   2.255143e+05   4.439117e+11  -2.287091e+10   4.577873e+10   2.976488e+05   6.303307e-27   0.000000e+00  2.524675e-321
     3048000   3.047999e-07   7.093134e-02   6.318331e+00   1.835746e+01  -3.276329e+04  -1.914370e+05   2.255510e+05   4.440039e+11  -2.195995e+10   4.585704e+10   2.976488e+05   6.304829e-27   0.000000e+00  2.524675e-321
     3056000   3.055999e-07   7.090527e-02   6.318178e+00   1.835764e+01  -3.240805e+04  -1.914542e+05   2.255877e+05   4.440942e+11  -2.104849e+10   4.593523e+10   2.976488e+05   6.306348e-27   0.000000e+00  2.524675e-321
     3064000   3.063999e-07   7.087949e-02   6.318024e+00   1.835782e+01  -3.205274e+04  -1.914707e+05   2.256245e+05   4.441825e+11  -2.013652e+10   4.601331e+10   2.976488e+05   6.307865e-27   0.000000e+00  2.524675e-321
     3072000   3.071999e-07   7.085399e-02   6.317871e+00   1.835800e+01  -3.169736e+04  -1.914864e+05   2.256613e+05   4.442688e+11  -1.922406e+10   4.609128e+10   2.976488e+05   6.309380e-27   0.000000e+00  2.524675e-321
     3080000   3.079999e-07   7.082877e-02   6.317718e+00   1.835818e+01  -3.134191e+04  -1.915015e+05   2.256982e+05   4.443532e+11  -1.831111e+10   4.616914e+10   2.976488e+05   6.310892e-27   0.000000e+00  2.524675e-321
     3088000   3.087999e-07   7.080384e-02   6.317565e+00   1.835836e+01  -3.098639e+04  -1.915157e+05   2.257352e+05   4.444356e+11  -1.739768e+10   4.624688e+10   2.976488e+05   6.312402e-27   0.000000e+00  2.524675e-321
     3096000   3.095999e-07   7.077920e-02   6.317412e+00   1.835854e+01  -3.063081e+04  -1.915293e+05   2.257722e+05   4.445161e+11  -1.648376e+10   4.632450e+10   2.976488e+05   6.313909e-27   0.000000e+00  2.524675e-321
     3104000   3.103999e-07   7.075483e-02   6.317258e+00   1.835872e+01  -3.027517e+04  -1.915421e+05   2.258093e+05   4.445946e+11  -1.556936e+10   4.640202e+10   2.976488e+05   6.315414e-27   0.000000e+00  2.524675e-321
     3112000   3.111999e-07   7.073076e-02   6.317105e+00   1.835890e+01  -2.991946e+04  -1.915542e+05   2.258465e+05   4.446711e+11  -1.465448e+10   4.647942e+10   2.976488e+05   6.316917e-27   0.000000e+00  2.524675e-321
     3120000   3.119999e-07   7.070696e-02   6.316952e+00   1.835908e+01  -2.956369e+04  -1.915656e+05   2.258837e+05   4.447457e+11  -1.373913e+10   4.655671e+10   2.976488e+05   6.318417e-27   0.000000e+00  2.524675e-321
     3128000   3.127999e-07   7.068345e-02   6.316799e+00   1.835926e+01  -2.920787e+04  -1.915762e+05   2.259210e+05   4.448183e+11  -1.282332e+10   4.663388e+10   2.976488e+05   6.319915e-27   0.000000e+00  2.524675e-321
     3136000   3.135999e-07   7.066023e-02   6.316645e+00   1.835944e+01  -2.885198e+04  -1.915861e+05   2.259583e+05   4.448890e+11  -1.190704e+10   4.671094e+10   2.976488e+05   6.321411e-27   0.000000e+00  2.524675e-321
     3144000   3.143999e-07   7.063729e-02   6.316492e+00   1.835962e+01  -2.849604e+04  -1.915952e+05   2.259957e+05   4.449576e+11  -1.099031e+10   4.678789e+10   2.976488e+05   6.322904e-27   0.000000e+00  2.524675e-321
     3152000   3.151999e-07   7.061464e-02   6.316339e+00   1.835980e+01  -2.814005e+04  -1.916037e+05   2.260332e+05   4.450243e+11  -1.007311e+10   4.686473e+10   2.976488e+05   6.324395e-27   0.000000e+00  2.524675e-321
     3160000   3.159999e-07   7.059227e-02   6.316185e+00   1.835999e+01  -2.778401e+04  -1.916114e+05   2.260707e+05   4.450890e+11  -9.155471e+09   4.694145e+10   2.976488e+05   6.325884e-27   0.000000e+00  2.524675e-321
     3168000   3.167999e-07   7.057018e-02   6.316032e+00   1.836017e+01  -2.742791e+04  -1.916183e+05   2.261083e+05   4.451518e+11  -8.237380e+09   4.701805e+10   2.976488e+05   6.327370e-27   0.000000e+00  2.524675e-321
     3176000   3.175999e-07   7.054838e-02   6.315879e+00   1.836035e+01  -2.707176e+04  -1.916245e+05   2.261459e+05   4.452125e+11  -7.318847e+09   4.709454e+10   2.976488e+05   6.328854e-27   0.000000e+00  2.524675e-321
     3184000   3.183999e-07   7.052687e-02   6.315726e+00   1.836053e+01  -2.671557e+04  -1.916300e+05   2.261836e+05   4.452713e+11  -6.399873e+09   4.717092e+10   2.976488e+05   6.330336e-27   0.000000e+00  2.524675e-321
     3192000   3.191999e-07   7.050564e-02   6.315572e+00   1.836071e+01  -2.635933e+04  -1.916348e+05   2.262214e+05   4.453281e+11  -5.480465e+09   4.724719e+10   2.976488e+05   6.331816e-27   0.000000e+00  2.524675e-321
     3200000   3.199999e-07   7.048469e-02   6.315419e+00   1.836089e+01  -2.600305e+04  -1.916388e+05   2.262592e+05   4.453830e+11  -4.560625e+09   4.732334e+10   2.976488e+05   6.333293e-27   0.000000e+00  2.524675e-321
     3208000   3.207999e-07   7.046403e-02   6.315266e+00   1.836107e+01  -2.564672e+04  -1.916421e+05   2.262971e+05   4.454358e+11  -3.640358e+09   4.739938e+10   2.976488e+05   6.334768e-27   0.000000e+00  2.524675e-321
     3216000   3.215999e-07   7.044366e-02   6.315112e+00   1.836125e+01  -2.529035e+04  -1.916446e+05   2.263350e+05   4.454867e+11  -2.719668e+09   4.747530e+10   2.976488e+05   6.336241e-27   0.000000e+00  2.524675e-321
     3224000   3.223999e-07   7.042357e-02   6.314959e+00   1.836143e+01  -2.493394e+04  -1.916464e+05   2.263731e+05   4.455355e+11  -1.798559e+09   4.755111e+10   2.976488e+05   6.337712e-27   0.000000e+00  2.524675e-321
     3232000   3.231999e-07   7.040376e-02   6.314806e+00   1.836161e+01  -2.457749e+04  -1.916475e+05   2.264111e+05   4.455824e+11  -8.770346e+08   4.762680e+10   2.976488e+05   6.339180e-27   0.000000e+00  2.524675e-321
     3240000   3.239999e-07   7.038424e-02   6.314652e+00   1.836180e+01  -2.422101e+04  -1.916478e+05   2.264493e+05   4.456273e+11   4.490081e+07   4.770238e+10   2.976488e+05   6.340647e-27   0.000000e+00  2.524675e-321
     3248000   3.247999e-07   7.036501e-02   6.314499e+00   1.836198e+01  -2.386449e+04  -1.916474e+05   2.264875e+05   4.456702e+11   9.672432e+08   4.777784e+10   2.976488e+05   6.342111e-27   0.000000e+00  2.524675e-321
     3256000   3.255999e-07   7.034606e-02   6.314346e+00   1.836216e+01  -2.350794e+04  -1.916463e+05   2.265257e+05   4.457111e+11   1.889988e+09   4.785320e+10   2.976488e+05   6.343573e-27   0.000000e+00  2.524675e-321
     3264000   3.263999e-07   7.032740e-02   6.314192e+00   1.836234e+01  -2.315135e+04  -1.916444e+05   2.265640e+05   4.457501e+11   2.813133e+09   4.792843e+10   2.976488e+05   6.345032e-27   0.000000e+00  2.524675e-321
     3272000   3.271999e-07   7.030902e-02   6.314039e+00   1.836252e+01  -2.279474e+04  -1.916418e+05   2.266024e+05   4.457870e+11   3.736671e+09   4.800355e+10   2.976488e+05   6.346490e-27   0.000000e+00  2.524675e-321
     3280000   3.279999e-07   7.029093e-02   6.313886e+00   1.836270e+01  -2.243809e+04  -1.916384e+05   2.266408e+05   4.458219e+11   4.660601e+09   4.807856e+10   2.976488e+05   6.347946e-27   0.000000e+00  2.524675e-321
     3288000   3.287999e-07   7.027312e-02   6.313733e+00   1.836288e+01  -2.208142e+04  -1.916343e+05   2.266793e+05   4.458549e+11   5.584917e+09   4.815345e+10   2.976488e+05   6.349399e-27   0.000000e+00  2.524675e-321
     3296000   3.295999e-07   7.025560e-02   6.313579e+00   1.836306e+01  -2.172473e+04  -1.916295e+05   2.267179e+05   4.458858e+11   6.509616e+09   4.822823e+10   2.976488e+05   6.350851e-27   0.000000e+00  2.524675e-321
     3304000   3.303999e-07   7.023836e-02   6.313426e+00   1.836325e+01  -2.136801e+04  -1.916239e+05   2.267565e+05   4.459147e+11   7.434693e+09   4.830289e+10   2.976488e+05   6.352300e-27   0.000000e+00  2.524675e-321
     3312000   3.311999e-07   7.022141e-02   6.313273e+00   1.836343e+01  -2.101126e+04  -1.916176e+05   2.267952e+05   4.459417e+11   8.360145e+09   4.837744e+10   2.976488e+05   6.353747e-27   0.000000e+00  2.524675e-321
     3320000   3.319999e-07   7.020474e-02   6.313119e+00   1.836361e+01  -2.065450e+04  -1.916105e+05   2.268339e+05   4.459666e+11   9.285966e+09   4.845187e+10   2.976488e+05   6.355192e-27   0.000000e+00  2.524675e-321
     3328000   3.327999e-07   7.018836e-02   6.312966e+00   1.836379e+01  -2.029772e+04  -1.916027e+05   2.268727e+05   4.459895e+11   1.021215e+10   4.852619e+10   2.976488e+05   6.356635e-27   0.000000e+00  2.524675e-321
     3336000   3.335999e-07   7.017226e-02   6.312813e+00   1.836397e+01  -1.994092e+04  -1.915942e+05   2.269115e+05   4.460104e+11   1.113870e+10   4.860039e+10   2.976488e+05   6.358076e-27   0.000000e+00  2.524675e-321
     3344000   3.343999e-07   7.015645e-02   6.312659e+00   1.836415e+01  -1.958410e+04  -1.915849e+05   2.269504e+05   4.460293e+11   1.206561e+10   4.867447e+10   2.976488e+05   6.359515e-27   0.000000e+00  2.524675e-321
     3352000   3.351999e-07   7.014093e-02   6.312506e+00   1.836433e+01  -1.922727e+04  -1.915749e+05   2.269894e+05   4.460462e+11   1.299287e+10   4.874844e+10   2.976488e+05   6.360952e-27   0.000000e+00  2.524675e-321
     3360000   3.359999e-07   7.012569e-02   6.312353e+00   1.836452e+01  -1.887043e+04  -1.915641e+05   2.270284e+05   4.460611e+11   1.392048e+10   4.882230e+10   2.976488e+05   6.362387e-27   0.000000e+00  2.524675e-321
     3368000   3.367999e-07   7.011074e-02   6.312200e+00   1.836470e+01  -1.851357e+04  -1.915526e+05   2.270675e+05   4.460740e+11   1.484844e+10   4.889604e+10   2.976488e+05   6.363820e-27   0.000000e+00  2.524675e-321
     3376000   3.375999e-07   7.009607e-02   6.312046e+00   1.836488e+01  -1.815671e+04  -1.915404e+05   2.271067e+05   4.460849e+11   1.577674e+10   4.896966e+10   2.976488e+05   6.365251e-27   0.000000e+00  2.524675e-321
     3384000   3.383999e-07   7.008169e-02   6.311893e+00   1.836506e+01  -1.779984e+04  -1.915274e+05   2.271459e+05   4.460937e+11   1.670538e+10   4.904317e+10   2.976488e+05   6.366680e-27   0.000000e+00  2.524675e-321
     3392000   3.391999e-07   7.006759e-02   6.311740e+00   1.836524e+01  -1.744296e+04  -1.915136e+05   2.271851e+05   4.461006e+11   1.763434e+10   4.911656e+10   2.976488e+05   6.368107e-27   0.000000e+00  2.524675e-321
     3400000   3.399999e-07   7.005378e-02   6.311587e+00   1.836542e+01  -1.708608e+04  -1.914992e+05   2.272245e+05   4.461054e+11   1.856364e+10   4.918983e+10   2.976488e+05   6.369532e-27   0.000000e+00  2.524675e-321
     3408000   3.407999e-07   7.004025e-02   6.311434e+00   1.836561e+01  -1.672919e+04  -1.914839e+05   2.272638e+05   4.461082e+11   1.949326e+10   4.926299e+10   2.976488e+05   6.370956e-27   0.000000e+00  2.524675e-321
     3416000   3.415999e-07   7.002701e-02   6.311280e+00   1.836579e+01  -1.637231e+04  -1.914680e+05   2.273033e+05   4.461090e+11   2.042321e+10   4.933604e+10   2.976488e+05   6.372377e-27   0.000000e+00  2.524675e-321
     3424000   3.423999e-07   7.001406e-02   6.311127e+00   1.836597e+01  -1.601542e+04  -1.914513e+05   2.273428e+05   4.461078e+11   2.135347e+10   4.940896e+10   2.976488e+05   6.373796e-27   0.000000e+00  2.524675e-321
     3432000   3.431999e-07   7.000139e-02   6.310974e+00   1.836615e+01  -1.565853e+04  -1.914338e+05   2.273823e+05   4.461045e+11   2.228404e+10   4.948177e+10   2.976488e+05   6.375214e-27   0.000000e+00  2.524675e-321
     3440000   3.439999e-07   6.998900e-02   6.310821e+00   1.836633e+01  -1.530165e+04  -1.914156e+05   2.274219e+05   4.460992e+11   2.321492e+10   4.955446e+10   2.976488e+05   6.376629e-27   0.000000e+00  2.524675e-321
     3448000   3.447999e-07   6.997690e-02   6.310668e+00   1.836652e+01  -1.494478e+04  -1.913967e+05   2.274616e+05   4.460919e+11   2.414610e+10   4.962704e+10   2.976488e+05   6.378043e-27   0.000000e+00  2.524675e-321
     3456000   3.455999e-07   6.996509e-02   6.310515e+00   1.836670e+01  -1.458791e+04  -1.913770e+05   2.275014e+05   4.460826e+11   2.507759e+10   4.969950e+10   2.976488e+05   6.379455e-27   0.000000e+00  2.524675e-321
     3464000   3.463999e-07   6.995356e-02   6.310362e+00   1.836688e+01  -1.423104e+04  -1.913565e+05   2.275411e+05   4.460712e+11   2.600937e+10   4.977184e+10   2.976488e+05   6.380865e-27   0.000000e+00  2.524675e-321
     3472000   3.471999e-07   6.994232e-02   6.310209e+00   1.836706e+01  -1.387419e+04  -1.913354e+05   2.275810e+05   4.460579e+11   2.694144e+10   4.984407e+10   2.976488e+05   6.382273e-27   0.000000e+00  2.524675e-321
     3480000   3.479999e-07   6.993136e-02   6.310056e+00   1.836724e+01  -1.351735e+04  -1.913134e+05   2.276209e+05   4.460424e+11   2.787380e+10   4.991617e+10   2.976488e+05   6.383680e-27   0.000000e+00  2.524675e-321
     3488000   3.487999e-07   6.992069e-02   6.309902e+00   1.836743e+01  -1.316052e+04  -1.912908e+05   2.276609e+05   4.460250e+11   2.880644e+10   4.998817e+10   2.976488e+05   6.385084e-27   0.000000e+00  2.524675e-321
     3496000   3.495999e-07   6.991031e-02   6.309749e+00   1.836761e+01  -1.280371e+04  -1.912673e+05   2.277009e+05   4.460055e+11   2.973936e+10   5.006004e+10   2.976488e+05   6.386487e-27   0.000000e+00  2.524675e-321
     3504000   3.503999e-07   6.990021e-02   6.309596e+00   1.836779e+01  -1.244692e+04  -1.912432e+05   2.277409e+05   4.459840e+11   3.067255e+10   5.013179e+10   2.976488e+05   6.387888e-27   0.000000e+00  2.524675e-321
     3512000   3.511999e-07   6.989039e-02   6.309443e+00   1.836797e+01  -1.209014e+04  -1.912183e+05   2.277811e+05   4.459605e+11   3.160602e+10   5.020343e+10   2.976488e+05   6.389288e-27   0.000000e+00  2.524675e-321
     3520000   3.519999e-07   6.988086e-02   6.309291e+00   1.836816e+01  -1.173338e+04  -1.911926e+05   2.278213e+05   4.459349e+11   3.253975e+10   5.027495e+10   2.976488e+05   6.390685e-27   0.000000e+00  2.524675e-321
     3528000   3.527999e-07   6.987162e-02   6.309138e+00   1.836834e+01  -1.137664e+04  -1.911662e+05   2.278615e+05   4.459073e+11   3.347374e+10   5.034635e+10   2.976488e+05   6.392081e-27   0.000000e+00  2.524675e-321
     3536000   3.535999e-07   6.986266e-02   6.308985e+00   1.836852e+01  -1.101993e+04  -1.911390e+05   2.279018e+05   4.458777e+11   3.440799e+10   5.041763e+10   2.976488e+05   6.393475e-27   0.000000e+00  2.524675e-321
     3544000   3.543999e-07   6.985399e-02   6.308832e+00   1.836870e+01  -1.066324e+04  -1.911111e+05   2.279422e+05   4.458460e+11   3.534250e+10   5.048880e+10   2.976488e+05   6.394867e-27   0.000000e+00  2.524675e-321
     3552000   3.551999e-07   6.984560e-02   6.308679e+00   1.836888e+01  -1.030658e+04  -1.910825e+05   2.279826e+05   4.458122e+11   3.627725e+10   5.055985e+10   2.976488e+05   6.396258e-27   0.000000e+00  2.524675e-321
     3560000   3.559999e-07   6.983750e-02   6.308526e+00   1.836907e+01  -9.949940e+03  -1.910531e+05   2.280231e+05   4.457765e+11   3.721225e+10   5.063077e+10   2.976488e+05   6.397647e-27   0.000000e+00  2.524675e-321
     3568000   3.567999e-07   6.982968e-02   6.308373e+00   1.836925e+01  -9.593334e+03  -1.910230e+05   2.280636e+05   4.457387e+11   3.814749e+10   5.070158e+10   2.976488e+05   6.399035e-27   0.000000e+00  2.524675e-321
     3576000   3.575999e-07   6.982215e-02   6.308220e+00   1.836943e+01  -9.236759e+03  -1.909921e+05   2.281042e+05   4.456988e+11   3.908297e+10   5.077227e+10   2.976488e+05   6.400420e-27   0.000000e+00  2.524675e-321
     3584000   3.583999e-07   6.981490e-02   6.308068e+00   1.836961e+01  -8.880217e+03  -1.909604e+05   2.281449e+05   4.456569e+11   4.001868e+10   5.084285e+10   2.976488e+05   6.401804e-27   0.000000e+00  2.524675e-321
     3592000   3.591999e-07   6.980794e-02   6.307915e+00   1.836980e+01  -8.523708e+03  -1.909280e+05   2.281856e+05   4.456130e+11   4.095461e+10   5.091330e+10   2.976488e+05   6.403187e-27   0.000000e+00  2.524675e-321
     3600000   3.599999e-07   6.980126e-02   6.307762e+00   1.836998e+01  -8.167236e+03  -1.908949e+05   2.282263e+05   4.455670e+11   4.189077e+10   5.098363e+10   2.976488e+05   6.404568e-27   0.000000e+00  2.524675e-321
     3608000   3.607999e-07   6.979487e-02   6.307609e+00   1.837016e+01  -7.810802e+03  -1.908610e+05   2.282671e+05   4.455190e+11   4.282715e+10   5.105384e+10   2.976488e+05   6.405947e-27   0.000000e+00  2.524675e-321
     3616000   3.615999e-07   6.978876e-02   6.307457e+00   1.837034e+01  -7.454407e+03  -1.908264e+05   2.283080e+05   4.454689e+11   4.376375e+10   5.112394e+10   2.976488e+05   6.407324e-27   0.000000e+00  2.524675e-321
     3624000   3.623999e-07   6.978294e-02   6.307304e+00   1.837053e+01  -7.098052e+03  -1.907910e+05   2.283489e+05   4.454168e+11   4.470056e+10   5.119391e+10   2.976488e+05   6.408701e-27   0.000000e+00  2.524675e-321
     3632000   3.631999e-07   6.977741e-02   6.307151e+00   1.837071e+01  -6.741740e+03  -1.907548e+05   2.283899e+05   4.453626e+11   4.563757e+10   5.126377e+10   2.976488e+05   6.410075e-27   0.000000e+00  2.524675e-321
     3640000   3.639999e-07   6.977216e-02   6.306999e+00   1.837089e+01  -6.385473e+03  -1.907180e+05   2.284310e+05   4.453063e+11   4.657479e+10   5.133350e+10   2.976488e+05   6.411448e-27   0.000000e+00  2.524675e-321
     3648000   3.647999e-07   6.976719e-02   6.306846e+00   1.837108e+01  -6.029251e+03  -1.906803e+05   2.284720e+05   4.452481e+11   4.751220e+10   5.140311e+10   2.976488e+05   6.412820e-27   0.000000e+00  2.524675e-321
     3656000   3.655999e-07   6.976251e-02   6.306694e+00   1.837126e+01  -5.673076e+03  -1.906419e+05   2.285132e+05   4.451877e+11   4.844981e+10   5.147261e+10   2.976488e+05   6.414189e-27   0.000000e+00  2.524675e-321
     3664000   3.663999e-07   6.975811e-02   6.306541e+00   1.837144e+01  -5.316951e+03  -1.906028e+05   2.285544e+05   4.451253e+11   4.938761e+10   5.154198e+10   2.976488e+05   6.415558e-27   0.000000e+00  2.524675e-321
     3672000   3.671999e-07   6.975400e-02   6.306389e+00   1.837162e+01  -4.960876e+03  -1.905629e+05   2.285957e+05   4.450609e+11   5.032559e+10   5.161123e+10   2.976488e+05   6.416925e-27   0.000000e+00  2.524675e-321
     3680000   3.679999e-07   6.975018e-02   6.306236e+00   1.837181e+01  -4.604854e+03  -1.905223e+05   2.286370e+05   4.449944e+11   5.126375e+10   5.168036e+10   2.976488e+05   6.418290e-27   0.000000e+00  2.524675e-321
     3688000   3.687999e-07   6.974663e-02   6.306084e+00   1.837199e+01  -4.248886e+03  -1.904809e+05   2.286784e+05   4.449258e+11   5.220210e+10   5.174937e+10   2.976488e+05   6.419654e-27   0.000000e+00  2.524675e-321
     3696000   3.695999e-07   6.974338e-02   6.305932e+00   1.837217e+01  -3.892973e+03  -1.904388e+05   2.287198e+05   4.448552e+11   5.314061e+10   5.181826e+10   2.976488e+05   6.421017e-27   0.000000e+00  2.524675e-321
     3704000   3.703999e-07   6.974041e-02   6.305779e+00   1.837236e+01  -3.537118e+03  -1.903959e+05   2.287613e+05   4.447825e+11   5.407929e+10   5.188703e+10   2.976488e+05   6.422378e-27   0.000000e+00  2.524675e-321
     3712000   3.711999e-07   6.973772e-02   6.305627e+00   1.837254e+01  -3.181322e+03  -1.903522e+05   2.288028e+05   4.447078e+11   5.501814e+10   5.195568e+10   2.976488e+05   6.423738e-27   0.000000e+00  2.524675e-321
     3720000   3.719999e-07   6.973532e-02   6.305475e+00   1.837272e+01  -2.825586e+03  -1.903078e+05   2.288444e+05   4.446310e+11   5.595714e+10   5.202420e+10   2.976488e+05   6.425096e-27   0.000000e+00  2.524675e-321
     3728000   3.727999e-07   6.973320e-02   6.305323e+00   1.837290e+01  -2.469913e+03  -1.902627e+05   2.288860e+05   4.445521e+11   5.689630e+10   5.209260e+10   2.976488e+05   6.426453e-27   0.000000e+00  2.524675e-321
     3736000   3.735999e-07   6.973136e-02   6.305170e+00   1.837309e+01  -2.114303e+03  -1.902168e+05   2.289277e+05   4.444712e+11   5.783561e+10   5.216088e+10   2.976488e+05   6.427809e-27   0.000000e+00  2.524675e-321
     3744000   3.743999e-07   6.972981e-02   6.305018e+00   1.837327e+01  -1.758759e+03  -1.901702e+05   2.289695e+05   4.443882e+11   5.877507e+10   5.222904e+10   2.976488e+05   6.429163e-27   0.000000e+00  2.524675e-321
     3752000   3.751999e-07   6.972855e-02   6.304866e+00   1.837345e+01  -1.403283e+03  -1.901228e+05   2.290113e+05   4.443031e+11   5.971467e+10   5.229708e+10   2.976488e+05   6.430516e-27   0.000000e+00  2.524675e-321
     3760000   3.759999e-07   6.972757e-02   6.304714e+00   1.837364e+01  -1.047875e+03  -1.900746e+05   2.290532e+05   4.442160e+11   6.065441e+10   5.236499e+10   2.976488e+05   6.431868e-27   0.000000e+00  2.524675e-321
     3768000   3.767999e-07   6.972687e-02   6.304562e+00   1.837382e+01  -6.925377e+02  -1.900257e+05   2.290951e+05   4.441268e+11   6.159428e+10   5.243278e+10   2.976488e+05   6.433218e-27   0.000000e+00  2.524675e-321
     3776000   3.775999e-07   6.972646e-02   6.304410e+00   1.837400e+01  -3.372726e+02  -1.899761e+05   2.291371e+05   4.440356e+11   6.253428e+10   5.250045e+10   2.976488e+05   6.434567e-27   0.000000e+00  2.524675e-321
     3784000   3.783999e-07   6.972633e-02   6.304258e+00   1.837419e+01   1.791868e+01  -1.899257e+05   2.291791e+05   4.439423e+11   6.347440e+10   5.256799e+10   2.976488e+05   6.435915e-27   0.000000e+00  2.524675e-321
     3792000   3.791999e-07   6.972649e-02   6.304106e+00   1.837437e+01   3.730345e+02  -1.898745e+05   2.292212e+05   4.438469e+11   6.441465e+10   5.263541e+10   2.976488e+05   6.437261e-27   0.000000e+00  2.524675e-321
     3800000   3.799999e-07   6.972693e-02   6.303954e+00   1.837455e+01   7.280731e+02  -1.898226e+05   2.292633e+05   4.437494e+11   6.535501e+10   5.270271e+10   2.976488e+05   6.438606e-27   0.000000e+00  2.524675e-321
     3808000   3.807999e-07   6.972766e-02   6.303802e+00   1.837474e+01   1.083033e+03  -1.897699e+05   2.293055e+05   4.436499e+11   6.629548e+10   5.276988e+10   2.976488e+05   6.439950e-27   0.000000e+00  2.524675e-321
     3816000   3.815999e-07   6.972866e-02   6.303651e+00   1.837492e+01   1.437912e+03  -1.897165e+05   2.293477e+05   4.435483e+11   6.723606e+10   5.283693e+10   2.976488e+05   6.441293e-27   0.000000e+00  2.524675e-321
     3824000   3.823999e-07   6.972996e-02   6.303499e+00   1.837510e+01   1.792710e+03  -1.896624e+05   2.293900e+05   4.434446e+11   6.817675e+10   5.290385e+10   2.976488e+05   6.442634e-27   0.000000e+00  2.524675e-321
     3832000   3.831999e-07   6.973153e-02   6.303347e+00   1.837529e+01   2.147423e+03  -1.896075e+05   2.294324e+05   4.433388e+11   6.911753e+10   5.297065e+10   2.976488e+05   6.443975e-27   0.000000e+00  2.524675e-321
     3840000   3.839999e-07   6.973339e-02   6.303195e+00   1.837547e+01   2.502051e+03  -1.895518e+05   2.294748e+05   4.432310e+11   7.005841e+10   5.303733e+10   2.976488e+05   6.445314e-27   0.000000e+00  2.524675e-321
     3848000   3.847999e-07   6.973554e-02   6.303044e+00   1.837566e+01   2.856592e+03  -1.894954e+05   2.295172e+05   4.431211e+11   7.099937e+10   5.310388e+10   2.976488e+05   6.446652e-27   0.000000e+00  2.524675e-321
     3856000   3.855999e-07   6.973796e-02   6.302892e+00   1.837584e+01   3.211044e+03  -1.894382e+05   2.295598e+05   4.430091e+11   7.194042e+10   5.317030e+10   2.976488e+05   6.447989e-27   0.000000e+00  2.524675e-321
     3864000   3.863999e-07   6.974067e-02   6.302741e+00   1.837602e+01   3.565406e+03  -1.893803e+05   2.296023e+05   4.428951e+11   7.288156e+10   5.323660e+10   2.976488e+05   6.449324e-27   0.000000e+00  2.524675e-321
     3872000   3.871999e-07   6.974367e-02   6.302589e+00   1.837621e+01   3.919676e+03  -1.893216e+05   2.296449e+05   4.427790e+11   7.382277e+10   5.330278e+10   2.976488e+05   6.450659e-27   0.000000e+00  2.524675e-321
     3880000   3.879999e-07   6.974694e-02   6.302438e+00   1.837639e+01   4.273852e+03  -1.892621e+05   2.296876e+05   4.426608e+11   7.476405e+10   5.336883e+10   2.976488e+05   6.451992e-27   0.000000e+00  2.524675e-321
     3888000   3.887999e-07   6.975050e-02   6.302286e+00   1.837657e+01   4.627933e+03  -1.892019e+05   2.297303e+05   4.425405e+11   7.570540e+10   5.343475e+10   2.976488e+05   6.453325e-27   0.000000e+00  2.524675e-321
     3896000   3.895999e-07   6.975435e-02   6.302135e+00   1.837676e+01   4.981916e+03  -1.891410e+05   2.297731e+05   4.424181e+11   7.664681e+10   5.350055e+10   2.976488e+05   6.454656e-27   0.000000e+00  2.524675e-321
     3904000   3.903999e-07   6.975848e-02   6.301984e+00   1.837694e+01   5.335801e+03  -1.890793e+05   2.298159e+05   4.422937e+11   7.758829e+10   5.356622e+10   2.976488e+05   6.455986e-27   0.000000e+00  2.524675e-321
     3912000   3.911999e-07   6.976289e-02   6.301833e+00   1.837713e+01   5.689586e+03  -1.890169e+05   2.298588e+05   4.421671e+11   7.852981e+10   5.363176e+10   2.976488e+05   6.457316e-27   0.000000e+00  2.524675e-321
     3920000   3.919999e-07   6.976758e-02   6.301681e+00   1.837731e+01   6.043268e+03  -1.889537e+05   2.299017e+05   4.420385e+11   7.947139e+10   5.369718e+10   2.976488e+05   6.458644e-27   0.000000e+00  2.524675e-321
     3928000   3.927999e-07   6.977256e-02   6.301530e+00   1.837749e+01   6.396847e+03  -1.888897e+05   2.299447e+05   4.419078e+11   8.041301e+10   5.376247e+10   2.976488e+05   6.459971e-27   0.000000e+00  2.524675e-321
     3936000   3.935999e-07   6.977781e-02   6.301379e+00   1.837768e+01   6.750320e+03  -1.888250e+05   2.299878e+05   4.417751e+11   8.135468e+10   5.382763e+10   2.976488e+05   6.461297e-27   0.000000e+00  2.524675e-321
     3944000   3.943999e-07   6.978336e-02   6.301228e+00   1.837786e+01   7.103686e+03  -1.887595e+05   2.300308e+05   4.416402e+11   8.229638e+10   5.389266e+10   2.976488e+05   6.462622e-27   0.000000e+00  2.524675e-321
     3952000   3.951999e-07   6.978918e-02   6.301077e+00   1.837805e+01   7.456944e+03  -1.886933e+05   2.300740e+05   4.415033e+11   8.323812e+10   5.395757e+10   2.976488e+05   6.463947e-27   0.000000e+00  2.524675e-321
     3960000   3.959999e-07   6.979529e-02   6.300926e+00   1.837823e+01   7.810091e+03  -1.886264e+05   2.301172e+05   4.413642e+11   8.417988e+10   5.402235e+10   2.976488e+05   6.465270e-27   0.000000e+00  2.524675e-321
     3968000   3.967999e-07   6.980168e-02   6.300775e+00   1.837841e+01   8.163126e+03  -1.885586e+05   2.301604e+05   4.412231e+11   8.512167e+10   5.408700e+10   2.976488e+05   6.466592e-27   0.000000e+00  2.524675e-321
     3976000   3.975999e-07   6.980835e-02   6.300624e+00   1.837860e+01   8.516047e+03  -1.884902e+05   2.302037e+05   4.410799e+11   8.606347e+10   5.415152e+10   2.976488e+05   6.467914e-27   0.000000e+00  2.524675e-321
     3984000   3.983999e-07   6.981530e-02   6.300474e+00   1.837878e+01   8.868853e+03  -1.884209e+05   2.302471e+05   4.409346e+11   8.700529e+10   5.421592e+10   2.976488e+05   6.469234e-27   0.000000e+00  2.524675e-321
     3992000   3.991999e-07   6.982254e-02   6.300323e+00   1.837897e+01   9.221542e+03  -1.883510e+05   2.302905e+05   4.407873e+11   8.794713e+10   5.428018e+10   2.976488e+05   6.470554e-27   0.000000e+00  2.524675e-321
     4000000   3.999999e-07   6.983006e-02   6.300172e+00   1.837915e+01   9.574112e+03  -1.882802e+05   2.303339e+05   4.406378e+11   8.888896e+10   5.434432e+10   2.976488e+05   6.471873e-27   0.000000e+00  2.524675e-321
     4008000   4.007999e-07   6.983786e-02   6.300022e+00   1.837933e+01   9.926562e+03  -1.882087e+05   2.303774e+05   4.404862e+11   8.983080e+10   5.440832e+10   2.976488e+05   6.473191e-27   0.000000e+00  2.524675e-321
     4016000   4.015999e-07   6.984594e-02   6.299871e+00   1.837952e+01   1.027883e+04  -1.881365e+05   2.304209e+05   4.402481e+11   9.070873e+10   5.442392e+10   2.976488e+05   6.471628e-27   0.000000e+00  2.524675e-321
     4024000   4.023999e-07   6.985430e-02   6.299721e+00   1.837970e+01   1.063097e+04  -1.880636e+05   2.304645e+05   4.400924e+11   9.165024e+10   5.448772e+10   2.976488e+05   6.472939e-27   0.000000e+00  2.524675e-321
     4032000   4.031999e-07   6.986295e-02   6.299570e+00   1.837989e+01   1.098298e+04  -1.879899e+05   2.305081e+05   4.399345e+11   9.259173e+10   5.455140e+10   2.976488e+05   6.474249e-27   0.000000e+00  2.524675e-321
     4040000   4.039999e-07   6.987188e-02   6.299420e+00   1.838007e+01   1.133486e+04  -1.879155e+05   2.305518e+05   4.397746e+11   9.353321e+10   5.461494e+10   2.976488e+05   6.475558e-27   0.000000e+00  2.524675e-321
     4048000   4.047999e-07   6.988108e-02   6.299270e+00   1.838026e+01   1.168662e+04  -1.878402e+05   2.305955e+05   4.396126e+11   9.447467e+10   5.467835e+10   2.976488e+05   6.476867e-27   0.000000e+00  2.524675e-321
     4056000   4.055999e-07   6.989057e-02   6.299119e+00   1.838044e+01   1.203824e+04  -1.877643e+05   2.306393e+05   4.394485e+11   9.541610e+10   5.474163e+10   2.976488e+05   6.478175e-27   0.000000e+00  2.524675e-321
     4064000   4.063999e-07   6.990035e-02   6.298969e+00   1.838063e+01   1.238973e+04  -1.876876e+05   2.306831e+05   4.392823e+11   9.635750e+10   5.480478e+10   2.976488e+05   6.479482e-27   0.000000e+00  2.524675e-321
     4072000   4.071999e-07   6.991040e-02   6.298819e+00   1.838081e+01   1.274109e+04  -1.876101e+05   2.307269e+05   4.391140e+11   9.729887e+10   5.486780e+10   2.976488e+05   6.480789e-27   0.000000e+00  2.524675e-321
     4080000   4.079999e-07   6.992073e-02   6.298669e+00   1.838099e+01   1.309232e+04  -1.875319e+05   2.307709e+05   4.389436e+11   9.824019e+10   5.493069e+10   2.976488e+05   6.482094e-27   0.000000e+00  2.524675e-321
     4088000   4.087999e-07   6.993135e-02   6.298519e+00   1.838118e+01   1.344340e+04  -1.874529e+05   2.308148e+05   4.387711e+11   9.918148e+10   5.499344e+10   2.976488e+05   6.483399e-27   0.000000e+00  2.524675e-321
     4096000   4.095999e-07   6.994224e-02   6.298369e+00   1.838136e+01   1.379435e+04  -1.873732e+05   2.308589e+05   4.385966e+11   1.001227e+11   5.505606e+10   2.976488e+05   6.484704e-27   0.000000e+00  2.524675e-321
     4104000   4.103999e-07   6.995342e-02   6.298219e+00   1.838155e+01   1.414516e+04  -1.872927e+05   2.309029e+05   4.384199e+11   1.010639e+11   5.511855e+10   2.976488e+05   6.486007e-27   0.000000e+00  2.524675e-321
     4112000   4.111999e-07   6.996487e-02   6.298069e+00   1.838173e+01   1.449582e+04  -1.872115e+05   2.309470e+05   4.382411e+11   1.020050e+11   5.518091e+10   2.976488e+05   6.487310e-27   0.000000e+00  2.524675e-321
     4120000   4.119999e-07   6.997661e-02   6.297920e+00   1.838192e+01   1.484634e+04  -1.871295e+05   2.309912e+05   4.380603e+11   1.029461e+11   5.524314e+10   2.976488e+05   6.488613e-27   0.000000e+00  2.524675e-321
     4128000   4.127999e-07   6.998863e-02   6.297770e+00   1.838210e+01   1.519672e+04  -1.870468e+05   2.310354e+05   4.378773e+11   1.038871e+11   5.530523e+10   2.976488e+05   6.489914e-27   0.000000e+00  2.524675e-321
     4136000   4.135999e-07   7.000092e-02   6.297620e+00   1.838229e+01   1.554695e+04  -1.869633e+05   2.310797e+05   4.376923e+11   1.048280e+11   5.536718e+10   2.976488e+05   6.491216e-27   0.000000e+00  2.524675e-321
     4144000   4.143999e-07   7.001350e-02   6.297471e+00   1.838247e+01   1.589702e+04  -1.868791e+05   2.311240e+05   4.375051e+11   1.057688e+11   5.542901e+10   2.976488e+05   6.492516e-27   0.000000e+00  2.524675e-321
     4152000   4.151999e-07   7.002636e-02   6.297321e+00   1.838266e+01   1.624695e+04  -1.867941e+05   2.311684e+05   4.373159e+11   1.067096e+11   5.549069e+10   2.976488e+05   6.493816e-27   0.000000e+00  2.524675e-321
     4160000   4.159999e-07   7.003950e-02   6.297172e+00   1.838284e+01   1.659673e+04  -1.867083e+05   2.312128e+05   4.371245e+11   1.076503e+11   5.555225e+10   2.976488e+05   6.495116e-27   0.000000e+00  2.524675e-321
     4168000   4.167999e-07   7.005291e-02   6.297023e+00   1.838303e+01   1.694635e+04  -1.866218e+05   2.312573e+05   4.369311e+11   1.085909e+11   5.561367e+10   2.976488e+05   6.496414e-27   0.000000e+00  2.524675e-321
     4176000   4.175999e-07   7.006661e-02   6.296873e+00   1.838321e+01   1.729582e+04  -1.865346e+05   2.313018e+05   4.367356e+11   1.095314e+11   5.567495e+10   2.976488e+05   6.497713e-27   0.000000e+00  2.524675e-321
     4184000   4.183999e-07   7.008059e-02   6.296724e+00   1.838340e+01   1.764513e+04  -1.864466e+05   2.313464e+05   4.365379e+11   1.104718e+11   5.573610e+10   2.976488e+05   6.499011e-27   0.000000e+00  2.524675e-321
     4192000   4.191999e-07   7.009484e-02   6.296575e+00   1.838358e+01   1.799428e+04  -1.863578e+05   2.313910e+05   4.363382e+11   1.114121e+11   5.579711e+10   2.976488e+05   6.500308e-27   0.000000e+00  2.524675e-321
     4200000   4.199999e-07   7.010938e-02   6.296426e+00   1.838377e+01   1.834327e+04  -1.862683e+05   2.314356e+05   4.361364e+11   1.123523e+11   5.585799e+10   2.976488e+05   6.501605e-27   0.000000e+00  2.524675e-321
     4208000   4.207999e-07   7.012419e-02   6.296277e+00   1.838395e+01   1.869210e+04  -1.861781e+05   2.314803e+05   4.359324e+11   1.132924e+11   5.591873e+10   2.976488e+05   6.502901e-27   0.000000e+00  2.524675e-321
     4216000   4.215999e-07   7.013929e-02   6.296128e+00   1.838414e+01   1.904076e+04  -1.860871e+05   2.315251e+05   4.357264e+11   1.142323e+11   5.597934e+10   2.976488e+05   6.504197e-27   0.000000e+00  2.524675e-321
     4224000   4.223999e-07   7.015466e-02   6.295979e+00   1.838432e+01   1.938926e+04  -1.859953e+05   2.315699e+05   4.355182e+11   1.151722e+11   5.603980e+10   2.976488e+05   6.505493e-27   0.000000e+00  2.524675e-321
     4232000   4.231999e-07   7.017031e-02   6.295831e+00   1.838451e+01   1.973759e+04  -1.859028e+05   2.316148e+05   4.353080e+11   1.161119e+11   5.610013e+10   2.976488e+05   6.506788e-27   0.000000e+00  2.524675e-321
     4240000   4.239999e-07   7.018624e-02   6.295682e+00   1.838469e+01   2.008575e+04  -1.858095e+05   2.316597e+05   4.350957e+11   1.170515e+11   5.616033e+10   2.976488e+05   6.508083e-27   0.000000e+00  2.524675e-321
     4248000   4.247999e-07   7.020245e-02   6.295533e+00   1.838488e+01   2.043374e+04  -1.857155e+05   2.317046e+05   4.348812e+11   1.179910e+11   5.622038e+10   2.976488e+05   6.509378e-27   0.000000e+00  2.524675e-321
     4256000   4.255999e-07   7.021893e-02   6.295385e+00   1.838506e+01   2.078156e+04  -1.856207e+05   2.317496e+05   4.346647e+11   1.189303e+11   5.628030e+10   2.976488e+05   6.510672e-27   0.000000e+00  2.524675e-321
     4264000   4.263999e-07   7.023570e-02   6.295236e+00   1.838525e+01   2.112920e+04  -1.855252e+05   2.317947e+05   4.344461e+11   1.198695e+11   5.634008e+10   2.976488e+05   6.511965e-27   0.000000e+00  2.524675e-321
     4272000   4.271999e-07   7.025274e-02   6.295088e+00   1.838544e+01   2.147667e+04  -1.854289e+05   2.318398e+05   4.342253e+11   1.208085e+11   5.639972e+10   2.976488e+05   6.513259e-27   0.000000e+00  2.524675e-321
     4280000   4.279999e-07   7.027006e-02   6.294940e+00   1.838562e+01   2.182396e+04  -1.853319e+05   2.318849e+05   4.340025e+11   1.217474e+11   5.645922e+10   2.976488e+05   6.514552e-27   0.000000e+00  2.524675e-321
     4288000   4.287999e-07   7.028766e-02   6.294791e+00   1.838581e+01   2.217108e+04  -1.852341e+05   2.319301e+05   4.337775e+11   1.226861e+11   5.651858e+10   2.976488e+05   6.515845e-27   0.000000e+00  2.524675e-321
