     timestep     time              x             y              z              vx             vy             vz             ax             ay             az         v_magnitude      ELoss        Electronic      Nuclear
           0   0.000000e+00   1.000000e-01   7.988682e+00   1.002358e+01  -7.182382e+05  -2.280109e+05  -7.393235e+04   0.000000e+00   0.000000e+00   0.000000e+00   7.571796e+05   0.000000e+00   0.000000e+00   0.000000e+00
        8000   7.999000e-10   9.942545e-02   7.988499e+00   1.002352e+01  -7.181396e+05  -2.283199e+05  -7.393554e+04   1.232160e+11  -3.862677e+11  -3.971965e+09   7.571796e+05   3.358455e-26   0.000000e+00   0.000000e+00
       16000   1.599900e-09   9.885098e-02   7.988317e+00   1.002346e+01  -7.180410e+05  -2.286289e+05  -7.393871e+04   1.233716e+11  -3.861865e+11  -3.956160e+09   7.571796e+05   3.357955e-26   0.000000e+00   0.000000e+00
       24000   2.399900e-09   9.827658e-02   7.988134e+00   1.002340e+01  -7.179423e+05  -2.289378e+05  -7.394187e+04   1.235272e+11  -3.861052e+11  -3.940382e+09   7.571796e+05   3.357455e-26   0.000000e+00   0.000000e+00
       32000   3.199900e-09   9.770227e-02   7.987950e+00   1.002335e+01  -7.178434e+05  -2.292467e+05  -7.394501e+04   1.236828e+11  -3.860238e+11  -3.924630e+09   7.571796e+05   3.356955e-26   0.000000e+00   0.000000e+00
       40000   3.999900e-09   9.712803e-02   7.987767e+00   1.002329e+01  -7.177444e+05  -2.295555e+05  -7.394815e+04   1.238383e+11  -3.859424e+11  -3.908906e+09   7.571796e+05   3.356455e-26   0.000000e+00   0.000000e+00
       48000   4.799900e-09   9.655388e-02   7.987583e+00   1.002323e+01  -7.176452e+05  -2.298642e+05  -7.395127e+04   1.239937e+11  -3.858609e+11  -3.893209e+09   7.571796e+05   3.355954e-26   0.000000e+00   0.000000e+00
       56000   5.599900e-09   9.597980e-02   7.987399e+00   1.002317e+01  -7.175460e+05  -2.301728e+05  -7.395438e+04   1.241491e+11  -3.857793e+11  -3.877539e+09   7.571796e+05   3.355453e-26   0.000000e+00   0.000000e+00
       64000   6.399900e-09   9.540580e-02   7.987215e+00   1.002311e+01  -7.174466e+05  -2.304814e+05  -7.395747e+04   1.243044e+11  -3.856977e+11  -3.861896e+09   7.571796e+05   3.354953e-26   0.000000e+00   0.000000e+00
       72000   7.199900e-09   9.483189e-02   7.987030e+00   1.002305e+01  -7.173471e+05  -2.307900e+05  -7.396056e+04   1.244596e+11  -3.856160e+11  -3.846279e+09   7.571796e+05   3.354452e-26   0.000000e+00   0.000000e+00
       80000   7.999900e-09   9.425805e-02   7.986846e+00   1.002299e+01  -7.172475e+05  -2.310984e+05  -7.396363e+04   1.246148e+11  -3.855342e+11  -3.830690e+09   7.571796e+05   3.353951e-26   0.000000e+00   0.000000e+00
       88000   8.799900e-09   9.368429e-02   7.986661e+00   1.002293e+01  -7.171477e+05  -2.314068e+05  -7.396668e+04   1.247699e+11  -3.854524e+11  -3.815127e+09   7.571796e+05   3.353450e-26   0.000000e+00   0.000000e+00
       96000   9.599900e-09   9.311061e-02   7.986475e+00   1.002287e+01  -7.170478e+05  -2.317151e+05  -7.396973e+04   1.249250e+11  -3.853705e+11  -3.799592e+09   7.571796e+05   3.352948e-26   0.000000e+00   0.000000e+00
      104000   1.039990e-08   9.253701e-02   7.986290e+00   1.002281e+01  -7.169478e+05  -2.320234e+05  -7.397276e+04   1.250800e+11  -3.852885e+11  -3.784083e+09   7.571796e+05   3.352447e-26   0.000000e+00   0.000000e+00
      112000   1.119990e-08   9.196350e-02   7.986104e+00   1.002275e+01  -7.168477e+05  -2.323316e+05  -7.397578e+04   1.252350e+11  -3.852064e+11  -3.768602e+09   7.571796e+05   3.351945e-26   0.000000e+00   0.000000e+00
      120000   1.199990e-08   9.139006e-02   7.985918e+00   1.002269e+01  -7.167474e+05  -2.326397e+05  -7.397879e+04   1.253898e+11  -3.851243e+11  -3.753147e+09   7.571796e+05   3.351444e-26   0.000000e+00   0.000000e+00
      128000   1.279990e-08   9.081670e-02   7.985732e+00   1.002264e+01  -7.166471e+05  -2.329478e+05  -7.398179e+04   1.255447e+11  -3.850421e+11  -3.737719e+09   7.571796e+05   3.350942e-26   0.000000e+00   0.000000e+00
      136000   1.359990e-08   9.024342e-02   7.985545e+00   1.002258e+01  -7.165466e+05  -2.332558e+05  -7.398477e+04   1.256994e+11  -3.849599e+11  -3.722319e+09   7.571796e+05   3.350440e-26   0.000000e+00   0.000000e+00
      144000   1.439990e-08   8.967023e-02   7.985359e+00   1.002252e+01  -7.164460e+05  -2.335637e+05  -7.398775e+04   1.258541e+11  -3.848775e+11  -3.706945e+09   7.571796e+05   3.349938e-26   0.000000e+00   0.000000e+00
      152000   1.519990e-08   8.909711e-02   7.985172e+00   1.002246e+01  -7.163452e+05  -2.338716e+05  -7.399070e+04   1.260088e+11  -3.847951e+11  -3.691598e+09   7.571796e+05   3.349436e-26   0.000000e+00   0.000000e+00
      160000   1.599990e-08   8.852407e-02   7.984984e+00   1.002240e+01  -7.162443e+05  -2.341794e+05  -7.399365e+04   1.261634e+11  -3.847127e+11  -3.676279e+09   7.571796e+05   3.348933e-26   0.000000e+00   0.000000e+00
      168000   1.679990e-08   8.795112e-02   7.984797e+00   1.002234e+01  -7.161433e+05  -2.344871e+05  -7.399659e+04   1.263179e+11  -3.846301e+11  -3.660986e+09   7.571796e+05   3.348431e-26   0.000000e+00   0.000000e+00
      176000   1.759990e-08   8.737824e-02   7.984609e+00   1.002228e+01  -7.160422e+05  -2.347948e+05  -7.399951e+04   1.264723e+11  -3.845475e+11  -3.645720e+09   7.571796e+05   3.347928e-26   0.000000e+00   0.000000e+00
      184000   1.839990e-08   8.680545e-02   7.984421e+00   1.002222e+01  -7.159410e+05  -2.351024e+05  -7.400242e+04   1.266267e+11  -3.844649e+11  -3.630481e+09   7.571796e+05   3.347425e-26   0.000000e+00   0.000000e+00
      192000   1.919990e-08   8.623274e-02   7.984233e+00   1.002216e+01  -7.158396e+05  -2.354100e+05  -7.400532e+04   1.267811e+11  -3.843821e+11  -3.615269e+09   7.571796e+05   3.346923e-26   0.000000e+00   0.000000e+00
      200000   1.999990e-08   8.566011e-02   7.984045e+00   1.002210e+01  -7.157381e+05  -2.357174e+05  -7.400820e+04   1.269353e+11  -3.842993e+11  -3.600084e+09   7.571796e+05   3.346420e-26   0.000000e+00   0.000000e+00
      208000   2.079990e-08   8.508756e-02   7.983856e+00   1.002204e+01  -7.156365e+05  -2.360248e+05  -7.401108e+04   1.270896e+11  -3.842164e+11  -3.584926e+09   7.571796e+05   3.345916e-26   0.000000e+00   0.000000e+00
      216000   2.159990e-08   8.451509e-02   7.983667e+00   1.002198e+01  -7.155348e+05  -2.363322e+05  -7.401394e+04   1.272437e+11  -3.841335e+11  -3.569795e+09   7.571796e+05   3.345413e-26   0.000000e+00   0.000000e+00
      224000   2.239990e-08   8.394270e-02   7.983478e+00   1.002192e+01  -7.154329e+05  -2.366395e+05  -7.401679e+04   1.273978e+11  -3.840505e+11  -3.554691e+09   7.571796e+05   3.344910e-26   0.000000e+00   0.000000e+00
      232000   2.319990e-08   8.337040e-02   7.983288e+00   1.002187e+01  -7.153310e+05  -2.369467e+05  -7.401963e+04   1.275518e+11  -3.839674e+11  -3.539614e+09   7.571796e+05   3.344406e-26   0.000000e+00   0.000000e+00
      240000   2.399990e-08   8.279817e-02   7.983099e+00   1.002181e+01  -7.152289e+05  -2.372538e+05  -7.402245e+04   1.277058e+11  -3.838842e+11  -3.524564e+09   7.571796e+05   3.343903e-26   0.000000e+00   0.000000e+00
      248000   2.479990e-08   8.222603e-02   7.982909e+00   1.002175e+01  -7.151266e+05  -2.375609e+05  -7.402527e+04   1.278597e+11  -3.838010e+11  -3.509541e+09   7.571796e+05   3.343399e-26   0.000000e+00   0.000000e+00
      256000   2.559990e-08   8.165397e-02   7.982719e+00   1.002169e+01  -7.150243e+05  -2.378679e+05  -7.402807e+04   1.280136e+11  -3.837177e+11  -3.494545e+09   7.571796e+05   3.342895e-26   0.000000e+00   0.000000e+00
      264000   2.639990e-08   8.108199e-02   7.982528e+00   1.002163e+01  -7.149218e+05  -2.381748e+05  -7.403086e+04   1.281673e+11  -3.836344e+11  -3.479576e+09   7.571796e+05   3.342391e-26   0.000000e+00   0.000000e+00
      272000   2.719990e-08   8.051010e-02   7.982338e+00   1.002157e+01  -7.148192e+05  -2.384817e+05  -7.403364e+04   1.283211e+11  -3.835509e+11  -3.464633e+09   7.571796e+05   3.341887e-26   0.000000e+00   0.000000e+00
      280000   2.799990e-08   7.993828e-02   7.982147e+00   1.002151e+01  -7.147165e+05  -2.387885e+05  -7.403640e+04   1.284747e+11  -3.834674e+11  -3.449718e+09   7.571796e+05   3.341382e-26   0.000000e+00   0.000000e+00
      288000   2.879990e-08   7.936655e-02   7.981955e+00   1.002145e+01  -7.146137e+05  -2.390952e+05  -7.403916e+04   1.286283e+11  -3.833839e+11  -3.434830e+09   7.571796e+05   3.340878e-26   0.000000e+00   0.000000e+00
      296000   2.959990e-08   7.879490e-02   7.981764e+00   1.002139e+01  -7.145107e+05  -2.394019e+05  -7.404190e+04   1.287819e+11  -3.833002e+11  -3.419969e+09   7.571796e+05   3.340374e-26   0.000000e+00   0.000000e+00
      304000   3.039990e-08   7.822333e-02   7.981572e+00   1.002133e+01  -7.144076e+05  -2.397085e+05  -7.404463e+04   1.289353e+11  -3.832165e+11  -3.405135e+09   7.571796e+05   3.339869e-26   0.000000e+00   0.000000e+00
      312000   3.119990e-08   7.765185e-02   7.981381e+00   1.002127e+01  -7.143044e+05  -2.400151e+05  -7.404735e+04   1.290888e+11  -3.831328e+11  -3.390327e+09   7.571796e+05   3.339364e-26   0.000000e+00   0.000000e+00
      320000   3.199990e-08   7.708044e-02   7.981188e+00   1.002121e+01  -7.142011e+05  -2.403215e+05  -7.405005e+04   1.292421e+11  -3.830489e+11  -3.375547e+09   7.571796e+05   3.338859e-26   0.000000e+00   0.000000e+00
      328000   3.279990e-08   7.650913e-02   7.980996e+00   1.002115e+01  -7.140976e+05  -2.406279e+05  -7.405275e+04   1.293954e+11  -3.829650e+11  -3.360794e+09   7.571796e+05   3.338354e-26   0.000000e+00   0.000000e+00
      336000   3.359990e-08   7.593789e-02   7.980803e+00   1.002110e+01  -7.139940e+05  -2.409343e+05  -7.405543e+04   1.295486e+11  -3.828811e+11  -3.346067e+09   7.571796e+05   3.337849e-26   0.000000e+00   0.000000e+00
      344000   3.439990e-08   7.536674e-02   7.980611e+00   1.002104e+01  -7.138903e+05  -2.412406e+05  -7.405810e+04   1.297018e+11  -3.827970e+11  -3.331368e+09   7.571796e+05   3.337344e-26   0.000000e+00   0.000000e+00
      352000   3.519990e-08   7.479566e-02   7.980417e+00   1.002098e+01  -7.137865e+05  -2.415468e+05  -7.406076e+04   1.298549e+11  -3.827129e+11  -3.316696e+09   7.571796e+05   3.336838e-26   0.000000e+00   0.000000e+00
      360000   3.599990e-08   7.422468e-02   7.980224e+00   1.002092e+01  -7.136826e+05  -2.418529e+05  -7.406341e+04   1.300080e+11  -3.826287e+11  -3.302050e+09   7.571796e+05   3.336333e-26   0.000000e+00   0.000000e+00
      368000   3.679990e-08   7.365377e-02   7.980030e+00   1.002086e+01  -7.135785e+05  -2.421590e+05  -7.406604e+04   1.301609e+11  -3.825445e+11  -3.287432e+09   7.571796e+05   3.335827e-26   0.000000e+00   0.000000e+00
      376000   3.759990e-08   7.308295e-02   7.979837e+00   1.002080e+01  -7.134743e+05  -2.424650e+05  -7.406867e+04   1.303139e+11  -3.824602e+11  -3.272841e+09   7.571796e+05   3.335321e-26   0.000000e+00   0.000000e+00
      384000   3.839990e-08   7.251221e-02   7.979643e+00   1.002074e+01  -7.133700e+05  -2.427709e+05  -7.407128e+04   1.304667e+11  -3.823758e+11  -3.258276e+09   7.571796e+05   3.334815e-26   0.000000e+00   0.000000e+00
      392000   3.919990e-08   7.194156e-02   7.979448e+00   1.002068e+01  -7.132656e+05  -2.430768e+05  -7.407388e+04   1.306195e+11  -3.822914e+11  -3.243739e+09   7.571796e+05   3.334309e-26   0.000000e+00   0.000000e+00
      400000   3.999990e-08   7.137099e-02   7.979254e+00   1.002062e+01  -7.131610e+05  -2.433826e+05  -7.407647e+04   1.307723e+11  -3.822069e+11  -3.229228e+09   7.571796e+05   3.333803e-26   0.000000e+00   0.000000e+00
      408000   4.079990e-08   7.080050e-02   7.979059e+00   1.002056e+01  -7.130563e+05  -2.436883e+05  -7.407905e+04   1.309249e+11  -3.821223e+11  -3.214745e+09   7.571796e+05   3.333297e-26   0.000000e+00   0.000000e+00
      416000   4.159990e-08   7.023010e-02   7.978864e+00   1.002050e+01  -7.129515e+05  -2.439940e+05  -7.408161e+04   1.310776e+11  -3.820376e+11  -3.200289e+09   7.571796e+05   3.332790e-26   0.000000e+00   0.000000e+00
      424000   4.239990e-08   6.965978e-02   7.978668e+00   1.002044e+01  -7.128466e+05  -2.442996e+05  -7.408417e+04   1.312301e+11  -3.819529e+11  -3.185859e+09   7.571796e+05   3.332283e-26   0.000000e+00   0.000000e+00
      432000   4.319990e-08   6.908954e-02   7.978473e+00   1.002038e+01  -7.127416e+05  -2.446051e+05  -7.408671e+04   1.313826e+11  -3.818681e+11  -3.171457e+09   7.571796e+05   3.331777e-26   0.000000e+00   0.000000e+00
      440000   4.399990e-08   6.851939e-02   7.978277e+00   1.002033e+01  -7.126364e+05  -2.449105e+05  -7.408924e+04   1.315350e+11  -3.817833e+11  -3.157081e+09   7.571796e+05   3.331270e-26   0.000000e+00   0.000000e+00
      448000   4.479990e-08   6.794933e-02   7.978081e+00   1.002027e+01  -7.125311e+05  -2.452159e+05  -7.409176e+04   1.316874e+11  -3.816984e+11  -3.142733e+09   7.571796e+05   3.330763e-26   0.000000e+00   0.000000e+00
      456000   4.559990e-08   6.737934e-02   7.977885e+00   1.002021e+01  -7.124257e+05  -2.455213e+05  -7.409427e+04   1.318397e+11  -3.816134e+11  -3.128411e+09   7.571796e+05   3.330256e-26   0.000000e+00   0.000000e+00
      464000   4.639990e-08   6.680944e-02   7.977688e+00   1.002015e+01  -7.123202e+05  -2.458265e+05  -7.409677e+04   1.319919e+11  -3.815283e+11  -3.114117e+09   7.571796e+05   3.329749e-26   0.000000e+00   0.000000e+00
      472000   4.719990e-08   6.623963e-02   7.977491e+00   1.002009e+01  -7.122145e+05  -2.461317e+05  -7.409925e+04   1.321441e+11  -3.814432e+11  -3.099849e+09   7.571796e+05   3.329241e-26   0.000000e+00   0.000000e+00
      480000   4.799990e-08   6.566990e-02   7.977294e+00   1.002003e+01  -7.121087e+05  -2.464368e+05  -7.410173e+04   1.322962e+11  -3.813580e+11  -3.085609e+09   7.571796e+05   3.328734e-26   0.000000e+00   0.000000e+00
      488000   4.879990e-08   6.510026e-02   7.977097e+00   1.001997e+01  -7.120028e+05  -2.467419e+05  -7.410419e+04   1.324483e+11  -3.812728e+11  -3.071395e+09   7.571796e+05   3.328226e-26   0.000000e+00   0.000000e+00
      496000   4.959990e-08   6.453070e-02   7.976900e+00   1.001991e+01  -7.118968e+05  -2.470469e+05  -7.410664e+04   1.326003e+11  -3.811875e+11  -3.057208e+09   7.571796e+05   3.327719e-26   0.000000e+00   0.000000e+00
      504000   5.039990e-08   6.396122e-02   7.976702e+00   1.001985e+01  -7.117907e+05  -2.473518e+05  -7.410908e+04   1.327522e+11  -3.811021e+11  -3.043049e+09   7.571796e+05   3.327211e-26   0.000000e+00   0.000000e+00
      512000   5.119990e-08   6.339183e-02   7.976504e+00   1.001979e+01  -7.116844e+05  -2.476566e+05  -7.411151e+04   1.329041e+11  -3.810166e+11  -3.028916e+09   7.571796e+05   3.326703e-26   0.000000e+00   0.000000e+00
      520000   5.199990e-08   6.282253e-02   7.976305e+00   1.001973e+01  -7.115780e+05  -2.479614e+05  -7.411393e+04   1.330559e+11  -3.809311e+11  -3.014811e+09   7.571796e+05   3.326195e-26   0.000000e+00   0.000000e+00
      528000   5.279990e-08   6.225331e-02   7.976107e+00   1.001967e+01  -7.114715e+05  -2.482661e+05  -7.411633e+04   1.332076e+11  -3.808455e+11  -3.000732e+09   7.571796e+05   3.325687e-26   0.000000e+00   0.000000e+00
      536000   5.359990e-08   6.168417e-02   7.975908e+00   1.001961e+01  -7.113649e+05  -2.485708e+05  -7.411873e+04   1.333593e+11  -3.807599e+11  -2.986681e+09   7.571796e+05   3.325178e-26   0.000000e+00   0.000000e+00
      544000   5.439990e-08   6.111512e-02   7.975709e+00   1.001955e+01  -7.112581e+05  -2.488753e+05  -7.412111e+04   1.335109e+11  -3.806742e+11  -2.972656e+09   7.571796e+05   3.324670e-26   0.000000e+00   0.000000e+00
      552000   5.519990e-08   6.054616e-02   7.975510e+00   1.001950e+01  -7.111513e+05  -2.491798e+05  -7.412349e+04   1.336625e+11  -3.805884e+11  -2.958658e+09   7.571796e+05   3.324161e-26   0.000000e+00   0.000000e+00
      560000   5.599990e-08   5.997728e-02   7.975311e+00   1.001944e+01  -7.110443e+05  -2.494843e+05  -7.412585e+04   1.338140e+11  -3.805025e+11  -2.944688e+09   7.571796e+05   3.323652e-26   0.000000e+00   0.000000e+00
      568000   5.679990e-08   5.940849e-02   7.975111e+00   1.001938e+01  -7.109372e+05  -2.497886e+05  -7.412820e+04   1.339654e+11  -3.804166e+11  -2.930744e+09   7.571796e+05   3.323144e-26   0.000000e+00   0.000000e+00
      576000   5.759990e-08   5.883978e-02   7.974911e+00   1.001932e+01  -7.108299e+05  -2.500929e+05  -7.413054e+04   1.341168e+11  -3.803306e+11  -2.916827e+09   7.571796e+05   3.322635e-26   0.000000e+00   0.000000e+00
      584000   5.839990e-08   5.827116e-02   7.974711e+00   1.001926e+01  -7.107226e+05  -2.503972e+05  -7.413286e+04   1.342681e+11  -3.802446e+11  -2.902938e+09   7.571796e+05   3.322126e-26   0.000000e+00   0.000000e+00
      592000   5.919990e-08   5.770263e-02   7.974510e+00   1.001920e+01  -7.106151e+05  -2.507013e+05  -7.413518e+04   1.344193e+11  -3.801585e+11  -2.889075e+09   7.571796e+05   3.321616e-26   0.000000e+00   0.000000e+00
      600000   5.999990e-08   5.713418e-02   7.974310e+00   1.001914e+01  -7.105075e+05  -2.510054e+05  -7.413749e+04   1.345705e+11  -3.800723e+11  -2.875239e+09   7.571796e+05   3.321107e-26   0.000000e+00   0.000000e+00
      608000   6.079990e-08   5.656581e-02   7.974109e+00   1.001908e+01  -7.103998e+05  -2.513095e+05  -7.413978e+04   1.347216e+11  -3.799860e+11  -2.861431e+09   7.571796e+05   3.320598e-26   0.000000e+00   0.000000e+00
      616000   6.159990e-08   5.599754e-02   7.973908e+00   1.001902e+01  -7.102920e+05  -2.516134e+05  -7.414206e+04   1.348727e+11  -3.798997e+11  -2.847649e+09   7.571796e+05   3.320088e-26   0.000000e+00   0.000000e+00
      624000   6.239990e-08   5.542935e-02   7.973706e+00   1.001896e+01  -7.101840e+05  -2.519173e+05  -7.414434e+04   1.350237e+11  -3.798133e+11  -2.833894e+09   7.571796e+05   3.319578e-26   0.000000e+00   0.000000e+00
      632000   6.319990e-08   5.486124e-02   7.973504e+00   1.001890e+01  -7.100759e+05  -2.522211e+05  -7.414660e+04   1.351746e+11  -3.797269e+11  -2.820166e+09   7.571796e+05   3.319069e-26   0.000000e+00   0.000000e+00
      640000   6.399990e-08   5.429323e-02   7.973303e+00   1.001884e+01  -7.099677e+05  -2.525249e+05  -7.414885e+04   1.353255e+11  -3.796404e+11  -2.806466e+09   7.571796e+05   3.318559e-26   0.000000e+00   0.000000e+00
      648000   6.479990e-08   5.372529e-02   7.973100e+00   1.001878e+01  -7.098594e+05  -2.528285e+05  -7.415109e+04   1.354763e+11  -3.795538e+11  -2.792792e+09   7.571796e+05   3.318049e-26   0.000000e+00   0.000000e+00
      656000   6.559990e-08   5.315745e-02   7.972898e+00   1.001872e+01  -7.097510e+05  -2.531321e+05  -7.415332e+04   1.356270e+11  -3.794671e+11  -2.779145e+09   7.571796e+05   3.317538e-26   0.000000e+00   0.000000e+00
      664000   6.639990e-08   5.258969e-02   7.972695e+00   1.001867e+01  -7.096424e+05  -2.534357e+05  -7.415554e+04   1.357777e+11  -3.793804e+11  -2.765525e+09   7.571796e+05   3.317028e-26   0.000000e+00   0.000000e+00
      672000   6.719990e-08   5.202202e-02   7.972493e+00   1.001861e+01  -7.095337e+05  -2.537391e+05  -7.415774e+04   1.359283e+11  -3.792937e+11  -2.751932e+09   7.571796e+05   3.316518e-26   0.000000e+00   0.000000e+00
      680000   6.799990e-08   5.145444e-02   7.972289e+00   1.001855e+01  -7.094249e+05  -2.540425e+05  -7.415994e+04   1.360789e+11  -3.792068e+11  -2.738367e+09   7.571796e+05   3.316007e-26   0.000000e+00   0.000000e+00
      688000   6.879990e-08   5.088694e-02   7.972086e+00   1.001849e+01  -7.093160e+05  -2.543459e+05  -7.416212e+04   1.362293e+11  -3.791199e+11  -2.724828e+09   7.571796e+05   3.315496e-26   0.000000e+00   0.000000e+00
      696000   6.959990e-08   5.031953e-02   7.971882e+00   1.001843e+01  -7.092069e+05  -2.546491e+05  -7.416430e+04   1.363798e+11  -3.790329e+11  -2.711316e+09   7.571796e+05   3.314986e-26   0.000000e+00   0.000000e+00
      704000   7.039990e-08   4.975221e-02   7.971679e+00   1.001837e+01  -7.090978e+05  -2.549523e+05  -7.416646e+04   1.365301e+11  -3.789459e+11  -2.697831e+09   7.571796e+05   3.314475e-26   0.000000e+00   0.000000e+00
      712000   7.119990e-08   4.918498e-02   7.971475e+00   1.001831e+01  -7.089885e+05  -2.552555e+05  -7.416862e+04   1.366804e+11  -3.788588e+11  -2.684373e+09   7.571796e+05   3.313964e-26   0.000000e+00   0.000000e+00
      720000   7.199990e-08   4.861783e-02   7.971270e+00   1.001825e+01  -7.088791e+05  -2.555585e+05  -7.417076e+04   1.368307e+11  -3.787716e+11  -2.670942e+09   7.571796e+05   3.313452e-26   0.000000e+00   0.000000e+00
      728000   7.279990e-08   4.805077e-02   7.971066e+00   1.001819e+01  -7.087696e+05  -2.558615e+05  -7.417289e+04   1.369808e+11  -3.786844e+11  -2.657538e+09   7.571796e+05   3.312941e-26   0.000000e+00   0.000000e+00
      736000   7.359990e-08   4.748380e-02   7.970861e+00   1.001813e+01  -7.086599e+05  -2.561644e+05  -7.417501e+04   1.371310e+11  -3.785971e+11  -2.644161e+09   7.571796e+05   3.312430e-26   0.000000e+00   0.000000e+00
      744000   7.439990e-08   4.691691e-02   7.970656e+00   1.001807e+01  -7.085502e+05  -2.564672e+05  -7.417712e+04   1.372810e+11  -3.785097e+11  -2.630812e+09   7.571796e+05   3.311918e-26   0.000000e+00   0.000000e+00
      752000   7.519990e-08   4.635012e-02   7.970451e+00   1.001801e+01  -7.084403e+05  -2.567700e+05  -7.417922e+04   1.374310e+11  -3.784223e+11  -2.617489e+09   7.571796e+05   3.311407e-26   0.000000e+00   0.000000e+00
      760000   7.599990e-08   4.578341e-02   7.970245e+00   1.001795e+01  -7.083303e+05  -2.570727e+05  -7.418131e+04   1.375809e+11  -3.783348e+11  -2.604193e+09   7.571796e+05   3.310895e-26   0.000000e+00   0.000000e+00
      768000   7.679990e-08   4.521679e-02   7.970039e+00   1.001789e+01  -7.082201e+05  -2.573754e+05  -7.418339e+04   1.377308e+11  -3.782472e+11  -2.590924e+09   7.571796e+05   3.310383e-26   0.000000e+00   0.000000e+00
      776000   7.759990e-08   4.465026e-02   7.969833e+00   1.001783e+01  -7.081099e+05  -2.576779e+05  -7.418545e+04   1.378806e+11  -3.781596e+11  -2.577681e+09   7.571796e+05   3.309871e-26   0.000000e+00   0.000000e+00
      784000   7.839990e-08   4.408381e-02   7.969627e+00   1.001777e+01  -7.079995e+05  -2.579804e+05  -7.418751e+04   1.380303e+11  -3.780719e+11  -2.564466e+09   7.571796e+05   3.309359e-26   0.000000e+00   0.000000e+00
      792000   7.919990e-08   4.351746e-02   7.969420e+00   1.001772e+01  -7.078890e+05  -2.582828e+05  -7.418956e+04   1.381800e+11  -3.779842e+11  -2.551278e+09   7.571796e+05   3.308847e-26   0.000000e+00   0.000000e+00
      800000   7.999990e-08   4.295119e-02   7.969214e+00   1.001766e+01  -7.077784e+05  -2.585852e+05  -7.419159e+04   1.383296e+11  -3.778964e+11  -2.538117e+09   7.571796e+05   3.308334e-26   0.000000e+00   0.000000e+00
      808000   8.079990e-08   4.238501e-02   7.969007e+00   1.001760e+01  -7.076677e+05  -2.588875e+05  -7.419362e+04   1.384791e+11  -3.778085e+11  -2.524983e+09   7.571796e+05   3.307822e-26   0.000000e+00   0.000000e+00
      816000   8.159990e-08   4.181892e-02   7.968799e+00   1.001754e+01  -7.075569e+05  -2.591897e+05  -7.419563e+04   1.386286e+11  -3.777205e+11  -2.511876e+09   7.571796e+05   3.307309e-26   0.000000e+00   0.000000e+00
      824000   8.239990e-08   4.125292e-02   7.968592e+00   1.001748e+01  -7.074459e+05  -2.594918e+05  -7.419764e+04   1.387780e+11  -3.776325e+11  -2.498796e+09   7.571796e+05   3.306796e-26   0.000000e+00   0.000000e+00
      832000   8.319990e-08   4.068701e-02   7.968384e+00   1.001742e+01  -7.073348e+05  -2.597939e+05  -7.419963e+04   1.389274e+11  -3.775444e+11  -2.485743e+09   7.571796e+05   3.306284e-26   0.000000e+00   0.000000e+00
      840000   8.399990e-08   4.012119e-02   7.968176e+00   1.001736e+01  -7.072236e+05  -2.600959e+05  -7.420161e+04   1.390766e+11  -3.774563e+11  -2.472716e+09   7.571796e+05   3.305771e-26   0.000000e+00   0.000000e+00
      848000   8.479990e-08   3.955545e-02   7.967968e+00   1.001730e+01  -7.071123e+05  -2.603978e+05  -7.420359e+04   1.392259e+11  -3.773681e+11  -2.459717e+09   7.571796e+05   3.305258e-26   0.000000e+00   0.000000e+00
      856000   8.559990e-08   3.898981e-02   7.967760e+00   1.001724e+01  -7.070009e+05  -2.606997e+05  -7.420555e+04   1.393750e+11  -3.772798e+11  -2.446745e+09   7.571796e+05   3.304744e-26   0.000000e+00   0.000000e+00
      864000   8.639990e-08   3.842425e-02   7.967551e+00   1.001718e+01  -7.068893e+05  -2.610015e+05  -7.420750e+04   1.395241e+11  -3.771915e+11  -2.433799e+09   7.571796e+05   3.304231e-26   0.000000e+00   0.000000e+00
      872000   8.719990e-08   3.785878e-02   7.967342e+00   1.001712e+01  -7.067776e+05  -2.613032e+05  -7.420944e+04   1.396732e+11  -3.771031e+11  -2.420881e+09   7.571796e+05   3.303718e-26   0.000000e+00   0.000000e+00
      880000   8.799990e-08   3.729341e-02   7.967133e+00   1.001706e+01  -7.066658e+05  -2.616048e+05  -7.421137e+04   1.398221e+11  -3.770146e+11  -2.407990e+09   7.571796e+05   3.303204e-26   0.000000e+00   0.000000e+00
      888000   8.879990e-08   3.672812e-02   7.966923e+00   1.001700e+01  -7.065539e+05  -2.619064e+05  -7.421330e+04   1.399710e+11  -3.769261e+11  -2.395125e+09   7.571796e+05   3.302690e-26   0.000000e+00   0.000000e+00
      896000   8.959990e-08   3.616292e-02   7.966714e+00   1.001694e+01  -7.064419e+05  -2.622079e+05  -7.421521e+04   1.401199e+11  -3.768375e+11  -2.382288e+09   7.571796e+05   3.302177e-26   0.000000e+00   0.000000e+00
      904000   9.039990e-08   3.559781e-02   7.966504e+00   1.001688e+01  -7.063297e+05  -2.625093e+05  -7.421711e+04   1.402687e+11  -3.767488e+11  -2.369477e+09   7.571796e+05   3.301663e-26   0.000000e+00   0.000000e+00
      912000   9.119990e-08   3.503279e-02   7.966294e+00   1.001683e+01  -7.062174e+05  -2.628107e+05  -7.421900e+04   1.404174e+11  -3.766601e+11  -2.356694e+09   7.571796e+05   3.301149e-26   0.000000e+00   0.000000e+00
      920000   9.199990e-08   3.446786e-02   7.966083e+00   1.001677e+01  -7.061051e+05  -2.631120e+05  -7.422088e+04   1.405660e+11  -3.765713e+11  -2.343937e+09   7.571796e+05   3.300634e-26   0.000000e+00   0.000000e+00
      928000   9.279990e-08   3.390303e-02   7.965873e+00   1.001671e+01  -7.059925e+05  -2.634132e+05  -7.422275e+04   1.407146e+11  -3.764825e+11  -2.331207e+09   7.571796e+05   3.300120e-26   0.000000e+00   0.000000e+00
      936000   9.359990e-08   3.333828e-02   7.965662e+00   1.001665e+01  -7.058799e+05  -2.637144e+05  -7.422461e+04   1.408631e+11  -3.763935e+11  -2.318505e+09   7.571796e+05   3.299606e-26   0.000000e+00   0.000000e+00
      944000   9.439990e-08   3.277362e-02   7.965451e+00   1.001659e+01  -7.057672e+05  -2.640155e+05  -7.422646e+04   1.410116e+11  -3.763046e+11  -2.305829e+09   7.571796e+05   3.299091e-26   0.000000e+00   0.000000e+00
      952000   9.519990e-08   3.220905e-02   7.965240e+00   1.001653e+01  -7.056543e+05  -2.643165e+05  -7.422830e+04   1.411600e+11  -3.762155e+11  -2.293180e+09   7.571796e+05   3.298577e-26   0.000000e+00   0.000000e+00
      960000   9.599990e-08   3.164457e-02   7.965028e+00   1.001647e+01  -7.055413e+05  -2.646174e+05  -7.423013e+04   1.413083e+11  -3.761264e+11  -2.280559e+09   7.571796e+05   3.298062e-26   0.000000e+00   0.000000e+00
      968000   9.679990e-08   3.108018e-02   7.964816e+00   1.001641e+01  -7.054282e+05  -2.649183e+05  -7.423195e+04   1.414566e+11  -3.760372e+11  -2.267964e+09   7.571796e+05   3.297547e-26   0.000000e+00   0.000000e+00
      976000   9.759990e-08   3.051589e-02   7.964604e+00   1.001635e+01  -7.053150e+05  -2.652191e+05  -7.423376e+04   1.416048e+11  -3.759480e+11  -2.255396e+09   7.571796e+05   3.297032e-26   0.000000e+00   0.000000e+00
      984000   9.839990e-08   2.995168e-02   7.964392e+00   1.001629e+01  -7.052016e+05  -2.655198e+05  -7.423555e+04   1.417529e+11  -3.758587e+11  -2.242855e+09   7.571796e+05   3.296517e-26   0.000000e+00   0.000000e+00
      992000   9.919990e-08   2.938756e-02   7.964179e+00   1.001623e+01  -7.050882e+05  -2.658204e+05  -7.423734e+04   1.419010e+11  -3.757694e+11  -2.230341e+09   7.571796e+05   3.296002e-26   0.000000e+00   0.000000e+00
     1000000   9.999990e-08   2.882354e-02   7.963967e+00   1.001617e+01  -7.049746e+05  -2.661210e+05  -7.423912e+04   1.420490e+11  -3.756799e+11  -2.217854e+09   7.571796e+05   3.295486e-26   0.000000e+00   0.000000e+00
     1008000   1.007999e-07   2.825960e-02   7.963753e+00   1.001611e+01  -7.048609e+05  -2.664215e+05  -7.424089e+04   1.421970e+11  -3.755904e+11  -2.205394e+09   7.571796e+05   3.294971e-26   0.000000e+00   0.000000e+00
     1016000   1.015999e-07   2.769576e-02   7.963540e+00   1.001605e+01  -7.047471e+05  -2.667220e+05  -7.424265e+04   1.423449e+11  -3.755009e+11  -2.192961e+09   7.571796e+05   3.294455e-26   0.000000e+00   0.000000e+00
     1024000   1.023999e-07   2.713201e-02   7.963327e+00   1.001599e+01  -7.046331e+05  -2.670223e+05  -7.424440e+04   1.424927e+11  -3.754113e+11  -2.180555e+09   7.571796e+05   3.293940e-26   0.000000e+00   0.000000e+00
     1032000   1.031999e-07   2.656835e-02   7.963113e+00   1.001593e+01  -7.045191e+05  -2.673226e+05  -7.424614e+04   1.426404e+11  -3.753216e+11  -2.168175e+09   7.571796e+05   3.293424e-26   0.000000e+00   0.000000e+00
     1040000   1.039999e-07   2.600478e-02   7.962899e+00   1.001587e+01  -7.044049e+05  -2.676228e+05  -7.424787e+04   1.427881e+11  -3.752319e+11  -2.155823e+09   7.571796e+05   3.292908e-26   0.000000e+00   0.000000e+00
     1048000   1.047999e-07   2.544130e-02   7.962685e+00   1.001582e+01  -7.042906e+05  -2.679230e+05  -7.424959e+04   1.429358e+11  -3.751420e+11  -2.143498e+09   7.571796e+05   3.292392e-26   0.000000e+00   0.000000e+00
     1056000   1.055999e-07   2.487791e-02   7.962470e+00   1.001576e+01  -7.041762e+05  -2.682231e+05  -7.425130e+04   1.430833e+11  -3.750522e+11  -2.131199e+09   7.571796e+05   3.291876e-26   0.000000e+00   0.000000e+00
     1064000   1.063999e-07   2.431462e-02   7.962256e+00   1.001570e+01  -7.040617e+05  -2.685231e+05  -7.425300e+04   1.432308e+11  -3.749622e+11  -2.118928e+09   7.571796e+05   3.291360e-26   0.000000e+00   0.000000e+00
     1072000   1.071999e-07   2.375141e-02   7.962041e+00   1.001564e+01  -7.039470e+05  -2.688230e+05  -7.425469e+04   1.433783e+11  -3.748723e+11  -2.106683e+09   7.571796e+05   3.290843e-26   0.000000e+00   0.000000e+00
     1080000   1.079999e-07   2.318830e-02   7.961826e+00   1.001558e+01  -7.038323e+05  -2.691229e+05  -7.425637e+04   1.435256e+11  -3.747822e+11  -2.094466e+09   7.571796e+05   3.290327e-26   0.000000e+00   0.000000e+00
     1088000   1.087999e-07   2.262528e-02   7.961610e+00   1.001552e+01  -7.037174e+05  -2.694227e+05  -7.425804e+04   1.436729e+11  -3.746921e+11  -2.082275e+09   7.571796e+05   3.289810e-26   0.000000e+00   0.000000e+00
     1096000   1.095999e-07   2.206235e-02   7.961394e+00   1.001546e+01  -7.036024e+05  -2.697224e+05  -7.425970e+04   1.438202e+11  -3.746019e+11  -2.070111e+09   7.571796e+05   3.289294e-26   0.000000e+00   0.000000e+00
     1104000   1.103999e-07   2.149952e-02   7.961179e+00   1.001540e+01  -7.034873e+05  -2.700220e+05  -7.426135e+04   1.439673e+11  -3.745116e+11  -2.057974e+09   7.571796e+05   3.288777e-26   0.000000e+00   0.000000e+00
     1112000   1.111999e-07   2.093677e-02   7.960962e+00   1.001534e+01  -7.033721e+05  -2.703216e+05  -7.426300e+04   1.441145e+11  -3.744213e+11  -2.045864e+09   7.571796e+05   3.288260e-26   0.000000e+00   0.000000e+00
     1120000   1.119999e-07   2.037412e-02   7.960746e+00   1.001528e+01  -7.032567e+05  -2.706211e+05  -7.426463e+04   1.442615e+11  -3.743310e+11  -2.033781e+09   7.571796e+05   3.287743e-26   0.000000e+00   0.000000e+00
     1128000   1.127999e-07   1.981156e-02   7.960529e+00   1.001522e+01  -7.031412e+05  -2.709205e+05  -7.426625e+04   1.444085e+11  -3.742405e+11  -2.021725e+09   7.571796e+05   3.287226e-26   0.000000e+00   0.000000e+00
     1136000   1.135999e-07   1.924910e-02   7.960313e+00   1.001516e+01  -7.030257e+05  -2.712199e+05  -7.426786e+04   1.445554e+11  -3.741500e+11  -2.009696e+09   7.571796e+05   3.286708e-26   0.000000e+00   0.000000e+00
     1144000   1.143999e-07   1.868672e-02   7.960095e+00   1.001510e+01  -7.029100e+05  -2.715192e+05  -7.426946e+04   1.447023e+11  -3.740595e+11  -1.997694e+09   7.571796e+05   3.286191e-26   0.000000e+00   0.000000e+00
     1152000   1.151999e-07   1.812444e-02   7.959878e+00   1.001504e+01  -7.027941e+05  -2.718184e+05  -7.427106e+04   1.448491e+11  -3.739688e+11  -1.985719e+09   7.571796e+05   3.285673e-26   0.000000e+00   0.000000e+00
     1160000   1.159999e-07   1.756225e-02   7.959661e+00   1.001498e+01  -7.026782e+05  -2.721175e+05  -7.427264e+04   1.449958e+11  -3.738782e+11  -1.973770e+09   7.571796e+05   3.285156e-26   0.000000e+00   0.000000e+00
     1168000   1.167999e-07   1.700016e-02   7.959443e+00   1.001492e+01  -7.025621e+05  -2.724166e+05  -7.427422e+04   1.451424e+11  -3.737874e+11  -1.961849e+09   7.571796e+05   3.284638e-26   0.000000e+00   0.000000e+00
     1176000   1.175999e-07   1.643815e-02   7.959225e+00   1.001487e+01  -7.024460e+05  -2.727156e+05  -7.427578e+04   1.452890e+11  -3.736966e+11  -1.949954e+09   7.571796e+05   3.284120e-26   0.000000e+00   0.000000e+00
     1184000   1.183999e-07   1.587624e-02   7.959006e+00   1.001481e+01  -7.023297e+05  -2.730145e+05  -7.427734e+04   1.454356e+11  -3.736057e+11  -1.938087e+09   7.571796e+05   3.283602e-26   0.000000e+00   0.000000e+00
     1192000   1.191999e-07   1.531443e-02   7.958788e+00   1.001475e+01  -7.022133e+05  -2.733133e+05  -7.427888e+04   1.455820e+11  -3.735148e+11  -1.926246e+09   7.571796e+05   3.283084e-26   0.000000e+00   0.000000e+00
     1200000   1.199999e-07   1.475270e-02   7.958569e+00   1.001469e+01  -7.020967e+05  -2.736121e+05  -7.428042e+04   1.457284e+11  -3.734238e+11  -1.914432e+09   7.571796e+05   3.282566e-26   0.000000e+00   0.000000e+00
     1208000   1.207999e-07   1.419107e-02   7.958350e+00   1.001463e+01  -7.019801e+05  -2.739108e+05  -7.428194e+04   1.458748e+11  -3.733327e+11  -1.902645e+09   7.571796e+05   3.282048e-26   0.000000e+00   0.000000e+00
     1216000   1.215999e-07   1.362953e-02   7.958131e+00   1.001457e+01  -7.018633e+05  -2.742094e+05  -7.428346e+04   1.460210e+11  -3.732416e+11  -1.890885e+09   7.571796e+05   3.281529e-26   0.000000e+00   0.000000e+00
     1224000   1.223999e-07   1.306809e-02   7.957911e+00   1.001451e+01  -7.017465e+05  -2.745080e+05  -7.428497e+04   1.461673e+11  -3.731504e+11  -1.879152e+09   7.571796e+05   3.281011e-26   0.000000e+00   0.000000e+00
     1232000   1.231999e-07   1.250674e-02   7.957692e+00   1.001445e+01  -7.016295e+05  -2.748065e+05  -7.428647e+04   1.463134e+11  -3.730592e+11  -1.867446e+09   7.571796e+05   3.280492e-26   0.000000e+00   0.000000e+00
     1240000   1.239999e-07   1.194548e-02   7.957472e+00   1.001439e+01  -7.015124e+05  -2.751049e+05  -7.428796e+04   1.464595e+11  -3.729679e+11  -1.855767e+09   7.571796e+05   3.279973e-26   0.000000e+00   0.000000e+00
     1248000   1.247999e-07   1.138432e-02   7.957251e+00   1.001433e+01  -7.013951e+05  -2.754032e+05  -7.428944e+04   1.466055e+11  -3.728765e+11  -1.844114e+09   7.571796e+05   3.279454e-26   0.000000e+00   0.000000e+00
     1256000   1.255999e-07   1.082325e-02   7.957031e+00   1.001427e+01  -7.012778e+05  -2.757015e+05  -7.429091e+04   1.467514e+11  -3.727851e+11  -1.832489e+09   7.571796e+05   3.278935e-26   0.000000e+00   0.000000e+00
     1264000   1.263999e-07   1.026228e-02   7.956810e+00   1.001421e+01  -7.011603e+05  -2.759997e+05  -7.429237e+04   1.468973e+11  -3.726936e+11  -1.820890e+09   7.571796e+05   3.278416e-26   0.000000e+00   0.000000e+00
     1272000   1.271999e-07   9.701394e-03   7.956589e+00   1.001415e+01  -7.010428e+05  -2.762978e+05  -7.429382e+04   1.470431e+11  -3.726020e+11  -1.809319e+09   7.571796e+05   3.277897e-26   0.000000e+00   0.000000e+00
     1280000   1.279999e-07   9.140607e-03   7.956368e+00   1.001409e+01  -7.009251e+05  -2.765959e+05  -7.429527e+04   1.471889e+11  -3.725104e+11  -1.797774e+09   7.571796e+05   3.277378e-26   0.000000e+00   0.000000e+00
     1288000   1.287999e-07   8.579914e-03   7.956147e+00   1.001403e+01  -7.008073e+05  -2.768938e+05  -7.429670e+04   1.473346e+11  -3.724187e+11  -1.786256e+09   7.571796e+05   3.276858e-26   0.000000e+00   0.000000e+00
     1296000   1.295999e-07   8.019315e-03   7.955925e+00   1.001397e+01  -7.006893e+05  -2.771917e+05  -7.429812e+04   1.474802e+11  -3.723270e+11  -1.774765e+09   7.571796e+05   3.276339e-26   0.000000e+00   0.000000e+00
     1304000   1.303999e-07   7.458811e-03   7.955703e+00   1.001391e+01  -7.005713e+05  -2.774896e+05  -7.429954e+04   1.476258e+11  -3.722352e+11  -1.763301e+09   7.571796e+05   3.275819e-26   0.000000e+00   0.000000e+00
     1312000   1.311999e-07   6.898401e-03   7.955481e+00   1.001385e+01  -7.004531e+05  -2.777873e+05  -7.430094e+04   1.477713e+11  -3.721433e+11  -1.751863e+09   7.571796e+05   3.275299e-26   0.000000e+00   0.000000e+00
     1320000   1.319999e-07   6.338086e-03   7.955259e+00   1.001380e+01  -7.003349e+05  -2.780850e+05  -7.430234e+04   1.479167e+11  -3.720514e+11  -1.740453e+09   7.571796e+05   3.274779e-26   0.000000e+00   0.000000e+00
     1328000   1.327999e-07   5.777865e-03   7.955036e+00   1.001374e+01  -7.002165e+05  -2.783826e+05  -7.430373e+04   1.480620e+11  -3.719594e+11  -1.729069e+09   7.571796e+05   3.274259e-26   0.000000e+00   0.000000e+00
     1336000   1.335999e-07   5.217739e-03   7.954813e+00   1.001368e+01  -7.000980e+05  -2.786801e+05  -7.430511e+04   1.482073e+11  -3.718674e+11  -1.717713e+09   7.571796e+05   3.273739e-26   0.000000e+00   0.000000e+00
     1344000   1.343999e-07   4.657709e-03   7.954590e+00   1.001362e+01  -6.999793e+05  -2.789776e+05  -7.430648e+04   1.483526e+11  -3.717753e+11  -1.706383e+09   7.571796e+05   3.273219e-26   0.000000e+00   0.000000e+00
     1352000   1.351999e-07   4.097773e-03   7.954367e+00   1.001356e+01  -6.998606e+05  -2.792750e+05  -7.430784e+04   1.484977e+11  -3.716831e+11  -1.695080e+09   7.571796e+05   3.272699e-26   0.000000e+00   0.000000e+00
     1360000   1.359999e-07   3.537932e-03   7.954144e+00   1.001350e+01  -6.997417e+05  -2.795723e+05  -7.430919e+04   1.486428e+11  -3.715909e+11  -1.683804e+09   7.571796e+05   3.272178e-26   0.000000e+00   0.000000e+00
     1368000   1.367999e-07   2.978186e-03   7.953920e+00   1.001344e+01  -6.996228e+05  -2.798695e+05  -7.431053e+04   1.487879e+11  -3.714986e+11  -1.672555e+09   7.571796e+05   3.271658e-26   0.000000e+00   0.000000e+00
     1376000   1.375999e-07   2.418535e-03   7.953696e+00   1.001338e+01  -6.995037e+05  -2.801667e+05  -7.431187e+04   1.489329e+11  -3.714062e+11  -1.661332e+09   7.571796e+05   3.271137e-26   0.000000e+00   0.000000e+00
     1384000   1.383999e-07   1.858980e-03   7.953472e+00   1.001332e+01  -6.993845e+05  -2.804638e+05  -7.431319e+04   1.490778e+11  -3.713138e+11  -1.650137e+09   7.571796e+05   3.270616e-26   0.000000e+00   0.000000e+00
     1392000   1.391999e-07   1.299520e-03   7.953247e+00   1.001326e+01  -6.992652e+05  -2.807608e+05  -7.431451e+04   1.492226e+11  -3.712213e+11  -1.638968e+09   7.571796e+05   3.270095e-26   0.000000e+00   0.000000e+00
     1400000   1.399999e-07   7.401557e-04   7.953022e+00   1.001320e+01  -6.991457e+05  -2.810577e+05  -7.431581e+04   1.493674e+11  -3.711288e+11  -1.627827e+09   7.571796e+05   3.269574e-26   0.000000e+00   0.000000e+00
     1408000   1.407999e-07   1.808869e-04   7.952797e+00   1.001314e+01  -6.990262e+05  -2.813546e+05  -7.431711e+04   1.495121e+11  -3.710362e+11  -1.616712e+09   7.571796e+05   3.269053e-26   0.000000e+00   0.000000e+00
