     timestep     time              x             y              z              vx             vy             vz             ax             ay             az         v_magnitude      ELoss        Electronic      Nuclear
           0   0.000000e+00   1.000000e-01   1.450109e+01   1.965985e+01  -8.386441e+04   8.223121e+04   2.033963e+05   0.000000e+00   0.000000e+00   0.000000e+00   2.348729e+05   0.000000e+00   0.000000e+00   0.000000e+00
        8000   7.999000e-10   9.993255e-02   1.450116e+01   1.966001e+01  -8.476032e+04   8.268651e+04   2.028396e+05  -1.121312e+12   5.642914e+11  -6.985907e+11   2.348729e+05   4.056629e-26   0.000000e+00   0.000000e+00
       16000   1.599900e-09   9.986438e-02   1.450123e+01   1.966017e+01  -8.565848e+04   8.313406e+04   2.022786e+05  -1.124073e+12   5.545809e+11  -7.039340e+11   2.348729e+05   4.062191e-26   0.000000e+00   0.000000e+00
       24000   2.399900e-09   9.979550e-02   1.450129e+01   1.966033e+01  -8.655882e+04   8.357382e+04   2.017133e+05  -1.126767e+12   5.448100e+11  -7.092405e+11   2.348729e+05   4.067732e-26   0.000000e+00   0.000000e+00
       32000   3.199900e-09   9.972589e-02   1.450136e+01   1.966049e+01  -8.746129e+04   8.400574e+04   2.011438e+05  -1.129392e+12   5.349794e+11  -7.145096e+11   2.348729e+05   4.073253e-26   0.000000e+00   0.000000e+00
       40000   3.999900e-09   9.965556e-02   1.450143e+01   1.966065e+01  -8.836583e+04   8.442977e+04   2.005701e+05  -1.131947e+12   5.250895e+11  -7.197406e+11   2.348729e+05   4.078754e-26   0.000000e+00   0.000000e+00
       48000   4.799900e-09   9.958450e-02   1.450150e+01   1.966082e+01  -8.927238e+04   8.484587e+04   1.999922e+05  -1.134434e+12   5.151409e+11  -7.249332e+11   2.348729e+05   4.084234e-26   0.000000e+00   0.000000e+00
       56000   5.599900e-09   9.951272e-02   1.450156e+01   1.966097e+01  -9.018090e+04   8.525398e+04   1.994102e+05  -1.136851e+12   5.051340e+11  -7.300865e+11   2.348729e+05   4.089695e-26   0.000000e+00   0.000000e+00
       64000   6.399900e-09   9.944021e-02   1.450163e+01   1.966113e+01  -9.109133e+04   8.565407e+04   1.988241e+05  -1.139197e+12   4.950695e+11  -7.352002e+11   2.348729e+05   4.095134e-26   0.000000e+00   0.000000e+00
       72000   7.199900e-09   9.936697e-02   1.450170e+01   1.966129e+01  -9.200360e+04   8.604608e+04   1.982339e+05  -1.141474e+12   4.849479e+11  -7.402736e+11   2.348729e+05   4.100554e-26   0.000000e+00   0.000000e+00
       80000   7.999900e-09   9.929301e-02   1.450177e+01   1.966145e+01  -9.291767e+04   8.642997e+04   1.976397e+05  -1.143679e+12   4.747698e+11  -7.453062e+11   2.348729e+05   4.105954e-26   0.000000e+00   0.000000e+00
       88000   8.799900e-09   9.921831e-02   1.450184e+01   1.966161e+01  -9.383347e+04   8.680569e+04   1.970414e+05  -1.145812e+12   4.645357e+11  -7.502974e+11   2.348729e+05   4.111334e-26   0.000000e+00   0.000000e+00
       96000   9.599900e-09   9.914287e-02   1.450191e+01   1.966177e+01  -9.475095e+04   8.717321e+04   1.964392e+05  -1.147874e+12   4.542462e+11  -7.552466e+11   2.348729e+05   4.116693e-26   0.000000e+00   0.000000e+00
      104000   1.039990e-08   9.906670e-02   1.450198e+01   1.966192e+01  -9.567005e+04   8.753247e+04   1.958330e+05  -1.149864e+12   4.439019e+11  -7.601533e+11   2.348729e+05   4.122033e-26   0.000000e+00   0.000000e+00
      112000   1.119990e-08   9.898980e-02   1.450205e+01   1.966208e+01  -9.659071e+04   8.788344e+04   1.952230e+05  -1.151781e+12   4.335034e+11  -7.650170e+11   2.348729e+05   4.127354e-26   0.000000e+00   0.000000e+00
      120000   1.199990e-08   9.891216e-02   1.450212e+01   1.966224e+01  -9.751288e+04   8.822606e+04   1.946090e+05  -1.153625e+12   4.230514e+11  -7.698370e+11   2.348729e+05   4.132655e-26   0.000000e+00   0.000000e+00
      128000   1.279990e-08   9.883378e-02   1.450219e+01   1.966239e+01  -9.843649e+04   8.856030e+04   1.939912e+05  -1.155396e+12   4.125463e+11  -7.746129e+11   2.348729e+05   4.137936e-26   0.000000e+00   0.000000e+00
      136000   1.359990e-08   9.875466e-02   1.450226e+01   1.966255e+01  -9.936149e+04   8.888612e+04   1.933697e+05  -1.157093e+12   4.019889e+11  -7.793441e+11   2.348729e+05   4.143198e-26   0.000000e+00   0.000000e+00
      144000   1.439990e-08   9.867480e-02   1.450233e+01   1.966270e+01  -1.002878e+05   8.920347e+04   1.927443e+05  -1.158716e+12   3.913798e+11  -7.840299e+11   2.348729e+05   4.148441e-26   0.000000e+00   0.000000e+00
      152000   1.519990e-08   9.859420e-02   1.450240e+01   1.966285e+01  -1.012154e+05   8.951231e+04   1.921152e+05  -1.160264e+12   3.807196e+11  -7.886700e+11   2.348729e+05   4.153665e-26   0.000000e+00   0.000000e+00
      160000   1.599990e-08   9.851285e-02   1.450247e+01   1.966301e+01  -1.021442e+05   8.981261e+04   1.914824e+05  -1.161738e+12   3.700089e+11  -7.932637e+11   2.348729e+05   4.158870e-26   0.000000e+00   0.000000e+00
      168000   1.679990e-08   9.843077e-02   1.450255e+01   1.966316e+01  -1.030742e+05   9.010431e+04   1.908460e+05  -1.163136e+12   3.592485e+11  -7.978105e+11   2.348729e+05   4.164056e-26   0.000000e+00   0.000000e+00
      176000   1.759990e-08   9.834794e-02   1.450262e+01   1.966331e+01  -1.040052e+05   9.038739e+04   1.902060e+05  -1.164459e+12   3.484389e+11  -8.023099e+11   2.348729e+05   4.169223e-26   0.000000e+00   0.000000e+00
      184000   1.839990e-08   9.826436e-02   1.450269e+01   1.966347e+01  -1.049373e+05   9.066180e+04   1.895623e+05  -1.165706e+12   3.375808e+11  -8.067612e+11   2.348729e+05   4.174372e-26   0.000000e+00   0.000000e+00
      192000   1.919990e-08   9.818004e-02   1.450276e+01   1.966362e+01  -1.058703e+05   9.092751e+04   1.889152e+05  -1.166877e+12   3.266750e+11  -8.111641e+11   2.348729e+05   4.179503e-26   0.000000e+00   0.000000e+00
      200000   1.999990e-08   9.809497e-02   1.450284e+01   1.966377e+01  -1.068043e+05   9.118447e+04   1.882645e+05  -1.167971e+12   3.157220e+11  -8.155180e+11   2.348729e+05   4.184616e-26   0.000000e+00   0.000000e+00
      208000   2.079990e-08   9.800915e-02   1.450291e+01   1.966392e+01  -1.077391e+05   9.143265e+04   1.876103e+05  -1.168989e+12   3.047226e+11  -8.198223e+11   2.348729e+05   4.189710e-26   0.000000e+00   0.000000e+00
      216000   2.159990e-08   9.792258e-02   1.450298e+01   1.966407e+01  -1.086746e+05   9.167201e+04   1.869528e+05  -1.169929e+12   2.936776e+11  -8.240765e+11   2.348729e+05   4.194787e-26   0.000000e+00   0.000000e+00
      224000   2.239990e-08   9.783527e-02   1.450306e+01   1.966422e+01  -1.096109e+05   9.190252e+04   1.862918e+05  -1.170791e+12   2.825875e+11  -8.282800e+11   2.348729e+05   4.199846e-26   0.000000e+00   0.000000e+00
      232000   2.319990e-08   9.774721e-02   1.450313e+01   1.966437e+01  -1.105479e+05   9.212414e+04   1.856275e+05  -1.171576e+12   2.714531e+11  -8.324325e+11   2.348729e+05   4.204888e-26   0.000000e+00   0.000000e+00
      240000   2.399990e-08   9.765839e-02   1.450320e+01   1.966451e+01  -1.114854e+05   9.233683e+04   1.849600e+05  -1.172282e+12   2.602751e+11  -8.365333e+11   2.348729e+05   4.209913e-26   0.000000e+00   0.000000e+00
      248000   2.479990e-08   9.756883e-02   1.450328e+01   1.966466e+01  -1.124235e+05   9.254057e+04   1.842891e+05  -1.172910e+12   2.490543e+11  -8.405820e+11   2.348729e+05   4.214921e-26   0.000000e+00   0.000000e+00
      256000   2.559990e-08   9.747851e-02   1.450335e+01   1.966481e+01  -1.133621e+05   9.273531e+04   1.836150e+05  -1.173459e+12   2.377914e+11  -8.445780e+11   2.348729e+05   4.219912e-26   0.000000e+00   0.000000e+00
      264000   2.639990e-08   9.738745e-02   1.450343e+01   1.966496e+01  -1.143010e+05   9.292102e+04   1.829378e+05  -1.173929e+12   2.264872e+11  -8.485209e+11   2.348729e+05   4.224886e-26   0.000000e+00   0.000000e+00
      272000   2.719990e-08   9.729563e-02   1.450350e+01   1.966510e+01  -1.152403e+05   9.309767e+04   1.822574e+05  -1.174320e+12   2.151423e+11  -8.524101e+11   2.348729e+05   4.229844e-26   0.000000e+00   0.000000e+00
      280000   2.799990e-08   9.720307e-02   1.450358e+01   1.966525e+01  -1.161799e+05   9.326524e+04   1.815739e+05  -1.174631e+12   2.037576e+11  -8.562451e+11   2.348729e+05   4.234786e-26   0.000000e+00   0.000000e+00
      288000   2.879990e-08   9.710975e-02   1.450365e+01   1.966539e+01  -1.171197e+05   9.342367e+04   1.808874e+05  -1.174862e+12   1.923338e+11  -8.600255e+11   2.348729e+05   4.239711e-26   0.000000e+00   0.000000e+00
      296000   2.959990e-08   9.701567e-02   1.450372e+01   1.966554e+01  -1.180597e+05   9.357296e+04   1.801979e+05  -1.175013e+12   1.808717e+11  -8.637508e+11   2.348729e+05   4.244622e-26   0.000000e+00   0.000000e+00
      304000   3.039990e-08   9.692085e-02   1.450380e+01   1.966568e+01  -1.189997e+05   9.371306e+04   1.795055e+05  -1.175083e+12   1.693720e+11  -8.674204e+11   2.348729e+05   4.249516e-26   0.000000e+00   0.000000e+00
      312000   3.119990e-08   9.682527e-02   1.450387e+01   1.966582e+01  -1.199398e+05   9.384394e+04   1.788101e+05  -1.175072e+12   1.578357e+11  -8.710339e+11   2.348729e+05   4.254396e-26   0.000000e+00   0.000000e+00
      320000   3.199990e-08   9.672895e-02   1.450395e+01   1.966597e+01  -1.208798e+05   9.396558e+04   1.781118e+05  -1.174981e+12   1.462633e+11  -8.745909e+11   2.348729e+05   4.259260e-26   0.000000e+00   0.000000e+00
      328000   3.279990e-08   9.663187e-02   1.450402e+01   1.966611e+01  -1.218197e+05   9.407795e+04   1.774107e+05  -1.174808e+12   1.346559e+11  -8.780908e+11   2.348729e+05   4.264110e-26   0.000000e+00   0.000000e+00
      336000   3.359990e-08   9.653403e-02   1.450410e+01   1.966625e+01  -1.227595e+05   9.418102e+04   1.767069e+05  -1.174554e+12   1.230141e+11  -8.815331e+11   2.348729e+05   4.268945e-26   0.000000e+00   0.000000e+00
      344000   3.439990e-08   9.643545e-02   1.450418e+01   1.966639e+01  -1.236990e+05   9.427477e+04   1.760003e+05  -1.174217e+12   1.113388e+11  -8.849175e+11   2.348729e+05   4.273766e-26   0.000000e+00   0.000000e+00
      352000   3.519990e-08   9.633612e-02   1.450425e+01   1.966653e+01  -1.246382e+05   9.435916e+04   1.752910e+05  -1.173799e+12   9.963074e+10  -8.882434e+11   2.348729e+05   4.278573e-26   0.000000e+00   0.000000e+00
      360000   3.599990e-08   9.623603e-02   1.450433e+01   1.966667e+01  -1.255771e+05   9.443417e+04   1.745791e+05  -1.173299e+12   8.789086e+10  -8.915105e+11   2.348729e+05   4.283367e-26   0.000000e+00   0.000000e+00
      368000   3.679990e-08   9.613519e-02   1.450440e+01   1.966681e+01  -1.265155e+05   9.449977e+04   1.738646e+05  -1.172716e+12   7.611995e+10  -8.947182e+11   2.348729e+05   4.288147e-26   0.000000e+00   0.000000e+00
      376000   3.759990e-08   9.603361e-02   1.450448e+01   1.966695e+01  -1.274534e+05   9.455595e+04   1.731476e+05  -1.172051e+12   6.431885e+10  -8.978660e+11   2.348729e+05   4.292914e-26   0.000000e+00   0.000000e+00
      384000   3.839990e-08   9.593127e-02   1.450455e+01   1.966709e+01  -1.283907e+05   9.460267e+04   1.724281e+05  -1.171302e+12   5.248841e+10  -9.009537e+11   2.348729e+05   4.297668e-26   0.000000e+00   0.000000e+00
      392000   3.919990e-08   9.582818e-02   1.450463e+01   1.966723e+01  -1.293274e+05   9.463992e+04   1.717061e+05  -1.170471e+12   4.062949e+10  -9.039807e+11   2.348729e+05   4.302410e-26   0.000000e+00   0.000000e+00
      400000   3.999990e-08   9.572434e-02   1.450470e+01   1.966736e+01  -1.302635e+05   9.466767e+04   1.709817e+05  -1.169556e+12   2.874294e+10  -9.069465e+11   2.348729e+05   4.307139e-26   0.000000e+00   0.000000e+00
      408000   4.079990e-08   9.561976e-02   1.450478e+01   1.966750e+01  -1.311987e+05   9.468590e+04   1.702550e+05  -1.168558e+12   1.682964e+10  -9.098509e+11   2.348729e+05   4.311856e-26   0.000000e+00   0.000000e+00
      416000   4.159990e-08   9.551443e-02   1.450486e+01   1.966764e+01  -1.321331e+05   9.469459e+04   1.695260e+05  -1.167476e+12   4.890466e+09  -9.126932e+11   2.348729e+05   4.316562e-26   0.000000e+00   0.000000e+00
      424000   4.239990e-08   9.540835e-02   1.450493e+01   1.966777e+01  -1.330666e+05   9.469372e+04   1.687947e+05  -1.166311e+12  -7.073710e+09  -9.154732e+11   2.348729e+05   4.321256e-26   0.000000e+00   0.000000e+00
      432000   4.319990e-08   9.530152e-02   1.450501e+01   1.966791e+01  -1.339992e+05   9.468326e+04   1.680612e+05  -1.165061e+12  -1.906200e+10  -9.181905e+11   2.348729e+05   4.325940e-26   0.000000e+00   0.000000e+00
      440000   4.399990e-08   9.519395e-02   1.450508e+01   1.966804e+01  -1.349307e+05   9.466321e+04   1.673256e+05  -1.163728e+12  -3.107350e+10  -9.208445e+11   2.348729e+05   4.330612e-26   0.000000e+00   0.000000e+00
      448000   4.479990e-08   9.508563e-02   1.450516e+01   1.966817e+01  -1.358611e+05   9.463354e+04   1.665879e+05  -1.162309e+12  -4.310733e+10  -9.234350e+11   2.348729e+05   4.335274e-26   0.000000e+00   0.000000e+00
      456000   4.559990e-08   9.497657e-02   1.450524e+01   1.966831e+01  -1.367904e+05   9.459423e+04   1.658481e+05  -1.160807e+12  -5.516258e+10  -9.259615e+11   2.348729e+05   4.339926e-26   0.000000e+00   0.000000e+00
      464000   4.639990e-08   9.486677e-02   1.450531e+01   1.966844e+01  -1.377184e+05   9.454527e+04   1.651064e+05  -1.159220e+12  -6.723832e+10  -9.284236e+11   2.348729e+05   4.344568e-26   0.000000e+00   0.000000e+00
      472000   4.719990e-08   9.475622e-02   1.450539e+01   1.966857e+01  -1.386451e+05   9.448664e+04   1.643627e+05  -1.157548e+12  -7.933366e+10  -9.308209e+11   2.348729e+05   4.349201e-26   0.000000e+00   0.000000e+00
      480000   4.799990e-08   9.464493e-02   1.450546e+01   1.966870e+01  -1.395705e+05   9.441833e+04   1.636171e+05  -1.155791e+12  -9.144767e+10  -9.331531e+11   2.348729e+05   4.353824e-26   0.000000e+00   0.000000e+00
      488000   4.879990e-08   9.453291e-02   1.450554e+01   1.966883e+01  -1.404944e+05   9.434032e+04   1.628696e+05  -1.153950e+12  -1.035794e+11  -9.354198e+11   2.348729e+05   4.358439e-26   0.000000e+00   0.000000e+00
      496000   4.959990e-08   9.442014e-02   1.450561e+01   1.966896e+01  -1.414168e+05   9.425260e+04   1.621204e+05  -1.152023e+12  -1.157280e+11  -9.376207e+11   2.348729e+05   4.363045e-26   0.000000e+00   0.000000e+00
      504000   5.039990e-08   9.430664e-02   1.450569e+01   1.966909e+01  -1.423376e+05   9.415515e+04   1.613695e+05  -1.150011e+12  -1.278924e+11  -9.397553e+11   2.348729e+05   4.367643e-26   0.000000e+00   0.000000e+00
      512000   5.119990e-08   9.419240e-02   1.450576e+01   1.966922e+01  -1.432568e+05   9.404797e+04   1.606168e+05  -1.147913e+12  -1.400718e+11  -9.418233e+11   2.348729e+05   4.372233e-26   0.000000e+00   0.000000e+00
      520000   5.199990e-08   9.407743e-02   1.450584e+01   1.966935e+01  -1.441742e+05   9.393103e+04   1.598626e+05  -1.145731e+12  -1.522651e+11  -9.438244e+11   2.348729e+05   4.376816e-26   0.000000e+00   0.000000e+00
      528000   5.279990e-08   9.396173e-02   1.450591e+01   1.966948e+01  -1.450899e+05   9.380434e+04   1.591067e+05  -1.143462e+12  -1.644714e+11  -9.457582e+11   2.348729e+05   4.381391e-26   0.000000e+00   0.000000e+00
      536000   5.359990e-08   9.384529e-02   1.450599e+01   1.966960e+01  -1.460037e+05   9.366787e+04   1.583494e+05  -1.141109e+12  -1.766899e+11  -9.476244e+11   2.348729e+05   4.385960e-26   0.000000e+00   0.000000e+00
      544000   5.439990e-08   9.372812e-02   1.450606e+01   1.966973e+01  -1.469157e+05   9.352163e+04   1.575905e+05  -1.138669e+12  -1.889194e+11  -9.494227e+11   2.348729e+05   4.390522e-26   0.000000e+00   0.000000e+00
      552000   5.519990e-08   9.361022e-02   1.450614e+01   1.966986e+01  -1.478256e+05   9.336560e+04   1.568303e+05  -1.136144e+12  -2.011591e+11  -9.511526e+11   2.348729e+05   4.395079e-26   0.000000e+00   0.000000e+00
      560000   5.599990e-08   9.349160e-02   1.450621e+01   1.966998e+01  -1.487335e+05   9.319977e+04   1.560687e+05  -1.133533e+12  -2.134079e+11  -9.528140e+11   2.348729e+05   4.399629e-26   0.000000e+00   0.000000e+00
      568000   5.679990e-08   9.337225e-02   1.450629e+01   1.967011e+01  -1.496392e+05   9.302414e+04   1.553058e+05  -1.130836e+12  -2.256649e+11  -9.544065e+11   2.348729e+05   4.404174e-26   0.000000e+00   0.000000e+00
      576000   5.759990e-08   9.325218e-02   1.450636e+01   1.967023e+01  -1.505428e+05   9.283871e+04   1.545417e+05  -1.128053e+12  -2.379292e+11  -9.559298e+11   2.348729e+05   4.408714e-26   0.000000e+00   0.000000e+00
      584000   5.839990e-08   9.313138e-02   1.450644e+01   1.967035e+01  -1.514441e+05   9.264345e+04   1.537763e+05  -1.125185e+12  -2.501996e+11  -9.573836e+11   2.348729e+05   4.413249e-26   0.000000e+00   0.000000e+00
      592000   5.919990e-08   9.300987e-02   1.450651e+01   1.967048e+01  -1.523430e+05   9.243838e+04   1.530099e+05  -1.122230e+12  -2.624753e+11  -9.587675e+11   2.348729e+05   4.417781e-26   0.000000e+00   0.000000e+00
      600000   5.999990e-08   9.288764e-02   1.450658e+01   1.967060e+01  -1.532396e+05   9.222349e+04   1.522423e+05  -1.119189e+12  -2.747552e+11  -9.600814e+11   2.348729e+05   4.422308e-26   0.000000e+00   0.000000e+00
      608000   6.079990e-08   9.276469e-02   1.450666e+01   1.967072e+01  -1.541337e+05   9.199877e+04   1.514738e+05  -1.116063e+12  -2.870383e+11  -9.613250e+11   2.348729e+05   4.426831e-26   0.000000e+00   0.000000e+00
      616000   6.159990e-08   9.264102e-02   1.450673e+01   1.967084e+01  -1.550253e+05   9.176423e+04   1.507042e+05  -1.112850e+12  -2.993237e+11  -9.624979e+11   2.348729e+05   4.431351e-26   0.000000e+00   0.000000e+00
      624000   6.239990e-08   9.251665e-02   1.450680e+01   1.967096e+01  -1.559143e+05   9.151985e+04   1.499338e+05  -1.109552e+12  -3.116103e+11  -9.635999e+11   2.348729e+05   4.435869e-26   0.000000e+00   0.000000e+00
      632000   6.319990e-08   9.239156e-02   1.450688e+01   1.967108e+01  -1.568006e+05   9.126565e+04   1.491625e+05  -1.106167e+12  -3.238971e+11  -9.646307e+11   2.348729e+05   4.440384e-26   0.000000e+00   0.000000e+00
      640000   6.399990e-08   9.226577e-02   1.450695e+01   1.967120e+01  -1.576841e+05   9.100162e+04   1.483904e+05  -1.102697e+12  -3.361831e+11  -9.655902e+11   2.348729e+05   4.444896e-26   0.000000e+00   0.000000e+00
      648000   6.479990e-08   9.213927e-02   1.450702e+01   1.967132e+01  -1.585648e+05   9.072776e+04   1.476176e+05  -1.099140e+12  -3.484673e+11  -9.664779e+11   2.348729e+05   4.449407e-26   0.000000e+00   0.000000e+00
      656000   6.559990e-08   9.201206e-02   1.450710e+01   1.967143e+01  -1.594427e+05   9.044407e+04   1.468441e+05  -1.095498e+12  -3.607487e+11  -9.672938e+11   2.348729e+05   4.453917e-26   0.000000e+00   0.000000e+00
      664000   6.639990e-08   9.188416e-02   1.450717e+01   1.967155e+01  -1.603176e+05   9.015056e+04   1.460699e+05  -1.091770e+12  -3.730262e+11  -9.680376e+11   2.348729e+05   4.458425e-26   0.000000e+00   0.000000e+00
      672000   6.719990e-08   9.175556e-02   1.450724e+01   1.967167e+01  -1.611895e+05   8.984723e+04   1.452952e+05  -1.087956e+12  -3.852988e+11  -9.687090e+11   2.348729e+05   4.462933e-26   0.000000e+00   0.000000e+00
      680000   6.799990e-08   9.162626e-02   1.450731e+01   1.967178e+01  -1.620583e+05   8.953408e+04   1.445200e+05  -1.084056e+12  -3.975655e+11  -9.693079e+11   2.348729e+05   4.467441e-26   0.000000e+00   0.000000e+00
      688000   6.879990e-08   9.149626e-02   1.450738e+01   1.967190e+01  -1.629240e+05   8.921112e+04   1.437443e+05  -1.080070e+12  -4.098252e+11  -9.698339e+11   2.348729e+05   4.471949e-26   0.000000e+00   0.000000e+00
      696000   6.959990e-08   9.136558e-02   1.450745e+01   1.967201e+01  -1.637864e+05   8.887836e+04   1.429683e+05  -1.075999e+12  -4.220770e+11  -9.702870e+11   2.348729e+05   4.476457e-26   0.000000e+00   0.000000e+00
      704000   7.039990e-08   9.123421e-02   1.450753e+01   1.967213e+01  -1.646456e+05   8.853580e+04   1.421919e+05  -1.071842e+12  -4.343197e+11  -9.706670e+11   2.348729e+05   4.480966e-26   0.000000e+00   0.000000e+00
      712000   7.119990e-08   9.110215e-02   1.450760e+01   1.967224e+01  -1.655013e+05   8.818345e+04   1.414152e+05  -1.067600e+12  -4.465523e+11  -9.709735e+11   2.348729e+05   4.485476e-26   0.000000e+00   0.000000e+00
      720000   7.199990e-08   9.096940e-02   1.450767e+01   1.967235e+01  -1.663537e+05   8.782132e+04   1.406384e+05  -1.063272e+12  -4.587738e+11  -9.712066e+11   2.348729e+05   4.489988e-26   0.000000e+00   0.000000e+00
      728000   7.279990e-08   9.083598e-02   1.450774e+01   1.967247e+01  -1.672026e+05   8.744941e+04   1.398613e+05  -1.058859e+12  -4.709832e+11  -9.713659e+11   2.348729e+05   4.494501e-26   0.000000e+00   0.000000e+00
      736000   7.359990e-08   9.070188e-02   1.450781e+01   1.967258e+01  -1.680478e+05   8.706775e+04   1.390842e+05  -1.054361e+12  -4.831794e+11  -9.714513e+11   2.348729e+05   4.499017e-26   0.000000e+00   0.000000e+00
      744000   7.439990e-08   9.056711e-02   1.450788e+01   1.967269e+01  -1.688895e+05   8.667633e+04   1.383070e+05  -1.049778e+12  -4.953613e+11  -9.714627e+11   2.348729e+05   4.503536e-26   0.000000e+00   0.000000e+00
      752000   7.519990e-08   9.043166e-02   1.450794e+01   1.967280e+01  -1.697275e+05   8.627517e+04   1.375299e+05  -1.045110e+12  -5.075278e+11  -9.713999e+11   2.348729e+05   4.508057e-26   0.000000e+00   0.000000e+00
      760000   7.599990e-08   9.029554e-02   1.450801e+01   1.967291e+01  -1.705617e+05   8.586429e+04   1.367528e+05  -1.040356e+12  -5.196780e+11  -9.712628e+11   2.348729e+05   4.512582e-26   0.000000e+00   0.000000e+00
      768000   7.679990e-08   9.015876e-02   1.450808e+01   1.967302e+01  -1.713920e+05   8.544369e+04   1.359759e+05  -1.035519e+12  -5.318108e+11  -9.710512e+11   2.348729e+05   4.517111e-26   0.000000e+00   0.000000e+00
      776000   7.759990e-08   9.002132e-02   1.450815e+01   1.967313e+01  -1.722185e+05   8.501340e+04   1.351991e+05  -1.030597e+12  -5.439251e+11  -9.707650e+11   2.348729e+05   4.521644e-26   0.000000e+00   0.000000e+00
      784000   7.839990e-08   8.988321e-02   1.450822e+01   1.967323e+01  -1.730409e+05   8.457342e+04   1.344227e+05  -1.025590e+12  -5.560198e+11  -9.704041e+11   2.348729e+05   4.526181e-26   0.000000e+00   0.000000e+00
      792000   7.919990e-08   8.974445e-02   1.450829e+01   1.967334e+01  -1.738594e+05   8.412377e+04   1.336465e+05  -1.020499e+12  -5.680939e+11  -9.699684e+11   2.348729e+05   4.530723e-26   0.000000e+00   0.000000e+00
      800000   7.999990e-08   8.960504e-02   1.450835e+01   1.967345e+01  -1.746737e+05   8.366447e+04   1.328707e+05  -1.015324e+12  -5.801463e+11  -9.694577e+11   2.348729e+05   4.535271e-26   0.000000e+00   0.000000e+00
      808000   8.079990e-08   8.946498e-02   1.450842e+01   1.967355e+01  -1.754839e+05   8.319554e+04   1.320954e+05  -1.010065e+12  -5.921760e+11  -9.688720e+11   2.348729e+05   4.539824e-26   0.000000e+00   0.000000e+00
      816000   8.159990e-08   8.932427e-02   1.450849e+01   1.967366e+01  -1.762898e+05   8.271699e+04   1.313206e+05  -1.004723e+12  -6.041819e+11  -9.682112e+11   2.348729e+05   4.544383e-26   0.000000e+00   0.000000e+00
      824000   8.239990e-08   8.918291e-02   1.450855e+01   1.967376e+01  -1.770914e+05   8.222885e+04   1.305463e+05  -9.992968e+11  -6.161629e+11  -9.674751e+11   2.348729e+05   4.548948e-26   0.000000e+00   0.000000e+00
      832000   8.319990e-08   8.904092e-02   1.450862e+01   1.967387e+01  -1.778887e+05   8.173114e+04   1.297726e+05  -9.937876e+11  -6.281180e+11  -9.666638e+11   2.348729e+05   4.553519e-26   0.000000e+00   0.000000e+00
      840000   8.399990e-08   8.889829e-02   1.450868e+01   1.967397e+01  -1.786815e+05   8.122387e+04   1.289997e+05  -9.881952e+11  -6.400460e+11  -9.657771e+11   2.348729e+05   4.558098e-26   0.000000e+00   0.000000e+00
      848000   8.479990e-08   8.875503e-02   1.450875e+01   1.967408e+01  -1.794697e+05   8.070707e+04   1.282274e+05  -9.825200e+11  -6.519460e+11  -9.648151e+11   2.348729e+05   4.562684e-26   0.000000e+00   0.000000e+00
      856000   8.559990e-08   8.861114e-02   1.450881e+01   1.967418e+01  -1.802535e+05   8.018076e+04   1.274560e+05  -9.767622e+11  -6.638168e+11  -9.637776e+11   2.348729e+05   4.567278e-26   0.000000e+00   0.000000e+00
      864000   8.639990e-08   8.846663e-02   1.450888e+01   1.967428e+01  -1.810325e+05   7.964497e+04   1.266854e+05  -9.709220e+11  -6.756574e+11  -9.626645e+11   2.348729e+05   4.571880e-26   0.000000e+00   0.000000e+00
      872000   8.719990e-08   8.832149e-02   1.450894e+01   1.967438e+01  -1.818069e+05   7.909972e+04   1.259157e+05  -9.649996e+11  -6.874667e+11  -9.614760e+11   2.348729e+05   4.576490e-26   0.000000e+00   0.000000e+00
      880000   8.799990e-08   8.817574e-02   1.450900e+01   1.967448e+01  -1.825765e+05   7.854503e+04   1.251470e+05  -9.589953e+11  -6.992437e+11  -9.602118e+11   2.348729e+05   4.581108e-26   0.000000e+00   0.000000e+00
      888000   8.879990e-08   8.802937e-02   1.450907e+01   1.967458e+01  -1.833413e+05   7.798094e+04   1.243794e+05  -9.529093e+11  -7.109872e+11  -9.588721e+11   2.348729e+05   4.585736e-26   0.000000e+00   0.000000e+00
      896000   8.959990e-08   8.788239e-02   1.450913e+01   1.967468e+01  -1.841012e+05   7.740746e+04   1.236129e+05  -9.467420e+11  -7.226962e+11  -9.574568e+11   2.348729e+05   4.590373e-26   0.000000e+00   0.000000e+00
      904000   9.039990e-08   8.773481e-02   1.450919e+01   1.967478e+01  -1.848561e+05   7.682463e+04   1.228475e+05  -9.404936e+11  -7.343697e+11  -9.559659e+11   2.348729e+05   4.595019e-26   0.000000e+00   0.000000e+00
      912000   9.119990e-08   8.758662e-02   1.450925e+01   1.967488e+01  -1.856059e+05   7.623248e+04   1.220833e+05  -9.341643e+11  -7.460065e+11  -9.543994e+11   2.348729e+05   4.599676e-26   0.000000e+00   0.000000e+00
      920000   9.199990e-08   8.743784e-02   1.450931e+01   1.967497e+01  -1.863507e+05   7.563103e+04   1.213205e+05  -9.277545e+11  -7.576055e+11  -9.527573e+11   2.348729e+05   4.604343e-26   0.000000e+00   0.000000e+00
      928000   9.279990e-08   8.728846e-02   1.450937e+01   1.967507e+01  -1.870903e+05   7.502032e+04   1.205590e+05  -9.212644e+11  -7.691658e+11  -9.510397e+11   2.348729e+05   4.609020e-26   0.000000e+00   0.000000e+00
      936000   9.359990e-08   8.713850e-02   1.450943e+01   1.967517e+01  -1.878247e+05   7.440037e+04   1.197988e+05  -9.146945e+11  -7.806863e+11  -9.492465e+11   2.348729e+05   4.613709e-26   0.000000e+00   0.000000e+00
      944000   9.439990e-08   8.698795e-02   1.450949e+01   1.967526e+01  -1.885538e+05   7.377123e+04   1.190402e+05  -9.080449e+11  -7.921658e+11  -9.473778e+11   2.348729e+05   4.618409e-26   0.000000e+00   0.000000e+00
      952000   9.519990e-08   8.683681e-02   1.450955e+01   1.967536e+01  -1.892775e+05   7.313292e+04   1.182830e+05  -9.013160e+11  -8.036034e+11  -9.454336e+11   2.348729e+05   4.623120e-26   0.000000e+00   0.000000e+00
      960000   9.599990e-08   8.668510e-02   1.450961e+01   1.967545e+01  -1.899959e+05   7.248547e+04   1.175275e+05  -8.945081e+11  -8.149979e+11  -9.434141e+11   2.348729e+05   4.627843e-26   0.000000e+00   0.000000e+00
      968000   9.679990e-08   8.653282e-02   1.450966e+01   1.967555e+01  -1.907087e+05   7.182893e+04   1.167736e+05  -8.876216e+11  -8.263483e+11  -9.413192e+11   2.348729e+05   4.632578e-26   0.000000e+00   0.000000e+00
      976000   9.759990e-08   8.637997e-02   1.450972e+01   1.967564e+01  -1.914161e+05   7.116333e+04   1.160214e+05  -8.806568e+11  -8.376535e+11  -9.391490e+11   2.348729e+05   4.637325e-26   0.000000e+00   0.000000e+00
      984000   9.839990e-08   8.622656e-02   1.450978e+01   1.967573e+01  -1.921178e+05   7.048870e+04   1.152710e+05  -8.736141e+11  -8.489125e+11  -9.369036e+11   2.348729e+05   4.642086e-26   0.000000e+00   0.000000e+00
      992000   9.919990e-08   8.607258e-02   1.450983e+01   1.967582e+01  -1.928138e+05   6.980508e+04   1.145224e+05  -8.664938e+11  -8.601243e+11  -9.345831e+11   2.348729e+05   4.646859e-26   0.000000e+00   0.000000e+00
     1000000   9.999990e-08   8.591806e-02   1.450989e+01   1.967591e+01  -1.935041e+05   6.911251e+04   1.137757e+05  -8.592963e+11  -8.712876e+11  -9.321876e+11   2.348729e+05   4.651645e-26   0.000000e+00   0.000000e+00
     1008000   1.007999e-07   8.576298e-02   1.450995e+01   1.967600e+01  -1.941887e+05   6.841103e+04   1.130309e+05  -8.520220e+11  -8.824016e+11  -9.297171e+11   2.348729e+05   4.656445e-26   0.000000e+00   0.000000e+00
     1016000   1.015999e-07   8.560736e-02   1.451000e+01   1.967609e+01  -1.948673e+05   6.770068e+04   1.122881e+05  -8.446712e+11  -8.934651e+11  -9.271718e+11   2.348729e+05   4.661259e-26   0.000000e+00   0.000000e+00
     1024000   1.023999e-07   8.545119e-02   1.451005e+01   1.967618e+01  -1.955401e+05   6.698150e+04   1.115475e+05  -8.372444e+11  -9.044771e+11  -9.245518e+11   2.348729e+05   4.666087e-26   0.000000e+00   0.000000e+00
     1032000   1.031999e-07   8.529449e-02   1.451011e+01   1.967627e+01  -1.962069e+05   6.625353e+04   1.108089e+05  -8.297419e+11  -9.154365e+11  -9.218572e+11   2.348729e+05   4.670929e-26   0.000000e+00   0.000000e+00
     1040000   1.039999e-07   8.513726e-02   1.451016e+01   1.967636e+01  -1.968677e+05   6.551681e+04   1.100725e+05  -8.221643e+11  -9.263423e+11  -9.190882e+11   2.348729e+05   4.675786e-26   0.000000e+00   0.000000e+00
     1048000   1.047999e-07   8.497951e-02   1.451021e+01   1.967645e+01  -1.975224e+05   6.477140e+04   1.093384e+05  -8.145117e+11  -9.371935e+11  -9.162448e+11   2.348729e+05   4.680657e-26   0.000000e+00   0.000000e+00
     1056000   1.055999e-07   8.482123e-02   1.451026e+01   1.967654e+01  -1.981709e+05   6.401732e+04   1.086065e+05  -8.067848e+11  -9.479890e+11  -9.133273e+11   2.348729e+05   4.685544e-26   0.000000e+00   0.000000e+00
     1064000   1.063999e-07   8.466244e-02   1.451031e+01   1.967662e+01  -1.988132e+05   6.325463e+04   1.078771e+05  -7.989839e+11  -9.587278e+11  -9.103357e+11   2.348729e+05   4.690446e-26   0.000000e+00   0.000000e+00
     1072000   1.071999e-07   8.450313e-02   1.451036e+01   1.967671e+01  -1.994492e+05   6.248337e+04   1.071500e+05  -7.911095e+11  -9.694088e+11  -9.072703e+11   2.348729e+05   4.695363e-26   0.000000e+00   0.000000e+00
     1080000   1.079999e-07   8.434332e-02   1.451041e+01   1.967679e+01  -2.000789e+05   6.170359e+04   1.064254e+05  -7.831620e+11  -9.800310e+11  -9.041312e+11   2.348729e+05   4.700296e-26   0.000000e+00   0.000000e+00
     1088000   1.087999e-07   8.418301e-02   1.451046e+01   1.967688e+01  -2.007023e+05   6.091533e+04   1.057034e+05  -7.751419e+11  -9.905934e+11  -9.009186e+11   2.348729e+05   4.705245e-26   0.000000e+00   0.000000e+00
     1096000   1.095999e-07   8.402220e-02   1.451051e+01   1.967696e+01  -2.013192e+05   6.011865e+04   1.049840e+05  -7.670497e+11  -1.001095e+12  -8.976327e+11   2.348729e+05   4.710211e-26   0.000000e+00   0.000000e+00
     1104000   1.103999e-07   8.386090e-02   1.451056e+01   1.967705e+01  -2.019295e+05   5.931360e+04   1.042672e+05  -7.588857e+11  -1.011535e+12  -8.942737e+11   2.348729e+05   4.715192e-26   0.000000e+00   0.000000e+00
     1112000   1.111999e-07   8.369911e-02   1.451061e+01   1.967713e+01  -2.025334e+05   5.850021e+04   1.035532e+05  -7.506505e+11  -1.021911e+12  -8.908417e+11   2.348729e+05   4.720190e-26   0.000000e+00   0.000000e+00
     1120000   1.119999e-07   8.353685e-02   1.451065e+01   1.967721e+01  -2.031306e+05   5.767856e+04   1.028419e+05  -7.423446e+11  -1.032224e+12  -8.873370e+11   2.348729e+05   4.725205e-26   0.000000e+00   0.000000e+00
     1128000   1.127999e-07   8.337410e-02   1.451070e+01   1.967730e+01  -2.037211e+05   5.684867e+04   1.021335e+05  -7.339684e+11  -1.042472e+12  -8.837597e+11   2.348729e+05   4.730237e-26   0.000000e+00   0.000000e+00
     1136000   1.135999e-07   8.321089e-02   1.451074e+01   1.967738e+01  -2.043049e+05   5.601062e+04   1.014279e+05  -7.255225e+11  -1.052654e+12  -8.801102e+11   2.348729e+05   4.735286e-26   0.000000e+00   0.000000e+00
     1144000   1.143999e-07   8.304722e-02   1.451079e+01   1.967746e+01  -2.048819e+05   5.516444e+04   1.007253e+05  -7.170073e+11  -1.062769e+12  -8.763887e+11   2.348729e+05   4.740352e-26   0.000000e+00   0.000000e+00
     1152000   1.151999e-07   8.288308e-02   1.451083e+01   1.967754e+01  -2.054521e+05   5.431020e+04   1.000257e+05  -7.084235e+11  -1.072816e+12  -8.725953e+11   2.348729e+05   4.745436e-26   0.000000e+00   0.000000e+00
     1160000   1.159999e-07   8.271850e-02   1.451088e+01   1.967762e+01  -2.060154e+05   5.344795e+04   9.932917e+04  -6.997714e+11  -1.082795e+12  -8.687304e+11   2.348729e+05   4.750538e-26   0.000000e+00   0.000000e+00
     1168000   1.167999e-07   8.255346e-02   1.451092e+01   1.967770e+01  -2.065717e+05   5.257775e+04   9.863576e+04  -6.910517e+11  -1.092703e+12  -8.647941e+11   2.348729e+05   4.755657e-26   0.000000e+00   0.000000e+00
     1176000   1.175999e-07   8.238798e-02   1.451096e+01   1.967778e+01  -2.071210e+05   5.169965e+04   9.794552e+04  -6.822649e+11  -1.102540e+12  -8.607868e+11   2.348729e+05   4.760794e-26   0.000000e+00   0.000000e+00
     1184000   1.183999e-07   8.222207e-02   1.451100e+01   1.967785e+01  -2.076633e+05   5.081370e+04   9.725852e+04  -6.734114e+11  -1.112306e+12  -8.567087e+11   2.348729e+05   4.765949e-26   0.000000e+00   0.000000e+00
     1192000   1.191999e-07   8.205572e-02   1.451104e+01   1.967793e+01  -2.081985e+05   4.991998e+04   9.657480e+04  -6.644920e+11  -1.121999e+12  -8.525601e+11   2.348729e+05   4.771122e-26   0.000000e+00   0.000000e+00
     1200000   1.199999e-07   8.188895e-02   1.451108e+01   1.967801e+01  -2.087265e+05   4.901852e+04   9.589444e+04  -6.555070e+11  -1.131617e+12  -8.483413e+11   2.348729e+05   4.776314e-26   0.000000e+00   0.000000e+00
     1208000   1.207999e-07   8.172176e-02   1.451112e+01   1.967808e+01  -2.092473e+05   4.810941e+04   9.521748e+04  -6.464572e+11  -1.141161e+12  -8.440525e+11   2.348729e+05   4.781524e-26   0.000000e+00   0.000000e+00
     1216000   1.215999e-07   8.155416e-02   1.451116e+01   1.967816e+01  -2.097608e+05   4.719268e+04   9.454397e+04  -6.373430e+11  -1.150630e+12  -8.396941e+11   2.348729e+05   4.786753e-26   0.000000e+00   0.000000e+00
     1224000   1.223999e-07   8.138615e-02   1.451119e+01   1.967824e+01  -2.102670e+05   4.626842e+04   9.387399e+04  -6.281651e+11  -1.160021e+12  -8.352664e+11   2.348729e+05   4.792000e-26   0.000000e+00   0.000000e+00
     1232000   1.231999e-07   8.121774e-02   1.451123e+01   1.967831e+01  -2.107658e+05   4.533667e+04   9.320757e+04  -6.189240e+11  -1.169335e+12  -8.307696e+11   2.348729e+05   4.797266e-26   0.000000e+00   0.000000e+00
     1240000   1.239999e-07   8.104893e-02   1.451127e+01   1.967838e+01  -2.112572e+05   4.439750e+04   9.254477e+04  -6.096203e+11  -1.178570e+12  -8.262041e+11   2.348729e+05   4.802551e-26   0.000000e+00   0.000000e+00
     1248000   1.247999e-07   8.087973e-02   1.451130e+01   1.967846e+01  -2.117412e+05   4.345098e+04   9.188566e+04  -6.002546e+11  -1.187726e+12  -8.215703e+11   2.348729e+05   4.807855e-26   0.000000e+00   0.000000e+00
     1256000   1.255999e-07   8.071014e-02   1.451134e+01   1.967853e+01  -2.122176e+05   4.249716e+04   9.123028e+04  -5.908276e+11  -1.196801e+12  -8.168684e+11   2.348729e+05   4.813178e-26   0.000000e+00   0.000000e+00
     1264000   1.263999e-07   8.054018e-02   1.451137e+01   1.967860e+01  -2.126865e+05   4.153612e+04   9.057869e+04  -5.813398e+11  -1.205795e+12  -8.120988e+11   2.348729e+05   4.818520e-26   0.000000e+00   0.000000e+00
     1272000   1.271999e-07   8.036984e-02   1.451140e+01   1.967868e+01  -2.131478e+05   4.056791e+04   8.993094e+04  -5.717919e+11  -1.214707e+12  -8.072618e+11   2.348729e+05   4.823882e-26   0.000000e+00   0.000000e+00
     1280000   1.279999e-07   8.019914e-02   1.451144e+01   1.967875e+01  -2.136014e+05   3.959261e+04   8.928709e+04  -5.621845e+11  -1.223535e+12  -8.023579e+11   2.348729e+05   4.829262e-26   0.000000e+00   0.000000e+00
     1288000   1.287999e-07   8.002808e-02   1.451147e+01   1.967882e+01  -2.140472e+05   3.861028e+04   8.864719e+04  -5.525183e+11  -1.232279e+12  -7.973873e+11   2.348729e+05   4.834662e-26   0.000000e+00   0.000000e+00
     1296000   1.295999e-07   7.985667e-02   1.451150e+01   1.967889e+01  -2.144854e+05   3.762098e+04   8.801129e+04  -5.427938e+11  -1.240938e+12  -7.923504e+11   2.348729e+05   4.840081e-26   0.000000e+00   0.000000e+00
     1304000   1.303999e-07   7.968491e-02   1.451153e+01   1.967896e+01  -2.149157e+05   3.662480e+04   8.737944e+04  -5.330117e+11  -1.249511e+12  -7.872476e+11   2.348729e+05   4.845519e-26   0.000000e+00   0.000000e+00
     1312000   1.311999e-07   7.951281e-02   1.451156e+01   1.967903e+01  -2.153382e+05   3.562179e+04   8.675171e+04  -5.231728e+11  -1.257997e+12  -7.820793e+11   2.348729e+05   4.850976e-26   0.000000e+00   0.000000e+00
     1320000   1.319999e-07   7.934037e-02   1.451158e+01   1.967910e+01  -2.157528e+05   3.461202e+04   8.612813e+04  -5.132775e+11  -1.266395e+12  -7.768459e+11   2.348729e+05   4.856453e-26   0.000000e+00   0.000000e+00
     1328000   1.327999e-07   7.916761e-02   1.451161e+01   1.967917e+01  -2.161594e+05   3.359558e+04   8.550877e+04  -5.033267e+11  -1.274705e+12  -7.715477e+11   2.348729e+05   4.861950e-26   0.000000e+00   0.000000e+00
     1336000   1.335999e-07   7.899452e-02   1.451164e+01   1.967924e+01  -2.165581e+05   3.257252e+04   8.489368e+04  -4.933210e+11  -1.282925e+12  -7.661852e+11   2.348729e+05   4.867465e-26   0.000000e+00   0.000000e+00
     1344000   1.343999e-07   7.882112e-02   1.451166e+01   1.967930e+01  -2.169487e+05   3.154292e+04   8.428289e+04  -4.832610e+11  -1.291055e+12  -7.607588e+11   2.348729e+05   4.873001e-26   0.000000e+00   0.000000e+00
     1352000   1.351999e-07   7.864740e-02   1.451169e+01   1.967937e+01  -2.173313e+05   3.050685e+04   8.367648e+04  -4.731476e+11  -1.299094e+12  -7.552689e+11   2.348729e+05   4.878555e-26   0.000000e+00   0.000000e+00
     1360000   1.359999e-07   7.847339e-02   1.451171e+01   1.967944e+01  -2.177057e+05   2.946439e+04   8.307448e+04  -4.629812e+11  -1.307041e+12  -7.497158e+11   2.348729e+05   4.884129e-26   0.000000e+00   0.000000e+00
     1368000   1.367999e-07   7.829908e-02   1.451174e+01   1.967950e+01  -2.180720e+05   2.841561e+04   8.247695e+04  -4.527627e+11  -1.314894e+12  -7.441001e+11   2.348729e+05   4.889722e-26   0.000000e+00   0.000000e+00
     1376000   1.375999e-07   7.812447e-02   1.451176e+01   1.967957e+01  -2.184301e+05   2.736059e+04   8.188394e+04  -4.424928e+11  -1.322654e+12  -7.384221e+11   2.348729e+05   4.895334e-26   0.000000e+00   0.000000e+00
     1384000   1.383999e-07   7.794959e-02   1.451178e+01   1.967963e+01  -2.187800e+05   2.629939e+04   8.129549e+04  -4.321721e+11  -1.330320e+12  -7.326824e+11   2.348729e+05   4.900966e-26   0.000000e+00   0.000000e+00
     1392000   1.391999e-07   7.777443e-02   1.451180e+01   1.967970e+01  -2.191216e+05   2.523210e+04   8.071166e+04  -4.218015e+11  -1.337889e+12  -7.268813e+11   2.348729e+05   4.906617e-26   0.000000e+00   0.000000e+00
     1400000   1.399999e-07   7.759900e-02   1.451182e+01   1.967976e+01  -2.194549e+05   2.415879e+04   8.013250e+04  -4.113815e+11  -1.345363e+12  -7.210193e+11   2.348729e+05   4.912287e-26   0.000000e+00   0.000000e+00
     1408000   1.407999e-07   7.742330e-02   1.451184e+01   1.967983e+01  -2.197798e+05   2.307954e+04   7.955805e+04  -4.009130e+11  -1.352740e+12  -7.150968e+11   2.348730e+05   4.917976e-26   0.000000e+00   0.000000e+00
     1416000   1.415999e-07   7.724735e-02   1.451186e+01   1.967989e+01  -2.200963e+05   2.199443e+04   7.898836e+04  -3.903967e+11  -1.360019e+12  -7.091144e+11   2.348730e+05   4.923684e-26   0.000000e+00   0.000000e+00
     1424000   1.423999e-07   7.707115e-02   1.451187e+01   1.967995e+01  -2.204044e+05   2.090354e+04   7.842348e+04  -3.798333e+11  -1.367199e+12  -7.030724e+11   2.348730e+05   4.929410e-26   0.000000e+00   0.000000e+00
     1432000   1.431999e-07   7.689471e-02   1.451189e+01   1.968002e+01  -2.207040e+05   1.980694e+04   7.786346e+04  -3.692236e+11  -1.374280e+12  -6.969714e+11   2.348730e+05   4.935156e-26   0.000000e+00   0.000000e+00
     1440000   1.439999e-07   7.671803e-02   1.451191e+01   1.968008e+01  -2.209952e+05   1.870472e+04   7.730834e+04  -3.585683e+11  -1.381261e+12  -6.908118e+11   2.348730e+05   4.940920e-26   0.000000e+00   0.000000e+00
     1448000   1.447999e-07   7.654112e-02   1.451192e+01   1.968014e+01  -2.212777e+05   1.759695e+04   7.675818e+04  -3.478682e+11  -1.388140e+12  -6.845942e+11   2.348730e+05   4.946703e-26   0.000000e+00   0.000000e+00
     1456000   1.455999e-07   7.636398e-02   1.451193e+01   1.968020e+01  -2.215517e+05   1.648372e+04   7.621301e+04  -3.371241e+11  -1.394918e+12  -6.783190e+11   2.348730e+05   4.952505e-26   0.000000e+00   0.000000e+00
     1464000   1.463999e-07   7.618664e-02   1.451195e+01   1.968026e+01  -2.218171e+05   1.536511e+04   7.567288e+04  -3.263367e+11  -1.401594e+12  -6.719867e+11   2.348730e+05   4.958325e-26   0.000000e+00   0.000000e+00
     1472000   1.471999e-07   7.600908e-02   1.451196e+01   1.968032e+01  -2.220739e+05   1.424120e+04   7.513785e+04  -3.155068e+11  -1.408166e+12  -6.655978e+11   2.348730e+05   4.964163e-26   0.000000e+00   0.000000e+00
     1480000   1.479999e-07   7.583132e-02   1.451197e+01   1.968038e+01  -2.223219e+05   1.311207e+04   7.460794e+04  -3.046352e+11  -1.414635e+12  -6.591528e+11   2.348730e+05   4.970019e-26   0.000000e+00   0.000000e+00
     1488000   1.487999e-07   7.565337e-02   1.451198e+01   1.968044e+01  -2.225613e+05   1.197781e+04   7.408322e+04  -2.937226e+11  -1.420999e+12  -6.526522e+11   2.348730e+05   4.975893e-26   0.000000e+00   0.000000e+00
     1496000   1.495999e-07   7.547523e-02   1.451199e+01   1.968050e+01  -2.227919e+05   1.083850e+04   7.356372e+04  -2.827700e+11  -1.427257e+12  -6.460966e+11   2.348730e+05   4.981785e-26   0.000000e+00   0.000000e+00
     1504000   1.503999e-07   7.529690e-02   1.451200e+01   1.968056e+01  -2.230137e+05   9.694224e+03   7.304948e+04  -2.717780e+11  -1.433410e+12  -6.394865e+11   2.348730e+05   4.987695e-26   0.000000e+00   0.000000e+00
     1512000   1.511999e-07   7.511841e-02   1.451200e+01   1.968062e+01  -2.232267e+05   8.545071e+03   7.254055e+04  -2.607474e+11  -1.439455e+12  -6.328224e+11   2.348730e+05   4.993622e-26   0.000000e+00   0.000000e+00
     1520000   1.519999e-07   7.493974e-02   1.451201e+01   1.968068e+01  -2.234309e+05   7.391124e+03   7.203698e+04  -2.496792e+11  -1.445393e+12  -6.261048e+11   2.348730e+05   4.999566e-26   0.000000e+00   0.000000e+00
     1528000   1.527999e-07   7.476092e-02   1.451202e+01   1.968073e+01  -2.236262e+05   6.232470e+03   7.153880e+04  -2.385740e+11  -1.451223e+12  -6.193343e+11   2.348730e+05   5.005528e-26   0.000000e+00   0.000000e+00
     1536000   1.535999e-07   7.458194e-02   1.451202e+01   1.968079e+01  -2.238126e+05   5.069195e+03   7.104606e+04  -2.274328e+11  -1.456945e+12  -6.125114e+11   2.348730e+05   5.011507e-26   0.000000e+00   0.000000e+00
     1544000   1.543999e-07   7.440282e-02   1.451202e+01   1.968085e+01  -2.239900e+05   3.901387e+03   7.055880e+04  -2.162562e+11  -1.462556e+12  -6.056367e+11   2.348730e+05   5.017502e-26   0.000000e+00   0.000000e+00
     1552000   1.551999e-07   7.422356e-02   1.451203e+01   1.968090e+01  -2.241586e+05   2.729134e+03   7.007705e+04  -2.050453e+11  -1.468058e+12  -5.987107e+11   2.348730e+05   5.023514e-26   0.000000e+00   0.000000e+00
     1560000   1.559999e-07   7.404417e-02   1.451203e+01   1.968096e+01  -2.243181e+05   1.552523e+03   6.960087e+04  -1.938007e+11  -1.473449e+12  -5.917339e+11   2.348730e+05   5.029543e-26   0.000000e+00   0.000000e+00
     1568000   1.567999e-07   7.386465e-02   1.451203e+01   1.968101e+01  -2.244686e+05   3.716449e+02   6.913029e+04  -1.825234e+11  -1.478728e+12  -5.847070e+11   2.348730e+05   5.035587e-26   0.000000e+00   0.000000e+00
     1576000   1.575999e-07   7.368502e-02   1.451203e+01   1.968107e+01  -2.246101e+05  -8.134124e+02   6.866536e+04  -1.712142e+11  -1.483896e+12  -5.776305e+11   2.348730e+05   5.041648e-26   0.000000e+00   0.000000e+00
     1584000   1.583999e-07   7.350528e-02   1.451203e+01   1.968112e+01  -2.247426e+05  -2.002559e+03   6.820610e+04  -1.598739e+11  -1.488950e+12  -5.705050e+11   2.348730e+05   5.047724e-26   0.000000e+00   0.000000e+00
     1592000   1.591999e-07   7.332544e-02   1.451203e+01   1.968118e+01  -2.248659e+05  -3.195703e+03   6.775256e+04  -1.485033e+11  -1.493892e+12  -5.633310e+11   2.348730e+05   5.053816e-26   0.000000e+00   0.000000e+00
     1600000   1.599999e-07   7.314550e-02   1.451202e+01   1.968123e+01  -2.249802e+05  -4.392756e+03   6.730478e+04  -1.371034e+11  -1.498719e+12  -5.561091e+11   2.348730e+05   5.059923e-26   0.000000e+00   0.000000e+00
     1608000   1.607999e-07   7.296547e-02   1.451202e+01   1.968129e+01  -2.250853e+05  -5.593624e+03   6.686280e+04  -1.256750e+11  -1.503433e+12  -5.488400e+11   2.348730e+05   5.066045e-26   0.000000e+00   0.000000e+00
     1616000   1.615999e-07   7.278536e-02   1.451201e+01   1.968134e+01  -2.251812e+05  -6.798218e+03   6.642665e+04  -1.142190e+11  -1.508031e+12  -5.415242e+11   2.348730e+05   5.072182e-26   0.000000e+00   0.000000e+00
     1624000   1.623999e-07   7.260518e-02   1.451201e+01   1.968139e+01  -2.252680e+05  -8.006443e+03   6.599637e+04  -1.027362e+11  -1.512513e+12  -5.341622e+11   2.348730e+05   5.078333e-26   0.000000e+00   0.000000e+00
     1632000   1.631999e-07   7.242494e-02   1.451200e+01   1.968145e+01  -2.253456e+05  -9.218209e+03   6.557200e+04  -9.122745e+10  -1.516880e+12  -5.267547e+11   2.348730e+05   5.084499e-26   0.000000e+00   0.000000e+00
     1640000   1.639999e-07   7.224463e-02   1.451199e+01   1.968150e+01  -2.254140e+05  -1.043342e+04   6.515358e+04  -7.969372e+10  -1.521130e+12  -5.193023e+11   2.348730e+05   5.090679e-26   0.000000e+00   0.000000e+00
     1648000   1.647999e-07   7.206428e-02   1.451198e+01   1.968155e+01  -2.254731e+05  -1.165199e+04   6.474113e+04  -6.813585e+10  -1.525262e+12  -5.118056e+11   2.348730e+05   5.096872e-26   0.000000e+00   0.000000e+00
     1656000   1.655999e-07   7.188388e-02   1.451197e+01   1.968160e+01  -2.255230e+05  -1.287381e+04   6.433470e+04  -5.655473e+10  -1.529277e+12  -5.042652e+11   2.348730e+05   5.103079e-26   0.000000e+00   0.000000e+00
     1664000   1.663999e-07   7.170344e-02   1.451196e+01   1.968165e+01  -2.255636e+05  -1.409880e+04   6.393432e+04  -4.495125e+10  -1.533174e+12  -4.966817e+11   2.348730e+05   5.109299e-26   0.000000e+00   0.000000e+00
     1672000   1.671999e-07   7.152298e-02   1.451195e+01   1.968170e+01  -2.255949e+05  -1.532686e+04   6.354002e+04  -3.332630e+10  -1.536951e+12  -4.890557e+11   2.348730e+05   5.115531e-26   0.000000e+00   0.000000e+00
     1680000   1.679999e-07   7.134249e-02   1.451194e+01   1.968175e+01  -2.256169e+05  -1.655789e+04   6.315184e+04  -2.168078e+10  -1.540610e+12  -4.813879e+11   2.348730e+05   5.121777e-26   0.000000e+00   0.000000e+00
     1688000   1.687999e-07   7.116199e-02   1.451192e+01   1.968180e+01  -2.256296e+05  -1.779180e+04   6.276981e+04  -1.001559e+10  -1.544148e+12  -4.736788e+11   2.348730e+05   5.128034e-26   0.000000e+00   0.000000e+00
     1696000   1.695999e-07   7.098149e-02   1.451191e+01   1.968185e+01  -2.256329e+05  -1.902849e+04   6.239397e+04   1.668360e+09  -1.547567e+12  -4.659291e+11   2.348730e+05   5.134304e-26   0.000000e+00   0.000000e+00
     1704000   1.703999e-07   7.080098e-02   1.451189e+01   1.968190e+01  -2.256269e+05  -2.026787e+04   6.202434e+04   1.337017e+10  -1.550864e+12  -4.581394e+11   2.348730e+05   5.140585e-26   0.000000e+00   0.000000e+00
     1712000   1.711999e-07   7.062049e-02   1.451188e+01   1.968195e+01  -2.256115e+05  -2.150984e+04   6.166096e+04   2.508893e+10  -1.554041e+12  -4.503103e+11   2.348730e+05   5.146877e-26   0.000000e+00   0.000000e+00
     1720000   1.719999e-07   7.044001e-02   1.451186e+01   1.968200e+01  -2.255868e+05  -2.275431e+04   6.130385e+04   3.682372e+10  -1.557096e+12  -4.424426e+11   2.348730e+05   5.153181e-26   0.000000e+00   0.000000e+00
     1728000   1.727999e-07   7.025955e-02   1.451184e+01   1.968205e+01  -2.255526e+05  -2.400117e+04   6.095306e+04   4.857362e+10  -1.560029e+12  -4.345367e+11   2.348730e+05   5.159495e-26   0.000000e+00   0.000000e+00
     1736000   1.735999e-07   7.007913e-02   1.451182e+01   1.968210e+01  -2.255090e+05  -2.525032e+04   6.060861e+04   6.033771e+10  -1.562839e+12  -4.265934e+11   2.348730e+05   5.165819e-26   0.000000e+00   0.000000e+00
     1744000   1.743999e-07   6.989874e-02   1.451180e+01   1.968215e+01  -2.254561e+05  -2.650168e+04   6.027052e+04   7.211507e+10  -1.565527e+12  -4.186132e+11   2.348730e+05   5.172154e-26   0.000000e+00   0.000000e+00
     1752000   1.751999e-07   6.971840e-02   1.451178e+01   1.968220e+01  -2.253937e+05  -2.775513e+04   5.993884e+04   8.390477e+10  -1.568091e+12  -4.105970e+11   2.348730e+05   5.178498e-26   0.000000e+00   0.000000e+00
     1760000   1.759999e-07   6.953811e-02   1.451176e+01   1.968224e+01  -2.253218e+05  -2.901059e+04   5.961358e+04   9.570588e+10  -1.570531e+12  -4.025452e+11   2.348730e+05   5.184851e-26   0.000000e+00   0.000000e+00
     1768000   1.767999e-07   6.935789e-02   1.451173e+01   1.968229e+01  -2.252405e+05  -3.026795e+04   5.929477e+04   1.075175e+11  -1.572848e+12  -3.944585e+11   2.348730e+05   5.191213e-26   0.000000e+00   0.000000e+00
     1776000   1.775999e-07   6.917773e-02   1.451171e+01   1.968234e+01  -2.251498e+05  -3.152711e+04   5.898245e+04   1.193386e+11  -1.575040e+12  -3.863376e+11   2.348730e+05   5.197584e-26   0.000000e+00   0.000000e+00
     1784000   1.783999e-07   6.899765e-02   1.451168e+01   1.968239e+01  -2.250496e+05  -3.278798e+04   5.867664e+04   1.311683e+11  -1.577107e+12  -3.781832e+11   2.348730e+05   5.203963e-26   0.000000e+00   0.000000e+00
     1792000   1.791999e-07   6.881765e-02   1.451166e+01   1.968243e+01  -2.249399e+05  -3.405045e+04   5.837737e+04   1.430057e+11  -1.579049e+12  -3.699959e+11   2.348730e+05   5.210351e-26   0.000000e+00   0.000000e+00
     1800000   1.799999e-07   6.863775e-02   1.451163e+01   1.968248e+01  -2.248208e+05  -3.531443e+04   5.808466e+04   1.548498e+11  -1.580866e+12  -3.617764e+11   2.348730e+05   5.216745e-26   0.000000e+00   0.000000e+00
     1808000   1.807999e-07   6.845794e-02   1.451160e+01   1.968253e+01  -2.246921e+05  -3.657980e+04   5.779854e+04   1.666996e+11  -1.582557e+12  -3.535252e+11   2.348730e+05   5.223147e-26   0.000000e+00   0.000000e+00
     1816000   1.815999e-07   6.827824e-02   1.451157e+01   1.968257e+01  -2.245540e+05  -3.784648e+04   5.751903e+04   1.785543e+11  -1.584121e+12  -3.452432e+11   2.348730e+05   5.229555e-26   0.000000e+00   0.000000e+00
     1824000   1.823999e-07   6.809866e-02   1.451154e+01   1.968262e+01  -2.244065e+05  -3.911436e+04   5.724616e+04   1.904128e+11  -1.585559e+12  -3.369310e+11   2.348730e+05   5.235970e-26   0.000000e+00   0.000000e+00
     1832000   1.831999e-07   6.791920e-02   1.451151e+01   1.968266e+01  -2.242494e+05  -4.038334e+04   5.697995e+04   2.022743e+11  -1.586871e+12  -3.285892e+11   2.348730e+05   5.242391e-26   0.000000e+00   0.000000e+00
     1840000   1.839999e-07   6.773986e-02   1.451147e+01   1.968271e+01  -2.240828e+05  -4.165332e+04   5.672042e+04   2.141377e+11  -1.588055e+12  -3.202184e+11   2.348730e+05   5.248818e-26   0.000000e+00   0.000000e+00
     1848000   1.847999e-07   6.756067e-02   1.451144e+01   1.968275e+01  -2.239068e+05  -4.292420e+04   5.646761e+04   2.260021e+11  -1.589112e+12  -3.118195e+11   2.348730e+05   5.255249e-26   0.000000e+00   0.000000e+00
     1856000   1.855999e-07   6.738161e-02   1.451141e+01   1.968280e+01  -2.237212e+05  -4.419587e+04   5.622152e+04   2.378666e+11  -1.590042e+12  -3.033930e+11   2.348730e+05   5.261686e-26   0.000000e+00   0.000000e+00
     1864000   1.863999e-07   6.720271e-02   1.451137e+01   1.968284e+01  -2.235262e+05  -4.546823e+04   5.598218e+04   2.497301e+11  -1.590843e+12  -2.949396e+11   2.348730e+05   5.268127e-26   0.000000e+00   0.000000e+00
     1872000   1.871999e-07   6.702397e-02   1.451133e+01   1.968289e+01  -2.233216e+05  -4.674118e+04   5.574962e+04   2.615917e+11  -1.591517e+12  -2.864601e+11   2.348730e+05   5.274572e-26   0.000000e+00   0.000000e+00
     1880000   1.879999e-07   6.684540e-02   1.451129e+01   1.968293e+01  -2.231076e+05  -4.801462e+04   5.552386e+04   2.734505e+11  -1.592063e+12  -2.779550e+11   2.348730e+05   5.281021e-26   0.000000e+00   0.000000e+00
     1888000   1.887999e-07   6.666700e-02   1.451126e+01   1.968298e+01  -2.228841e+05  -4.928845e+04   5.530490e+04   2.853054e+11  -1.592479e+12  -2.694251e+11   2.348730e+05   5.287473e-26   0.000000e+00   0.000000e+00
     1896000   1.895999e-07   6.648879e-02   1.451122e+01   1.968302e+01  -2.226511e+05  -5.056256e+04   5.509278e+04   2.971555e+11  -1.592768e+12  -2.608711e+11   2.348730e+05   5.293928e-26   0.000000e+00   0.000000e+00
     1904000   1.903999e-07   6.631077e-02   1.451117e+01   1.968307e+01  -2.224087e+05  -5.183684e+04   5.488752e+04   3.089999e+11  -1.592927e+12  -2.522935e+11   2.348730e+05   5.300386e-26   0.000000e+00   0.000000e+00
     1912000   1.911999e-07   6.613294e-02   1.451113e+01   1.968311e+01  -2.221567e+05  -5.311121e+04   5.468912e+04   3.208376e+11  -1.592957e+12  -2.436932e+11   2.348730e+05   5.306845e-26   0.000000e+00   0.000000e+00
     1920000   1.919999e-07   6.595532e-02   1.451109e+01   1.968315e+01  -2.218953e+05  -5.438554e+04   5.449761e+04   3.326675e+11  -1.592858e+12  -2.350709e+11   2.348730e+05   5.313307e-26   0.000000e+00   0.000000e+00
     1928000   1.927999e-07   6.577791e-02   1.451105e+01   1.968320e+01  -2.216245e+05  -5.565974e+04   5.431301e+04   3.444888e+11  -1.592629e+12  -2.264271e+11   2.348730e+05   5.319769e-26   0.000000e+00   0.000000e+00
     1936000   1.935999e-07   6.560072e-02   1.451100e+01   1.968324e+01  -2.213442e+05  -5.693371e+04   5.413534e+04   3.563003e+11  -1.592271e+12  -2.177626e+11   2.348730e+05   5.326233e-26   0.000000e+00   0.000000e+00
     1944000   1.943999e-07   6.542376e-02   1.451095e+01   1.968328e+01  -2.210544e+05  -5.820734e+04   5.396460e+04   3.681013e+11  -1.591783e+12  -2.090780e+11   2.348730e+05   5.332696e-26   0.000000e+00   0.000000e+00
     1952000   1.951999e-07   6.524704e-02   1.451091e+01   1.968333e+01  -2.207552e+05  -5.948053e+04   5.380082e+04   3.798906e+11  -1.591166e+12  -2.003742e+11   2.348730e+05   5.339160e-26   0.000000e+00   0.000000e+00
     1960000   1.959999e-07   6.507055e-02   1.451086e+01   1.968337e+01  -2.204466e+05  -6.075317e+04   5.364401e+04   3.916673e+11  -1.590418e+12  -1.916516e+11   2.348730e+05   5.345624e-26   0.000000e+00   0.000000e+00
     1968000   1.967999e-07   6.489432e-02   1.451081e+01   1.968341e+01  -2.201285e+05  -6.202517e+04   5.349418e+04   4.034305e+11  -1.589540e+12  -1.829112e+11   2.348730e+05   5.352087e-26   0.000000e+00   0.000000e+00
     1976000   1.975999e-07   6.471835e-02   1.451076e+01   1.968346e+01  -2.198011e+05  -6.329640e+04   5.335135e+04   4.151790e+11  -1.588533e+12  -1.741535e+11   2.348730e+05   5.358548e-26   0.000000e+00   0.000000e+00
     1984000   1.983999e-07   6.454264e-02   1.451071e+01   1.968350e+01  -2.194642e+05  -6.456678e+04   5.321554e+04   4.269121e+11  -1.587394e+12  -1.653792e+11   2.348730e+05   5.365008e-26   0.000000e+00   0.000000e+00
     1992000   1.991999e-07   6.436721e-02   1.451066e+01   1.968354e+01  -2.191180e+05  -6.583620e+04   5.308675e+04   4.386286e+11  -1.586126e+12  -1.565890e+11   2.348730e+05   5.371466e-26   0.000000e+00   0.000000e+00
     2000000   1.999999e-07   6.419206e-02   1.451060e+01   1.968358e+01  -2.187624e+05  -6.710455e+04   5.296500e+04   4.503276e+11  -1.584727e+12  -1.477837e+11   2.348730e+05   5.377921e-26   0.000000e+00   0.000000e+00
     2008000   2.007999e-07   6.401719e-02   1.451055e+01   1.968363e+01  -2.183975e+05  -6.837173e+04   5.285030e+04   4.620081e+11  -1.583198e+12  -1.389639e+11   2.348730e+05   5.384374e-26   0.000000e+00   0.000000e+00
     2016000   2.015999e-07   6.384263e-02   1.451049e+01   1.968367e+01  -2.180232e+05  -6.963763e+04   5.274267e+04   4.736691e+11  -1.581538e+12  -1.301303e+11   2.348730e+05   5.390824e-26   0.000000e+00   0.000000e+00
     2024000   2.023999e-07   6.366836e-02   1.451044e+01   1.968371e+01  -2.176396e+05  -7.090215e+04   5.264210e+04   4.853096e+11  -1.579748e+12  -1.212836e+11   2.348730e+05   5.397269e-26   0.000000e+00   0.000000e+00
     2032000   2.031999e-07   6.349440e-02   1.451038e+01   1.968375e+01  -2.172467e+05  -7.216519e+04   5.254862e+04   4.969287e+11  -1.577827e+12  -1.124246e+11   2.348730e+05   5.403711e-26   0.000000e+00   0.000000e+00
     2040000   2.039999e-07   6.332077e-02   1.451032e+01   1.968379e+01  -2.168446e+05  -7.342664e+04   5.246222e+04   5.085254e+11  -1.575775e+12  -1.035538e+11   2.348730e+05   5.410148e-26   0.000000e+00   0.000000e+00
     2048000   2.047999e-07   6.314746e-02   1.451026e+01   1.968384e+01  -2.164331e+05  -7.468640e+04   5.238293e+04   5.200986e+11  -1.573594e+12  -9.467210e+10   2.348730e+05   5.416580e-26   0.000000e+00   0.000000e+00
     2056000   2.055999e-07   6.297448e-02   1.451020e+01   1.968388e+01  -2.160124e+05  -7.594436e+04   5.231075e+04   5.316475e+11  -1.571281e+12  -8.578006e+10   2.348730e+05   5.423007e-26   0.000000e+00   0.000000e+00
     2064000   2.063999e-07   6.280184e-02   1.451014e+01   1.968392e+01  -2.155825e+05  -7.720041e+04   5.224569e+04   5.431709e+11  -1.568838e+12  -7.687842e+10   2.348730e+05   5.429429e-26   0.000000e+00   0.000000e+00
     2072000   2.071999e-07   6.262955e-02   1.451008e+01   1.968396e+01  -2.151433e+05  -7.845446e+04   5.218775e+04   5.546680e+11  -1.566265e+12  -6.796788e+10   2.348730e+05   5.435844e-26   0.000000e+00   0.000000e+00
     2080000   2.079999e-07   6.245761e-02   1.451002e+01   1.968400e+01  -2.146950e+05  -7.970640e+04   5.213694e+04   5.661377e+11  -1.563561e+12  -5.904913e+10   2.348730e+05   5.442253e-26   0.000000e+00   0.000000e+00
     2088000   2.087999e-07   6.228604e-02   1.450995e+01   1.968405e+01  -2.142375e+05  -8.095613e+04   5.209327e+04   5.775790e+11  -1.560727e+12  -5.012288e+10   2.348730e+05   5.448654e-26   0.000000e+00   0.000000e+00
     2096000   2.095999e-07   6.211483e-02   1.450989e+01   1.968409e+01  -2.137709e+05  -8.220353e+04   5.205675e+04   5.889910e+11  -1.557763e+12  -4.118981e+10   2.348730e+05   5.455049e-26   0.000000e+00   0.000000e+00
     2104000   2.103999e-07   6.194401e-02   1.450982e+01   1.968413e+01  -2.132951e+05  -8.344851e+04   5.202737e+04   6.003727e+11  -1.554669e+12  -3.225063e+10   2.348730e+05   5.461436e-26   0.000000e+00   0.000000e+00
     2112000   2.111999e-07   6.177356e-02   1.450975e+01   1.968417e+01  -2.128103e+05  -8.469097e+04   5.200515e+04   6.117231e+11  -1.551444e+12  -2.330603e+10   2.348730e+05   5.467814e-26   0.000000e+00   0.000000e+00
     2120000   2.119999e-07   6.160351e-02   1.450969e+01   1.968421e+01  -2.123164e+05  -8.593079e+04   5.199009e+04   6.230412e+11  -1.548090e+12  -1.435670e+10   2.348730e+05   5.474184e-26   0.000000e+00   0.000000e+00
     2128000   2.127999e-07   6.143386e-02   1.450962e+01   1.968425e+01  -2.118134e+05  -8.716787e+04   5.198218e+04   6.343261e+11  -1.544605e+12  -5.403351e+09   2.348730e+05   5.480546e-26   0.000000e+00   0.000000e+00
     2136000   2.135999e-07   6.126461e-02   1.450955e+01   1.968429e+01  -2.113015e+05  -8.840212e+04   5.198144e+04   6.455767e+11  -1.540991e+12   3.553333e+09   2.348730e+05   5.486898e-26   0.000000e+00   0.000000e+00
     2144000   2.143999e-07   6.109578e-02   1.450947e+01   1.968434e+01  -2.107805e+05  -8.963342e+04   5.198787e+04   6.567921e+11  -1.537247e+12   1.251266e+10   2.348730e+05   5.493240e-26   0.000000e+00   0.000000e+00
     2152000   2.151999e-07   6.092737e-02   1.450940e+01   1.968438e+01  -2.102506e+05  -9.086168e+04   5.200146e+04   6.679713e+11  -1.533374e+12   2.147392e+10   2.348730e+05   5.499572e-26   0.000000e+00   0.000000e+00
     2160000   2.159999e-07   6.075938e-02   1.450933e+01   1.968442e+01  -2.097118e+05  -9.208679e+04   5.202223e+04   6.791132e+11  -1.529372e+12   3.043644e+10   2.348730e+05   5.505894e-26   0.000000e+00   0.000000e+00
     2168000   2.167999e-07   6.059183e-02   1.450925e+01   1.968446e+01  -2.091641e+05  -9.330864e+04   5.205016e+04   6.902171e+11  -1.525241e+12   3.939952e+10   2.348730e+05   5.512205e-26   0.000000e+00   0.000000e+00
     2176000   2.175999e-07   6.042472e-02   1.450918e+01   1.968450e+01  -2.086074e+05  -9.452714e+04   5.208527e+04   7.012817e+11  -1.520980e+12   4.836246e+10   2.348730e+05   5.518505e-26   0.000000e+00   0.000000e+00
     2184000   2.183999e-07   6.025806e-02   1.450910e+01   1.968454e+01  -2.080420e+05  -9.574218e+04   5.212754e+04   7.123063e+11  -1.516591e+12   5.732458e+10   2.348730e+05   5.524793e-26   0.000000e+00   0.000000e+00
     2192000   2.191999e-07   6.009186e-02   1.450903e+01   1.968459e+01  -2.074678e+05  -9.695365e+04   5.217699e+04   7.232898e+11  -1.512073e+12   6.628519e+10   2.348730e+05   5.531070e-26   0.000000e+00   0.000000e+00
     2200000   2.199999e-07   5.992611e-02   1.450895e+01   1.968463e+01  -2.068848e+05  -9.816146e+04   5.223360e+04   7.342312e+11  -1.507428e+12   7.524359e+10   2.348730e+05   5.537334e-26   0.000000e+00   0.000000e+00
     2208000   2.207999e-07   5.976084e-02   1.450887e+01   1.968467e+01  -2.062930e+05  -9.936550e+04   5.229738e+04   7.451296e+11  -1.502654e+12   8.419910e+10   2.348730e+05   5.543585e-26   0.000000e+00   0.000000e+00
     2216000   2.215999e-07   5.959605e-02   1.450879e+01   1.968471e+01  -2.056926e+05  -1.005657e+05   5.236832e+04   7.559840e+11  -1.497752e+12   9.315103e+10   2.348730e+05   5.549824e-26   0.000000e+00   0.000000e+00
     2224000   2.223999e-07   5.943174e-02   1.450871e+01   1.968475e+01  -2.050834e+05  -1.017619e+05   5.244642e+04   7.667934e+11  -1.492722e+12   1.020987e+11   2.348730e+05   5.556049e-26   0.000000e+00   0.000000e+00
     2232000   2.231999e-07   5.926792e-02   1.450863e+01   1.968480e+01  -2.044657e+05  -1.029540e+05   5.253168e+04   7.775569e+11  -1.487566e+12   1.110414e+11   2.348730e+05   5.562261e-26   0.000000e+00   0.000000e+00
     2240000   2.239999e-07   5.910459e-02   1.450854e+01   1.968484e+01  -2.038394e+05  -1.041419e+05   5.262409e+04   7.882735e+11  -1.482282e+12   1.199785e+11   2.348730e+05   5.568458e-26   0.000000e+00   0.000000e+00
     2248000   2.247999e-07   5.894178e-02   1.450846e+01   1.968488e+01  -2.032045e+05  -1.053256e+05   5.272364e+04   7.989422e+11  -1.476871e+12   1.289093e+11   2.348730e+05   5.574641e-26   0.000000e+00   0.000000e+00
     2256000   2.255999e-07   5.877947e-02   1.450838e+01   1.968492e+01  -2.025611e+05  -1.065049e+05   5.283034e+04   8.095621e+11  -1.471334e+12   1.378330e+11   2.348730e+05   5.580810e-26   0.000000e+00   0.000000e+00
     2264000   2.263999e-07   5.861768e-02   1.450829e+01   1.968496e+01  -2.019092e+05  -1.076797e+05   5.294417e+04   8.201323e+11  -1.465671e+12   1.467491e+11   2.348730e+05   5.586963e-26   0.000000e+00   0.000000e+00
     2272000   2.271999e-07   5.845642e-02   1.450820e+01   1.968501e+01  -2.012489e+05  -1.088499e+05   5.306514e+04   8.306517e+11  -1.459882e+12   1.556568e+11   2.348730e+05   5.593102e-26   0.000000e+00   0.000000e+00
     2280000   2.279999e-07   5.829568e-02   1.450812e+01   1.968505e+01  -2.005802e+05  -1.100155e+05   5.319322e+04   8.411194e+11  -1.453967e+12   1.645555e+11   2.348730e+05   5.599224e-26   0.000000e+00   0.000000e+00
     2288000   2.287999e-07   5.813549e-02   1.450803e+01   1.968509e+01  -1.999031e+05  -1.111763e+05   5.332842e+04   8.515345e+11  -1.447927e+12   1.734445e+11   2.348730e+05   5.605331e-26   0.000000e+00   0.000000e+00
     2296000   2.295999e-07   5.797584e-02   1.450794e+01   1.968513e+01  -1.992177e+05  -1.123321e+05   5.347073e+04   8.618960e+11  -1.441763e+12   1.823231e+11   2.348730e+05   5.611421e-26   0.000000e+00   0.000000e+00
     2304000   2.303999e-07   5.781674e-02   1.450785e+01   1.968518e+01  -1.985241e+05  -1.134830e+05   5.362014e+04   8.722030e+11  -1.435474e+12   1.911906e+11   2.348730e+05   5.617495e-26   0.000000e+00   0.000000e+00
     2312000   2.311999e-07   5.765821e-02   1.450776e+01   1.968522e+01  -1.978222e+05  -1.146289e+05   5.377663e+04   8.824545e+11  -1.429060e+12   2.000464e+11   2.348730e+05   5.623552e-26   0.000000e+00   0.000000e+00
     2320000   2.319999e-07   5.750023e-02   1.450766e+01   1.968526e+01  -1.971122e+05  -1.157695e+05   5.394021e+04   8.926495e+11  -1.422523e+12   2.088897e+11   2.348730e+05   5.629592e-26   0.000000e+00   0.000000e+00
     2328000   2.327999e-07   5.734283e-02   1.450757e+01   1.968531e+01  -1.963940e+05  -1.169049e+05   5.411086e+04   9.027873e+11  -1.415863e+12   2.177200e+11   2.348730e+05   5.635615e-26   0.000000e+00   0.000000e+00
     2336000   2.335999e-07   5.718600e-02   1.450748e+01   1.968535e+01  -1.956677e+05  -1.180348e+05   5.428856e+04   9.128667e+11  -1.409079e+12   2.265366e+11   2.348730e+05   5.641620e-26   0.000000e+00   0.000000e+00
     2344000   2.343999e-07   5.702976e-02   1.450738e+01   1.968539e+01  -1.949334e+05  -1.191594e+05   5.447331e+04   9.228869e+11  -1.402174e+12   2.353387e+11   2.348730e+05   5.647607e-26   0.000000e+00   0.000000e+00
     2352000   2.351999e-07   5.687411e-02   1.450729e+01   1.968544e+01  -1.941911e+05  -1.202783e+05   5.466510e+04   9.328470e+11  -1.395145e+12   2.441258e+11   2.348730e+05   5.653575e-26   0.000000e+00   0.000000e+00
     2360000   2.359999e-07   5.671906e-02   1.450719e+01   1.968548e+01  -1.934409e+05  -1.213916e+05   5.486391e+04   9.427460e+11  -1.387996e+12   2.528972e+11   2.348730e+05   5.659526e-26   0.000000e+00   0.000000e+00
     2368000   2.367999e-07   5.656461e-02   1.450709e+01   1.968552e+01  -1.926827e+05  -1.224991e+05   5.506973e+04   9.525829e+11  -1.380725e+12   2.616521e+11   2.348730e+05   5.665457e-26   0.000000e+00   0.000000e+00
     2376000   2.375999e-07   5.641077e-02   1.450699e+01   1.968557e+01  -1.919168e+05  -1.236007e+05   5.528255e+04   9.623570e+11  -1.373333e+12   2.703900e+11   2.348730e+05   5.671370e-26   0.000000e+00   0.000000e+00
     2384000   2.383999e-07   5.625754e-02   1.450689e+01   1.968561e+01  -1.911430e+05  -1.246964e+05   5.550235e+04   9.720672e+11  -1.365821e+12   2.791102e+11   2.348730e+05   5.677263e-26   0.000000e+00   0.000000e+00
     2392000   2.391999e-07   5.610494e-02   1.450679e+01   1.968566e+01  -1.903615e+05  -1.257860e+05   5.572912e+04   9.817127e+11  -1.358188e+12   2.878120e+11   2.348730e+05   5.683137e-26   0.000000e+00   0.000000e+00
     2400000   2.399999e-07   5.595297e-02   1.450669e+01   1.968570e+01  -1.895723e+05  -1.268694e+05   5.596285e+04   9.912925e+11  -1.350437e+12   2.964947e+11   2.348730e+05   5.688992e-26   0.000000e+00   0.000000e+00
     2408000   2.407999e-07   5.580163e-02   1.450659e+01   1.968575e+01  -1.887754e+05  -1.279466e+05   5.620351e+04   1.000806e+12  -1.342566e+12   3.051578e+11   2.348730e+05   5.694826e-26   0.000000e+00   0.000000e+00
     2416000   2.415999e-07   5.565093e-02   1.450649e+01   1.968579e+01  -1.879710e+05  -1.290175e+05   5.645109e+04   1.010251e+12  -1.334578e+12   3.138006e+11   2.348730e+05   5.700641e-26   0.000000e+00   0.000000e+00
     2424000   2.423999e-07   5.550088e-02   1.450638e+01   1.968584e+01  -1.871590e+05  -1.300819e+05   5.670558e+04   1.019629e+12  -1.326471e+12   3.224224e+11   2.348730e+05   5.706436e-26   0.000000e+00   0.000000e+00
     2432000   2.431999e-07   5.535148e-02   1.450628e+01   1.968588e+01  -1.863396e+05  -1.311398e+05   5.696696e+04   1.028937e+12  -1.318247e+12   3.310226e+11   2.348730e+05   5.712210e-26   0.000000e+00   0.000000e+00
     2440000   2.439999e-07   5.520274e-02   1.450617e+01   1.968593e+01  -1.855127e+05  -1.321911e+05   5.723522e+04   1.038175e+12  -1.309906e+12   3.396005e+11   2.348730e+05   5.717963e-26   0.000000e+00   0.000000e+00
     2448000   2.447999e-07   5.505466e-02   1.450607e+01   1.968597e+01  -1.846785e+05  -1.332356e+05   5.751032e+04   1.047342e+12  -1.301448e+12   3.481555e+11   2.348730e+05   5.723696e-26   0.000000e+00   0.000000e+00
     2456000   2.455999e-07   5.490725e-02   1.450596e+01   1.968602e+01  -1.838370e+05  -1.342734e+05   5.779226e+04   1.056437e+12  -1.292875e+12   3.566870e+11   2.348730e+05   5.729407e-26   0.000000e+00   0.000000e+00
     2464000   2.463999e-07   5.476052e-02   1.450585e+01   1.968607e+01  -1.829883e+05  -1.353042e+05   5.808101e+04   1.065459e+12  -1.284187e+12   3.651942e+11   2.348730e+05   5.735098e-26   0.000000e+00   0.000000e+00
     2472000   2.471999e-07   5.461447e-02   1.450575e+01   1.968611e+01  -1.821323e+05  -1.363280e+05   5.837656e+04   1.074407e+12  -1.275384e+12   3.736767e+11   2.348730e+05   5.740767e-26   0.000000e+00   0.000000e+00
     2480000   2.479999e-07   5.446911e-02   1.450564e+01   1.968616e+01  -1.812692e+05  -1.373448e+05   5.867889e+04   1.083281e+12  -1.266467e+12   3.821337e+11   2.348730e+05   5.746415e-26   0.000000e+00   0.000000e+00
     2488000   2.487999e-07   5.432444e-02   1.450553e+01   1.968621e+01  -1.803991e+05  -1.383544e+05   5.898797e+04   1.092080e+12  -1.257437e+12   3.905646e+11   2.348730e+05   5.752042e-26   0.000000e+00   0.000000e+00
     2496000   2.495999e-07   5.418047e-02   1.450541e+01   1.968626e+01  -1.795219e+05  -1.393567e+05   5.930379e+04   1.100802e+12  -1.248293e+12   3.989688e+11   2.348730e+05   5.757647e-26   0.000000e+00   0.000000e+00
     2504000   2.503999e-07   5.403721e-02   1.450530e+01   1.968630e+01  -1.786378e+05  -1.403516e+05   5.962632e+04   1.109447e+12  -1.239038e+12   4.073456e+11   2.348730e+05   5.763230e-26   0.000000e+00   0.000000e+00
     2512000   2.511999e-07   5.389466e-02   1.450519e+01   1.968635e+01  -1.777468e+05  -1.413391e+05   5.995553e+04   1.118014e+12  -1.229671e+12   4.156945e+11   2.348730e+05   5.768791e-26   0.000000e+00   0.000000e+00
     2520000   2.519999e-07   5.375282e-02   1.450508e+01   1.968640e+01  -1.768490e+05  -1.423190e+05   6.029142e+04   1.126502e+12  -1.220192e+12   4.240147e+11   2.348730e+05   5.774330e-26   0.000000e+00   0.000000e+00
     2528000   2.527999e-07   5.361170e-02   1.450496e+01   1.968645e+01  -1.759444e+05  -1.432914e+05   6.063395e+04   1.134911e+12  -1.210604e+12   4.323058e+11   2.348730e+05   5.779847e-26   0.000000e+00   0.000000e+00
     2536000   2.535999e-07   5.347131e-02   1.450485e+01   1.968650e+01  -1.750332e+05  -1.442560e+05   6.098310e+04   1.143238e+12  -1.200906e+12   4.405670e+11   2.348730e+05   5.785342e-26   0.000000e+00   0.000000e+00
     2544000   2.543999e-07   5.333165e-02   1.450473e+01   1.968654e+01  -1.741153e+05  -1.452128e+05   6.133885e+04   1.151485e+12  -1.191098e+12   4.487978e+11   2.348730e+05   5.790815e-26   0.000000e+00   0.000000e+00
     2552000   2.551999e-07   5.319272e-02   1.450461e+01   1.968659e+01  -1.731908e+05  -1.461617e+05   6.170117e+04   1.159649e+12  -1.181182e+12   4.569974e+11   2.348730e+05   5.796266e-26   0.000000e+00   0.000000e+00
     2560000   2.559999e-07   5.305454e-02   1.450450e+01   1.968664e+01  -1.722599e+05  -1.471026e+05   6.207004e+04   1.167731e+12  -1.171159e+12   4.651655e+11   2.348730e+05   5.801694e-26   0.000000e+00   0.000000e+00
     2568000   2.567999e-07   5.291711e-02   1.450438e+01   1.968669e+01  -1.713225e+05  -1.480355e+05   6.244543e+04   1.175728e+12  -1.161028e+12   4.733012e+11   2.348730e+05   5.807100e-26   0.000000e+00   0.000000e+00
     2576000   2.575999e-07   5.278043e-02   1.450426e+01   1.968674e+01  -1.703787e+05  -1.489603e+05   6.282731e+04   1.183641e+12  -1.150791e+12   4.814040e+11   2.348730e+05   5.812484e-26   0.000000e+00   0.000000e+00
     2584000   2.583999e-07   5.264451e-02   1.450414e+01   1.968679e+01  -1.694287e+05  -1.498768e+05   6.321567e+04   1.191468e+12  -1.140449e+12   4.894733e+11   2.348730e+05   5.817845e-26   0.000000e+00   0.000000e+00
     2592000   2.591999e-07   5.250935e-02   1.450402e+01   1.968684e+01  -1.684724e+05  -1.507849e+05   6.361046e+04   1.199209e+12  -1.130001e+12   4.975085e+11   2.348730e+05   5.823184e-26   0.000000e+00   0.000000e+00
     2600000   2.599999e-07   5.237495e-02   1.450390e+01   1.968690e+01  -1.675100e+05  -1.516847e+05   6.401167e+04   1.206863e+12  -1.119449e+12   5.055090e+11   2.348730e+05   5.828500e-26   0.000000e+00   0.000000e+00
     2608000   2.607999e-07   5.224133e-02   1.450378e+01   1.968695e+01  -1.665414e+05  -1.525760e+05   6.441927e+04   1.214429e+12  -1.108794e+12   5.134742e+11   2.348730e+05   5.833794e-26   0.000000e+00   0.000000e+00
     2616000   2.615999e-07   5.210849e-02   1.450366e+01   1.968700e+01  -1.655669e+05  -1.534588e+05   6.483322e+04   1.221906e+12  -1.098036e+12   5.214035e+11   2.348730e+05   5.839065e-26   0.000000e+00   0.000000e+00
     2624000   2.623999e-07   5.197643e-02   1.450353e+01   1.968705e+01  -1.645864e+05  -1.543329e+05   6.525350e+04   1.229294e+12  -1.087176e+12   5.292963e+11   2.348730e+05   5.844314e-26   0.000000e+00   0.000000e+00
     2632000   2.631999e-07   5.184515e-02   1.450341e+01   1.968710e+01  -1.636000e+05  -1.551982e+05   6.568009e+04   1.236592e+12  -1.076214e+12   5.371520e+11   2.348730e+05   5.849541e-26   0.000000e+00   0.000000e+00
     2640000   2.639999e-07   5.171467e-02   1.450328e+01   1.968716e+01  -1.626079e+05  -1.560548e+05   6.611294e+04   1.243798e+12  -1.065152e+12   5.449700e+11   2.348730e+05   5.854745e-26   0.000000e+00   0.000000e+00
     2648000   2.647999e-07   5.158498e-02   1.450316e+01   1.968721e+01  -1.616100e+05  -1.569024e+05   6.655203e+04   1.250913e+12  -1.053991e+12   5.527497e+11   2.348730e+05   5.859927e-26   0.000000e+00   0.000000e+00
     2656000   2.655999e-07   5.145609e-02   1.450303e+01   1.968726e+01  -1.606064e+05  -1.577411e+05   6.699733e+04   1.257935e+12  -1.042730e+12   5.604906e+11   2.348730e+05   5.865087e-26   0.000000e+00   0.000000e+00
     2664000   2.663999e-07   5.132801e-02   1.450291e+01   1.968732e+01  -1.595973e+05  -1.585708e+05   6.744880e+04   1.264864e+12  -1.031371e+12   5.681921e+11   2.348730e+05   5.870224e-26   0.000000e+00   0.000000e+00
     2672000   2.671999e-07   5.120074e-02   1.450278e+01   1.968737e+01  -1.585827e+05  -1.593913e+05   6.790643e+04   1.271699e+12  -1.019915e+12   5.758536e+11   2.348730e+05   5.875340e-26   0.000000e+00   0.000000e+00
     2680000   2.679999e-07   5.107428e-02   1.450265e+01   1.968742e+01  -1.575626e+05  -1.602026e+05   6.837016e+04   1.278439e+12  -1.008362e+12   5.834744e+11   2.348730e+05   5.880433e-26   0.000000e+00   0.000000e+00
     2688000   2.687999e-07   5.094864e-02   1.450252e+01   1.968748e+01  -1.565372e+05  -1.610047e+05   6.883997e+04   1.285084e+12  -9.967140e+11   5.910541e+11   2.348730e+05   5.885505e-26   0.000000e+00   0.000000e+00
     2696000   2.695999e-07   5.082382e-02   1.450239e+01   1.968753e+01  -1.555065e+05  -1.617973e+05   6.931584e+04   1.291632e+12  -9.849706e+11   5.985921e+11   2.348730e+05   5.890554e-26   0.000000e+00   0.000000e+00
     2704000   2.703999e-07   5.069983e-02   1.450226e+01   1.968759e+01  -1.544706e+05  -1.625806e+05   6.979771e+04   1.298084e+12  -9.731331e+11   6.060877e+11   2.348730e+05   5.895583e-26   0.000000e+00   0.000000e+00
     2712000   2.711999e-07   5.057667e-02   1.450213e+01   1.968765e+01  -1.534296e+05  -1.633543e+05   7.028557e+04   1.304437e+12  -9.612023e+11   6.135405e+11   2.348730e+05   5.900589e-26   0.000000e+00   0.000000e+00
     2720000   2.719999e-07   5.045435e-02   1.450200e+01   1.968770e+01  -1.523835e+05  -1.641185e+05   7.077936e+04   1.310693e+12  -9.491791e+11   6.209498e+11   2.348730e+05   5.905574e-26   0.000000e+00   0.000000e+00
     2728000   2.727999e-07   5.033286e-02   1.450187e+01   1.968776e+01  -1.513325e+05  -1.648730e+05   7.127907e+04   1.316849e+12  -9.370644e+11   6.283151e+11   2.348730e+05   5.910538e-26   0.000000e+00   0.000000e+00
     2736000   2.735999e-07   5.021221e-02   1.450174e+01   1.968782e+01  -1.502766e+05  -1.656178e+05   7.178466e+04   1.322905e+12  -9.248590e+11   6.356359e+11   2.348730e+05   5.915481e-26   0.000000e+00   0.000000e+00
     2744000   2.743999e-07   5.009242e-02   1.450161e+01   1.968787e+01  -1.492159e+05  -1.663527e+05   7.229608e+04   1.328861e+12  -9.125637e+11   6.429115e+11   2.348730e+05   5.920403e-26   0.000000e+00   0.000000e+00
     2752000   2.751999e-07   4.997347e-02   1.450147e+01   1.968793e+01  -1.481505e+05  -1.670778e+05   7.281330e+04   1.334715e+12  -9.001795e+11   6.501415e+11   2.348730e+05   5.925304e-26   0.000000e+00   0.000000e+00
     2760000   2.759999e-07   4.985538e-02   1.450134e+01   1.968799e+01  -1.470804e+05  -1.677930e+05   7.333629e+04   1.340468e+12  -8.877072e+11   6.573252e+11   2.348730e+05   5.930184e-26   0.000000e+00   0.000000e+00
     2768000   2.767999e-07   4.973814e-02   1.450120e+01   1.968805e+01  -1.460057e+05  -1.684981e+05   7.386501e+04   1.346118e+12  -8.751477e+11   6.644621e+11   2.348730e+05   5.935044e-26   0.000000e+00   0.000000e+00
     2776000   2.775999e-07   4.962177e-02   1.450107e+01   1.968811e+01  -1.449266e+05  -1.691932e+05   7.439942e+04   1.351665e+12  -8.625020e+11   6.715517e+11   2.348730e+05   5.939884e-26   0.000000e+00   0.000000e+00
     2784000   2.783999e-07   4.950626e-02   1.450093e+01   1.968817e+01  -1.438431e+05  -1.698781e+05   7.493948e+04   1.357108e+12  -8.497709e+11   6.785934e+11   2.348730e+05   5.944704e-26   0.000000e+00   0.000000e+00
     2792000   2.791999e-07   4.939162e-02   1.450080e+01   1.968823e+01  -1.427553e+05  -1.705528e+05   7.548516e+04   1.362446e+12  -8.369554e+11   6.855867e+11   2.348730e+05   5.949505e-26   0.000000e+00   0.000000e+00
     2800000   2.799999e-07   4.927785e-02   1.450066e+01   1.968829e+01  -1.416632e+05  -1.712172e+05   7.603641e+04   1.367680e+12  -8.240563e+11   6.925311e+11   2.348730e+05   5.954285e-26   0.000000e+00   0.000000e+00
     2808000   2.807999e-07   4.916496e-02   1.450052e+01   1.968835e+01  -1.405670e+05  -1.718713e+05   7.659320e+04   1.372807e+12  -8.110747e+11   6.994259e+11   2.348730e+05   5.959047e-26   0.000000e+00   0.000000e+00
     2816000   2.815999e-07   4.905295e-02   1.450039e+01   1.968841e+01  -1.394668e+05  -1.725149e+05   7.715548e+04   1.377828e+12  -7.980114e+11   7.062707e+11   2.348730e+05   5.963789e-26   0.000000e+00   0.000000e+00
     2824000   2.823999e-07   4.894182e-02   1.450025e+01   1.968847e+01  -1.383625e+05  -1.731481e+05   7.772322e+04   1.382742e+12  -7.848674e+11   7.130650e+11   2.348730e+05   5.968513e-26   0.000000e+00   0.000000e+00
     2832000   2.831999e-07   4.883157e-02   1.450011e+01   1.968854e+01  -1.372544e+05  -1.737707e+05   7.829637e+04   1.387548e+12  -7.716437e+11   7.198081e+11   2.348730e+05   5.973219e-26   0.000000e+00   0.000000e+00
     2840000   2.839999e-07   4.872221e-02   1.449997e+01   1.968860e+01  -1.361427e+05  -1.743827e+05   7.887441e+04   1.390901e+12  -7.585655e+11   7.236899e+11   2.348730e+05   5.963206e-26   0.000000e+00   0.000000e+00
     2848000   2.847999e-07   4.861374e-02   1.449983e+01   1.968866e+01  -1.350281e+05  -1.749842e+05   7.945602e+04   1.395488e+12  -7.452169e+11   7.303318e+11   2.348730e+05   5.967856e-26   0.000000e+00   0.000000e+00
     2856000   2.855999e-07   4.850617e-02   1.449969e+01   1.968873e+01  -1.339100e+05  -1.755751e+05   8.004292e+04   1.399966e+12  -7.317917e+11   7.369213e+11   2.348730e+05   5.972489e-26   0.000000e+00   0.000000e+00
     2864000   2.863999e-07   4.839949e-02   1.449955e+01   1.968879e+01  -1.327882e+05  -1.761551e+05   8.063508e+04   1.404334e+12  -7.182906e+11   7.434578e+11   2.348730e+05   5.977105e-26   0.000000e+00   0.000000e+00
     2872000   2.871999e-07   4.829371e-02   1.449941e+01   1.968886e+01  -1.316630e+05  -1.767243e+05   8.123244e+04   1.408592e+12  -7.047148e+11   7.499408e+11   2.348730e+05   5.981703e-26   0.000000e+00   0.000000e+00
     2880000   2.879999e-07   4.818883e-02   1.449927e+01   1.968892e+01  -1.305345e+05  -1.772826e+05   8.183497e+04   1.412738e+12  -6.910653e+11   7.563699e+11   2.348730e+05   5.986285e-26   0.000000e+00   0.000000e+00
     2888000   2.887999e-07   4.808485e-02   1.449912e+01   1.968899e+01  -1.294027e+05  -1.778300e+05   8.244262e+04   1.416773e+12  -6.773429e+11   7.627445e+11   2.348730e+05   5.990850e-26   0.000000e+00   0.000000e+00
     2896000   2.895999e-07   4.798178e-02   1.449898e+01   1.968905e+01  -1.282677e+05  -1.783663e+05   8.305535e+04   1.420696e+12  -6.635488e+11   7.690641e+11   2.348730e+05   5.995400e-26   0.000000e+00   0.000000e+00
     2904000   2.903999e-07   4.787962e-02   1.449884e+01   1.968912e+01  -1.271296e+05  -1.788916e+05   8.367311e+04   1.424506e+12  -6.496840e+11   7.753281e+11   2.348730e+05   5.999934e-26   0.000000e+00   0.000000e+00
     2912000   2.911999e-07   4.777838e-02   1.449870e+01   1.968919e+01  -1.259885e+05  -1.794058e+05   8.429586e+04   1.428202e+12  -6.357494e+11   7.815362e+11   2.348730e+05   6.004452e-26   0.000000e+00   0.000000e+00
     2920000   2.919999e-07   4.767804e-02   1.449855e+01   1.968925e+01  -1.248445e+05  -1.799088e+05   8.492355e+04   1.431785e+12  -6.217461e+11   7.876877e+11   2.348730e+05   6.008956e-26   0.000000e+00   0.000000e+00
     2928000   2.927999e-07   4.757863e-02   1.449841e+01   1.968932e+01  -1.236977e+05  -1.804006e+05   8.555614e+04   1.435254e+12  -6.076752e+11   7.937822e+11   2.348730e+05   6.013445e-26   0.000000e+00   0.000000e+00
     2936000   2.935999e-07   4.748013e-02   1.449826e+01   1.968939e+01  -1.225481e+05  -1.808811e+05   8.619359e+04   1.438608e+12  -5.935376e+11   7.998192e+11   2.348730e+05   6.017921e-26   0.000000e+00   0.000000e+00
     2944000   2.943999e-07   4.738255e-02   1.449812e+01   1.968946e+01  -1.213960e+05  -1.813502e+05   8.683584e+04   1.441846e+12  -5.793344e+11   8.057982e+11   2.348730e+05   6.022382e-26   0.000000e+00   0.000000e+00
     2952000   2.951999e-07   4.728589e-02   1.449797e+01   1.968953e+01  -1.202412e+05  -1.818080e+05   8.748285e+04   1.444969e+12  -5.650668e+11   8.117187e+11   2.348730e+05   6.026831e-26   0.000000e+00   0.000000e+00
     2960000   2.959999e-07   4.719016e-02   1.449783e+01   1.968960e+01  -1.190840e+05  -1.822543e+05   8.813458e+04   1.447975e+12  -5.507356e+11   8.175802e+11   2.348730e+05   6.031266e-26   0.000000e+00   0.000000e+00
     2968000   2.967999e-07   4.709536e-02   1.449768e+01   1.968967e+01  -1.179245e+05  -1.826892e+05   8.879096e+04   1.450865e+12  -5.363421e+11   8.233822e+11   2.348730e+05   6.035689e-26   0.000000e+00   0.000000e+00
     2976000   2.975999e-07   4.700149e-02   1.449753e+01   1.968974e+01  -1.167627e+05  -1.831124e+05   8.945197e+04   1.453637e+12  -5.218873e+11   8.291242e+11   2.348730e+05   6.040100e-26   0.000000e+00   0.000000e+00
     2984000   2.983999e-07   4.690854e-02   1.449739e+01   1.968981e+01  -1.155987e+05  -1.835242e+05   9.011755e+04   1.456291e+12  -5.073722e+11   8.348057e+11   2.348730e+05   6.044500e-26   0.000000e+00   0.000000e+00
     2992000   2.991999e-07   4.681653e-02   1.449724e+01   1.968989e+01  -1.144326e+05  -1.839242e+05   9.078765e+04   1.458828e+12  -4.927980e+11   8.404264e+11   2.348730e+05   6.048888e-26   0.000000e+00   0.000000e+00
     3000000   2.999999e-07   4.672545e-02   1.449709e+01   1.968996e+01  -1.132646e+05  -1.843126e+05   9.146221e+04   1.461245e+12  -4.781657e+11   8.459856e+11   2.348730e+05   6.053266e-26   0.000000e+00   0.000000e+00
     3008000   3.007999e-07   4.663531e-02   1.449695e+01   1.969003e+01  -1.120947e+05  -1.846893e+05   9.214121e+04   1.463544e+12  -4.634764e+11   8.514829e+11   2.348730e+05   6.057634e-26   0.000000e+00   0.000000e+00
     3016000   3.015999e-07   4.654610e-02   1.449680e+01   1.969011e+01  -1.109230e+05  -1.850542e+05   9.282457e+04   1.465723e+12  -4.487313e+11   8.569179e+11   2.348730e+05   6.061992e-26   0.000000e+00   0.000000e+00
     3024000   3.023999e-07   4.645783e-02   1.449665e+01   1.969018e+01  -1.097496e+05  -1.854072e+05   9.351226e+04   1.467782e+12  -4.339314e+11   8.622900e+11   2.348730e+05   6.066341e-26   0.000000e+00   0.000000e+00
     3032000   3.031999e-07   4.637050e-02   1.449650e+01   1.969026e+01  -1.085745e+05  -1.857484e+05   9.420422e+04   1.469720e+12  -4.190779e+11   8.675988e+11   2.348730e+05   6.070682e-26   0.000000e+00   0.000000e+00
     3040000   3.039999e-07   4.628411e-02   1.449635e+01   1.969033e+01  -1.073980e+05  -1.860777e+05   9.490040e+04   1.471538e+12  -4.041719e+11   8.728439e+11   2.348730e+05   6.075014e-26   0.000000e+00   0.000000e+00
     3048000   3.047999e-07   4.619866e-02   1.449620e+01   1.969041e+01  -1.062201e+05  -1.863951e+05   9.560075e+04   1.473235e+12  -3.892144e+11   8.780247e+11   2.348730e+05   6.079339e-26   0.000000e+00   0.000000e+00
     3056000   3.055999e-07   4.611416e-02   1.449605e+01   1.969049e+01  -1.050409e+05  -1.867005e+05   9.630522e+04   1.474810e+12  -3.742068e+11   8.831408e+11   2.348730e+05   6.083657e-26   0.000000e+00   0.000000e+00
     3064000   3.063999e-07   4.603060e-02   1.449591e+01   1.969056e+01  -1.038605e+05  -1.869938e+05   9.701376e+04   1.476263e+12  -3.591500e+11   8.881918e+11   2.348730e+05   6.087968e-26   0.000000e+00   0.000000e+00
     3072000   3.071999e-07   4.594798e-02   1.449576e+01   1.969064e+01  -1.026789e+05  -1.872751e+05   9.772631e+04   1.477594e+12  -3.440453e+11   8.931772e+11   2.348731e+05   6.092273e-26   0.000000e+00   0.000000e+00
     3080000   3.079999e-07   4.586631e-02   1.449561e+01   1.969072e+01  -1.014963e+05  -1.875443e+05   9.844283e+04   1.478802e+12  -3.288937e+11   8.980965e+11   2.348731e+05   6.096572e-26   0.000000e+00   0.000000e+00
     3088000   3.087999e-07   4.578559e-02   1.449546e+01   1.969080e+01  -1.003129e+05  -1.878013e+05   9.916325e+04   1.479887e+12  -3.136965e+11   9.029493e+11   2.348731e+05   6.100867e-26   0.000000e+00   0.000000e+00
     3096000   3.095999e-07   4.570581e-02   1.449531e+01   1.969088e+01  -9.912855e+04  -1.880462e+05   9.988753e+04   1.480849e+12  -2.984547e+11   9.077351e+11   2.348731e+05   6.105157e-26   0.000000e+00   0.000000e+00
     3104000   3.103999e-07   4.562698e-02   1.449515e+01   1.969096e+01  -9.794353e+04  -1.882788e+05   1.006156e+05   1.481687e+12  -2.831696e+11   9.124536e+11   2.348731e+05   6.109444e-26   0.000000e+00   0.000000e+00
     3112000   3.111999e-07   4.554910e-02   1.449500e+01   1.969104e+01  -9.675789e+04  -1.884992e+05   1.013474e+05   1.482400e+12  -2.678424e+11   9.171042e+11   2.348731e+05   6.113727e-26   0.000000e+00   0.000000e+00
     3120000   3.119999e-07   4.547217e-02   1.449485e+01   1.969112e+01  -9.557172e+04  -1.887074e+05   1.020830e+05   1.482990e+12  -2.524742e+11   9.216865e+11   2.348731e+05   6.118008e-26   0.000000e+00   0.000000e+00
     3128000   3.127999e-07   4.539619e-02   1.449470e+01   1.969120e+01  -9.438514e+04  -1.889032e+05   1.028221e+05   1.483455e+12  -2.370661e+11   9.262001e+11   2.348731e+05   6.122286e-26   0.000000e+00   0.000000e+00
     3136000   3.135999e-07   4.532115e-02   1.449455e+01   1.969128e+01  -9.319823e+04  -1.890867e+05   1.035649e+05   1.483795e+12  -2.216194e+11   9.306445e+11   2.348731e+05   6.126564e-26   0.000000e+00   0.000000e+00
     3144000   3.143999e-07   4.524707e-02   1.449440e+01   1.969137e+01  -9.201110e+04  -1.892578e+05   1.043111e+05   1.484009e+12  -2.061354e+11   9.350194e+11   2.348731e+05   6.130840e-26   0.000000e+00   0.000000e+00
     3152000   3.151999e-07   4.517394e-02   1.449425e+01   1.969145e+01  -9.082385e+04  -1.894165e+05   1.050609e+05   1.484098e+12  -1.906150e+11   9.393242e+11   2.348731e+05   6.135116e-26   0.000000e+00   0.000000e+00
     3160000   3.159999e-07   4.510175e-02   1.449410e+01   1.969154e+01  -8.963658e+04  -1.895627e+05   1.058140e+05   1.484062e+12  -1.750597e+11   9.435586e+11   2.348731e+05   6.139393e-26   0.000000e+00   0.000000e+00
     3168000   3.167999e-07   4.503052e-02   1.449394e+01   1.969162e+01  -8.844938e+04  -1.896965e+05   1.065705e+05   1.483899e+12  -1.594705e+11   9.477221e+11   2.348731e+05   6.143670e-26   0.000000e+00   0.000000e+00
     3176000   3.175999e-07   4.496023e-02   1.449379e+01   1.969171e+01  -8.726237e+04  -1.898179e+05   1.073304e+05   1.483610e+12  -1.438487e+11   9.518143e+11   2.348731e+05   6.147950e-26   0.000000e+00   0.000000e+00
     3184000   3.183999e-07   4.489090e-02   1.449364e+01   1.969179e+01  -8.607564e+04  -1.899267e+05   1.080934e+05   1.483194e+12  -1.281955e+11   9.558348e+11   2.348731e+05   6.152231e-26   0.000000e+00   0.000000e+00
     3192000   3.191999e-07   4.482251e-02   1.449349e+01   1.969188e+01  -8.488929e+04  -1.900230e+05   1.088597e+05   1.482652e+12  -1.125121e+11   9.597832e+11   2.348731e+05   6.156516e-26   0.000000e+00   0.000000e+00
     3200000   3.199999e-07   4.475507e-02   1.449334e+01   1.969197e+01  -8.370343e+04  -1.901067e+05   1.096291e+05   1.481982e+12  -9.679977e+10   9.636590e+11   2.348731e+05   6.160804e-26   0.000000e+00   0.000000e+00
     3208000   3.207999e-07   4.468859e-02   1.449318e+01   1.969205e+01  -8.251816e+04  -1.901778e+05   1.104015e+05   1.481186e+12  -8.105973e+10   9.674619e+11   2.348731e+05   6.165096e-26   0.000000e+00   0.000000e+00
     3216000   3.215999e-07   4.462305e-02   1.449303e+01   1.969214e+01  -8.133357e+04  -1.902364e+05   1.111770e+05   1.480262e+12  -6.529320e+10   9.711914e+11   2.348731e+05   6.169393e-26   0.000000e+00   0.000000e+00
     3224000   3.223999e-07   4.455845e-02   1.449288e+01   1.969223e+01  -8.014977e+04  -1.902823e+05   1.119554e+05   1.479210e+12  -4.950142e+10   9.748471e+11   2.348731e+05   6.173695e-26   0.000000e+00   0.000000e+00
     3232000   3.231999e-07   4.449481e-02   1.449273e+01   1.969232e+01  -7.896687e+04  -1.903156e+05   1.127367e+05   1.478030e+12  -3.368564e+10   9.784287e+11   2.348731e+05   6.178004e-26   0.000000e+00   0.000000e+00
     3240000   3.239999e-07   4.443211e-02   1.449258e+01   1.969241e+01  -7.778496e+04  -1.903362e+05   1.135209e+05   1.476723e+12  -1.784710e+10   9.819357e+11   2.348731e+05   6.182320e-26   0.000000e+00   0.000000e+00
     3248000   3.247999e-07   4.437035e-02   1.449242e+01   1.969250e+01  -7.660414e+04  -1.903441e+05   1.143078e+05   1.475287e+12  -1.987064e+09   9.853677e+11   2.348731e+05   6.186643e-26   0.000000e+00   0.000000e+00
     3256000   3.255999e-07   4.430954e-02   1.449227e+01   1.969260e+01  -7.542453e+04  -1.903394e+05   1.150974e+05   1.473723e+12   1.389322e+10   9.887243e+11   2.348731e+05   6.190974e-26   0.000000e+00   0.000000e+00
     3264000   3.263999e-07   4.424967e-02   1.449212e+01   1.969269e+01  -7.424622e+04  -1.903219e+05   1.158897e+05   1.472031e+12   2.979249e+10   9.920052e+11   2.348731e+05   6.195315e-26   0.000000e+00   0.000000e+00
     3272000   3.271999e-07   4.419074e-02   1.449197e+01   1.969278e+01  -7.306932e+04  -1.902917e+05   1.166846e+05   1.470210e+12   4.570948e+10   9.952100e+11   2.348731e+05   6.199665e-26   0.000000e+00   0.000000e+00
     3280000   3.279999e-07   4.413276e-02   1.449181e+01   1.969287e+01  -7.189392e+04  -1.902488e+05   1.174821e+05   1.468261e+12   6.164292e+10   9.983382e+11   2.348731e+05   6.204025e-26   0.000000e+00   0.000000e+00
     3288000   3.287999e-07   4.407571e-02   1.449166e+01   1.969297e+01  -7.072013e+04  -1.901931e+05   1.182820e+05   1.466182e+12   7.759154e+10   1.001390e+12   2.348731e+05   6.208396e-26   0.000000e+00   0.000000e+00
     3296000   3.295999e-07   4.401961e-02   1.449151e+01   1.969306e+01  -6.954806e+04  -1.901246e+05   1.190843e+05   1.463975e+12   9.355406e+10   1.004364e+12   2.348731e+05   6.212778e-26   0.000000e+00   0.000000e+00
     3304000   3.303999e-07   4.396444e-02   1.449136e+01   1.969316e+01  -6.837781e+04  -1.900434e+05   1.198889e+05   1.461639e+12   1.095292e+11   1.007260e+12   2.348731e+05   6.217174e-26   0.000000e+00   0.000000e+00
     3312000   3.311999e-07   4.391020e-02   1.449121e+01   1.969326e+01  -6.720947e+04  -1.899493e+05   1.206959e+05   1.459174e+12   1.255157e+11   1.010078e+12   2.348731e+05   6.221582e-26   0.000000e+00   0.000000e+00
     3320000   3.319999e-07   4.385690e-02   1.449105e+01   1.969335e+01  -6.604316e+04  -1.898425e+05   1.215050e+05   1.456580e+12   1.415122e+11   1.012818e+12   2.348731e+05   6.226004e-26   0.000000e+00   0.000000e+00
     3328000   3.327999e-07   4.380453e-02   1.449090e+01   1.969345e+01  -6.487898e+04  -1.897229e+05   1.223163e+05   1.453856e+12   1.575175e+11   1.015479e+12   2.348731e+05   6.230440e-26   0.000000e+00   0.000000e+00
     3336000   3.335999e-07   4.375309e-02   1.449075e+01   1.969355e+01  -6.371703e+04  -1.895905e+05   1.231298e+05   1.451003e+12   1.735302e+11   1.018061e+12   2.348731e+05   6.234892e-26   0.000000e+00   0.000000e+00
     3344000   3.343999e-07   4.370258e-02   1.449060e+01   1.969365e+01  -6.255741e+04  -1.894453e+05   1.239452e+05   1.448021e+12   1.895492e+11   1.020564e+12   2.348731e+05   6.239359e-26   0.000000e+00   0.000000e+00
     3352000   3.351999e-07   4.365300e-02   1.449045e+01   1.969375e+01  -6.140023e+04  -1.892872e+05   1.247626e+05   1.444910e+12   2.055729e+11   1.022986e+12   2.348731e+05   6.243843e-26   0.000000e+00   0.000000e+00
     3360000   3.359999e-07   4.360434e-02   1.449030e+01   1.969385e+01  -6.024559e+04  -1.891164e+05   1.255820e+05   1.441670e+12   2.216002e+11   1.025329e+12   2.348731e+05   6.248345e-26   0.000000e+00   0.000000e+00
     3368000   3.367999e-07   4.355661e-02   1.449015e+01   1.969395e+01  -5.909359e+04  -1.889327e+05   1.264031e+05   1.438300e+12   2.376298e+11   1.027590e+12   2.348731e+05   6.252864e-26   0.000000e+00   0.000000e+00
     3376000   3.375999e-07   4.350979e-02   1.448999e+01   1.969405e+01  -5.794434e+04  -1.887361e+05   1.272261e+05   1.434800e+12   2.536603e+11   1.029771e+12   2.348731e+05   6.257403e-26   0.000000e+00   0.000000e+00
     3384000   3.383999e-07   4.346390e-02   1.448984e+01   1.969415e+01  -5.679795e+04  -1.885268e+05   1.280508e+05   1.431172e+12   2.696904e+11   1.031871e+12   2.348731e+05   6.261960e-26   0.000000e+00   0.000000e+00
     3392000   3.391999e-07   4.341891e-02   1.448969e+01   1.969425e+01  -5.565450e+04  -1.883046e+05   1.288771e+05   1.427414e+12   2.857188e+11   1.033889e+12   2.348731e+05   6.266538e-26   0.000000e+00   0.000000e+00
     3400000   3.399999e-07   4.337485e-02   1.448954e+01   1.969436e+01  -5.451412e+04  -1.880697e+05   1.297050e+05   1.423527e+12   3.017442e+11   1.035825e+12   2.348731e+05   6.271137e-26   0.000000e+00   0.000000e+00
     3408000   3.407999e-07   4.333169e-02   1.448939e+01   1.969446e+01  -5.337690e+04  -1.878218e+05   1.305344e+05   1.419511e+12   3.177652e+11   1.037678e+12   2.348731e+05   6.275758e-26   0.000000e+00   0.000000e+00
     3416000   3.415999e-07   4.328944e-02   1.448924e+01   1.969457e+01  -5.224294e+04  -1.875612e+05   1.313652e+05   1.415366e+12   3.337806e+11   1.039449e+12   2.348731e+05   6.280401e-26   0.000000e+00   0.000000e+00
     3424000   3.423999e-07   4.324810e-02   1.448909e+01   1.969467e+01  -5.111235e+04  -1.872878e+05   1.321975e+05   1.411092e+12   3.497889e+11   1.041137e+12   2.348731e+05   6.285067e-26   0.000000e+00   0.000000e+00
     3432000   3.431999e-07   4.320766e-02   1.448894e+01   1.969478e+01  -4.998522e+04  -1.870016e+05   1.330310e+05   1.406688e+12   3.657889e+11   1.042742e+12   2.348731e+05   6.289757e-26   0.000000e+00   0.000000e+00
     3440000   3.439999e-07   4.316812e-02   1.448879e+01   1.969488e+01  -4.886168e+04  -1.867025e+05   1.338658e+05   1.402156e+12   3.817792e+11   1.044263e+12   2.348731e+05   6.294471e-26   0.000000e+00   0.000000e+00
     3448000   3.447999e-07   4.312948e-02   1.448864e+01   1.969499e+01  -4.774181e+04  -1.863907e+05   1.347018e+05   1.397495e+12   3.977585e+11   1.045700e+12   2.348731e+05   6.299211e-26   0.000000e+00   0.000000e+00
     3456000   3.455999e-07   4.309174e-02   1.448849e+01   1.969510e+01  -4.662572e+04  -1.860661e+05   1.355389e+05   1.392706e+12   4.137254e+11   1.047053e+12   2.348731e+05   6.303976e-26   0.000000e+00   0.000000e+00
     3464000   3.463999e-07   4.305488e-02   1.448835e+01   1.969521e+01  -4.551352e+04  -1.857288e+05   1.363771e+05   1.387788e+12   4.296786e+11   1.048322e+12   2.348731e+05   6.308769e-26   0.000000e+00   0.000000e+00
     3472000   3.471999e-07   4.301891e-02   1.448820e+01   1.969532e+01  -4.440530e+04  -1.853786e+05   1.372162e+05   1.382741e+12   4.456167e+11   1.049505e+12   2.348731e+05   6.313589e-26   0.000000e+00   0.000000e+00
     3480000   3.479999e-07   4.298383e-02   1.448805e+01   1.969543e+01  -4.330116e+04  -1.850158e+05   1.380563e+05   1.377566e+12   4.615384e+11   1.050604e+12   2.348731e+05   6.318437e-26   0.000000e+00   0.000000e+00
     3488000   3.487999e-07   4.294963e-02   1.448790e+01   1.969554e+01  -4.220122e+04  -1.846402e+05   1.388972e+05   1.372264e+12   4.774424e+11   1.051617e+12   2.348731e+05   6.323314e-26   0.000000e+00   0.000000e+00
     3496000   3.495999e-07   4.291631e-02   1.448775e+01   1.969565e+01  -4.110558e+04  -1.842519e+05   1.397388e+05   1.366833e+12   4.933272e+11   1.052544e+12   2.348731e+05   6.328220e-26   0.000000e+00   0.000000e+00
     3504000   3.503999e-07   4.288386e-02   1.448761e+01   1.969576e+01  -4.001433e+04  -1.838509e+05   1.405812e+05   1.361274e+12   5.091916e+11   1.053385e+12   2.348731e+05   6.333157e-26   0.000000e+00   0.000000e+00
     3512000   3.511999e-07   4.285228e-02   1.448746e+01   1.969588e+01  -3.892757e+04  -1.834372e+05   1.414242e+05   1.355588e+12   5.250341e+11   1.054140e+12   2.348731e+05   6.338124e-26   0.000000e+00   0.000000e+00
     3520000   3.519999e-07   4.282158e-02   1.448731e+01   1.969599e+01  -3.784542e+04  -1.830108e+05   1.422678e+05   1.349775e+12   5.408535e+11   1.054808e+12   2.348731e+05   6.343124e-26   0.000000e+00   0.000000e+00
     3528000   3.527999e-07   4.279173e-02   1.448717e+01   1.969610e+01  -3.676797e+04  -1.825718e+05   1.431119e+05   1.343835e+12   5.566482e+11   1.055389e+12   2.348731e+05   6.348156e-26   0.000000e+00   0.000000e+00
     3536000   3.535999e-07   4.276275e-02   1.448702e+01   1.969622e+01  -3.569532e+04  -1.821202e+05   1.439564e+05   1.337767e+12   5.724171e+11   1.055883e+12   2.348731e+05   6.353221e-26   0.000000e+00   0.000000e+00
     3544000   3.543999e-07   4.273462e-02   1.448688e+01   1.969633e+01  -3.462757e+04  -1.816559e+05   1.448013e+05   1.331574e+12   5.881586e+11   1.056289e+12   2.348731e+05   6.358319e-26   0.000000e+00   0.000000e+00
     3552000   3.551999e-07   4.270734e-02   1.448673e+01   1.969645e+01  -3.356483e+04  -1.811791e+05   1.456464e+05   1.325253e+12   6.038715e+11   1.056608e+12   2.348731e+05   6.363453e-26   0.000000e+00   0.000000e+00
     3560000   3.559999e-07   4.268091e-02   1.448659e+01   1.969657e+01  -3.250720e+04  -1.806898e+05   1.464918e+05   1.318807e+12   6.195543e+11   1.056838e+12   2.348731e+05   6.368621e-26   0.000000e+00   0.000000e+00
     3568000   3.567999e-07   4.265533e-02   1.448644e+01   1.969668e+01  -3.145478e+04  -1.801879e+05   1.473374e+05   1.312234e+12   6.352058e+11   1.056981e+12   2.348731e+05   6.373825e-26   0.000000e+00   0.000000e+00
     3576000   3.575999e-07   4.263058e-02   1.448630e+01   1.969680e+01  -3.040766e+04  -1.796734e+05   1.481830e+05   1.305537e+12   6.508244e+11   1.057034e+12   2.348731e+05   6.379066e-26   0.000000e+00   0.000000e+00
     3584000   3.583999e-07   4.260667e-02   1.448615e+01   1.969692e+01  -2.936595e+04  -1.791465e+05   1.490286e+05   1.298713e+12   6.664089e+11   1.056999e+12   2.348731e+05   6.384344e-26   0.000000e+00   0.000000e+00
     3592000   3.591999e-07   4.258360e-02   1.448601e+01   1.969704e+01  -2.832975e+04  -1.786072e+05   1.498742e+05   1.291765e+12   6.819578e+11   1.056875e+12   2.348731e+05   6.389660e-26   0.000000e+00   0.000000e+00
     3600000   3.599999e-07   4.256134e-02   1.448587e+01   1.969716e+01  -2.729916e+04  -1.780554e+05   1.507196e+05   1.284693e+12   6.974698e+11   1.056662e+12   2.348731e+05   6.395015e-26   0.000000e+00   0.000000e+00
     3608000   3.607999e-07   4.253991e-02   1.448573e+01   1.969728e+01  -2.627428e+04  -1.774913e+05   1.515648e+05   1.277495e+12   7.129436e+11   1.056359e+12   2.348731e+05   6.400409e-26   0.000000e+00   0.000000e+00
     3616000   3.615999e-07   4.251930e-02   1.448558e+01   1.969740e+01  -2.525520e+04  -1.769147e+05   1.524097e+05   1.270174e+12   7.283776e+11   1.055966e+12   2.348731e+05   6.405842e-26   0.000000e+00   0.000000e+00
     3624000   3.623999e-07   4.249950e-02   1.448544e+01   1.969753e+01  -2.424203e+04  -1.763259e+05   1.532543e+05   1.262730e+12   7.437705e+11   1.055484e+12   2.348731e+05   6.411317e-26   0.000000e+00   0.000000e+00
     3632000   3.631999e-07   4.248051e-02   1.448530e+01   1.969765e+01  -2.323487e+04  -1.757247e+05   1.540985e+05   1.255162e+12   7.591210e+11   1.054911e+12   2.348731e+05   6.416832e-26   0.000000e+00   0.000000e+00
     3640000   3.639999e-07   4.246233e-02   1.448516e+01   1.969777e+01  -2.223381e+04  -1.751113e+05   1.549421e+05   1.247471e+12   7.744277e+11   1.054248e+12   2.348731e+05   6.422389e-26   0.000000e+00   0.000000e+00
     3648000   3.647999e-07   4.244494e-02   1.448502e+01   1.969790e+01  -2.123895e+04  -1.744856e+05   1.557852e+05   1.239658e+12   7.896891e+11   1.053494e+12   2.348731e+05   6.427989e-26   0.000000e+00   0.000000e+00
     3656000   3.655999e-07   4.242834e-02   1.448488e+01   1.969802e+01  -2.025039e+04  -1.738478e+05   1.566277e+05   1.231722e+12   8.049039e+11   1.052649e+12   2.348731e+05   6.433632e-26   0.000000e+00   0.000000e+00
     3664000   3.663999e-07   4.241254e-02   1.448474e+01   1.969815e+01  -1.926823e+04  -1.731978e+05   1.574695e+05   1.223665e+12   8.200707e+11   1.051713e+12   2.348731e+05   6.439318e-26   0.000000e+00   0.000000e+00
     3672000   3.671999e-07   4.239751e-02   1.448460e+01   1.969827e+01  -1.829256e+04  -1.725357e+05   1.583104e+05   1.215487e+12   8.351881e+11   1.050685e+12   2.348731e+05   6.445049e-26   0.000000e+00   0.000000e+00
     3680000   3.679999e-07   4.238327e-02   1.448447e+01   1.969840e+01  -1.732348e+04  -1.718615e+05   1.591505e+05   1.207188e+12   8.502547e+11   1.049567e+12   2.348731e+05   6.450825e-26   0.000000e+00   0.000000e+00
     3688000   3.687999e-07   4.236979e-02   1.448433e+01   1.969853e+01  -1.636109e+04  -1.711753e+05   1.599897e+05   1.198769e+12   8.652692e+11   1.048356e+12   2.348731e+05   6.456646e-26   0.000000e+00   0.000000e+00
     3696000   3.695999e-07   4.235709e-02   1.448419e+01   1.969866e+01  -1.540548e+04  -1.704771e+05   1.608279e+05   1.190230e+12   8.802300e+11   1.047054e+12   2.348731e+05   6.462513e-26   0.000000e+00   0.000000e+00
     3704000   3.703999e-07   4.234514e-02   1.448406e+01   1.969879e+01  -1.445676e+04  -1.697669e+05   1.616650e+05   1.181571e+12   8.951360e+11   1.045659e+12   2.348731e+05   6.468427e-26   0.000000e+00   0.000000e+00
     3712000   3.711999e-07   4.233395e-02   1.448392e+01   1.969892e+01  -1.351500e+04  -1.690449e+05   1.625009e+05   1.172793e+12   9.099855e+11   1.044173e+12   2.348731e+05   6.474388e-26   0.000000e+00   0.000000e+00
     3720000   3.719999e-07   4.232352e-02   1.448379e+01   1.969905e+01  -1.258032e+04  -1.683110e+05   1.633356e+05   1.163897e+12   9.247773e+11   1.042594e+12   2.348731e+05   6.480397e-26   0.000000e+00   0.000000e+00
     3728000   3.727999e-07   4.231382e-02   1.448365e+01   1.969918e+01  -1.165280e+04  -1.675652e+05   1.641690e+05   1.154883e+12   9.395100e+11   1.040922e+12   2.348731e+05   6.486454e-26   0.000000e+00   0.000000e+00
     3736000   3.735999e-07   4.230487e-02   1.448352e+01   1.969931e+01  -1.073254e+04  -1.668078e+05   1.650011e+05   1.145752e+12   9.541821e+11   1.039158e+12   2.348731e+05   6.492561e-26   0.000000e+00   0.000000e+00
     3744000   3.743999e-07   4.229665e-02   1.448339e+01   1.969944e+01  -9.819629e+03  -1.660386e+05   1.658317e+05   1.136504e+12   9.687923e+11   1.037300e+12   2.348731e+05   6.498717e-26   0.000000e+00   0.000000e+00
     3752000   3.751999e-07   4.228916e-02   1.448325e+01   1.969957e+01  -8.914165e+03  -1.652577e+05   1.666607e+05   1.127139e+12   9.833391e+11   1.035350e+12   2.348731e+05   6.504922e-26   0.000000e+00   0.000000e+00
     3760000   3.759999e-07   4.228239e-02   1.448312e+01   1.969971e+01  -8.016238e+03  -1.644652e+05   1.674882e+05   1.117659e+12   9.978213e+11   1.033307e+12   2.348731e+05   6.511178e-26   0.000000e+00   0.000000e+00
     3768000   3.767999e-07   4.227633e-02   1.448299e+01   1.969984e+01  -7.125942e+03  -1.636612e+05   1.683140e+05   1.108063e+12   1.012237e+12   1.031170e+12   2.348731e+05   6.517486e-26   0.000000e+00   0.000000e+00
     3776000   3.775999e-07   4.227098e-02   1.448286e+01   1.969998e+01  -6.243368e+03  -1.628457e+05   1.691380e+05   1.098353e+12   1.026586e+12   1.028940e+12   2.348731e+05   6.523844e-26   0.000000e+00   0.000000e+00
     3784000   3.783999e-07   4.226631e-02   1.448273e+01   1.970011e+01  -5.441615e+03  -1.620422e+05   1.699356e+05   9.783515e+11   1.005061e+12   9.897064e+11   2.348731e+05   5.792362e-26   0.000000e+00   0.000000e+00
     3792000   3.791999e-07   4.226227e-02   1.448260e+01   1.970025e+01  -4.662541e+03  -1.612327e+05   1.707269e+05   9.693150e+11   1.018668e+12   9.884936e+11   2.348731e+05   5.807182e-26   0.000000e+00   0.000000e+00
     3800000   3.799999e-07   4.225885e-02   1.448247e+01   1.970039e+01  -3.890742e+03  -1.604123e+05   1.715171e+05   9.601658e+11   1.032242e+12   9.871926e+11   2.348731e+05   5.822151e-26   0.000000e+00   0.000000e+00
     3808000   3.807999e-07   4.225605e-02   1.448234e+01   1.970052e+01  -3.126307e+03  -1.595811e+05   1.723063e+05   9.509042e+11   1.045781e+12   9.858027e+11   2.348731e+05   5.837271e-26   0.000000e+00   0.000000e+00
     3816000   3.815999e-07   4.225385e-02   1.448222e+01   1.970066e+01  -2.369326e+03  -1.587391e+05   1.730944e+05   9.415302e+11   1.059284e+12   9.843232e+11   2.348731e+05   5.852542e-26   0.000000e+00   0.000000e+00
     3824000   3.823999e-07   4.225225e-02   1.448209e+01   1.970080e+01  -1.619889e+03  -1.578862e+05   1.738812e+05   9.320444e+11   1.072749e+12   9.827535e+11   2.348731e+05   5.867967e-26   0.000000e+00   0.000000e+00
     3832000   3.831999e-07   4.225125e-02   1.448196e+01   1.970094e+01  -8.780860e+02  -1.570227e+05   1.746668e+05   9.224468e+11   1.086175e+12   9.810929e+11   2.348731e+05   5.883546e-26   0.000000e+00   0.000000e+00
     3840000   3.839999e-07   4.225085e-02   1.448184e+01   1.970108e+01  -1.440052e+02  -1.561484e+05   1.754510e+05   9.127378e+11   1.099560e+12   9.793409e+11   2.348731e+05   5.899282e-26   0.000000e+00   0.000000e+00
     3848000   3.847999e-07   4.225102e-02   1.448171e+01   1.970122e+01   5.822639e+02  -1.552634e+05   1.762337e+05   9.029177e+11   1.112904e+12   9.774969e+11   2.348731e+05   5.915173e-26   0.000000e+00   0.000000e+00
     3856000   3.855999e-07   4.225177e-02   1.448159e+01   1.970136e+01   1.300633e+03  -1.543677e+05   1.770149e+05   8.929868e+11   1.126206e+12   9.755601e+11   2.348731e+05   5.931224e-26   0.000000e+00   0.000000e+00
     3864000   3.863999e-07   4.225310e-02   1.448147e+01   1.970150e+01   2.011012e+03  -1.534615e+05   1.777946e+05   8.829454e+11   1.139463e+12   9.735299e+11   2.348731e+05   5.947433e-26   0.000000e+00   0.000000e+00
     3872000   3.871999e-07   4.225499e-02   1.448134e+01   1.970165e+01   2.713315e+03  -1.525446e+05   1.785725e+05   8.727939e+11   1.152674e+12   9.714058e+11   2.348731e+05   5.963803e-26   0.000000e+00   0.000000e+00
     3880000   3.879999e-07   4.225744e-02   1.448122e+01   1.970179e+01   3.407452e+03  -1.516172e+05   1.793488e+05   8.625325e+11   1.165839e+12   9.691872e+11   2.348731e+05   5.980334e-26   0.000000e+00   0.000000e+00
     3888000   3.887999e-07   4.226044e-02   1.448110e+01   1.970193e+01   4.093337e+03  -1.506793e+05   1.801232e+05   8.521617e+11   1.178956e+12   9.668733e+11   2.348731e+05   5.997029e-26   0.000000e+00   0.000000e+00
     3896000   3.895999e-07   4.226399e-02   1.448098e+01   1.970208e+01   4.770881e+03  -1.497309e+05   1.808958e+05   8.416818e+11   1.192023e+12   9.644636e+11   2.348731e+05   6.013887e-26   0.000000e+00   0.000000e+00
     3904000   3.903999e-07   4.226807e-02   1.448086e+01   1.970222e+01   5.439998e+03  -1.487721e+05   1.816663e+05   8.310932e+11   1.205039e+12   9.619575e+11   2.348731e+05   6.030910e-26   0.000000e+00   0.000000e+00
     3912000   3.911999e-07   4.227269e-02   1.448074e+01   1.970237e+01   6.100600e+03  -1.478028e+05   1.824349e+05   8.203963e+11   1.218003e+12   9.593544e+11   2.348731e+05   6.048099e-26   0.000000e+00   0.000000e+00
     3920000   3.919999e-07   4.227783e-02   1.448063e+01   1.970251e+01   6.752602e+03  -1.468233e+05   1.832013e+05   8.095915e+11   1.230913e+12   9.566536e+11   2.348731e+05   6.065455e-26   0.000000e+00   0.000000e+00
     3928000   3.927999e-07   4.228349e-02   1.448051e+01   1.970266e+01   7.395917e+03  -1.458334e+05   1.839655e+05   7.986793e+11   1.243768e+12   9.538545e+11   2.348731e+05   6.082979e-26   0.000000e+00   0.000000e+00
     3936000   3.935999e-07   4.228966e-02   1.448039e+01   1.970281e+01   8.030459e+03  -1.448332e+05   1.847274e+05   7.876600e+11   1.256567e+12   9.509566e+11   2.348731e+05   6.100672e-26   0.000000e+00   0.000000e+00
     3944000   3.943999e-07   4.229634e-02   1.448028e+01   1.970296e+01   8.656143e+03  -1.438229e+05   1.854870e+05   7.765342e+11   1.269308e+12   9.479593e+11   2.348731e+05   6.118535e-26   0.000000e+00   0.000000e+00
     3952000   3.951999e-07   4.230351e-02   1.448016e+01   1.970310e+01   9.272884e+03  -1.428024e+05   1.862441e+05   7.653022e+11   1.281990e+12   9.448619e+11   2.348731e+05   6.136568e-26   0.000000e+00   0.000000e+00
     3960000   3.959999e-07   4.231117e-02   1.448005e+01   1.970325e+01   9.880597e+03  -1.417717e+05   1.869987e+05   7.539647e+11   1.294611e+12   9.416640e+11   2.348731e+05   6.154774e-26   0.000000e+00   0.000000e+00
     3968000   3.967999e-07   4.231931e-02   1.447994e+01   1.970340e+01   1.047920e+04  -1.407310e+05   1.877508e+05   7.425220e+11   1.307171e+12   9.383648e+11   2.348731e+05   6.173152e-26   0.000000e+00   0.000000e+00
     3976000   3.975999e-07   4.232793e-02   1.447982e+01   1.970355e+01   1.106860e+04  -1.396803e+05   1.885001e+05   7.309747e+11   1.319666e+12   9.349638e+11   2.348731e+05   6.191704e-26   0.000000e+00   0.000000e+00
     3984000   3.983999e-07   4.233702e-02   1.447971e+01   1.970371e+01   1.164873e+04  -1.386196e+05   1.892467e+05   7.193233e+11   1.332097e+12   9.314605e+11   2.348731e+05   6.210429e-26   0.000000e+00   0.000000e+00
     3992000   3.991999e-07   4.234657e-02   1.447960e+01   1.970386e+01   1.221949e+04  -1.375489e+05   1.899904e+05   7.075684e+11   1.344461e+12   9.278542e+11   2.348731e+05   6.229330e-26   0.000000e+00   0.000000e+00
     4000000   3.999999e-07   4.235657e-02   1.447949e+01   1.970401e+01   1.278081e+04  -1.364684e+05   1.907312e+05   6.957104e+11   1.356758e+12   9.241445e+11   2.348731e+05   6.248407e-26   0.000000e+00   0.000000e+00
     4008000   4.007999e-07   4.236702e-02   1.447938e+01   1.970416e+01   1.333260e+04  -1.353781e+05   1.914690e+05   6.837500e+11   1.368985e+12   9.203307e+11   2.348731e+05   6.267661e-26   0.000000e+00   0.000000e+00
     4016000   4.015999e-07   4.237790e-02   1.447927e+01   1.970432e+01   1.387478e+04  -1.342781e+05   1.922037e+05   6.716877e+11   1.381142e+12   9.164123e+11   2.348731e+05   6.287091e-26   0.000000e+00   0.000000e+00
     4024000   4.023999e-07   4.238921e-02   1.447917e+01   1.970447e+01   1.440727e+04  -1.331683e+05   1.929352e+05   6.595242e+11   1.393226e+12   9.123887e+11   2.348731e+05   6.306700e-26   0.000000e+00   0.000000e+00
     4032000   4.031999e-07   4.240095e-02   1.447906e+01   1.970462e+01   1.492999e+04  -1.320489e+05   1.936635e+05   6.472600e+11   1.405237e+12   9.082595e+11   2.348731e+05   6.326487e-26   0.000000e+00   0.000000e+00
     4040000   4.039999e-07   4.241310e-02   1.447896e+01   1.970478e+01   1.544286e+04  -1.309200e+05   1.943884e+05   6.348958e+11   1.417172e+12   9.040240e+11   2.348731e+05   6.346453e-26   0.000000e+00   0.000000e+00
     4048000   4.047999e-07   4.242566e-02   1.447885e+01   1.970494e+01   1.594580e+04  -1.297815e+05   1.951099e+05   6.224321e+11   1.429031e+12   8.996818e+11   2.348731e+05   6.366600e-26   0.000000e+00   0.000000e+00
     4056000   4.055999e-07   4.243861e-02   1.447875e+01   1.970509e+01   1.643872e+04  -1.286335e+05   1.958279e+05   6.098698e+11   1.440811e+12   8.952324e+11   2.348731e+05   6.386926e-26   0.000000e+00   0.000000e+00
     4064000   4.063999e-07   4.245195e-02   1.447865e+01   1.970525e+01   1.692156e+04  -1.274762e+05   1.965423e+05   5.972094e+11   1.452512e+12   8.906751e+11   2.348731e+05   6.407434e-26   0.000000e+00   0.000000e+00
     4072000   4.071999e-07   4.246568e-02   1.447855e+01   1.970541e+01   1.739423e+04  -1.263095e+05   1.972529e+05   5.844515e+11   1.464131e+12   8.860095e+11   2.348731e+05   6.428122e-26   0.000000e+00   0.000000e+00
     4080000   4.079999e-07   4.247978e-02   1.447844e+01   1.970556e+01   1.785666e+04  -1.251336e+05   1.979598e+05   5.715970e+11   1.475668e+12   8.812352e+11   2.348731e+05   6.448993e-26   0.000000e+00   0.000000e+00
     4088000   4.087999e-07   4.249425e-02   1.447834e+01   1.970572e+01   1.830876e+04  -1.239485e+05   1.986629e+05   5.586466e+11   1.487120e+12   8.763516e+11   2.348731e+05   6.470045e-26   0.000000e+00   0.000000e+00
     4096000   4.095999e-07   4.250907e-02   1.447825e+01   1.970588e+01   1.875047e+04  -1.227542e+05   1.993620e+05   5.456009e+11   1.498487e+12   8.713582e+11   2.348731e+05   6.491281e-26   0.000000e+00   0.000000e+00
     4104000   4.103999e-07   4.252425e-02   1.447815e+01   1.970604e+01   1.918170e+04  -1.215509e+05   2.000570e+05   5.324607e+11   1.509766e+12   8.662545e+11   2.348731e+05   6.512699e-26   0.000000e+00   0.000000e+00
     4112000   4.111999e-07   4.253976e-02   1.447805e+01   1.970620e+01   1.960238e+04  -1.203386e+05   2.007480e+05   5.192267e+11   1.520956e+12   8.610402e+11   2.348731e+05   6.534300e-26   0.000000e+00   0.000000e+00
     4120000   4.119999e-07   4.255561e-02   1.447796e+01   1.970636e+01   2.001243e+04  -1.191174e+05   2.014347e+05   5.058998e+11   1.532056e+12   8.557147e+11   2.348731e+05   6.556085e-26   0.000000e+00   0.000000e+00
     4128000   4.127999e-07   4.257178e-02   1.447786e+01   1.970652e+01   2.041179e+04  -1.178874e+05   2.021171e+05   4.924808e+11   1.543063e+12   8.502775e+11   2.348731e+05   6.578054e-26   0.000000e+00   0.000000e+00
     4136000   4.135999e-07   4.258826e-02   1.447777e+01   1.970669e+01   2.080038e+04  -1.166485e+05   2.027951e+05   4.789704e+11   1.553977e+12   8.447284e+11   2.348731e+05   6.600206e-26   0.000000e+00   0.000000e+00
     4144000   4.143999e-07   4.260506e-02   1.447767e+01   1.970685e+01   2.117812e+04  -1.154010e+05   2.034686e+05   4.653695e+11   1.564796e+12   8.390667e+11   2.348731e+05   6.622543e-26   0.000000e+00   0.000000e+00
     4152000   4.151999e-07   4.262215e-02   1.447758e+01   1.970701e+01   2.154494e+04  -1.141449e+05   2.041376e+05   4.516789e+11   1.575517e+12   8.332921e+11   2.348731e+05   6.645064e-26   0.000000e+00   0.000000e+00
     4160000   4.159999e-07   4.263953e-02   1.447749e+01   1.970718e+01   2.190078e+04  -1.128802e+05   2.048018e+05   4.378995e+11   1.586141e+12   8.274043e+11   2.348731e+05   6.667769e-26   0.000000e+00   0.000000e+00
     4168000   4.167999e-07   4.265718e-02   1.447740e+01   1.970734e+01   2.224556e+04  -1.116071e+05   2.054614e+05   4.240322e+11   1.596664e+12   8.214027e+11   2.348731e+05   6.690659e-26   0.000000e+00   0.000000e+00
     4176000   4.175999e-07   4.267512e-02   1.447731e+01   1.970750e+01   2.257921e+04  -1.103256e+05   2.061161e+05   4.100778e+11   1.607085e+12   8.152870e+11   2.348731e+05   6.713733e-26   0.000000e+00   0.000000e+00
     4184000   4.183999e-07   4.269331e-02   1.447723e+01   1.970767e+01   2.290166e+04  -1.090358e+05   2.067658e+05   3.960373e+11   1.617403e+12   8.090569e+11   2.348731e+05   6.736991e-26   0.000000e+00   0.000000e+00
     4192000   4.191999e-07   4.271175e-02   1.447714e+01   1.970784e+01   2.321284e+04  -1.077378e+05   2.074105e+05   3.819115e+11   1.627617e+12   8.027119e+11   2.348731e+05   6.760433e-26   0.000000e+00   0.000000e+00
     4200000   4.199999e-07   4.273045e-02   1.447705e+01   1.970800e+01   2.351269e+04  -1.064316e+05   2.080501e+05   3.677014e+11   1.637723e+12   7.962517e+11   2.348731e+05   6.784060e-26   0.000000e+00   0.000000e+00
     4208000   4.207999e-07   4.274937e-02   1.447697e+01   1.970817e+01   2.380114e+04  -1.051174e+05   2.086845e+05   3.534081e+11   1.647722e+12   7.896760e+11   2.348731e+05   6.807871e-26   0.000000e+00   0.000000e+00
     4216000   4.215999e-07   4.276852e-02   1.447689e+01   1.970834e+01   2.407812e+04  -1.037953e+05   2.093136e+05   3.390324e+11   1.657610e+12   7.829844e+11   2.348731e+05   6.831866e-26   0.000000e+00   0.000000e+00
     4224000   4.223999e-07   4.278789e-02   1.447680e+01   1.970850e+01   2.434357e+04  -1.024653e+05   2.099372e+05   3.245753e+11   1.667387e+12   7.761766e+11   2.348731e+05   6.856044e-26   0.000000e+00   0.000000e+00
     4232000   4.231999e-07   4.280747e-02   1.447672e+01   1.970867e+01   2.459742e+04  -1.011275e+05   2.105554e+05   3.100379e+11   1.677051e+12   7.692524e+11   2.348731e+05   6.880406e-26   0.000000e+00   0.000000e+00
     4240000   4.239999e-07   4.282725e-02   1.447664e+01   1.970884e+01   2.483961e+04  -9.978204e+04   2.111680e+05   2.954212e+11   1.686600e+12   7.622114e+11   2.348731e+05   6.904951e-26   0.000000e+00   0.000000e+00
     4248000   4.247999e-07   4.284721e-02   1.447656e+01   1.970901e+01   2.507007e+04  -9.842898e+04   2.117749e+05   2.807262e+11   1.696033e+12   7.550533e+11   2.348731e+05   6.929678e-26   0.000000e+00   0.000000e+00
     4256000   4.255999e-07   4.286736e-02   1.447648e+01   1.970918e+01   2.528875e+04  -9.706842e+04   2.123761e+05   2.659540e+11   1.705348e+12   7.477779e+11   2.348731e+05   6.954588e-26   0.000000e+00   0.000000e+00
     4264000   4.263999e-07   4.288767e-02   1.447641e+01   1.970935e+01   2.549557e+04  -9.570046e+04   2.129713e+05   2.511056e+11   1.714542e+12   7.403849e+11   2.348731e+05   6.979680e-26   0.000000e+00   0.000000e+00
     4272000   4.271999e-07   4.290815e-02   1.447633e+01   1.970952e+01   2.569049e+04  -9.432519e+04   2.135606e+05   2.361822e+11   1.723615e+12   7.328741e+11   2.348731e+05   7.004953e-26   0.000000e+00   0.000000e+00
     4280000   4.279999e-07   4.292877e-02   1.447626e+01   1.970969e+01   2.587344e+04  -9.294270e+04   2.141439e+05   2.211848e+11   1.732565e+12   7.252454e+11   2.348731e+05   7.030408e-26   0.000000e+00   0.000000e+00
     4288000   4.287999e-07   4.294954e-02   1.447618e+01   1.970986e+01   2.604437e+04  -9.155311e+04   2.147210e+05   2.061147e+11   1.741391e+12   7.174983e+11   2.348731e+05   7.056042e-26   0.000000e+00   0.000000e+00
