     timestep     time              x             y              z              vx             vy             vz             ax             ay             az         v_magnitude      ELoss        Electronic      Nuclear
           0   0.000000e+00   1.000000e-01   6.383619e+00   1.636351e+01   1.385467e+05  -9.052168e+04   1.051720e+05   0.000000e+00   0.000000e+00   0.000000e+00   1.960880e+05   0.000000e+00   0.000000e+00   0.000000e+00
        8000   7.999000e-10   1.001109e-01   6.383547e+00   1.636359e+01   1.385862e+05  -9.045521e+04   1.051771e+05   4.940410e+10   8.310754e+10   6.377669e+09   1.960880e+05   1.286240e-28   0.000000e+00   0.000000e+00
       16000   1.599900e-09   1.002217e-01   6.383474e+00   1.636368e+01   1.386257e+05  -9.038871e+04   1.051822e+05   4.936503e+10   8.313371e+10   6.380234e+09   1.960880e+05   1.286312e-28   0.000000e+00   0.000000e+00
       24000   2.399900e-09   1.003327e-01   6.383402e+00   1.636376e+01   1.386652e+05  -9.032219e+04   1.051873e+05   4.932595e+10   8.315986e+10   6.382797e+09   1.960880e+05   1.286384e-28   0.000000e+00   0.000000e+00
       32000   3.199900e-09   1.004436e-01   6.383330e+00   1.636385e+01   1.387046e+05  -9.025565e+04   1.051924e+05   4.928686e+10   8.318599e+10   6.385358e+09   1.960880e+05   1.286455e-28   0.000000e+00   0.000000e+00
       40000   3.999900e-09   1.005546e-01   6.383258e+00   1.636393e+01   1.387441e+05  -9.018909e+04   1.051975e+05   4.924775e+10   8.321211e+10   6.387918e+09   1.960880e+05   1.286527e-28   0.000000e+00   0.000000e+00
       48000   4.799900e-09   1.006656e-01   6.383185e+00   1.636401e+01   1.387834e+05  -9.012251e+04   1.052026e+05   4.920863e+10   8.323821e+10   6.390476e+09   1.960880e+05   1.286599e-28   0.000000e+00   0.000000e+00
       56000   5.599900e-09   1.007766e-01   6.383113e+00   1.636410e+01   1.388228e+05  -9.005591e+04   1.052077e+05   4.916950e+10   8.326429e+10   6.393032e+09   1.960880e+05   1.286671e-28   0.000000e+00   0.000000e+00
       64000   6.399900e-09   1.008877e-01   6.383041e+00   1.636418e+01   1.388621e+05  -8.998929e+04   1.052128e+05   4.913035e+10   8.329036e+10   6.395587e+09   1.960880e+05   1.286744e-28   0.000000e+00   0.000000e+00
       72000   7.199900e-09   1.009988e-01   6.382969e+00   1.636427e+01   1.389014e+05  -8.992265e+04   1.052179e+05   4.909119e+10   8.331641e+10   6.398139e+09   1.960880e+05   1.286816e-28   0.000000e+00   0.000000e+00
       80000   7.999900e-09   1.011100e-01   6.382897e+00   1.636435e+01   1.389407e+05  -8.985598e+04   1.052231e+05   4.905201e+10   8.334245e+10   6.400690e+09   1.960880e+05   1.286888e-28   0.000000e+00   0.000000e+00
       88000   8.799900e-09   1.012211e-01   6.382826e+00   1.636443e+01   1.389799e+05  -8.978930e+04   1.052282e+05   4.901282e+10   8.336847e+10   6.403239e+09   1.960880e+05   1.286960e-28   0.000000e+00   0.000000e+00
       96000   9.599900e-09   1.013323e-01   6.382754e+00   1.636452e+01   1.390191e+05  -8.972260e+04   1.052333e+05   4.897362e+10   8.339447e+10   6.405787e+09   1.960880e+05   1.287033e-28   0.000000e+00   0.000000e+00
      104000   1.039990e-08   1.014436e-01   6.382682e+00   1.636460e+01   1.390582e+05  -8.965587e+04   1.052384e+05   4.893441e+10   8.342046e+10   6.408332e+09   1.960880e+05   1.287105e-28   0.000000e+00   0.000000e+00
      112000   1.119990e-08   1.015548e-01   6.382610e+00   1.636469e+01   1.390974e+05  -8.958912e+04   1.052436e+05   4.889518e+10   8.344644e+10   6.410876e+09   1.960880e+05   1.287177e-28   0.000000e+00   0.000000e+00
      120000   1.199990e-08   1.016661e-01   6.382539e+00   1.636477e+01   1.391365e+05  -8.952235e+04   1.052487e+05   4.885594e+10   8.347239e+10   6.413418e+09   1.960880e+05   1.287250e-28   0.000000e+00   0.000000e+00
      128000   1.279990e-08   1.017774e-01   6.382467e+00   1.636486e+01   1.391755e+05  -8.945557e+04   1.052538e+05   4.881668e+10   8.349833e+10   6.415958e+09   1.960880e+05   1.287322e-28   0.000000e+00   0.000000e+00
      136000   1.359990e-08   1.018888e-01   6.382396e+00   1.636494e+01   1.392146e+05  -8.938876e+04   1.052590e+05   4.877741e+10   8.352426e+10   6.418496e+09   1.960880e+05   1.287395e-28   0.000000e+00   0.000000e+00
      144000   1.439990e-08   1.020002e-01   6.382324e+00   1.636502e+01   1.392536e+05  -8.932193e+04   1.052641e+05   4.873813e+10   8.355016e+10   6.421033e+09   1.960880e+05   1.287468e-28   0.000000e+00   0.000000e+00
      152000   1.519990e-08   1.021116e-01   6.382253e+00   1.636511e+01   1.392926e+05  -8.925508e+04   1.052692e+05   4.869883e+10   8.357606e+10   6.423568e+09   1.960880e+05   1.287540e-28   0.000000e+00   0.000000e+00
      160000   1.599990e-08   1.022230e-01   6.382181e+00   1.636519e+01   1.393315e+05  -8.918821e+04   1.052744e+05   4.865952e+10   8.360193e+10   6.426101e+09   1.960880e+05   1.287613e-28   0.000000e+00   0.000000e+00
      168000   1.679990e-08   1.023345e-01   6.382110e+00   1.636528e+01   1.393704e+05  -8.912131e+04   1.052795e+05   4.862019e+10   8.362779e+10   6.428632e+09   1.960880e+05   1.287686e-28   0.000000e+00   0.000000e+00
      176000   1.759990e-08   1.024460e-01   6.382039e+00   1.636536e+01   1.394093e+05  -8.905440e+04   1.052847e+05   4.858086e+10   8.365364e+10   6.431161e+09   1.960880e+05   1.287759e-28   0.000000e+00   0.000000e+00
      184000   1.839990e-08   1.025576e-01   6.381967e+00   1.636545e+01   1.394481e+05  -8.898747e+04   1.052898e+05   4.854151e+10   8.367946e+10   6.433688e+09   1.960880e+05   1.287832e-28   0.000000e+00   0.000000e+00
      192000   1.919990e-08   1.026692e-01   6.381896e+00   1.636553e+01   1.394870e+05  -8.892051e+04   1.052949e+05   4.850214e+10   8.370527e+10   6.436214e+09   1.960880e+05   1.287905e-28   0.000000e+00   0.000000e+00
      200000   1.999990e-08   1.027808e-01   6.381825e+00   1.636561e+01   1.395257e+05  -8.885354e+04   1.053001e+05   4.846276e+10   8.373107e+10   6.438738e+09   1.960880e+05   1.287978e-28   0.000000e+00   0.000000e+00
      208000   2.079990e-08   1.028924e-01   6.381754e+00   1.636570e+01   1.395645e+05  -8.878654e+04   1.053052e+05   4.842337e+10   8.375685e+10   6.441260e+09   1.960880e+05   1.288051e-28   0.000000e+00   0.000000e+00
      216000   2.159990e-08   1.030041e-01   6.381683e+00   1.636578e+01   1.396032e+05  -8.871953e+04   1.053104e+05   4.838397e+10   8.378261e+10   6.443780e+09   1.960880e+05   1.288124e-28   0.000000e+00   0.000000e+00
      224000   2.239990e-08   1.031158e-01   6.381612e+00   1.636587e+01   1.396419e+05  -8.865249e+04   1.053156e+05   4.834455e+10   8.380836e+10   6.446298e+09   1.960880e+05   1.288197e-28   0.000000e+00   0.000000e+00
      232000   2.319990e-08   1.032275e-01   6.381541e+00   1.636595e+01   1.396806e+05  -8.858544e+04   1.053207e+05   4.830512e+10   8.383409e+10   6.448815e+09   1.960880e+05   1.288271e-28   0.000000e+00   0.000000e+00
      240000   2.399990e-08   1.033392e-01   6.381470e+00   1.636603e+01   1.397192e+05  -8.851836e+04   1.053259e+05   4.826567e+10   8.385980e+10   6.451329e+09   1.960880e+05   1.288344e-28   0.000000e+00   0.000000e+00
      248000   2.479990e-08   1.034510e-01   6.381400e+00   1.636612e+01   1.397578e+05  -8.845126e+04   1.053310e+05   4.822621e+10   8.388550e+10   6.453842e+09   1.960880e+05   1.288417e-28   0.000000e+00   0.000000e+00
      256000   2.559990e-08   1.035629e-01   6.381329e+00   1.636620e+01   1.397964e+05  -8.838414e+04   1.053362e+05   4.818674e+10   8.391118e+10   6.456353e+09   1.960880e+05   1.288491e-28   0.000000e+00   0.000000e+00
      264000   2.639990e-08   1.036747e-01   6.381258e+00   1.636629e+01   1.398349e+05  -8.831700e+04   1.053414e+05   4.814725e+10   8.393685e+10   6.458862e+09   1.960880e+05   1.288564e-28   0.000000e+00   0.000000e+00
      272000   2.719990e-08   1.037866e-01   6.381188e+00   1.636637e+01   1.398734e+05  -8.824984e+04   1.053465e+05   4.810775e+10   8.396250e+10   6.461369e+09   1.960880e+05   1.288638e-28   0.000000e+00   0.000000e+00
      280000   2.799990e-08   1.038985e-01   6.381117e+00   1.636646e+01   1.399119e+05  -8.818266e+04   1.053517e+05   4.806824e+10   8.398813e+10   6.463874e+09   1.960880e+05   1.288712e-28   0.000000e+00   0.000000e+00
      288000   2.879990e-08   1.040105e-01   6.381047e+00   1.636654e+01   1.399503e+05  -8.811546e+04   1.053569e+05   4.802872e+10   8.401374e+10   6.466378e+09   1.960880e+05   1.288785e-28   0.000000e+00   0.000000e+00
      296000   2.959990e-08   1.041224e-01   6.380976e+00   1.636662e+01   1.399887e+05  -8.804824e+04   1.053621e+05   4.798918e+10   8.403935e+10   6.468879e+09   1.960880e+05   1.288859e-28   0.000000e+00   0.000000e+00
      304000   3.039990e-08   1.042344e-01   6.380906e+00   1.636671e+01   1.400271e+05  -8.798100e+04   1.053672e+05   4.794962e+10   8.406493e+10   6.471379e+09   1.960880e+05   1.288933e-28   0.000000e+00   0.000000e+00
      312000   3.119990e-08   1.043465e-01   6.380835e+00   1.636679e+01   1.400654e+05  -8.791374e+04   1.053724e+05   4.791006e+10   8.409050e+10   6.473877e+09   1.960880e+05   1.289007e-28   0.000000e+00   0.000000e+00
      320000   3.199990e-08   1.044585e-01   6.380765e+00   1.636688e+01   1.401037e+05  -8.784645e+04   1.053776e+05   4.787048e+10   8.411605e+10   6.476373e+09   1.960880e+05   1.289080e-28   0.000000e+00   0.000000e+00
      328000   3.279990e-08   1.045706e-01   6.380695e+00   1.636696e+01   1.401420e+05  -8.777915e+04   1.053828e+05   4.783088e+10   8.414158e+10   6.478867e+09   1.960880e+05   1.289154e-28   0.000000e+00   0.000000e+00
      336000   3.359990e-08   1.046828e-01   6.380625e+00   1.636705e+01   1.401803e+05  -8.771183e+04   1.053880e+05   4.779128e+10   8.416710e+10   6.481359e+09   1.960880e+05   1.289228e-28   0.000000e+00   0.000000e+00
      344000   3.439990e-08   1.047949e-01   6.380554e+00   1.636713e+01   1.402185e+05  -8.764448e+04   1.053931e+05   4.775166e+10   8.419261e+10   6.483849e+09   1.960880e+05   1.289302e-28   0.000000e+00   0.000000e+00
      352000   3.519990e-08   1.049071e-01   6.380484e+00   1.636722e+01   1.402567e+05  -8.757712e+04   1.053983e+05   4.771202e+10   8.421809e+10   6.486337e+09   1.960880e+05   1.289377e-28   0.000000e+00   0.000000e+00
      360000   3.599990e-08   1.050193e-01   6.380414e+00   1.636730e+01   1.402948e+05  -8.750973e+04   1.054035e+05   4.767238e+10   8.424356e+10   6.488824e+09   1.960880e+05   1.289451e-28   0.000000e+00   0.000000e+00
      368000   3.679990e-08   1.051316e-01   6.380344e+00   1.636738e+01   1.403330e+05  -8.744233e+04   1.054087e+05   4.763272e+10   8.426902e+10   6.491308e+09   1.960880e+05   1.289525e-28   0.000000e+00   0.000000e+00
      376000   3.759990e-08   1.052439e-01   6.380274e+00   1.636747e+01   1.403710e+05  -8.737490e+04   1.054139e+05   4.759304e+10   8.429446e+10   6.493791e+09   1.960880e+05   1.289599e-28   0.000000e+00   0.000000e+00
      384000   3.839990e-08   1.053562e-01   6.380205e+00   1.636755e+01   1.404091e+05  -8.730746e+04   1.054191e+05   4.755336e+10   8.431988e+10   6.496271e+09   1.960880e+05   1.289674e-28   0.000000e+00   0.000000e+00
      392000   3.919990e-08   1.054685e-01   6.380135e+00   1.636764e+01   1.404471e+05  -8.723999e+04   1.054243e+05   4.751366e+10   8.434528e+10   6.498750e+09   1.960880e+05   1.289748e-28   0.000000e+00   0.000000e+00
      400000   3.999990e-08   1.055809e-01   6.380065e+00   1.636772e+01   1.404851e+05  -8.717251e+04   1.054295e+05   4.747394e+10   8.437067e+10   6.501227e+09   1.960880e+05   1.289822e-28   0.000000e+00   0.000000e+00
      408000   4.079990e-08   1.056933e-01   6.379995e+00   1.636781e+01   1.405231e+05  -8.710500e+04   1.054347e+05   4.743422e+10   8.439604e+10   6.503702e+09   1.960880e+05   1.289897e-28   0.000000e+00   0.000000e+00
      416000   4.159990e-08   1.058057e-01   6.379926e+00   1.636789e+01   1.405610e+05  -8.703747e+04   1.054399e+05   4.739447e+10   8.442140e+10   6.506175e+09   1.960880e+05   1.289971e-28   0.000000e+00   0.000000e+00
      424000   4.239990e-08   1.059182e-01   6.379856e+00   1.636797e+01   1.405989e+05  -8.696992e+04   1.054451e+05   4.735472e+10   8.444674e+10   6.508646e+09   1.960880e+05   1.290046e-28   0.000000e+00   0.000000e+00
      432000   4.319990e-08   1.060307e-01   6.379786e+00   1.636806e+01   1.406368e+05  -8.690236e+04   1.054503e+05   4.731495e+10   8.447206e+10   6.511115e+09   1.960880e+05   1.290121e-28   0.000000e+00   0.000000e+00
      440000   4.399990e-08   1.061432e-01   6.379717e+00   1.636814e+01   1.406746e+05  -8.683477e+04   1.054555e+05   4.727517e+10   8.449737e+10   6.513582e+09   1.960880e+05   1.290195e-28   0.000000e+00   0.000000e+00
      448000   4.479990e-08   1.062558e-01   6.379647e+00   1.636823e+01   1.407124e+05  -8.676716e+04   1.054607e+05   4.723538e+10   8.452266e+10   6.516047e+09   1.960880e+05   1.290270e-28   0.000000e+00   0.000000e+00
      456000   4.559990e-08   1.063684e-01   6.379578e+00   1.636831e+01   1.407502e+05  -8.669953e+04   1.054660e+05   4.719557e+10   8.454793e+10   6.518511e+09   1.960880e+05   1.290345e-28   0.000000e+00   0.000000e+00
      464000   4.639990e-08   1.064810e-01   6.379509e+00   1.636840e+01   1.407879e+05  -8.663188e+04   1.054712e+05   4.715575e+10   8.457319e+10   6.520972e+09   1.960880e+05   1.290420e-28   0.000000e+00   0.000000e+00
      472000   4.719990e-08   1.065936e-01   6.379439e+00   1.636848e+01   1.408256e+05  -8.656422e+04   1.054764e+05   4.711592e+10   8.459843e+10   6.523431e+09   1.960880e+05   1.290495e-28   0.000000e+00   0.000000e+00
      480000   4.799990e-08   1.067063e-01   6.379370e+00   1.636856e+01   1.408633e+05  -8.649653e+04   1.054816e+05   4.707607e+10   8.462366e+10   6.525889e+09   1.960880e+05   1.290570e-28   0.000000e+00   0.000000e+00
      488000   4.879990e-08   1.068190e-01   6.379301e+00   1.636865e+01   1.409010e+05  -8.642882e+04   1.054868e+05   4.703621e+10   8.464887e+10   6.528344e+09   1.960880e+05   1.290645e-28   0.000000e+00   0.000000e+00
      496000   4.959990e-08   1.069317e-01   6.379232e+00   1.636873e+01   1.409386e+05  -8.636109e+04   1.054921e+05   4.699634e+10   8.467406e+10   6.530797e+09   1.960880e+05   1.290720e-28   0.000000e+00   0.000000e+00
      504000   5.039990e-08   1.070445e-01   6.379163e+00   1.636882e+01   1.409762e+05  -8.629334e+04   1.054973e+05   4.695645e+10   8.469923e+10   6.533249e+09   1.960880e+05   1.290795e-28   0.000000e+00   0.000000e+00
      512000   5.119990e-08   1.071573e-01   6.379094e+00   1.636890e+01   1.410137e+05  -8.622557e+04   1.055025e+05   4.691655e+10   8.472439e+10   6.535698e+09   1.960880e+05   1.290870e-28   0.000000e+00   0.000000e+00
      520000   5.199990e-08   1.072701e-01   6.379025e+00   1.636899e+01   1.410512e+05  -8.615778e+04   1.055077e+05   4.687664e+10   8.474954e+10   6.538146e+09   1.960880e+05   1.290946e-28   0.000000e+00   0.000000e+00
      528000   5.279990e-08   1.073830e-01   6.378956e+00   1.636907e+01   1.410887e+05  -8.608997e+04   1.055130e+05   4.683672e+10   8.477466e+10   6.540591e+09   1.960880e+05   1.291021e-28   0.000000e+00   0.000000e+00
      536000   5.359990e-08   1.074959e-01   6.378887e+00   1.636916e+01   1.411262e+05  -8.602214e+04   1.055182e+05   4.679678e+10   8.479977e+10   6.543035e+09   1.960880e+05   1.291097e-28   0.000000e+00   0.000000e+00
      544000   5.439990e-08   1.076088e-01   6.378818e+00   1.636924e+01   1.411636e+05  -8.595429e+04   1.055234e+05   4.675682e+10   8.482487e+10   6.545477e+09   1.960880e+05   1.291172e-28   0.000000e+00   0.000000e+00
      552000   5.519990e-08   1.077217e-01   6.378750e+00   1.636932e+01   1.412010e+05  -8.588642e+04   1.055287e+05   4.671686e+10   8.484994e+10   6.547916e+09   1.960880e+05   1.291247e-28   0.000000e+00   0.000000e+00
      560000   5.599990e-08   1.078347e-01   6.378681e+00   1.636941e+01   1.412383e+05  -8.581853e+04   1.055339e+05   4.667688e+10   8.487500e+10   6.550354e+09   1.960880e+05   1.291323e-28   0.000000e+00   0.000000e+00
      568000   5.679990e-08   1.079477e-01   6.378612e+00   1.636949e+01   1.412757e+05  -8.575062e+04   1.055392e+05   4.663689e+10   8.490005e+10   6.552789e+09   1.960880e+05   1.291399e-28   0.000000e+00   0.000000e+00
      576000   5.759990e-08   1.080607e-01   6.378544e+00   1.636958e+01   1.413130e+05  -8.568269e+04   1.055444e+05   4.659688e+10   8.492508e+10   6.555223e+09   1.960880e+05   1.291474e-28   0.000000e+00   0.000000e+00
      584000   5.839990e-08   1.081738e-01   6.378475e+00   1.636966e+01   1.413502e+05  -8.561474e+04   1.055496e+05   4.655686e+10   8.495009e+10   6.557654e+09   1.960880e+05   1.291550e-28   0.000000e+00   0.000000e+00
      592000   5.919990e-08   1.082869e-01   6.378407e+00   1.636975e+01   1.413874e+05  -8.554677e+04   1.055549e+05   4.651683e+10   8.497508e+10   6.560084e+09   1.960880e+05   1.291626e-28   0.000000e+00   0.000000e+00
      600000   5.999990e-08   1.084000e-01   6.378338e+00   1.636983e+01   1.414246e+05  -8.547878e+04   1.055601e+05   4.647679e+10   8.500006e+10   6.562512e+09   1.960880e+05   1.291702e-28   0.000000e+00   0.000000e+00
      608000   6.079990e-08   1.085132e-01   6.378270e+00   1.636992e+01   1.414618e+05  -8.541077e+04   1.055654e+05   4.643673e+10   8.502502e+10   6.564937e+09   1.960880e+05   1.291778e-28   0.000000e+00   0.000000e+00
      616000   6.159990e-08   1.086264e-01   6.378202e+00   1.637000e+01   1.414989e+05  -8.534274e+04   1.055706e+05   4.639666e+10   8.504997e+10   6.567360e+09   1.960880e+05   1.291854e-28   0.000000e+00   0.000000e+00
      624000   6.239990e-08   1.087396e-01   6.378134e+00   1.637008e+01   1.415360e+05  -8.527469e+04   1.055759e+05   4.635657e+10   8.507489e+10   6.569782e+09   1.960880e+05   1.291930e-28   0.000000e+00   0.000000e+00
      632000   6.319990e-08   1.088528e-01   6.378065e+00   1.637017e+01   1.415731e+05  -8.520662e+04   1.055812e+05   4.631647e+10   8.509981e+10   6.572201e+09   1.960880e+05   1.292006e-28   0.000000e+00   0.000000e+00
      640000   6.399990e-08   1.089661e-01   6.377997e+00   1.637025e+01   1.416102e+05  -8.513853e+04   1.055864e+05   4.627636e+10   8.512470e+10   6.574619e+09   1.960880e+05   1.292082e-28   0.000000e+00   0.000000e+00
      648000   6.479990e-08   1.090794e-01   6.377929e+00   1.637034e+01   1.416472e+05  -8.507042e+04   1.055917e+05   4.623624e+10   8.514958e+10   6.577034e+09   1.960880e+05   1.292158e-28   0.000000e+00   0.000000e+00
      656000   6.559990e-08   1.091927e-01   6.377861e+00   1.637042e+01   1.416841e+05  -8.500229e+04   1.055969e+05   4.619610e+10   8.517444e+10   6.579447e+09   1.960880e+05   1.292234e-28   0.000000e+00   0.000000e+00
      664000   6.639990e-08   1.093061e-01   6.377793e+00   1.637051e+01   1.417211e+05  -8.493414e+04   1.056022e+05   4.615595e+10   8.519929e+10   6.581859e+09   1.960880e+05   1.292310e-28   0.000000e+00   0.000000e+00
      672000   6.719990e-08   1.094195e-01   6.377725e+00   1.637059e+01   1.417580e+05  -8.486597e+04   1.056075e+05   4.611579e+10   8.522412e+10   6.584268e+09   1.960880e+05   1.292387e-28   0.000000e+00   0.000000e+00
      680000   6.799990e-08   1.095329e-01   6.377657e+00   1.637068e+01   1.417949e+05  -8.479778e+04   1.056127e+05   4.607561e+10   8.524893e+10   6.586675e+09   1.960880e+05   1.292463e-28   0.000000e+00   0.000000e+00
      688000   6.879990e-08   1.096464e-01   6.377589e+00   1.637076e+01   1.418317e+05  -8.472957e+04   1.056180e+05   4.603542e+10   8.527373e+10   6.589080e+09   1.960880e+05   1.292540e-28   0.000000e+00   0.000000e+00
      696000   6.959990e-08   1.097598e-01   6.377522e+00   1.637084e+01   1.418685e+05  -8.466135e+04   1.056233e+05   4.599522e+10   8.529851e+10   6.591483e+09   1.960880e+05   1.292616e-28   0.000000e+00   0.000000e+00
      704000   7.039990e-08   1.098733e-01   6.377454e+00   1.637093e+01   1.419053e+05  -8.459310e+04   1.056286e+05   4.595500e+10   8.532327e+10   6.593884e+09   1.960880e+05   1.292693e-28   0.000000e+00   0.000000e+00
      712000   7.119990e-08   1.099869e-01   6.377386e+00   1.637101e+01   1.419420e+05  -8.452483e+04   1.056338e+05   4.591477e+10   8.534802e+10   6.596283e+09   1.960880e+05   1.292769e-28   0.000000e+00   0.000000e+00
      720000   7.199990e-08   1.101005e-01   6.377319e+00   1.637110e+01   1.419788e+05  -8.445654e+04   1.056391e+05   4.587453e+10   8.537275e+10   6.598680e+09   1.960880e+05   1.292846e-28   0.000000e+00   0.000000e+00
      728000   7.279990e-08   1.102141e-01   6.377251e+00   1.637118e+01   1.420154e+05  -8.438823e+04   1.056444e+05   4.583428e+10   8.539746e+10   6.601075e+09   1.960880e+05   1.292923e-28   0.000000e+00   0.000000e+00
      736000   7.359990e-08   1.103277e-01   6.377184e+00   1.637127e+01   1.420521e+05  -8.431990e+04   1.056497e+05   4.579401e+10   8.542216e+10   6.603467e+09   1.960880e+05   1.293000e-28   0.000000e+00   0.000000e+00
      744000   7.439990e-08   1.104413e-01   6.377116e+00   1.637135e+01   1.420887e+05  -8.425156e+04   1.056550e+05   4.575373e+10   8.544684e+10   6.605858e+09   1.960880e+05   1.293076e-28   0.000000e+00   0.000000e+00
      752000   7.519990e-08   1.105550e-01   6.377049e+00   1.637144e+01   1.421253e+05  -8.418319e+04   1.056602e+05   4.571343e+10   8.547150e+10   6.608247e+09   1.960880e+05   1.293153e-28   0.000000e+00   0.000000e+00
      760000   7.599990e-08   1.106687e-01   6.376982e+00   1.637152e+01   1.421618e+05  -8.411480e+04   1.056655e+05   4.567313e+10   8.549615e+10   6.610633e+09   1.960880e+05   1.293230e-28   0.000000e+00   0.000000e+00
      768000   7.679990e-08   1.107825e-01   6.376914e+00   1.637161e+01   1.421984e+05  -8.404640e+04   1.056708e+05   4.563281e+10   8.552078e+10   6.613017e+09   1.960880e+05   1.293307e-28   0.000000e+00   0.000000e+00
      776000   7.759990e-08   1.108963e-01   6.376847e+00   1.637169e+01   1.422349e+05  -8.397797e+04   1.056761e+05   4.559247e+10   8.554539e+10   6.615399e+09   1.960880e+05   1.293384e-28   0.000000e+00   0.000000e+00
      784000   7.839990e-08   1.110101e-01   6.376780e+00   1.637177e+01   1.422713e+05  -8.390952e+04   1.056814e+05   4.555213e+10   8.556999e+10   6.617780e+09   1.960880e+05   1.293462e-28   0.000000e+00   0.000000e+00
      792000   7.919990e-08   1.111239e-01   6.376713e+00   1.637186e+01   1.423077e+05  -8.384106e+04   1.056867e+05   4.551177e+10   8.559457e+10   6.620158e+09   1.960880e+05   1.293539e-28   0.000000e+00   0.000000e+00
      800000   7.999990e-08   1.112378e-01   6.376646e+00   1.637194e+01   1.423441e+05  -8.377257e+04   1.056920e+05   4.547140e+10   8.561913e+10   6.622534e+09   1.960880e+05   1.293616e-28   0.000000e+00   0.000000e+00
      808000   8.079990e-08   1.113516e-01   6.376579e+00   1.637203e+01   1.423805e+05  -8.370407e+04   1.056973e+05   4.543101e+10   8.564368e+10   6.624907e+09   1.960880e+05   1.293693e-28   0.000000e+00   0.000000e+00
      816000   8.159990e-08   1.114656e-01   6.376512e+00   1.637211e+01   1.424168e+05  -8.363554e+04   1.057026e+05   4.539061e+10   8.566820e+10   6.627279e+09   1.960880e+05   1.293771e-28   0.000000e+00   0.000000e+00
      824000   8.239990e-08   1.115795e-01   6.376445e+00   1.637220e+01   1.424531e+05  -8.356700e+04   1.057079e+05   4.535020e+10   8.569272e+10   6.629649e+09   1.960880e+05   1.293848e-28   0.000000e+00   0.000000e+00
      832000   8.319990e-08   1.116935e-01   6.376378e+00   1.637228e+01   1.424894e+05  -8.349843e+04   1.057132e+05   4.530978e+10   8.571721e+10   6.632016e+09   1.960880e+05   1.293926e-28   0.000000e+00   0.000000e+00
      840000   8.399990e-08   1.118075e-01   6.376311e+00   1.637237e+01   1.425256e+05  -8.342985e+04   1.057185e+05   4.526934e+10   8.574169e+10   6.634381e+09   1.960880e+05   1.294003e-28   0.000000e+00   0.000000e+00
      848000   8.479990e-08   1.119215e-01   6.376245e+00   1.637245e+01   1.425618e+05  -8.336125e+04   1.057238e+05   4.522889e+10   8.576616e+10   6.636745e+09   1.960880e+05   1.294081e-28   0.000000e+00   0.000000e+00
      856000   8.559990e-08   1.120356e-01   6.376178e+00   1.637254e+01   1.425980e+05  -8.329262e+04   1.057291e+05   4.518843e+10   8.579060e+10   6.639106e+09   1.960880e+05   1.294158e-28   0.000000e+00   0.000000e+00
      864000   8.639990e-08   1.121497e-01   6.376111e+00   1.637262e+01   1.426341e+05  -8.322398e+04   1.057344e+05   4.514795e+10   8.581503e+10   6.641464e+09   1.960880e+05   1.294236e-28   0.000000e+00   0.000000e+00
      872000   8.719990e-08   1.122638e-01   6.376045e+00   1.637270e+01   1.426702e+05  -8.315532e+04   1.057398e+05   4.510746e+10   8.583945e+10   6.643821e+09   1.960880e+05   1.294314e-28   0.000000e+00   0.000000e+00
      880000   8.799990e-08   1.123780e-01   6.375978e+00   1.637279e+01   1.427063e+05  -8.308664e+04   1.057451e+05   4.506696e+10   8.586384e+10   6.646176e+09   1.960880e+05   1.294392e-28   0.000000e+00   0.000000e+00
      888000   8.879990e-08   1.124921e-01   6.375912e+00   1.637287e+01   1.427423e+05  -8.301794e+04   1.057504e+05   4.502644e+10   8.588822e+10   6.648528e+09   1.960880e+05   1.294469e-28   0.000000e+00   0.000000e+00
      896000   8.959990e-08   1.126063e-01   6.375846e+00   1.637296e+01   1.427783e+05  -8.294922e+04   1.057557e+05   4.498592e+10   8.591258e+10   6.650879e+09   1.960880e+05   1.294547e-28   0.000000e+00   0.000000e+00
      904000   9.039990e-08   1.127206e-01   6.375779e+00   1.637304e+01   1.428143e+05  -8.288048e+04   1.057610e+05   4.494538e+10   8.593693e+10   6.653227e+09   1.960880e+05   1.294625e-28   0.000000e+00   0.000000e+00
      912000   9.119990e-08   1.128348e-01   6.375713e+00   1.637313e+01   1.428502e+05  -8.281172e+04   1.057663e+05   4.490482e+10   8.596126e+10   6.655573e+09   1.960880e+05   1.294703e-28   0.000000e+00   0.000000e+00
      920000   9.199990e-08   1.129491e-01   6.375647e+00   1.637321e+01   1.428862e+05  -8.274294e+04   1.057717e+05   4.486426e+10   8.598557e+10   6.657917e+09   1.960880e+05   1.294782e-28   0.000000e+00   0.000000e+00
      928000   9.279990e-08   1.130635e-01   6.375581e+00   1.637330e+01   1.429220e+05  -8.267414e+04   1.057770e+05   4.482368e+10   8.600987e+10   6.660258e+09   1.960880e+05   1.294860e-28   0.000000e+00   0.000000e+00
      936000   9.359990e-08   1.131778e-01   6.375514e+00   1.637338e+01   1.429579e+05  -8.260532e+04   1.057823e+05   4.478308e+10   8.603415e+10   6.662598e+09   1.960880e+05   1.294938e-28   0.000000e+00   0.000000e+00
      944000   9.439990e-08   1.132922e-01   6.375448e+00   1.637347e+01   1.429937e+05  -8.253649e+04   1.057877e+05   4.474248e+10   8.605841e+10   6.664935e+09   1.960880e+05   1.295016e-28   0.000000e+00   0.000000e+00
      952000   9.519990e-08   1.134066e-01   6.375382e+00   1.637355e+01   1.430295e+05  -8.246763e+04   1.057930e+05   4.470186e+10   8.608265e+10   6.667270e+09   1.960880e+05   1.295094e-28   0.000000e+00   0.000000e+00
      960000   9.599990e-08   1.135210e-01   6.375316e+00   1.637364e+01   1.430652e+05  -8.239875e+04   1.057983e+05   4.466123e+10   8.610688e+10   6.669603e+09   1.960880e+05   1.295173e-28   0.000000e+00   0.000000e+00
      968000   9.679990e-08   1.136355e-01   6.375251e+00   1.637372e+01   1.431009e+05  -8.232986e+04   1.058037e+05   4.462059e+10   8.613109e+10   6.671934e+09   1.960880e+05   1.295251e-28   0.000000e+00   0.000000e+00
      976000   9.759990e-08   1.137500e-01   6.375185e+00   1.637380e+01   1.431366e+05  -8.226095e+04   1.058090e+05   4.457993e+10   8.615529e+10   6.674262e+09   1.960880e+05   1.295330e-28   0.000000e+00   0.000000e+00
      984000   9.839990e-08   1.138645e-01   6.375119e+00   1.637389e+01   1.431722e+05  -8.219201e+04   1.058143e+05   4.453926e+10   8.617947e+10   6.676589e+09   1.960880e+05   1.295408e-28   0.000000e+00   0.000000e+00
      992000   9.919990e-08   1.139791e-01   6.375053e+00   1.637397e+01   1.432079e+05  -8.212306e+04   1.058197e+05   4.449858e+10   8.620363e+10   6.678913e+09   1.960880e+05   1.295487e-28   0.000000e+00   0.000000e+00
     1000000   9.999990e-08   1.140937e-01   6.374988e+00   1.637406e+01   1.432434e+05  -8.205409e+04   1.058250e+05   4.445788e+10   8.622777e+10   6.681235e+09   1.960880e+05   1.295566e-28   0.000000e+00   0.000000e+00
     1008000   1.007999e-07   1.142083e-01   6.374922e+00   1.637414e+01   1.432790e+05  -8.198509e+04   1.058304e+05   4.441717e+10   8.625190e+10   6.683555e+09   1.960880e+05   1.295644e-28   0.000000e+00   0.000000e+00
     1016000   1.015999e-07   1.143229e-01   6.374856e+00   1.637423e+01   1.433145e+05  -8.191608e+04   1.058357e+05   4.437645e+10   8.627601e+10   6.685872e+09   1.960880e+05   1.295723e-28   0.000000e+00   0.000000e+00
     1024000   1.023999e-07   1.144376e-01   6.374791e+00   1.637431e+01   1.433500e+05  -8.184705e+04   1.058411e+05   4.433572e+10   8.630010e+10   6.688188e+09   1.960880e+05   1.295802e-28   0.000000e+00   0.000000e+00
     1032000   1.031999e-07   1.145523e-01   6.374725e+00   1.637440e+01   1.433854e+05  -8.177800e+04   1.058464e+05   4.429497e+10   8.632418e+10   6.690501e+09   1.960880e+05   1.295881e-28   0.000000e+00   0.000000e+00
     1040000   1.039999e-07   1.146670e-01   6.374660e+00   1.637448e+01   1.434209e+05  -8.170893e+04   1.058518e+05   4.425421e+10   8.634824e+10   6.692812e+09   1.960880e+05   1.295960e-28   0.000000e+00   0.000000e+00
     1048000   1.047999e-07   1.147817e-01   6.374595e+00   1.637457e+01   1.434563e+05  -8.163984e+04   1.058571e+05   4.421344e+10   8.637228e+10   6.695120e+09   1.960880e+05   1.296039e-28   0.000000e+00   0.000000e+00
     1056000   1.055999e-07   1.148965e-01   6.374529e+00   1.637465e+01   1.434916e+05  -8.157074e+04   1.058625e+05   4.417265e+10   8.639631e+10   6.697427e+09   1.960880e+05   1.296118e-28   0.000000e+00   0.000000e+00
     1064000   1.063999e-07   1.150113e-01   6.374464e+00   1.637474e+01   1.435269e+05  -8.150161e+04   1.058679e+05   4.413186e+10   8.642032e+10   6.699731e+09   1.960880e+05   1.296197e-28   0.000000e+00   0.000000e+00
     1072000   1.071999e-07   1.151262e-01   6.374399e+00   1.637482e+01   1.435622e+05  -8.143247e+04   1.058732e+05   4.409105e+10   8.644431e+10   6.702033e+09   1.960880e+05   1.296276e-28   0.000000e+00   0.000000e+00
     1080000   1.079999e-07   1.152410e-01   6.374334e+00   1.637491e+01   1.435975e+05  -8.136330e+04   1.058786e+05   4.405022e+10   8.646829e+10   6.704333e+09   1.960880e+05   1.296355e-28   0.000000e+00   0.000000e+00
     1088000   1.087999e-07   1.153559e-01   6.374269e+00   1.637499e+01   1.436327e+05  -8.129412e+04   1.058839e+05   4.400939e+10   8.649225e+10   6.706630e+09   1.960880e+05   1.296435e-28   0.000000e+00   0.000000e+00
     1096000   1.095999e-07   1.154708e-01   6.374204e+00   1.637507e+01   1.436679e+05  -8.122491e+04   1.058893e+05   4.396854e+10   8.651619e+10   6.708926e+09   1.960880e+05   1.296514e-28   0.000000e+00   0.000000e+00
     1104000   1.103999e-07   1.155858e-01   6.374139e+00   1.637516e+01   1.437031e+05  -8.115569e+04   1.058947e+05   4.392768e+10   8.654011e+10   6.711219e+09   1.960880e+05   1.296593e-28   0.000000e+00   0.000000e+00
     1112000   1.111999e-07   1.157008e-01   6.374074e+00   1.637524e+01   1.437382e+05  -8.108645e+04   1.059000e+05   4.388680e+10   8.656402e+10   6.713509e+09   1.960880e+05   1.296673e-28   0.000000e+00   0.000000e+00
     1120000   1.119999e-07   1.158158e-01   6.374009e+00   1.637533e+01   1.437733e+05  -8.101719e+04   1.059054e+05   4.384591e+10   8.658791e+10   6.715798e+09   1.960880e+05   1.296752e-28   0.000000e+00   0.000000e+00
     1128000   1.127999e-07   1.159308e-01   6.373944e+00   1.637541e+01   1.438083e+05  -8.094791e+04   1.059108e+05   4.380501e+10   8.661178e+10   6.718084e+09   1.960880e+05   1.296832e-28   0.000000e+00   0.000000e+00
     1136000   1.135999e-07   1.160459e-01   6.373880e+00   1.637550e+01   1.438434e+05  -8.087861e+04   1.059162e+05   4.376410e+10   8.663564e+10   6.720368e+09   1.960880e+05   1.296911e-28   0.000000e+00   0.000000e+00
     1144000   1.143999e-07   1.161609e-01   6.373815e+00   1.637558e+01   1.438784e+05  -8.080929e+04   1.059215e+05   4.372318e+10   8.665948e+10   6.722650e+09   1.960880e+05   1.296991e-28   0.000000e+00   0.000000e+00
     1152000   1.151999e-07   1.162761e-01   6.373750e+00   1.637567e+01   1.439133e+05  -8.073995e+04   1.059269e+05   4.368224e+10   8.668330e+10   6.724929e+09   1.960880e+05   1.297071e-28   0.000000e+00   0.000000e+00
     1160000   1.159999e-07   1.163912e-01   6.373686e+00   1.637575e+01   1.439482e+05  -8.067060e+04   1.059323e+05   4.364129e+10   8.670711e+10   6.727206e+09   1.960880e+05   1.297151e-28   0.000000e+00   0.000000e+00
     1168000   1.167999e-07   1.165064e-01   6.373621e+00   1.637584e+01   1.439831e+05  -8.060122e+04   1.059377e+05   4.360032e+10   8.673090e+10   6.729481e+09   1.960880e+05   1.297230e-28   0.000000e+00   0.000000e+00
     1176000   1.175999e-07   1.166216e-01   6.373557e+00   1.637592e+01   1.440180e+05  -8.053183e+04   1.059431e+05   4.355935e+10   8.675467e+10   6.731754e+09   1.960880e+05   1.297310e-28   0.000000e+00   0.000000e+00
     1184000   1.183999e-07   1.167368e-01   6.373492e+00   1.637601e+01   1.440528e+05  -8.046241e+04   1.059485e+05   4.351836e+10   8.677843e+10   6.734024e+09   1.960880e+05   1.297390e-28   0.000000e+00   0.000000e+00
     1192000   1.191999e-07   1.168521e-01   6.373428e+00   1.637609e+01   1.440876e+05  -8.039298e+04   1.059538e+05   4.347736e+10   8.680216e+10   6.736292e+09   1.960880e+05   1.297470e-28   0.000000e+00   0.000000e+00
     1200000   1.199999e-07   1.169674e-01   6.373364e+00   1.637618e+01   1.441224e+05  -8.032353e+04   1.059592e+05   4.343634e+10   8.682588e+10   6.738558e+09   1.960880e+05   1.297550e-28   0.000000e+00   0.000000e+00
     1208000   1.207999e-07   1.170827e-01   6.373300e+00   1.637626e+01   1.441571e+05  -8.025406e+04   1.059646e+05   4.339532e+10   8.684959e+10   6.740821e+09   1.960880e+05   1.297631e-28   0.000000e+00   0.000000e+00
     1216000   1.215999e-07   1.171980e-01   6.373235e+00   1.637635e+01   1.441918e+05  -8.018457e+04   1.059700e+05   4.335428e+10   8.687328e+10   6.743082e+09   1.960880e+05   1.297711e-28   0.000000e+00   0.000000e+00
     1224000   1.223999e-07   1.173134e-01   6.373171e+00   1.637643e+01   1.442265e+05  -8.011506e+04   1.059754e+05   4.331323e+10   8.689695e+10   6.745341e+09   1.960880e+05   1.297791e-28   0.000000e+00   0.000000e+00
     1232000   1.231999e-07   1.174288e-01   6.373107e+00   1.637652e+01   1.442611e+05  -8.004554e+04   1.059808e+05   4.327216e+10   8.692060e+10   6.747598e+09   1.960880e+05   1.297871e-28   0.000000e+00   0.000000e+00
     1240000   1.239999e-07   1.175442e-01   6.373043e+00   1.637660e+01   1.442957e+05  -7.997599e+04   1.059862e+05   4.323108e+10   8.694423e+10   6.749852e+09   1.960880e+05   1.297952e-28   0.000000e+00   0.000000e+00
     1248000   1.247999e-07   1.176596e-01   6.372979e+00   1.637669e+01   1.443303e+05  -7.990643e+04   1.059916e+05   4.318999e+10   8.696785e+10   6.752104e+09   1.960880e+05   1.298032e-28   0.000000e+00   0.000000e+00
     1256000   1.255999e-07   1.177751e-01   6.372915e+00   1.637677e+01   1.443648e+05  -7.983684e+04   1.059970e+05   4.314889e+10   8.699145e+10   6.754353e+09   1.960880e+05   1.298113e-28   0.000000e+00   0.000000e+00
     1264000   1.263999e-07   1.178906e-01   6.372852e+00   1.637685e+01   1.443993e+05  -7.976724e+04   1.060024e+05   4.310778e+10   8.701504e+10   6.756600e+09   1.960880e+05   1.298193e-28   0.000000e+00   0.000000e+00
     1272000   1.271999e-07   1.180062e-01   6.372788e+00   1.637694e+01   1.444338e+05  -7.969762e+04   1.060078e+05   4.306665e+10   8.703861e+10   6.758845e+09   1.960880e+05   1.298274e-28   0.000000e+00   0.000000e+00
     1280000   1.279999e-07   1.181217e-01   6.372724e+00   1.637702e+01   1.444682e+05  -7.962798e+04   1.060132e+05   4.302551e+10   8.706216e+10   6.761088e+09   1.960880e+05   1.298354e-28   0.000000e+00   0.000000e+00
     1288000   1.287999e-07   1.182373e-01   6.372660e+00   1.637711e+01   1.445027e+05  -7.955832e+04   1.060186e+05   4.298435e+10   8.708569e+10   6.763328e+09   1.960880e+05   1.298435e-28   0.000000e+00   0.000000e+00
     1296000   1.295999e-07   1.183529e-01   6.372597e+00   1.637719e+01   1.445370e+05  -7.948864e+04   1.060241e+05   4.294319e+10   8.710921e+10   6.765566e+09   1.960880e+05   1.298516e-28   0.000000e+00   0.000000e+00
     1304000   1.303999e-07   1.184686e-01   6.372533e+00   1.637728e+01   1.445714e+05  -7.941894e+04   1.060295e+05   4.290201e+10   8.713271e+10   6.767801e+09   1.960880e+05   1.298597e-28   0.000000e+00   0.000000e+00
     1312000   1.311999e-07   1.185842e-01   6.372470e+00   1.637736e+01   1.446057e+05  -7.934923e+04   1.060349e+05   4.286082e+10   8.715619e+10   6.770035e+09   1.960880e+05   1.298677e-28   0.000000e+00   0.000000e+00
     1320000   1.319999e-07   1.186999e-01   6.372406e+00   1.637745e+01   1.446399e+05  -7.927949e+04   1.060403e+05   4.281962e+10   8.717965e+10   6.772265e+09   1.960880e+05   1.298758e-28   0.000000e+00   0.000000e+00
     1328000   1.327999e-07   1.188157e-01   6.372343e+00   1.637753e+01   1.446742e+05  -7.920974e+04   1.060457e+05   4.277840e+10   8.720310e+10   6.774494e+09   1.960880e+05   1.298839e-28   0.000000e+00   0.000000e+00
     1336000   1.335999e-07   1.189314e-01   6.372279e+00   1.637762e+01   1.447084e+05  -7.913997e+04   1.060511e+05   4.273717e+10   8.722653e+10   6.776720e+09   1.960880e+05   1.298920e-28   0.000000e+00   0.000000e+00
     1344000   1.343999e-07   1.190472e-01   6.372216e+00   1.637770e+01   1.447426e+05  -7.907018e+04   1.060566e+05   4.269593e+10   8.724995e+10   6.778944e+09   1.960880e+05   1.299002e-28   0.000000e+00   0.000000e+00
     1352000   1.351999e-07   1.191630e-01   6.372153e+00   1.637779e+01   1.447767e+05  -7.900037e+04   1.060620e+05   4.265468e+10   8.727334e+10   6.781165e+09   1.960880e+05   1.299083e-28   0.000000e+00   0.000000e+00
     1360000   1.359999e-07   1.192788e-01   6.372090e+00   1.637787e+01   1.448108e+05  -7.893054e+04   1.060674e+05   4.261341e+10   8.729672e+10   6.783384e+09   1.960880e+05   1.299164e-28   0.000000e+00   0.000000e+00
     1368000   1.367999e-07   1.193947e-01   6.372027e+00   1.637796e+01   1.448449e+05  -7.886069e+04   1.060728e+05   4.257213e+10   8.732008e+10   6.785601e+09   1.960880e+05   1.299245e-28   0.000000e+00   0.000000e+00
     1376000   1.375999e-07   1.195106e-01   6.371964e+00   1.637804e+01   1.448789e+05  -7.879083e+04   1.060783e+05   4.253084e+10   8.734343e+10   6.787815e+09   1.960880e+05   1.299326e-28   0.000000e+00   0.000000e+00
     1384000   1.383999e-07   1.196265e-01   6.371901e+00   1.637813e+01   1.449129e+05  -7.872094e+04   1.060837e+05   4.248954e+10   8.736676e+10   6.790027e+09   1.960880e+05   1.299408e-28   0.000000e+00   0.000000e+00
     1392000   1.391999e-07   1.197424e-01   6.371838e+00   1.637821e+01   1.449469e+05  -7.865104e+04   1.060891e+05   4.244822e+10   8.739007e+10   6.792236e+09   1.960880e+05   1.299489e-28   0.000000e+00   0.000000e+00
     1400000   1.399999e-07   1.198584e-01   6.371775e+00   1.637830e+01   1.449808e+05  -7.858112e+04   1.060946e+05   4.240689e+10   8.741336e+10   6.794444e+09   1.960880e+05   1.299571e-28   0.000000e+00   0.000000e+00
     1408000   1.407999e-07   1.199744e-01   6.371712e+00   1.637838e+01   1.450148e+05  -7.851118e+04   1.061000e+05   4.236555e+10   8.743664e+10   6.796648e+09   1.960880e+05   1.299652e-28   0.000000e+00   0.000000e+00
     1416000   1.415999e-07   1.200904e-01   6.371649e+00   1.637847e+01   1.450486e+05  -7.844122e+04   1.061054e+05   4.232420e+10   8.745990e+10   6.798851e+09   1.960880e+05   1.299734e-28   0.000000e+00   0.000000e+00
     1424000   1.423999e-07   1.202065e-01   6.371586e+00   1.637855e+01   1.450825e+05  -7.837124e+04   1.061109e+05   4.228283e+10   8.748314e+10   6.801051e+09   1.960880e+05   1.299816e-28   0.000000e+00   0.000000e+00
     1432000   1.431999e-07   1.203226e-01   6.371524e+00   1.637864e+01   1.451163e+05  -7.830125e+04   1.061163e+05   4.224146e+10   8.750636e+10   6.803248e+09   1.960880e+05   1.299897e-28   0.000000e+00   0.000000e+00
     1440000   1.439999e-07   1.204387e-01   6.371461e+00   1.637872e+01   1.451501e+05  -7.823123e+04   1.061218e+05   4.220006e+10   8.752957e+10   6.805443e+09   1.960880e+05   1.299979e-28   0.000000e+00   0.000000e+00
     1448000   1.447999e-07   1.205548e-01   6.371399e+00   1.637881e+01   1.451838e+05  -7.816120e+04   1.061272e+05   4.215866e+10   8.755276e+10   6.807636e+09   1.960880e+05   1.300061e-28   0.000000e+00   0.000000e+00
     1456000   1.455999e-07   1.206710e-01   6.371336e+00   1.637889e+01   1.452175e+05  -7.809115e+04   1.061327e+05   4.211724e+10   8.757594e+10   6.809826e+09   1.960880e+05   1.300143e-28   0.000000e+00   0.000000e+00
     1464000   1.463999e-07   1.207872e-01   6.371274e+00   1.637898e+01   1.452512e+05  -7.802108e+04   1.061381e+05   4.207582e+10   8.759909e+10   6.812014e+09   1.960880e+05   1.300225e-28   0.000000e+00   0.000000e+00
     1472000   1.471999e-07   1.209034e-01   6.371211e+00   1.637906e+01   1.452848e+05  -7.795099e+04   1.061436e+05   4.203438e+10   8.762223e+10   6.814200e+09   1.960880e+05   1.300307e-28   0.000000e+00   0.000000e+00
     1480000   1.479999e-07   1.210196e-01   6.371149e+00   1.637915e+01   1.453184e+05  -7.788088e+04   1.061490e+05   4.199292e+10   8.764535e+10   6.816383e+09   1.960880e+05   1.300389e-28   0.000000e+00   0.000000e+00
     1488000   1.487999e-07   1.211359e-01   6.371087e+00   1.637923e+01   1.453520e+05  -7.781076e+04   1.061545e+05   4.195146e+10   8.766846e+10   6.818563e+09   1.960880e+05   1.300471e-28   0.000000e+00   0.000000e+00
     1496000   1.495999e-07   1.212522e-01   6.371024e+00   1.637932e+01   1.453856e+05  -7.774062e+04   1.061599e+05   4.190998e+10   8.769154e+10   6.820741e+09   1.960880e+05   1.300553e-28   0.000000e+00   0.000000e+00
     1504000   1.503999e-07   1.213685e-01   6.370962e+00   1.637940e+01   1.454191e+05  -7.767045e+04   1.061654e+05   4.186849e+10   8.771461e+10   6.822917e+09   1.960880e+05   1.300635e-28   0.000000e+00   0.000000e+00
     1512000   1.511999e-07   1.214849e-01   6.370900e+00   1.637949e+01   1.454526e+05  -7.760027e+04   1.061708e+05   4.182699e+10   8.773767e+10   6.825090e+09   1.960880e+05   1.300718e-28   0.000000e+00   0.000000e+00
     1520000   1.519999e-07   1.216012e-01   6.370838e+00   1.637957e+01   1.454860e+05  -7.753007e+04   1.061763e+05   4.178547e+10   8.776070e+10   6.827261e+09   1.960880e+05   1.300800e-28   0.000000e+00   0.000000e+00
     1528000   1.527999e-07   1.217176e-01   6.370776e+00   1.637966e+01   1.455194e+05  -7.745985e+04   1.061818e+05   4.174394e+10   8.778372e+10   6.829430e+09   1.960880e+05   1.300882e-28   0.000000e+00   0.000000e+00
     1536000   1.535999e-07   1.218341e-01   6.370714e+00   1.637974e+01   1.455528e+05  -7.738962e+04   1.061872e+05   4.170240e+10   8.780672e+10   6.831596e+09   1.960880e+05   1.300965e-28   0.000000e+00   0.000000e+00
     1544000   1.543999e-07   1.219505e-01   6.370652e+00   1.637983e+01   1.455861e+05  -7.731936e+04   1.061927e+05   4.166085e+10   8.782970e+10   6.833759e+09   1.960880e+05   1.301047e-28   0.000000e+00   0.000000e+00
     1552000   1.551999e-07   1.220670e-01   6.370590e+00   1.637991e+01   1.456195e+05  -7.724909e+04   1.061982e+05   4.161929e+10   8.785267e+10   6.835920e+09   1.960880e+05   1.301130e-28   0.000000e+00   0.000000e+00
     1560000   1.559999e-07   1.221835e-01   6.370529e+00   1.638000e+01   1.456527e+05  -7.717880e+04   1.062036e+05   4.157771e+10   8.787562e+10   6.838079e+09   1.960880e+05   1.301213e-28   0.000000e+00   0.000000e+00
     1568000   1.567999e-07   1.223000e-01   6.370467e+00   1.638008e+01   1.456860e+05  -7.710849e+04   1.062091e+05   4.153612e+10   8.789855e+10   6.840235e+09   1.960880e+05   1.301295e-28   0.000000e+00   0.000000e+00
     1576000   1.575999e-07   1.224166e-01   6.370405e+00   1.638017e+01   1.457192e+05  -7.703816e+04   1.062146e+05   4.149452e+10   8.792146e+10   6.842388e+09   1.960880e+05   1.301378e-28   0.000000e+00   0.000000e+00
     1584000   1.583999e-07   1.225332e-01   6.370344e+00   1.638025e+01   1.457524e+05  -7.696782e+04   1.062200e+05   4.145290e+10   8.794436e+10   6.844540e+09   1.960880e+05   1.301461e-28   0.000000e+00   0.000000e+00
     1592000   1.591999e-07   1.226498e-01   6.370282e+00   1.638034e+01   1.457855e+05  -7.689745e+04   1.062255e+05   4.141128e+10   8.796724e+10   6.846688e+09   1.960880e+05   1.301544e-28   0.000000e+00   0.000000e+00
     1600000   1.599999e-07   1.227664e-01   6.370221e+00   1.638042e+01   1.458186e+05  -7.682707e+04   1.062310e+05   4.136964e+10   8.799010e+10   6.848834e+09   1.960880e+05   1.301627e-28   0.000000e+00   0.000000e+00
     1608000   1.607999e-07   1.228831e-01   6.370159e+00   1.638051e+01   1.458517e+05  -7.675667e+04   1.062365e+05   4.132799e+10   8.801295e+10   6.850978e+09   1.960880e+05   1.301710e-28   0.000000e+00   0.000000e+00
     1616000   1.615999e-07   1.229998e-01   6.370098e+00   1.638059e+01   1.458847e+05  -7.668625e+04   1.062420e+05   4.128633e+10   8.803577e+10   6.853119e+09   1.960880e+05   1.301793e-28   0.000000e+00   0.000000e+00
     1624000   1.623999e-07   1.231165e-01   6.370036e+00   1.638068e+01   1.459178e+05  -7.661581e+04   1.062474e+05   4.124465e+10   8.805858e+10   6.855258e+09   1.960880e+05   1.301876e-28   0.000000e+00   0.000000e+00
     1632000   1.631999e-07   1.232333e-01   6.369975e+00   1.638076e+01   1.459507e+05  -7.654535e+04   1.062529e+05   4.120296e+10   8.808138e+10   6.857394e+09   1.960880e+05   1.301959e-28   0.000000e+00   0.000000e+00
     1640000   1.639999e-07   1.233501e-01   6.369914e+00   1.638085e+01   1.459837e+05  -7.647488e+04   1.062584e+05   4.116126e+10   8.810415e+10   6.859528e+09   1.960880e+05   1.302042e-28   0.000000e+00   0.000000e+00
     1648000   1.647999e-07   1.234669e-01   6.369853e+00   1.638093e+01   1.460166e+05  -7.640439e+04   1.062639e+05   4.111955e+10   8.812691e+10   6.861659e+09   1.960880e+05   1.302125e-28   0.000000e+00   0.000000e+00
     1656000   1.655999e-07   1.235837e-01   6.369792e+00   1.638102e+01   1.460495e+05  -7.633388e+04   1.062694e+05   4.107782e+10   8.814965e+10   6.863788e+09   1.960880e+05   1.302209e-28   0.000000e+00   0.000000e+00
     1664000   1.663999e-07   1.237005e-01   6.369731e+00   1.638110e+01   1.460823e+05  -7.626335e+04   1.062749e+05   4.103609e+10   8.817237e+10   6.865914e+09   1.960880e+05   1.302292e-28   0.000000e+00   0.000000e+00
     1672000   1.671999e-07   1.238174e-01   6.369670e+00   1.638119e+01   1.461151e+05  -7.619280e+04   1.062804e+05   4.099434e+10   8.819508e+10   6.868038e+09   1.960880e+05   1.302376e-28   0.000000e+00   0.000000e+00
     1680000   1.679999e-07   1.239343e-01   6.369609e+00   1.638127e+01   1.461479e+05  -7.612224e+04   1.062859e+05   4.095258e+10   8.821777e+10   6.870159e+09   1.960880e+05   1.302459e-28   0.000000e+00   0.000000e+00
     1688000   1.687999e-07   1.240512e-01   6.369548e+00   1.638136e+01   1.461807e+05  -7.605165e+04   1.062914e+05   4.091080e+10   8.824044e+10   6.872278e+09   1.960880e+05   1.302543e-28   0.000000e+00   0.000000e+00
     1696000   1.695999e-07   1.241682e-01   6.369487e+00   1.638144e+01   1.462134e+05  -7.598105e+04   1.062969e+05   4.086902e+10   8.826309e+10   6.874394e+09   1.960880e+05   1.302626e-28   0.000000e+00   0.000000e+00
     1704000   1.703999e-07   1.242852e-01   6.369426e+00   1.638153e+01   1.462460e+05  -7.591043e+04   1.063024e+05   4.082722e+10   8.828573e+10   6.876507e+09   1.960880e+05   1.302710e-28   0.000000e+00   0.000000e+00
     1712000   1.711999e-07   1.244022e-01   6.369366e+00   1.638161e+01   1.462787e+05  -7.583979e+04   1.063079e+05   4.078541e+10   8.830834e+10   6.878619e+09   1.960880e+05   1.302794e-28   0.000000e+00   0.000000e+00
     1720000   1.719999e-07   1.245192e-01   6.369305e+00   1.638170e+01   1.463113e+05  -7.576914e+04   1.063134e+05   4.074359e+10   8.833095e+10   6.880727e+09   1.960880e+05   1.302877e-28   0.000000e+00   0.000000e+00
     1728000   1.727999e-07   1.246363e-01   6.369244e+00   1.638178e+01   1.463439e+05  -7.569846e+04   1.063189e+05   4.070175e+10   8.835353e+10   6.882833e+09   1.960880e+05   1.302961e-28   0.000000e+00   0.000000e+00
     1736000   1.735999e-07   1.247534e-01   6.369184e+00   1.638187e+01   1.463764e+05  -7.562777e+04   1.063244e+05   4.065990e+10   8.837610e+10   6.884937e+09   1.960880e+05   1.303045e-28   0.000000e+00   0.000000e+00
     1744000   1.743999e-07   1.248705e-01   6.369123e+00   1.638195e+01   1.464089e+05  -7.555706e+04   1.063299e+05   4.061804e+10   8.839864e+10   6.887037e+09   1.960880e+05   1.303129e-28   0.000000e+00   0.000000e+00
     1752000   1.751999e-07   1.249876e-01   6.369063e+00   1.638204e+01   1.464414e+05  -7.548633e+04   1.063354e+05   4.057617e+10   8.842118e+10   6.889136e+09   1.960880e+05   1.303213e-28   0.000000e+00   0.000000e+00
     1760000   1.759999e-07   1.251048e-01   6.369003e+00   1.638212e+01   1.464739e+05  -7.541559e+04   1.063409e+05   4.053429e+10   8.844369e+10   6.891232e+09   1.960880e+05   1.303297e-28   0.000000e+00   0.000000e+00
     1768000   1.767999e-07   1.252220e-01   6.368942e+00   1.638221e+01   1.465063e+05  -7.534482e+04   1.063464e+05   4.049239e+10   8.846619e+10   6.893325e+09   1.960880e+05   1.303381e-28   0.000000e+00   0.000000e+00
     1776000   1.775999e-07   1.253392e-01   6.368882e+00   1.638229e+01   1.465387e+05  -7.527404e+04   1.063520e+05   4.045049e+10   8.848867e+10   6.895415e+09   1.960880e+05   1.303465e-28   0.000000e+00   0.000000e+00
     1784000   1.783999e-07   1.254565e-01   6.368822e+00   1.638238e+01   1.465710e+05  -7.520324e+04   1.063575e+05   4.040857e+10   8.851113e+10   6.897504e+09   1.960880e+05   1.303550e-28   0.000000e+00   0.000000e+00
     1792000   1.791999e-07   1.255737e-01   6.368762e+00   1.638246e+01   1.466033e+05  -7.513242e+04   1.063630e+05   4.036663e+10   8.853357e+10   6.899589e+09   1.960880e+05   1.303634e-28   0.000000e+00   0.000000e+00
     1800000   1.799999e-07   1.256910e-01   6.368702e+00   1.638255e+01   1.466356e+05  -7.506159e+04   1.063685e+05   4.032469e+10   8.855600e+10   6.901672e+09   1.960880e+05   1.303718e-28   0.000000e+00   0.000000e+00
     1808000   1.807999e-07   1.258083e-01   6.368642e+00   1.638263e+01   1.466678e+05  -7.499074e+04   1.063740e+05   4.028273e+10   8.857841e+10   6.903752e+09   1.960880e+05   1.303803e-28   0.000000e+00   0.000000e+00
     1816000   1.815999e-07   1.259257e-01   6.368582e+00   1.638272e+01   1.467000e+05  -7.491986e+04   1.063796e+05   4.024076e+10   8.860080e+10   6.905830e+09   1.960880e+05   1.303887e-28   0.000000e+00   0.000000e+00
     1824000   1.823999e-07   1.260431e-01   6.368522e+00   1.638280e+01   1.467322e+05  -7.484897e+04   1.063851e+05   4.019878e+10   8.862317e+10   6.907905e+09   1.960880e+05   1.303972e-28   0.000000e+00   0.000000e+00
     1832000   1.831999e-07   1.261605e-01   6.368462e+00   1.638289e+01   1.467644e+05  -7.477807e+04   1.063906e+05   4.015679e+10   8.864553e+10   6.909978e+09   1.960880e+05   1.304056e-28   0.000000e+00   0.000000e+00
     1840000   1.839999e-07   1.262779e-01   6.368402e+00   1.638297e+01   1.467965e+05  -7.470714e+04   1.063961e+05   4.011479e+10   8.866787e+10   6.912048e+09   1.960880e+05   1.304141e-28   0.000000e+00   0.000000e+00
     1848000   1.847999e-07   1.263953e-01   6.368342e+00   1.638306e+01   1.468285e+05  -7.463620e+04   1.064017e+05   4.007277e+10   8.869019e+10   6.914115e+09   1.960880e+05   1.304226e-28   0.000000e+00   0.000000e+00
     1856000   1.855999e-07   1.265128e-01   6.368283e+00   1.638314e+01   1.468606e+05  -7.456524e+04   1.064072e+05   4.003074e+10   8.871249e+10   6.916180e+09   1.960880e+05   1.304310e-28   0.000000e+00   0.000000e+00
     1864000   1.863999e-07   1.266303e-01   6.368223e+00   1.638323e+01   1.468926e+05  -7.449426e+04   1.064127e+05   3.998870e+10   8.873478e+10   6.918243e+09   1.960880e+05   1.304395e-28   0.000000e+00   0.000000e+00
     1872000   1.871999e-07   1.267478e-01   6.368164e+00   1.638331e+01   1.469246e+05  -7.442326e+04   1.064183e+05   3.994665e+10   8.875705e+10   6.920302e+09   1.960880e+05   1.304480e-28   0.000000e+00   0.000000e+00
     1880000   1.879999e-07   1.268654e-01   6.368104e+00   1.638340e+01   1.469565e+05  -7.435225e+04   1.064238e+05   3.990458e+10   8.877930e+10   6.922359e+09   1.960880e+05   1.304565e-28   0.000000e+00   0.000000e+00
     1888000   1.887999e-07   1.269830e-01   6.368045e+00   1.638348e+01   1.469884e+05  -7.428121e+04   1.064293e+05   3.986250e+10   8.880153e+10   6.924414e+09   1.960880e+05   1.304650e-28   0.000000e+00   0.000000e+00
     1896000   1.895999e-07   1.271006e-01   6.367985e+00   1.638357e+01   1.470203e+05  -7.421016e+04   1.064349e+05   3.982041e+10   8.882375e+10   6.926465e+09   1.960880e+05   1.304735e-28   0.000000e+00   0.000000e+00
     1904000   1.903999e-07   1.272182e-01   6.367926e+00   1.638365e+01   1.470521e+05  -7.413910e+04   1.064404e+05   3.977831e+10   8.884594e+10   6.928514e+09   1.960880e+05   1.304820e-28   0.000000e+00   0.000000e+00
     1912000   1.911999e-07   1.273359e-01   6.367867e+00   1.638374e+01   1.470839e+05  -7.406801e+04   1.064460e+05   3.973620e+10   8.886812e+10   6.930561e+09   1.960880e+05   1.304905e-28   0.000000e+00   0.000000e+00
     1920000   1.919999e-07   1.274535e-01   6.367807e+00   1.638382e+01   1.471157e+05  -7.399691e+04   1.064515e+05   3.969407e+10   8.889029e+10   6.932605e+09   1.960880e+05   1.304991e-28   0.000000e+00   0.000000e+00
     1928000   1.927999e-07   1.275712e-01   6.367748e+00   1.638391e+01   1.471474e+05  -7.392579e+04   1.064571e+05   3.965193e+10   8.891243e+10   6.934646e+09   1.960880e+05   1.305076e-28   0.000000e+00   0.000000e+00
     1936000   1.935999e-07   1.276890e-01   6.367689e+00   1.638399e+01   1.471791e+05  -7.385465e+04   1.064626e+05   3.960979e+10   8.893456e+10   6.936685e+09   1.960880e+05   1.305161e-28   0.000000e+00   0.000000e+00
     1944000   1.943999e-07   1.278067e-01   6.367630e+00   1.638408e+01   1.472108e+05  -7.378349e+04   1.064682e+05   3.956762e+10   8.895667e+10   6.938721e+09   1.960880e+05   1.305246e-28   0.000000e+00   0.000000e+00
     1952000   1.951999e-07   1.279245e-01   6.367571e+00   1.638416e+01   1.472424e+05  -7.371232e+04   1.064737e+05   3.952545e+10   8.897876e+10   6.940754e+09   1.960880e+05   1.305332e-28   0.000000e+00   0.000000e+00
     1960000   1.959999e-07   1.280423e-01   6.367512e+00   1.638425e+01   1.472741e+05  -7.364112e+04   1.064793e+05   3.948326e+10   8.900084e+10   6.942785e+09   1.960880e+05   1.305417e-28   0.000000e+00   0.000000e+00
     1968000   1.967999e-07   1.281602e-01   6.367453e+00   1.638433e+01   1.473056e+05  -7.356992e+04   1.064848e+05   3.944107e+10   8.902290e+10   6.944813e+09   1.960880e+05   1.305503e-28   0.000000e+00   0.000000e+00
     1976000   1.975999e-07   1.282780e-01   6.367394e+00   1.638442e+01   1.473372e+05  -7.349869e+04   1.064904e+05   3.939886e+10   8.904494e+10   6.946838e+09   1.960880e+05   1.305589e-28   0.000000e+00   0.000000e+00
     1984000   1.983999e-07   1.283959e-01   6.367336e+00   1.638450e+01   1.473687e+05  -7.342744e+04   1.064959e+05   3.935664e+10   8.906696e+10   6.948861e+09   1.960880e+05   1.305674e-28   0.000000e+00   0.000000e+00
     1992000   1.991999e-07   1.285138e-01   6.367277e+00   1.638459e+01   1.474001e+05  -7.335618e+04   1.065015e+05   3.931440e+10   8.908896e+10   6.950881e+09   1.960880e+05   1.305760e-28   0.000000e+00   0.000000e+00
     2000000   1.999999e-07   1.286317e-01   6.367218e+00   1.638467e+01   1.474316e+05  -7.328490e+04   1.065071e+05   3.927216e+10   8.911095e+10   6.952898e+09   1.960880e+05   1.305846e-28   0.000000e+00   0.000000e+00
     2008000   2.007999e-07   1.287497e-01   6.367160e+00   1.638476e+01   1.474630e+05  -7.321360e+04   1.065126e+05   3.922990e+10   8.913292e+10   6.954913e+09   1.960880e+05   1.305932e-28   0.000000e+00   0.000000e+00
     2016000   2.015999e-07   1.288677e-01   6.367101e+00   1.638485e+01   1.474943e+05  -7.314229e+04   1.065182e+05   3.918763e+10   8.915487e+10   6.956925e+09   1.960880e+05   1.306018e-28   0.000000e+00   0.000000e+00
     2024000   2.023999e-07   1.289857e-01   6.367043e+00   1.638493e+01   1.475257e+05  -7.307096e+04   1.065237e+05   3.914535e+10   8.917680e+10   6.958934e+09   1.960880e+05   1.306103e-28   0.000000e+00   0.000000e+00
     2032000   2.031999e-07   1.291037e-01   6.366984e+00   1.638502e+01   1.475570e+05  -7.299961e+04   1.065293e+05   3.910305e+10   8.919872e+10   6.960941e+09   1.960880e+05   1.306189e-28   0.000000e+00   0.000000e+00
     2040000   2.039999e-07   1.292218e-01   6.366926e+00   1.638510e+01   1.475882e+05  -7.292824e+04   1.065349e+05   3.906075e+10   8.922062e+10   6.962945e+09   1.960880e+05   1.306276e-28   0.000000e+00   0.000000e+00
     2048000   2.047999e-07   1.293399e-01   6.366867e+00   1.638519e+01   1.476195e+05  -7.285685e+04   1.065405e+05   3.901843e+10   8.924250e+10   6.964946e+09   1.960880e+05   1.306362e-28   0.000000e+00   0.000000e+00
     2056000   2.055999e-07   1.294580e-01   6.366809e+00   1.638527e+01   1.476507e+05  -7.278545e+04   1.065460e+05   3.897610e+10   8.926436e+10   6.966945e+09   1.960880e+05   1.306448e-28   0.000000e+00   0.000000e+00
     2064000   2.063999e-07   1.295761e-01   6.366751e+00   1.638536e+01   1.476818e+05  -7.271403e+04   1.065516e+05   3.893376e+10   8.928620e+10   6.968941e+09   1.960880e+05   1.306534e-28   0.000000e+00   0.000000e+00
     2072000   2.071999e-07   1.296943e-01   6.366693e+00   1.638544e+01   1.477130e+05  -7.264259e+04   1.065572e+05   3.889141e+10   8.930803e+10   6.970934e+09   1.960880e+05   1.306620e-28   0.000000e+00   0.000000e+00
     2080000   2.079999e-07   1.298124e-01   6.366635e+00   1.638553e+01   1.477440e+05  -7.257114e+04   1.065628e+05   3.884904e+10   8.932984e+10   6.972925e+09   1.960880e+05   1.306707e-28   0.000000e+00   0.000000e+00
     2088000   2.087999e-07   1.299306e-01   6.366577e+00   1.638561e+01   1.477751e+05  -7.249966e+04   1.065683e+05   3.880667e+10   8.935163e+10   6.974913e+09   1.960880e+05   1.306793e-28   0.000000e+00   0.000000e+00
     2096000   2.095999e-07   1.300489e-01   6.366519e+00   1.638570e+01   1.478061e+05  -7.242817e+04   1.065739e+05   3.876428e+10   8.937341e+10   6.976898e+09   1.960880e+05   1.306880e-28   0.000000e+00   0.000000e+00
     2104000   2.103999e-07   1.301671e-01   6.366461e+00   1.638578e+01   1.478371e+05  -7.235667e+04   1.065795e+05   3.872188e+10   8.939516e+10   6.978880e+09   1.960880e+05   1.306966e-28   0.000000e+00   0.000000e+00
     2112000   2.111999e-07   1.302854e-01   6.366403e+00   1.638587e+01   1.478681e+05  -7.228514e+04   1.065851e+05   3.867947e+10   8.941690e+10   6.980860e+09   1.960880e+05   1.307053e-28   0.000000e+00   0.000000e+00
     2120000   2.119999e-07   1.304037e-01   6.366345e+00   1.638595e+01   1.478990e+05  -7.221360e+04   1.065907e+05   3.863704e+10   8.943862e+10   6.982837e+09   1.960880e+05   1.307139e-28   0.000000e+00   0.000000e+00
     2128000   2.127999e-07   1.305221e-01   6.366287e+00   1.638604e+01   1.479299e+05  -7.214204e+04   1.065963e+05   3.859461e+10   8.946033e+10   6.984811e+09   1.960880e+05   1.307226e-28   0.000000e+00   0.000000e+00
     2136000   2.135999e-07   1.306404e-01   6.366230e+00   1.638612e+01   1.479608e+05  -7.207046e+04   1.066018e+05   3.855216e+10   8.948201e+10   6.986782e+09   1.960880e+05   1.307313e-28   0.000000e+00   0.000000e+00
     2144000   2.143999e-07   1.307588e-01   6.366172e+00   1.638621e+01   1.479916e+05  -7.199887e+04   1.066074e+05   3.850970e+10   8.950368e+10   6.988751e+09   1.960880e+05   1.307400e-28   0.000000e+00   0.000000e+00
     2152000   2.151999e-07   1.308772e-01   6.366115e+00   1.638629e+01   1.480224e+05  -7.192726e+04   1.066130e+05   3.846723e+10   8.952533e+10   6.990717e+09   1.960880e+05   1.307487e-28   0.000000e+00   0.000000e+00
     2160000   2.159999e-07   1.309956e-01   6.366057e+00   1.638638e+01   1.480531e+05  -7.185563e+04   1.066186e+05   3.842474e+10   8.954696e+10   6.992680e+09   1.960880e+05   1.307573e-28   0.000000e+00   0.000000e+00
     2168000   2.167999e-07   1.311141e-01   6.366000e+00   1.638647e+01   1.480839e+05  -7.178398e+04   1.066242e+05   3.838225e+10   8.956858e+10   6.994641e+09   1.960880e+05   1.307660e-28   0.000000e+00   0.000000e+00
     2176000   2.175999e-07   1.312326e-01   6.365942e+00   1.638655e+01   1.481146e+05  -7.171232e+04   1.066298e+05   3.833974e+10   8.959017e+10   6.996599e+09   1.960880e+05   1.307748e-28   0.000000e+00   0.000000e+00
     2184000   2.183999e-07   1.313511e-01   6.365885e+00   1.638664e+01   1.481452e+05  -7.164064e+04   1.066354e+05   3.829722e+10   8.961175e+10   6.998554e+09   1.960880e+05   1.307835e-28   0.000000e+00   0.000000e+00
     2192000   2.191999e-07   1.314696e-01   6.365828e+00   1.638672e+01   1.481758e+05  -7.156894e+04   1.066410e+05   3.825469e+10   8.963331e+10   7.000506e+09   1.960880e+05   1.307922e-28   0.000000e+00   0.000000e+00
     2200000   2.199999e-07   1.315881e-01   6.365770e+00   1.638681e+01   1.482064e+05  -7.149722e+04   1.066466e+05   3.821215e+10   8.965485e+10   7.002455e+09   1.960880e+05   1.308009e-28   0.000000e+00   0.000000e+00
     2208000   2.207999e-07   1.317067e-01   6.365713e+00   1.638689e+01   1.482370e+05  -7.142549e+04   1.066522e+05   3.816960e+10   8.967638e+10   7.004402e+09   1.960880e+05   1.308096e-28   0.000000e+00   0.000000e+00
     2216000   2.215999e-07   1.318253e-01   6.365656e+00   1.638698e+01   1.482675e+05  -7.135374e+04   1.066578e+05   3.812703e+10   8.969789e+10   7.006346e+09   1.960880e+05   1.308184e-28   0.000000e+00   0.000000e+00
     2224000   2.223999e-07   1.319440e-01   6.365599e+00   1.638706e+01   1.482980e+05  -7.128198e+04   1.066634e+05   3.808445e+10   8.971937e+10   7.008287e+09   1.960880e+05   1.308271e-28   0.000000e+00   0.000000e+00
     2232000   2.231999e-07   1.320626e-01   6.365542e+00   1.638715e+01   1.483284e+05  -7.121019e+04   1.066690e+05   3.804186e+10   8.974085e+10   7.010226e+09   1.960880e+05   1.308358e-28   0.000000e+00   0.000000e+00
     2240000   2.239999e-07   1.321813e-01   6.365485e+00   1.638723e+01   1.483588e+05  -7.113839e+04   1.066746e+05   3.799926e+10   8.976230e+10   7.012161e+09   1.960880e+05   1.308446e-28   0.000000e+00   0.000000e+00
     2248000   2.247999e-07   1.323000e-01   6.365428e+00   1.638732e+01   1.483892e+05  -7.106657e+04   1.066803e+05   3.795665e+10   8.978374e+10   7.014094e+09   1.960880e+05   1.308534e-28   0.000000e+00   0.000000e+00
     2256000   2.255999e-07   1.324187e-01   6.365371e+00   1.638740e+01   1.484196e+05  -7.099474e+04   1.066859e+05   3.791403e+10   8.980515e+10   7.016024e+09   1.960880e+05   1.308621e-28   0.000000e+00   0.000000e+00
     2264000   2.263999e-07   1.325374e-01   6.365315e+00   1.638749e+01   1.484499e+05  -7.092288e+04   1.066915e+05   3.787139e+10   8.982655e+10   7.017952e+09   1.960880e+05   1.308709e-28   0.000000e+00   0.000000e+00
     2272000   2.271999e-07   1.326562e-01   6.365258e+00   1.638757e+01   1.484802e+05  -7.085101e+04   1.066971e+05   3.782874e+10   8.984794e+10   7.019876e+09   1.960880e+05   1.308797e-28   0.000000e+00   0.000000e+00
     2280000   2.279999e-07   1.327750e-01   6.365201e+00   1.638766e+01   1.485104e+05  -7.077913e+04   1.067027e+05   3.778608e+10   8.986930e+10   7.021798e+09   1.960880e+05   1.308884e-28   0.000000e+00   0.000000e+00
     2288000   2.287999e-07   1.328938e-01   6.365145e+00   1.638775e+01   1.485406e+05  -7.070722e+04   1.067083e+05   3.774341e+10   8.989065e+10   7.023717e+09   1.960880e+05   1.308972e-28   0.000000e+00   0.000000e+00
     2296000   2.295999e-07   1.330127e-01   6.365088e+00   1.638783e+01   1.485708e+05  -7.063530e+04   1.067139e+05   3.770073e+10   8.991197e+10   7.025633e+09   1.960880e+05   1.309060e-28   0.000000e+00   0.000000e+00
     2304000   2.303999e-07   1.331316e-01   6.365032e+00   1.638792e+01   1.486009e+05  -7.056336e+04   1.067196e+05   3.765803e+10   8.993328e+10   7.027546e+09   1.960880e+05   1.309148e-28   0.000000e+00   0.000000e+00
     2312000   2.311999e-07   1.332504e-01   6.364975e+00   1.638800e+01   1.486311e+05  -7.049141e+04   1.067252e+05   3.761533e+10   8.995458e+10   7.029457e+09   1.960880e+05   1.309236e-28   0.000000e+00   0.000000e+00
     2320000   2.319999e-07   1.333694e-01   6.364919e+00   1.638809e+01   1.486611e+05  -7.041944e+04   1.067308e+05   3.757261e+10   8.997585e+10   7.031364e+09   1.960880e+05   1.309324e-28   0.000000e+00   0.000000e+00
     2328000   2.327999e-07   1.334883e-01   6.364863e+00   1.638817e+01   1.486912e+05  -7.034745e+04   1.067364e+05   3.752988e+10   8.999711e+10   7.033269e+09   1.960880e+05   1.309412e-28   0.000000e+00   0.000000e+00
     2336000   2.335999e-07   1.336073e-01   6.364806e+00   1.638826e+01   1.487212e+05  -7.027544e+04   1.067421e+05   3.748714e+10   9.001835e+10   7.035171e+09   1.960880e+05   1.309500e-28   0.000000e+00   0.000000e+00
     2344000   2.343999e-07   1.337263e-01   6.364750e+00   1.638834e+01   1.487511e+05  -7.020342e+04   1.067477e+05   3.744439e+10   9.003957e+10   7.037070e+09   1.960880e+05   1.309589e-28   0.000000e+00   0.000000e+00
     2352000   2.351999e-07   1.338453e-01   6.364694e+00   1.638843e+01   1.487811e+05  -7.013138e+04   1.067533e+05   3.740162e+10   9.006077e+10   7.038967e+09   1.960880e+05   1.309677e-28   0.000000e+00   0.000000e+00
     2360000   2.359999e-07   1.339643e-01   6.364638e+00   1.638851e+01   1.488110e+05  -7.005932e+04   1.067590e+05   3.735884e+10   9.008196e+10   7.040860e+09   1.960880e+05   1.309765e-28   0.000000e+00   0.000000e+00
     2368000   2.367999e-07   1.340834e-01   6.364582e+00   1.638860e+01   1.488409e+05  -6.998725e+04   1.067646e+05   3.731606e+10   9.010312e+10   7.042751e+09   1.960880e+05   1.309854e-28   0.000000e+00   0.000000e+00
     2376000   2.375999e-07   1.342025e-01   6.364526e+00   1.638868e+01   1.488707e+05  -6.991516e+04   1.067702e+05   3.727326e+10   9.012427e+10   7.044639e+09   1.960880e+05   1.309942e-28   0.000000e+00   0.000000e+00
     2384000   2.383999e-07   1.343216e-01   6.364470e+00   1.638877e+01   1.489005e+05  -6.984305e+04   1.067759e+05   3.723045e+10   9.014540e+10   7.046524e+09   1.960880e+05   1.310031e-28   0.000000e+00   0.000000e+00
     2392000   2.391999e-07   1.344407e-01   6.364414e+00   1.638886e+01   1.489303e+05  -6.977092e+04   1.067815e+05   3.718762e+10   9.016652e+10   7.048406e+09   1.960880e+05   1.310119e-28   0.000000e+00   0.000000e+00
     2400000   2.399999e-07   1.345598e-01   6.364358e+00   1.638894e+01   1.489600e+05  -6.969878e+04   1.067871e+05   3.714479e+10   9.018761e+10   7.050285e+09   1.960880e+05   1.310208e-28   0.000000e+00   0.000000e+00
     2408000   2.407999e-07   1.346790e-01   6.364303e+00   1.638903e+01   1.489897e+05  -6.962662e+04   1.067928e+05   3.710194e+10   9.020869e+10   7.052162e+09   1.960880e+05   1.310297e-28   0.000000e+00   0.000000e+00
     2416000   2.415999e-07   1.347982e-01   6.364247e+00   1.638911e+01   1.490194e+05  -6.955445e+04   1.067984e+05   3.705909e+10   9.022975e+10   7.054035e+09   1.960880e+05   1.310386e-28   0.000000e+00   0.000000e+00
     2424000   2.423999e-07   1.349175e-01   6.364191e+00   1.638920e+01   1.490490e+05  -6.948226e+04   1.068041e+05   3.701622e+10   9.025079e+10   7.055906e+09   1.960880e+05   1.310474e-28   0.000000e+00   0.000000e+00
     2432000   2.431999e-07   1.350367e-01   6.364136e+00   1.638928e+01   1.490786e+05  -6.941005e+04   1.068097e+05   3.697334e+10   9.027181e+10   7.057774e+09   1.960880e+05   1.310563e-28   0.000000e+00   0.000000e+00
     2440000   2.439999e-07   1.351560e-01   6.364080e+00   1.638937e+01   1.491081e+05  -6.933782e+04   1.068154e+05   3.693044e+10   9.029282e+10   7.059639e+09   1.960880e+05   1.310652e-28   0.000000e+00   0.000000e+00
     2448000   2.447999e-07   1.352753e-01   6.364025e+00   1.638945e+01   1.491377e+05  -6.926558e+04   1.068210e+05   3.688754e+10   9.031380e+10   7.061501e+09   1.960880e+05   1.310741e-28   0.000000e+00   0.000000e+00
     2456000   2.455999e-07   1.353946e-01   6.363970e+00   1.638954e+01   1.491672e+05  -6.919332e+04   1.068267e+05   3.684462e+10   9.033477e+10   7.063360e+09   1.960880e+05   1.310830e-28   0.000000e+00   0.000000e+00
     2464000   2.463999e-07   1.355139e-01   6.363914e+00   1.638962e+01   1.491966e+05  -6.912104e+04   1.068323e+05   3.680170e+10   9.035572e+10   7.065217e+09   1.960880e+05   1.310919e-28   0.000000e+00   0.000000e+00
     2472000   2.471999e-07   1.356333e-01   6.363859e+00   1.638971e+01   1.492261e+05  -6.904875e+04   1.068380e+05   3.675876e+10   9.037666e+10   7.067070e+09   1.960880e+05   1.311009e-28   0.000000e+00   0.000000e+00
     2480000   2.479999e-07   1.357527e-01   6.363804e+00   1.638980e+01   1.492554e+05  -6.897644e+04   1.068436e+05   3.671581e+10   9.039757e+10   7.068921e+09   1.960880e+05   1.311098e-28   0.000000e+00   0.000000e+00
     2488000   2.487999e-07   1.358721e-01   6.363749e+00   1.638988e+01   1.492848e+05  -6.890411e+04   1.068493e+05   3.667285e+10   9.041847e+10   7.070769e+09   1.960880e+05   1.311187e-28   0.000000e+00   0.000000e+00
     2496000   2.495999e-07   1.359916e-01   6.363693e+00   1.638997e+01   1.493141e+05  -6.883177e+04   1.068549e+05   3.662988e+10   9.043935e+10   7.072613e+09   1.960880e+05   1.311276e-28   0.000000e+00   0.000000e+00
     2504000   2.503999e-07   1.361110e-01   6.363638e+00   1.639005e+01   1.493434e+05  -6.875941e+04   1.068606e+05   3.658689e+10   9.046021e+10   7.074455e+09   1.960880e+05   1.311366e-28   0.000000e+00   0.000000e+00
     2512000   2.511999e-07   1.362305e-01   6.363583e+00   1.639014e+01   1.493727e+05  -6.868703e+04   1.068663e+05   3.654390e+10   9.048105e+10   7.076294e+09   1.960880e+05   1.311455e-28   0.000000e+00   0.000000e+00
     2520000   2.519999e-07   1.363500e-01   6.363529e+00   1.639022e+01   1.494019e+05  -6.861464e+04   1.068719e+05   3.650089e+10   9.050187e+10   7.078130e+09   1.960880e+05   1.311545e-28   0.000000e+00   0.000000e+00
     2528000   2.527999e-07   1.364696e-01   6.363474e+00   1.639031e+01   1.494311e+05  -6.854223e+04   1.068776e+05   3.645787e+10   9.052268e+10   7.079964e+09   1.960880e+05   1.311634e-28   0.000000e+00   0.000000e+00
     2536000   2.535999e-07   1.365891e-01   6.363419e+00   1.639039e+01   1.494602e+05  -6.846980e+04   1.068832e+05   3.641484e+10   9.054347e+10   7.081794e+09   1.960880e+05   1.311724e-28   0.000000e+00   0.000000e+00
     2544000   2.543999e-07   1.367087e-01   6.363364e+00   1.639048e+01   1.494893e+05  -6.839736e+04   1.068889e+05   3.637180e+10   9.056424e+10   7.083621e+09   1.960880e+05   1.311814e-28   0.000000e+00   0.000000e+00
     2552000   2.551999e-07   1.368283e-01   6.363309e+00   1.639056e+01   1.495184e+05  -6.832490e+04   1.068946e+05   3.632874e+10   9.058499e+10   7.085446e+09   1.960880e+05   1.311903e-28   0.000000e+00   0.000000e+00
     2560000   2.559999e-07   1.369479e-01   6.363255e+00   1.639065e+01   1.495474e+05  -6.825243e+04   1.069002e+05   3.628568e+10   9.060572e+10   7.087267e+09   1.960880e+05   1.311993e-28   0.000000e+00   0.000000e+00
     2568000   2.567999e-07   1.370676e-01   6.363200e+00   1.639074e+01   1.495765e+05  -6.817993e+04   1.069059e+05   3.624260e+10   9.062644e+10   7.089086e+09   1.960880e+05   1.312083e-28   0.000000e+00   0.000000e+00
     2576000   2.575999e-07   1.371872e-01   6.363146e+00   1.639082e+01   1.496054e+05  -6.810742e+04   1.069116e+05   3.619952e+10   9.064714e+10   7.090901e+09   1.960880e+05   1.312173e-28   0.000000e+00   0.000000e+00
     2584000   2.583999e-07   1.373069e-01   6.363091e+00   1.639091e+01   1.496344e+05  -6.803490e+04   1.069173e+05   3.615642e+10   9.066782e+10   7.092714e+09   1.960880e+05   1.312263e-28   0.000000e+00   0.000000e+00
     2592000   2.591999e-07   1.374267e-01   6.363037e+00   1.639099e+01   1.496633e+05  -6.796235e+04   1.069229e+05   3.611331e+10   9.068848e+10   7.094524e+09   1.960880e+05   1.312353e-28   0.000000e+00   0.000000e+00
     2600000   2.599999e-07   1.375464e-01   6.362983e+00   1.639108e+01   1.496922e+05  -6.788980e+04   1.069286e+05   3.607018e+10   9.070912e+10   7.096331e+09   1.960880e+05   1.312443e-28   0.000000e+00   0.000000e+00
     2608000   2.607999e-07   1.376662e-01   6.362928e+00   1.639116e+01   1.497210e+05  -6.781722e+04   1.069343e+05   3.602705e+10   9.072975e+10   7.098134e+09   1.960880e+05   1.312533e-28   0.000000e+00   0.000000e+00
     2616000   2.615999e-07   1.377860e-01   6.362874e+00   1.639125e+01   1.497498e+05  -6.774463e+04   1.069400e+05   3.598391e+10   9.075035e+10   7.099935e+09   1.960880e+05   1.312623e-28   0.000000e+00   0.000000e+00
     2624000   2.623999e-07   1.379058e-01   6.362820e+00   1.639133e+01   1.497786e+05  -6.767202e+04   1.069456e+05   3.594075e+10   9.077094e+10   7.101733e+09   1.960880e+05   1.312714e-28   0.000000e+00   0.000000e+00
     2632000   2.631999e-07   1.380256e-01   6.362766e+00   1.639142e+01   1.498073e+05  -6.759939e+04   1.069513e+05   3.589758e+10   9.079151e+10   7.103528e+09   1.960880e+05   1.312804e-28   0.000000e+00   0.000000e+00
     2640000   2.639999e-07   1.381455e-01   6.362712e+00   1.639151e+01   1.498360e+05  -6.752675e+04   1.069570e+05   3.585440e+10   9.081206e+10   7.105320e+09   1.960880e+05   1.312894e-28   0.000000e+00   0.000000e+00
     2648000   2.647999e-07   1.382653e-01   6.362658e+00   1.639159e+01   1.498647e+05  -6.745409e+04   1.069627e+05   3.581121e+10   9.083260e+10   7.107109e+09   1.960880e+05   1.312985e-28   0.000000e+00   0.000000e+00
     2656000   2.655999e-07   1.383852e-01   6.362604e+00   1.639168e+01   1.498933e+05  -6.738142e+04   1.069684e+05   3.576801e+10   9.085311e+10   7.108896e+09   1.960880e+05   1.313075e-28   0.000000e+00   0.000000e+00
     2664000   2.663999e-07   1.385052e-01   6.362550e+00   1.639176e+01   1.499219e+05  -6.730873e+04   1.069741e+05   3.572480e+10   9.087361e+10   7.110679e+09   1.960880e+05   1.313166e-28   0.000000e+00   0.000000e+00
     2672000   2.671999e-07   1.386251e-01   6.362496e+00   1.639185e+01   1.499505e+05  -6.723602e+04   1.069798e+05   3.568158e+10   9.089409e+10   7.112459e+09   1.960880e+05   1.313257e-28   0.000000e+00   0.000000e+00
     2680000   2.679999e-07   1.387451e-01   6.362442e+00   1.639193e+01   1.499790e+05  -6.716330e+04   1.069855e+05   3.563834e+10   9.091455e+10   7.114236e+09   1.960880e+05   1.313347e-28   0.000000e+00   0.000000e+00
     2688000   2.687999e-07   1.388651e-01   6.362389e+00   1.639202e+01   1.500075e+05  -6.709056e+04   1.069911e+05   3.559509e+10   9.093500e+10   7.116010e+09   1.960880e+05   1.313438e-28   0.000000e+00   0.000000e+00
     2696000   2.695999e-07   1.389851e-01   6.362335e+00   1.639210e+01   1.500359e+05  -6.701780e+04   1.069968e+05   3.555184e+10   9.095542e+10   7.117781e+09   1.960880e+05   1.313529e-28   0.000000e+00   0.000000e+00
     2704000   2.703999e-07   1.391051e-01   6.362281e+00   1.639219e+01   1.500644e+05  -6.694503e+04   1.070025e+05   3.550857e+10   9.097583e+10   7.119550e+09   1.960880e+05   1.313620e-28   0.000000e+00   0.000000e+00
     2712000   2.711999e-07   1.392252e-01   6.362228e+00   1.639228e+01   1.500928e+05  -6.687224e+04   1.070082e+05   3.546529e+10   9.099622e+10   7.121315e+09   1.960880e+05   1.313710e-28   0.000000e+00   0.000000e+00
     2720000   2.719999e-07   1.393453e-01   6.362174e+00   1.639236e+01   1.501211e+05  -6.679944e+04   1.070139e+05   3.542199e+10   9.101659e+10   7.123077e+09   1.960880e+05   1.313801e-28   0.000000e+00   0.000000e+00
     2728000   2.727999e-07   1.394654e-01   6.362121e+00   1.639245e+01   1.501494e+05  -6.672662e+04   1.070196e+05   3.537869e+10   9.103694e+10   7.124836e+09   1.960880e+05   1.313892e-28   0.000000e+00   0.000000e+00
     2736000   2.735999e-07   1.395855e-01   6.362068e+00   1.639253e+01   1.501777e+05  -6.665378e+04   1.070253e+05   3.533538e+10   9.105727e+10   7.126592e+09   1.960880e+05   1.313983e-28   0.000000e+00   0.000000e+00
     2744000   2.743999e-07   1.397057e-01   6.362014e+00   1.639262e+01   1.502060e+05  -6.658092e+04   1.070310e+05   3.529205e+10   9.107759e+10   7.128346e+09   1.960880e+05   1.314075e-28   0.000000e+00   0.000000e+00
     2752000   2.751999e-07   1.398259e-01   6.361961e+00   1.639270e+01   1.502342e+05  -6.650805e+04   1.070367e+05   3.524871e+10   9.109788e+10   7.130096e+09   1.960880e+05   1.314166e-28   0.000000e+00   0.000000e+00
     2760000   2.759999e-07   1.399461e-01   6.361908e+00   1.639279e+01   1.502624e+05  -6.643517e+04   1.070424e+05   3.520536e+10   9.111816e+10   7.131843e+09   1.960880e+05   1.314257e-28   0.000000e+00   0.000000e+00
     2768000   2.767999e-07   1.400663e-01   6.361855e+00   1.639288e+01   1.502905e+05  -6.636226e+04   1.070481e+05   3.516200e+10   9.113842e+10   7.133587e+09   1.960880e+05   1.314348e-28   0.000000e+00   0.000000e+00
     2776000   2.775999e-07   1.401865e-01   6.361802e+00   1.639296e+01   1.503186e+05  -6.628935e+04   1.070539e+05   3.511863e+10   9.115867e+10   7.135328e+09   1.960880e+05   1.314440e-28   0.000000e+00   0.000000e+00
     2784000   2.783999e-07   1.403068e-01   6.361749e+00   1.639305e+01   1.503467e+05  -6.621641e+04   1.070596e+05   3.507525e+10   9.117889e+10   7.137066e+09   1.960880e+05   1.314531e-28   0.000000e+00   0.000000e+00
     2792000   2.791999e-07   1.404271e-01   6.361696e+00   1.639313e+01   1.503747e+05  -6.614346e+04   1.070653e+05   3.503186e+10   9.119910e+10   7.138801e+09   1.960880e+05   1.314623e-28   0.000000e+00   0.000000e+00
     2800000   2.799999e-07   1.405474e-01   6.361643e+00   1.639322e+01   1.504028e+05  -6.607049e+04   1.070710e+05   3.498845e+10   9.121928e+10   7.140533e+09   1.960880e+05   1.314714e-28   0.000000e+00   0.000000e+00
     2808000   2.807999e-07   1.406677e-01   6.361590e+00   1.639330e+01   1.504307e+05  -6.599751e+04   1.070767e+05   3.494504e+10   9.123945e+10   7.142262e+09   1.960880e+05   1.314806e-28   0.000000e+00   0.000000e+00
     2816000   2.815999e-07   1.407881e-01   6.361537e+00   1.639339e+01   1.504587e+05  -6.592451e+04   1.070824e+05   3.490161e+10   9.125960e+10   7.143988e+09   1.960880e+05   1.314897e-28   0.000000e+00   0.000000e+00
     2824000   2.823999e-07   1.409085e-01   6.361485e+00   1.639347e+01   1.504866e+05  -6.585149e+04   1.070881e+05   3.485817e+10   9.127973e+10   7.145711e+09   1.960880e+05   1.314989e-28   0.000000e+00   0.000000e+00
     2832000   2.831999e-07   1.410289e-01   6.361432e+00   1.639356e+01   1.505144e+05  -6.577846e+04   1.070938e+05   3.481472e+10   9.129985e+10   7.147431e+09   1.960880e+05   1.315081e-28   0.000000e+00   0.000000e+00
     2840000   2.839999e-07   1.411493e-01   6.361379e+00   1.639365e+01   1.505423e+05  -6.570541e+04   1.070996e+05   3.477126e+10   9.131994e+10   7.149148e+09   1.960880e+05   1.315173e-28   0.000000e+00   0.000000e+00
     2848000   2.847999e-07   1.412697e-01   6.361327e+00   1.639373e+01   1.505701e+05  -6.563235e+04   1.071053e+05   3.472779e+10   9.134002e+10   7.150862e+09   1.960880e+05   1.315265e-28   0.000000e+00   0.000000e+00
     2856000   2.855999e-07   1.413902e-01   6.361274e+00   1.639382e+01   1.505978e+05  -6.555927e+04   1.071110e+05   3.468431e+10   9.136008e+10   7.152572e+09   1.960880e+05   1.315356e-28   0.000000e+00   0.000000e+00
     2864000   2.863999e-07   1.415107e-01   6.361222e+00   1.639390e+01   1.506256e+05  -6.548617e+04   1.071167e+05   3.464081e+10   9.138012e+10   7.154280e+09   1.960880e+05   1.315448e-28   0.000000e+00   0.000000e+00
     2872000   2.871999e-07   1.416312e-01   6.361170e+00   1.639399e+01   1.506533e+05  -6.541306e+04   1.071225e+05   3.459731e+10   9.140014e+10   7.155984e+09   1.960880e+05   1.315540e-28   0.000000e+00   0.000000e+00
     2880000   2.879999e-07   1.417517e-01   6.361117e+00   1.639407e+01   1.506809e+05  -6.533993e+04   1.071282e+05   3.455379e+10   9.142015e+10   7.157686e+09   1.960880e+05   1.315633e-28   0.000000e+00   0.000000e+00
     2888000   2.887999e-07   1.418723e-01   6.361065e+00   1.639416e+01   1.507086e+05  -6.526679e+04   1.071339e+05   3.451026e+10   9.144013e+10   7.159384e+09   1.960880e+05   1.315725e-28   0.000000e+00   0.000000e+00
     2896000   2.895999e-07   1.419929e-01   6.361013e+00   1.639425e+01   1.507361e+05  -6.519363e+04   1.071396e+05   3.446673e+10   9.146010e+10   7.161080e+09   1.960880e+05   1.315817e-28   0.000000e+00   0.000000e+00
     2904000   2.903999e-07   1.421135e-01   6.360961e+00   1.639433e+01   1.507637e+05  -6.512045e+04   1.071454e+05   3.442318e+10   9.148005e+10   7.162772e+09   1.960880e+05   1.315909e-28   0.000000e+00   0.000000e+00
     2912000   2.911999e-07   1.422341e-01   6.360909e+00   1.639442e+01   1.507912e+05  -6.504726e+04   1.071511e+05   3.437962e+10   9.149998e+10   7.164461e+09   1.960880e+05   1.316002e-28   0.000000e+00   0.000000e+00
     2920000   2.919999e-07   1.423547e-01   6.360857e+00   1.639450e+01   1.508187e+05  -6.497405e+04   1.071568e+05   3.433604e+10   9.151989e+10   7.166147e+09   1.960880e+05   1.316094e-28   0.000000e+00   0.000000e+00
     2928000   2.927999e-07   1.424754e-01   6.360805e+00   1.639459e+01   1.508462e+05  -6.490083e+04   1.071626e+05   3.429246e+10   9.153979e+10   7.167830e+09   1.960880e+05   1.316186e-28   0.000000e+00   0.000000e+00
     2936000   2.935999e-07   1.425961e-01   6.360753e+00   1.639467e+01   1.508736e+05  -6.482759e+04   1.071683e+05   3.424887e+10   9.155966e+10   7.169510e+09   1.960880e+05   1.316279e-28   0.000000e+00   0.000000e+00
     2944000   2.943999e-07   1.427168e-01   6.360701e+00   1.639476e+01   1.509010e+05  -6.475433e+04   1.071740e+05   3.420526e+10   9.157952e+10   7.171187e+09   1.960880e+05   1.316371e-28   0.000000e+00   0.000000e+00
     2952000   2.951999e-07   1.428375e-01   6.360649e+00   1.639485e+01   1.509283e+05  -6.468106e+04   1.071798e+05   3.416164e+10   9.159936e+10   7.172860e+09   1.960880e+05   1.316464e-28   0.000000e+00   0.000000e+00
     2960000   2.959999e-07   1.429583e-01   6.360597e+00   1.639493e+01   1.509556e+05  -6.460777e+04   1.071855e+05   3.411802e+10   9.161918e+10   7.174531e+09   1.960880e+05   1.316557e-28   0.000000e+00   0.000000e+00
     2968000   2.967999e-07   1.430791e-01   6.360546e+00   1.639502e+01   1.509829e+05  -6.453447e+04   1.071912e+05   3.407438e+10   9.163898e+10   7.176198e+09   1.960880e+05   1.316650e-28   0.000000e+00   0.000000e+00
     2976000   2.975999e-07   1.431998e-01   6.360494e+00   1.639510e+01   1.510101e+05  -6.446115e+04   1.071970e+05   3.403073e+10   9.165876e+10   7.177863e+09   1.960880e+05   1.316742e-28   0.000000e+00   0.000000e+00
     2984000   2.983999e-07   1.433207e-01   6.360443e+00   1.639519e+01   1.510373e+05  -6.438782e+04   1.072027e+05   3.398707e+10   9.167852e+10   7.179524e+09   1.960880e+05   1.316835e-28   0.000000e+00   0.000000e+00
     2992000   2.991999e-07   1.434415e-01   6.360391e+00   1.639528e+01   1.510645e+05  -6.431447e+04   1.072085e+05   3.394340e+10   9.169827e+10   7.181182e+09   1.960880e+05   1.316928e-28   0.000000e+00   0.000000e+00
     3000000   2.999999e-07   1.435624e-01   6.360340e+00   1.639536e+01   1.510917e+05  -6.424110e+04   1.072142e+05   3.389971e+10   9.171800e+10   7.182837e+09   1.960880e+05   1.317021e-28   0.000000e+00   0.000000e+00
     3008000   3.007999e-07   1.436833e-01   6.360288e+00   1.639545e+01   1.511188e+05  -6.416772e+04   1.072200e+05   3.385602e+10   9.173771e+10   7.184489e+09   1.960880e+05   1.317114e-28   0.000000e+00   0.000000e+00
     3016000   3.015999e-07   1.438042e-01   6.360237e+00   1.639553e+01   1.511458e+05  -6.409432e+04   1.072257e+05   3.381232e+10   9.175740e+10   7.186137e+09   1.960880e+05   1.317207e-28   0.000000e+00   0.000000e+00
     3024000   3.023999e-07   1.439251e-01   6.360186e+00   1.639562e+01   1.511729e+05  -6.402091e+04   1.072315e+05   3.376860e+10   9.177707e+10   7.187783e+09   1.960880e+05   1.317300e-28   0.000000e+00   0.000000e+00
     3032000   3.031999e-07   1.440460e-01   6.360135e+00   1.639570e+01   1.511999e+05  -6.394748e+04   1.072372e+05   3.372487e+10   9.179672e+10   7.189425e+09   1.960880e+05   1.317393e-28   0.000000e+00   0.000000e+00
     3040000   3.039999e-07   1.441670e-01   6.360084e+00   1.639579e+01   1.512268e+05  -6.387403e+04   1.072430e+05   3.368114e+10   9.181636e+10   7.191064e+09   1.960880e+05   1.317487e-28   0.000000e+00   0.000000e+00
     3048000   3.047999e-07   1.442880e-01   6.360032e+00   1.639588e+01   1.512537e+05  -6.380057e+04   1.072487e+05   3.363739e+10   9.183598e+10   7.192701e+09   1.960880e+05   1.317580e-28   0.000000e+00   0.000000e+00
     3056000   3.055999e-07   1.444090e-01   6.359981e+00   1.639596e+01   1.512806e+05  -6.372709e+04   1.072545e+05   3.359363e+10   9.185557e+10   7.194334e+09   1.960880e+05   1.317673e-28   0.000000e+00   0.000000e+00
     3064000   3.063999e-07   1.445300e-01   6.359931e+00   1.639605e+01   1.513075e+05  -6.365360e+04   1.072602e+05   3.354986e+10   9.187515e+10   7.195963e+09   1.960880e+05   1.317767e-28   0.000000e+00   0.000000e+00
     3072000   3.071999e-07   1.446511e-01   6.359880e+00   1.639613e+01   1.513343e+05  -6.358009e+04   1.072660e+05   3.350608e+10   9.189471e+10   7.197590e+09   1.960880e+05   1.317860e-28   0.000000e+00   0.000000e+00
     3080000   3.079999e-07   1.447722e-01   6.359829e+00   1.639622e+01   1.513611e+05  -6.350657e+04   1.072717e+05   3.346228e+10   9.191426e+10   7.199213e+09   1.960880e+05   1.317954e-28   0.000000e+00   0.000000e+00
     3088000   3.087999e-07   1.448933e-01   6.359778e+00   1.639630e+01   1.513879e+05  -6.343303e+04   1.072775e+05   3.341848e+10   9.193378e+10   7.200834e+09   1.960880e+05   1.318047e-28   0.000000e+00   0.000000e+00
     3096000   3.095999e-07   1.450144e-01   6.359727e+00   1.639639e+01   1.514146e+05  -6.335948e+04   1.072833e+05   3.337466e+10   9.195329e+10   7.202451e+09   1.960880e+05   1.318141e-28   0.000000e+00   0.000000e+00
     3104000   3.103999e-07   1.451355e-01   6.359677e+00   1.639648e+01   1.514413e+05  -6.328591e+04   1.072890e+05   3.333084e+10   9.197277e+10   7.204065e+09   1.960880e+05   1.318235e-28   0.000000e+00   0.000000e+00
     3112000   3.111999e-07   1.452567e-01   6.359626e+00   1.639656e+01   1.514679e+05  -6.321232e+04   1.072948e+05   3.328700e+10   9.199224e+10   7.205676e+09   1.960880e+05   1.318329e-28   0.000000e+00   0.000000e+00
     3120000   3.119999e-07   1.453779e-01   6.359575e+00   1.639665e+01   1.514945e+05  -6.313872e+04   1.073006e+05   3.324316e+10   9.201169e+10   7.207283e+09   1.960880e+05   1.318422e-28   0.000000e+00   0.000000e+00
     3128000   3.127999e-07   1.454991e-01   6.359525e+00   1.639673e+01   1.515211e+05  -6.306510e+04   1.073063e+05   3.319930e+10   9.203112e+10   7.208888e+09   1.960880e+05   1.318516e-28   0.000000e+00   0.000000e+00
     3136000   3.135999e-07   1.456203e-01   6.359475e+00   1.639682e+01   1.515476e+05  -6.299147e+04   1.073121e+05   3.315543e+10   9.205054e+10   7.210489e+09   1.960880e+05   1.318610e-28   0.000000e+00   0.000000e+00
     3144000   3.143999e-07   1.457416e-01   6.359424e+00   1.639691e+01   1.515741e+05  -6.291782e+04   1.073179e+05   3.311155e+10   9.206993e+10   7.212087e+09   1.960880e+05   1.318704e-28   0.000000e+00   0.000000e+00
     3152000   3.151999e-07   1.458628e-01   6.359374e+00   1.639699e+01   1.516006e+05  -6.284416e+04   1.073236e+05   3.306766e+10   9.208931e+10   7.213682e+09   1.960880e+05   1.318798e-28   0.000000e+00   0.000000e+00
     3160000   3.159999e-07   1.459841e-01   6.359324e+00   1.639708e+01   1.516270e+05  -6.277048e+04   1.073294e+05   3.302376e+10   9.210866e+10   7.215273e+09   1.960880e+05   1.318892e-28   0.000000e+00   0.000000e+00
     3168000   3.167999e-07   1.461055e-01   6.359273e+00   1.639716e+01   1.516534e+05  -6.269678e+04   1.073352e+05   3.297984e+10   9.212800e+10   7.216862e+09   1.960880e+05   1.318987e-28   0.000000e+00   0.000000e+00
     3176000   3.175999e-07   1.462268e-01   6.359223e+00   1.639725e+01   1.516798e+05  -6.262307e+04   1.073410e+05   3.293592e+10   9.214732e+10   7.218447e+09   1.960880e+05   1.319081e-28   0.000000e+00   0.000000e+00
     3184000   3.183999e-07   1.463481e-01   6.359173e+00   1.639733e+01   1.517061e+05  -6.254935e+04   1.073467e+05   3.289199e+10   9.216662e+10   7.220029e+09   1.960880e+05   1.319175e-28   0.000000e+00   0.000000e+00
     3192000   3.191999e-07   1.464695e-01   6.359123e+00   1.639742e+01   1.517324e+05  -6.247561e+04   1.073525e+05   3.284804e+10   9.218590e+10   7.221608e+09   1.960880e+05   1.319270e-28   0.000000e+00   0.000000e+00
     3200000   3.199999e-07   1.465909e-01   6.359073e+00   1.639751e+01   1.517587e+05  -6.240185e+04   1.073583e+05   3.280409e+10   9.220517e+10   7.223184e+09   1.960880e+05   1.319364e-28   0.000000e+00   0.000000e+00
     3208000   3.207999e-07   1.467123e-01   6.359023e+00   1.639759e+01   1.517849e+05  -6.232808e+04   1.073641e+05   3.276012e+10   9.222441e+10   7.224756e+09   1.960880e+05   1.319458e-28   0.000000e+00   0.000000e+00
     3216000   3.215999e-07   1.468338e-01   6.358974e+00   1.639768e+01   1.518111e+05  -6.225429e+04   1.073698e+05   3.271614e+10   9.224364e+10   7.226325e+09   1.960880e+05   1.319553e-28   0.000000e+00   0.000000e+00
     3224000   3.223999e-07   1.469552e-01   6.358924e+00   1.639776e+01   1.518373e+05  -6.218049e+04   1.073756e+05   3.267215e+10   9.226285e+10   7.227891e+09   1.960880e+05   1.319647e-28   0.000000e+00   0.000000e+00
     3232000   3.231999e-07   1.470767e-01   6.358874e+00   1.639785e+01   1.518634e+05  -6.210667e+04   1.073814e+05   3.262815e+10   9.228204e+10   7.229454e+09   1.960880e+05   1.319742e-28   0.000000e+00   0.000000e+00
     3240000   3.239999e-07   1.471982e-01   6.358824e+00   1.639794e+01   1.518895e+05  -6.203284e+04   1.073872e+05   3.258414e+10   9.230121e+10   7.231013e+09   1.960880e+05   1.319837e-28   0.000000e+00   0.000000e+00
     3248000   3.247999e-07   1.473197e-01   6.358775e+00   1.639802e+01   1.519155e+05  -6.195899e+04   1.073930e+05   3.254012e+10   9.232036e+10   7.232569e+09   1.960880e+05   1.319932e-28   0.000000e+00   0.000000e+00
     3256000   3.255999e-07   1.474413e-01   6.358725e+00   1.639811e+01   1.519415e+05  -6.188512e+04   1.073988e+05   3.249609e+10   9.233949e+10   7.234122e+09   1.960880e+05   1.320026e-28   0.000000e+00   0.000000e+00
     3264000   3.263999e-07   1.475628e-01   6.358676e+00   1.639819e+01   1.519675e+05  -6.181124e+04   1.074046e+05   3.245205e+10   9.235861e+10   7.235672e+09   1.960880e+05   1.320121e-28   0.000000e+00   0.000000e+00
     3272000   3.271999e-07   1.476844e-01   6.358626e+00   1.639828e+01   1.519935e+05  -6.173735e+04   1.074103e+05   3.240800e+10   9.237771e+10   7.237219e+09   1.960880e+05   1.320216e-28   0.000000e+00   0.000000e+00
     3280000   3.279999e-07   1.478060e-01   6.358577e+00   1.639837e+01   1.520194e+05  -6.166344e+04   1.074161e+05   3.236393e+10   9.239678e+10   7.238762e+09   1.960880e+05   1.320311e-28   0.000000e+00   0.000000e+00
     3288000   3.287999e-07   1.479277e-01   6.358528e+00   1.639845e+01   1.520452e+05  -6.158952e+04   1.074219e+05   3.231986e+10   9.241584e+10   7.240302e+09   1.960880e+05   1.320406e-28   0.000000e+00   0.000000e+00
     3296000   3.295999e-07   1.480493e-01   6.358479e+00   1.639854e+01   1.520711e+05  -6.151557e+04   1.074277e+05   3.227577e+10   9.243488e+10   7.241838e+09   1.960880e+05   1.320501e-28   0.000000e+00   0.000000e+00
     3304000   3.303999e-07   1.481710e-01   6.358429e+00   1.639862e+01   1.520969e+05  -6.144162e+04   1.074335e+05   3.223168e+10   9.245390e+10   7.243372e+09   1.960880e+05   1.320596e-28   0.000000e+00   0.000000e+00
     3312000   3.311999e-07   1.482927e-01   6.358380e+00   1.639871e+01   1.521227e+05  -6.136765e+04   1.074393e+05   3.218757e+10   9.247291e+10   7.244902e+09   1.960880e+05   1.320692e-28   0.000000e+00   0.000000e+00
     3320000   3.319999e-07   1.484144e-01   6.358331e+00   1.639880e+01   1.521484e+05  -6.129366e+04   1.074451e+05   3.214345e+10   9.249189e+10   7.246429e+09   1.960880e+05   1.320787e-28   0.000000e+00   0.000000e+00
     3328000   3.327999e-07   1.485361e-01   6.358282e+00   1.639888e+01   1.521741e+05  -6.121966e+04   1.074509e+05   3.209932e+10   9.251085e+10   7.247953e+09   1.960880e+05   1.320882e-28   0.000000e+00   0.000000e+00
     3336000   3.335999e-07   1.486578e-01   6.358233e+00   1.639897e+01   1.521997e+05  -6.114565e+04   1.074567e+05   3.205518e+10   9.252980e+10   7.249473e+09   1.960880e+05   1.320978e-28   0.000000e+00   0.000000e+00
     3344000   3.343999e-07   1.487796e-01   6.358184e+00   1.639905e+01   1.522254e+05  -6.107161e+04   1.074625e+05   3.201103e+10   9.254873e+10   7.250990e+09   1.960880e+05   1.321073e-28   0.000000e+00   0.000000e+00
     3352000   3.351999e-07   1.489014e-01   6.358135e+00   1.639914e+01   1.522510e+05  -6.099757e+04   1.074683e+05   3.196687e+10   9.256764e+10   7.252504e+09   1.960880e+05   1.321169e-28   0.000000e+00   0.000000e+00
     3360000   3.359999e-07   1.490232e-01   6.358087e+00   1.639923e+01   1.522765e+05  -6.092351e+04   1.074741e+05   3.192270e+10   9.258653e+10   7.254014e+09   1.960880e+05   1.321264e-28   0.000000e+00   0.000000e+00
     3368000   3.367999e-07   1.491450e-01   6.358038e+00   1.639931e+01   1.523020e+05  -6.084943e+04   1.074799e+05   3.187852e+10   9.260540e+10   7.255521e+09   1.960880e+05   1.321360e-28   0.000000e+00   0.000000e+00
     3376000   3.375999e-07   1.492669e-01   6.357989e+00   1.639940e+01   1.523275e+05  -6.077534e+04   1.074857e+05   3.183433e+10   9.262425e+10   7.257025e+09   1.960880e+05   1.321455e-28   0.000000e+00   0.000000e+00
     3384000   3.383999e-07   1.493888e-01   6.357941e+00   1.639948e+01   1.523530e+05  -6.070123e+04   1.074915e+05   3.179013e+10   9.264309e+10   7.258526e+09   1.960880e+05   1.321551e-28   0.000000e+00   0.000000e+00
     3392000   3.391999e-07   1.495107e-01   6.357892e+00   1.639957e+01   1.523784e+05  -6.062711e+04   1.074973e+05   3.174591e+10   9.266190e+10   7.260023e+09   1.960880e+05   1.321647e-28   0.000000e+00   0.000000e+00
     3400000   3.399999e-07   1.496326e-01   6.357844e+00   1.639966e+01   1.524038e+05  -6.055297e+04   1.075031e+05   3.170169e+10   9.268070e+10   7.261517e+09   1.960880e+05   1.321743e-28   0.000000e+00   0.000000e+00
     3408000   3.407999e-07   1.497545e-01   6.357795e+00   1.639974e+01   1.524291e+05  -6.047882e+04   1.075089e+05   3.165745e+10   9.269947e+10   7.263008e+09   1.960880e+05   1.321839e-28   0.000000e+00   0.000000e+00
     3416000   3.415999e-07   1.498765e-01   6.357747e+00   1.639983e+01   1.524544e+05  -6.040465e+04   1.075148e+05   3.161321e+10   9.271823e+10   7.264495e+09   1.960880e+05   1.321935e-28   0.000000e+00   0.000000e+00
     3424000   3.423999e-07   1.499984e-01   6.357699e+00   1.639991e+01   1.524797e+05  -6.033047e+04   1.075206e+05   3.156895e+10   9.273697e+10   7.265979e+09   1.960880e+05   1.322031e-28   0.000000e+00   0.000000e+00
     3432000   3.431999e-07   1.501204e-01   6.357650e+00   1.640000e+01   1.525049e+05  -6.025627e+04   1.075264e+05   3.152468e+10   9.275569e+10   7.267460e+09   1.960880e+05   1.322127e-28   0.000000e+00   0.000000e+00
     3440000   3.439999e-07   1.502424e-01   6.357602e+00   1.640009e+01   1.525301e+05  -6.018205e+04   1.075322e+05   3.144336e+10   9.278417e+10   7.326954e+09   1.960880e+05   1.322268e-28   0.000000e+00   0.000000e+00
     3448000   3.447999e-07   1.503645e-01   6.357554e+00   1.640017e+01   1.525552e+05  -6.010782e+04   1.075381e+05   3.139901e+10   9.280302e+10   7.328607e+09   1.960880e+05   1.322368e-28   0.000000e+00   0.000000e+00
     3456000   3.455999e-07   1.504865e-01   6.357506e+00   1.640026e+01   1.525803e+05  -6.003357e+04   1.075440e+05   3.135465e+10   9.282185e+10   7.330257e+09   1.960880e+05   1.322469e-28   0.000000e+00   0.000000e+00
     3464000   3.463999e-07   1.506086e-01   6.357458e+00   1.640034e+01   1.526054e+05  -5.995930e+04   1.075498e+05   3.131027e+10   9.284066e+10   7.331903e+09   1.960880e+05   1.322570e-28   0.000000e+00   0.000000e+00
     3472000   3.471999e-07   1.507307e-01   6.357410e+00   1.640043e+01   1.526304e+05  -5.988502e+04   1.075557e+05   3.126589e+10   9.285945e+10   7.333546e+09   1.960880e+05   1.322671e-28   0.000000e+00   0.000000e+00
     3480000   3.479999e-07   1.508528e-01   6.357362e+00   1.640052e+01   1.526554e+05  -5.981073e+04   1.075616e+05   3.122150e+10   9.287823e+10   7.335186e+09   1.960880e+05   1.322772e-28   0.000000e+00   0.000000e+00
     3488000   3.487999e-07   1.509749e-01   6.357314e+00   1.640060e+01   1.526804e+05  -5.973642e+04   1.075674e+05   3.117709e+10   9.289698e+10   7.336822e+09   1.960880e+05   1.322873e-28   0.000000e+00   0.000000e+00
     3496000   3.495999e-07   1.510971e-01   6.357267e+00   1.640069e+01   1.527053e+05  -5.966209e+04   1.075733e+05   3.113268e+10   9.291572e+10   7.338454e+09   1.960880e+05   1.322974e-28   0.000000e+00   0.000000e+00
     3504000   3.503999e-07   1.512193e-01   6.357219e+00   1.640077e+01   1.527302e+05  -5.958775e+04   1.075792e+05   3.108825e+10   9.293444e+10   7.340083e+09   1.960880e+05   1.323075e-28   0.000000e+00   0.000000e+00
     3512000   3.511999e-07   1.513415e-01   6.357171e+00   1.640086e+01   1.527551e+05  -5.951340e+04   1.075850e+05   3.104381e+10   9.295313e+10   7.341709e+09   1.960880e+05   1.323177e-28   0.000000e+00   0.000000e+00
     3520000   3.519999e-07   1.514637e-01   6.357124e+00   1.640095e+01   1.527799e+05  -5.943903e+04   1.075909e+05   3.099937e+10   9.297181e+10   7.343331e+09   1.960880e+05   1.323278e-28   0.000000e+00   0.000000e+00
     3528000   3.527999e-07   1.515859e-01   6.357076e+00   1.640103e+01   1.528047e+05  -5.936464e+04   1.075968e+05   3.095491e+10   9.299048e+10   7.344950e+09   1.960880e+05   1.323379e-28   0.000000e+00   0.000000e+00
     3536000   3.535999e-07   1.517082e-01   6.357029e+00   1.640112e+01   1.528294e+05  -5.929024e+04   1.076027e+05   3.091044e+10   9.300912e+10   7.346565e+09   1.960880e+05   1.323481e-28   0.000000e+00   0.000000e+00
     3544000   3.543999e-07   1.518304e-01   6.356981e+00   1.640120e+01   1.528541e+05  -5.921583e+04   1.076086e+05   3.086596e+10   9.302774e+10   7.348176e+09   1.960880e+05   1.323582e-28   0.000000e+00   0.000000e+00
     3552000   3.551999e-07   1.519527e-01   6.356934e+00   1.640129e+01   1.528788e+05  -5.914140e+04   1.076144e+05   3.082147e+10   9.304635e+10   7.349784e+09   1.960880e+05   1.323684e-28   0.000000e+00   0.000000e+00
     3560000   3.559999e-07   1.520750e-01   6.356887e+00   1.640138e+01   1.529034e+05  -5.906695e+04   1.076203e+05   3.077697e+10   9.306493e+10   7.351389e+09   1.960880e+05   1.323785e-28   0.000000e+00   0.000000e+00
     3568000   3.567999e-07   1.521974e-01   6.356840e+00   1.640146e+01   1.529280e+05  -5.899249e+04   1.076262e+05   3.073246e+10   9.308350e+10   7.352990e+09   1.960880e+05   1.323887e-28   0.000000e+00   0.000000e+00
     3576000   3.575999e-07   1.523197e-01   6.356792e+00   1.640155e+01   1.529526e+05  -5.891802e+04   1.076321e+05   3.068794e+10   9.310205e+10   7.354588e+09   1.960880e+05   1.323988e-28   0.000000e+00   0.000000e+00
     3584000   3.583999e-07   1.524421e-01   6.356745e+00   1.640163e+01   1.529771e+05  -5.884353e+04   1.076380e+05   3.064340e+10   9.312057e+10   7.356182e+09   1.960880e+05   1.324090e-28   0.000000e+00   0.000000e+00
     3592000   3.591999e-07   1.525645e-01   6.356698e+00   1.640172e+01   1.530016e+05  -5.876903e+04   1.076438e+05   3.059886e+10   9.313908e+10   7.357772e+09   1.960880e+05   1.324192e-28   0.000000e+00   0.000000e+00
     3600000   3.599999e-07   1.526869e-01   6.356651e+00   1.640181e+01   1.530261e+05  -5.869451e+04   1.076497e+05   3.055431e+10   9.315758e+10   7.359359e+09   1.960880e+05   1.324294e-28   0.000000e+00   0.000000e+00
     3608000   3.607999e-07   1.528093e-01   6.356604e+00   1.640189e+01   1.530505e+05  -5.861998e+04   1.076556e+05   3.050974e+10   9.317605e+10   7.360943e+09   1.960880e+05   1.324396e-28   0.000000e+00   0.000000e+00
     3616000   3.615999e-07   1.529318e-01   6.356557e+00   1.640198e+01   1.530749e+05  -5.854543e+04   1.076615e+05   3.046517e+10   9.319450e+10   7.362523e+09   1.960880e+05   1.324498e-28   0.000000e+00   0.000000e+00
     3624000   3.623999e-07   1.530543e-01   6.356511e+00   1.640207e+01   1.530993e+05  -5.847086e+04   1.076674e+05   3.042058e+10   9.321294e+10   7.364099e+09   1.960880e+05   1.324600e-28   0.000000e+00   0.000000e+00
     3632000   3.631999e-07   1.531767e-01   6.356464e+00   1.640215e+01   1.531236e+05  -5.839629e+04   1.076733e+05   3.037598e+10   9.323135e+10   7.365672e+09   1.960880e+05   1.324702e-28   0.000000e+00   0.000000e+00
     3640000   3.639999e-07   1.532993e-01   6.356417e+00   1.640224e+01   1.531479e+05  -5.832169e+04   1.076792e+05   3.033138e+10   9.324975e+10   7.367241e+09   1.960880e+05   1.324804e-28   0.000000e+00   0.000000e+00
     3648000   3.647999e-07   1.534218e-01   6.356371e+00   1.640232e+01   1.531721e+05  -5.824709e+04   1.076851e+05   3.028676e+10   9.326813e+10   7.368807e+09   1.960880e+05   1.324906e-28   0.000000e+00   0.000000e+00
     3656000   3.655999e-07   1.535443e-01   6.356324e+00   1.640241e+01   1.531963e+05  -5.817247e+04   1.076910e+05   3.024213e+10   9.328648e+10   7.370369e+09   1.960880e+05   1.325009e-28   0.000000e+00   0.000000e+00
     3664000   3.663999e-07   1.536669e-01   6.356278e+00   1.640250e+01   1.532205e+05  -5.809783e+04   1.076969e+05   3.019749e+10   9.330482e+10   7.371928e+09   1.960880e+05   1.325111e-28   0.000000e+00   0.000000e+00
     3672000   3.671999e-07   1.537895e-01   6.356231e+00   1.640258e+01   1.532446e+05  -5.802318e+04   1.077028e+05   3.015284e+10   9.332314e+10   7.373483e+09   1.960880e+05   1.325213e-28   0.000000e+00   0.000000e+00
     3680000   3.679999e-07   1.539121e-01   6.356185e+00   1.640267e+01   1.532687e+05  -5.794851e+04   1.077087e+05   3.010819e+10   9.334145e+10   7.375035e+09   1.960880e+05   1.325316e-28   0.000000e+00   0.000000e+00
     3688000   3.687999e-07   1.540347e-01   6.356138e+00   1.640275e+01   1.532928e+05  -5.787383e+04   1.077146e+05   3.006351e+10   9.335973e+10   7.376583e+09   1.960880e+05   1.325418e-28   0.000000e+00   0.000000e+00
     3696000   3.695999e-07   1.541574e-01   6.356092e+00   1.640284e+01   1.533168e+05  -5.779914e+04   1.077205e+05   3.001883e+10   9.337799e+10   7.378127e+09   1.960880e+05   1.325521e-28   0.000000e+00   0.000000e+00
     3704000   3.703999e-07   1.542800e-01   6.356046e+00   1.640293e+01   1.533408e+05  -5.772443e+04   1.077264e+05   2.997414e+10   9.339624e+10   7.379668e+09   1.960880e+05   1.325624e-28   0.000000e+00   0.000000e+00
     3712000   3.711999e-07   1.544027e-01   6.356000e+00   1.640301e+01   1.533648e+05  -5.764970e+04   1.077323e+05   2.992944e+10   9.341446e+10   7.381205e+09   1.960880e+05   1.325726e-28   0.000000e+00   0.000000e+00
     3720000   3.719999e-07   1.545254e-01   6.355954e+00   1.640310e+01   1.533887e+05  -5.757496e+04   1.077382e+05   2.988473e+10   9.343267e+10   7.382739e+09   1.960880e+05   1.325829e-28   0.000000e+00   0.000000e+00
     3728000   3.727999e-07   1.546481e-01   6.355908e+00   1.640319e+01   1.534126e+05  -5.750021e+04   1.077441e+05   2.984001e+10   9.345086e+10   7.384269e+09   1.960880e+05   1.325932e-28   0.000000e+00   0.000000e+00
     3736000   3.735999e-07   1.547709e-01   6.355862e+00   1.640327e+01   1.534365e+05  -5.742544e+04   1.077500e+05   2.979527e+10   9.346903e+10   7.385796e+09   1.960880e+05   1.326035e-28   0.000000e+00   0.000000e+00
     3744000   3.743999e-07   1.548936e-01   6.355816e+00   1.640336e+01   1.534603e+05  -5.735066e+04   1.077559e+05   2.975053e+10   9.348718e+10   7.387319e+09   1.960880e+05   1.326138e-28   0.000000e+00   0.000000e+00
     3752000   3.751999e-07   1.550164e-01   6.355770e+00   1.640344e+01   1.534841e+05  -5.727586e+04   1.077618e+05   2.970578e+10   9.350531e+10   7.388838e+09   1.960880e+05   1.326241e-28   0.000000e+00   0.000000e+00
     3760000   3.759999e-07   1.551392e-01   6.355724e+00   1.640353e+01   1.535078e+05  -5.720105e+04   1.077677e+05   2.966101e+10   9.352342e+10   7.390354e+09   1.960880e+05   1.326344e-28   0.000000e+00   0.000000e+00
     3768000   3.767999e-07   1.552620e-01   6.355678e+00   1.640362e+01   1.535315e+05  -5.712622e+04   1.077736e+05   2.961624e+10   9.354151e+10   7.391866e+09   1.960880e+05   1.326447e-28   0.000000e+00   0.000000e+00
     3776000   3.775999e-07   1.553848e-01   6.355633e+00   1.640370e+01   1.535552e+05  -5.705138e+04   1.077796e+05   2.957145e+10   9.355958e+10   7.393375e+09   1.960880e+05   1.326550e-28   0.000000e+00   0.000000e+00
     3784000   3.783999e-07   1.555077e-01   6.355587e+00   1.640379e+01   1.535788e+05  -5.697653e+04   1.077855e+05   2.952665e+10   9.357764e+10   7.394880e+09   1.960880e+05   1.326653e-28   0.000000e+00   0.000000e+00
     3792000   3.791999e-07   1.556306e-01   6.355542e+00   1.640387e+01   1.536024e+05  -5.690166e+04   1.077914e+05   2.948185e+10   9.359567e+10   7.396381e+09   1.960880e+05   1.326757e-28   0.000000e+00   0.000000e+00
     3800000   3.799999e-07   1.557535e-01   6.355496e+00   1.640396e+01   1.536260e+05  -5.682678e+04   1.077973e+05   2.943703e+10   9.361369e+10   7.397879e+09   1.960880e+05   1.326860e-28   0.000000e+00   0.000000e+00
     3808000   3.807999e-07   1.558764e-01   6.355451e+00   1.640405e+01   1.536495e+05  -5.675188e+04   1.078032e+05   2.939220e+10   9.363169e+10   7.399373e+09   1.960880e+05   1.326964e-28   0.000000e+00   0.000000e+00
     3816000   3.815999e-07   1.559993e-01   6.355405e+00   1.640413e+01   1.536730e+05  -5.667697e+04   1.078091e+05   2.934737e+10   9.364967e+10   7.400863e+09   1.960880e+05   1.327067e-28   0.000000e+00   0.000000e+00
     3824000   3.823999e-07   1.561223e-01   6.355360e+00   1.640422e+01   1.536965e+05  -5.660204e+04   1.078151e+05   2.930252e+10   9.366763e+10   7.402350e+09   1.960880e+05   1.327171e-28   0.000000e+00   0.000000e+00
     3832000   3.831999e-07   1.562452e-01   6.355315e+00   1.640431e+01   1.537199e+05  -5.652710e+04   1.078210e+05   2.925766e+10   9.368557e+10   7.403833e+09   1.960880e+05   1.327274e-28   0.000000e+00   0.000000e+00
     3840000   3.839999e-07   1.563682e-01   6.355269e+00   1.640439e+01   1.537433e+05  -5.645214e+04   1.078269e+05   2.921279e+10   9.370349e+10   7.405313e+09   1.960880e+05   1.327378e-28   0.000000e+00   0.000000e+00
     3848000   3.847999e-07   1.564912e-01   6.355224e+00   1.640448e+01   1.537667e+05  -5.637717e+04   1.078328e+05   2.916791e+10   9.372139e+10   7.406789e+09   1.960880e+05   1.327482e-28   0.000000e+00   0.000000e+00
     3856000   3.855999e-07   1.566142e-01   6.355179e+00   1.640456e+01   1.537900e+05  -5.630219e+04   1.078388e+05   2.912302e+10   9.373927e+10   7.408261e+09   1.960880e+05   1.327585e-28   0.000000e+00   0.000000e+00
     3864000   3.863999e-07   1.567373e-01   6.355134e+00   1.640465e+01   1.538133e+05  -5.622719e+04   1.078447e+05   2.907812e+10   9.375714e+10   7.409730e+09   1.960880e+05   1.327689e-28   0.000000e+00   0.000000e+00
     3872000   3.871999e-07   1.568603e-01   6.355089e+00   1.640474e+01   1.538365e+05  -5.615218e+04   1.078506e+05   2.903321e+10   9.377498e+10   7.411195e+09   1.960880e+05   1.327793e-28   0.000000e+00   0.000000e+00
     3880000   3.879999e-07   1.569834e-01   6.355044e+00   1.640482e+01   1.538597e+05  -5.607715e+04   1.078566e+05   2.898829e+10   9.379281e+10   7.412656e+09   1.960880e+05   1.327897e-28   0.000000e+00   0.000000e+00
     3888000   3.887999e-07   1.571065e-01   6.355000e+00   1.640491e+01   1.538829e+05  -5.600211e+04   1.078625e+05   2.894336e+10   9.381061e+10   7.414114e+09   1.960880e+05   1.328001e-28   0.000000e+00   0.000000e+00
     3896000   3.895999e-07   1.572296e-01   6.354955e+00   1.640500e+01   1.539060e+05  -5.592705e+04   1.078684e+05   2.889842e+10   9.382840e+10   7.415568e+09   1.960880e+05   1.328105e-28   0.000000e+00   0.000000e+00
     3904000   3.903999e-07   1.573528e-01   6.354910e+00   1.640508e+01   1.539291e+05  -5.585198e+04   1.078743e+05   2.885347e+10   9.384617e+10   7.417018e+09   1.960880e+05   1.328209e-28   0.000000e+00   0.000000e+00
     3912000   3.911999e-07   1.574759e-01   6.354865e+00   1.640517e+01   1.539522e+05  -5.577690e+04   1.078803e+05   2.880851e+10   9.386392e+10   7.418465e+09   1.960880e+05   1.328313e-28   0.000000e+00   0.000000e+00
     3920000   3.919999e-07   1.575991e-01   6.354821e+00   1.640526e+01   1.539752e+05  -5.570180e+04   1.078862e+05   2.876354e+10   9.388165e+10   7.419908e+09   1.960880e+05   1.328418e-28   0.000000e+00   0.000000e+00
     3928000   3.927999e-07   1.577223e-01   6.354776e+00   1.640534e+01   1.539982e+05  -5.562669e+04   1.078922e+05   2.871855e+10   9.389936e+10   7.421347e+09   1.960880e+05   1.328522e-28   0.000000e+00   0.000000e+00
     3936000   3.935999e-07   1.578455e-01   6.354732e+00   1.640543e+01   1.540212e+05  -5.555156e+04   1.078981e+05   2.867356e+10   9.391705e+10   7.422783e+09   1.960880e+05   1.328626e-28   0.000000e+00   0.000000e+00
     3944000   3.943999e-07   1.579687e-01   6.354687e+00   1.640551e+01   1.540441e+05  -5.547642e+04   1.079040e+05   2.862856e+10   9.393472e+10   7.424215e+09   1.960880e+05   1.328731e-28   0.000000e+00   0.000000e+00
     3952000   3.951999e-07   1.580919e-01   6.354643e+00   1.640560e+01   1.540670e+05  -5.540127e+04   1.079100e+05   2.858355e+10   9.395237e+10   7.425643e+09   1.960880e+05   1.328835e-28   0.000000e+00   0.000000e+00
     3960000   3.959999e-07   1.582152e-01   6.354599e+00   1.640569e+01   1.540898e+05  -5.532610e+04   1.079159e+05   2.853852e+10   9.397001e+10   7.427067e+09   1.960880e+05   1.328940e-28   0.000000e+00   0.000000e+00
     3968000   3.967999e-07   1.583385e-01   6.354555e+00   1.640577e+01   1.541126e+05  -5.525091e+04   1.079219e+05   2.849349e+10   9.398762e+10   7.428488e+09   1.960880e+05   1.329044e-28   0.000000e+00   0.000000e+00
     3976000   3.975999e-07   1.584618e-01   6.354510e+00   1.640586e+01   1.541354e+05  -5.517572e+04   1.079278e+05   2.844844e+10   9.400522e+10   7.429905e+09   1.960880e+05   1.329149e-28   0.000000e+00   0.000000e+00
     3984000   3.983999e-07   1.585851e-01   6.354466e+00   1.640595e+01   1.541582e+05  -5.510051e+04   1.079337e+05   2.840339e+10   9.402279e+10   7.431319e+09   1.960880e+05   1.329254e-28   0.000000e+00   0.000000e+00
     3992000   3.991999e-07   1.587084e-01   6.354422e+00   1.640603e+01   1.541809e+05  -5.502528e+04   1.079397e+05   2.835833e+10   9.404035e+10   7.432729e+09   1.960880e+05   1.329359e-28   0.000000e+00   0.000000e+00
     4000000   3.999999e-07   1.588318e-01   6.354378e+00   1.640612e+01   1.542035e+05  -5.495004e+04   1.079456e+05   2.831325e+10   9.405789e+10   7.434135e+09   1.960880e+05   1.329464e-28   0.000000e+00   0.000000e+00
     4008000   4.007999e-07   1.589552e-01   6.354334e+00   1.640620e+01   1.542262e+05  -5.487479e+04   1.079516e+05   2.826817e+10   9.407541e+10   7.435537e+09   1.960880e+05   1.329568e-28   0.000000e+00   0.000000e+00
     4016000   4.015999e-07   1.590786e-01   6.354290e+00   1.640629e+01   1.542488e+05  -5.479952e+04   1.079575e+05   2.822307e+10   9.409290e+10   7.436936e+09   1.960880e+05   1.329673e-28   0.000000e+00   0.000000e+00
     4024000   4.023999e-07   1.592020e-01   6.354247e+00   1.640638e+01   1.542713e+05  -5.472424e+04   1.079635e+05   2.817797e+10   9.411039e+10   7.438331e+09   1.960880e+05   1.329778e-28   0.000000e+00   0.000000e+00
     4032000   4.031999e-07   1.593254e-01   6.354203e+00   1.640646e+01   1.542938e+05  -5.464894e+04   1.079694e+05   2.813285e+10   9.412785e+10   7.439722e+09   1.960880e+05   1.329883e-28   0.000000e+00   0.000000e+00
     4040000   4.039999e-07   1.594488e-01   6.354159e+00   1.640655e+01   1.543163e+05  -5.457363e+04   1.079754e+05   2.808773e+10   9.414529e+10   7.441109e+09   1.960880e+05   1.329989e-28   0.000000e+00   0.000000e+00
     4048000   4.047999e-07   1.595723e-01   6.354116e+00   1.640664e+01   1.543388e+05  -5.449831e+04   1.079813e+05   2.804259e+10   9.416271e+10   7.442493e+09   1.960880e+05   1.330094e-28   0.000000e+00   0.000000e+00
     4056000   4.055999e-07   1.596958e-01   6.354072e+00   1.640672e+01   1.543612e+05  -5.442297e+04   1.079873e+05   2.799744e+10   9.418011e+10   7.443873e+09   1.960880e+05   1.330199e-28   0.000000e+00   0.000000e+00
     4064000   4.063999e-07   1.598193e-01   6.354029e+00   1.640681e+01   1.543836e+05  -5.434762e+04   1.079932e+05   2.795229e+10   9.419750e+10   7.445249e+09   1.960880e+05   1.330304e-28   0.000000e+00   0.000000e+00
     4072000   4.071999e-07   1.599428e-01   6.353985e+00   1.640690e+01   1.544059e+05  -5.427226e+04   1.079992e+05   2.790712e+10   9.421486e+10   7.446622e+09   1.960880e+05   1.330410e-28   0.000000e+00   0.000000e+00
     4080000   4.079999e-07   1.600663e-01   6.353942e+00   1.640698e+01   1.544282e+05  -5.419688e+04   1.080052e+05   2.786195e+10   9.423221e+10   7.447990e+09   1.960880e+05   1.330515e-28   0.000000e+00   0.000000e+00
     4088000   4.087999e-07   1.601899e-01   6.353898e+00   1.640707e+01   1.544505e+05  -5.412149e+04   1.080111e+05   2.781676e+10   9.424953e+10   7.449355e+09   1.960880e+05   1.330621e-28   0.000000e+00   0.000000e+00
     4096000   4.095999e-07   1.603134e-01   6.353855e+00   1.640716e+01   1.544727e+05  -5.404608e+04   1.080171e+05   2.777156e+10   9.426684e+10   7.450717e+09   1.960880e+05   1.330726e-28   0.000000e+00   0.000000e+00
     4104000   4.103999e-07   1.604370e-01   6.353812e+00   1.640724e+01   1.544949e+05  -5.397066e+04   1.080230e+05   2.772636e+10   9.428413e+10   7.452074e+09   1.960880e+05   1.330832e-28   0.000000e+00   0.000000e+00
     4112000   4.111999e-07   1.605606e-01   6.353769e+00   1.640733e+01   1.545171e+05  -5.389523e+04   1.080290e+05   2.768114e+10   9.430139e+10   7.453428e+09   1.960880e+05   1.330938e-28   0.000000e+00   0.000000e+00
     4120000   4.119999e-07   1.606843e-01   6.353726e+00   1.640741e+01   1.545392e+05  -5.381978e+04   1.080350e+05   2.763591e+10   9.431864e+10   7.454778e+09   1.960880e+05   1.331043e-28   0.000000e+00   0.000000e+00
     4128000   4.127999e-07   1.608079e-01   6.353683e+00   1.640750e+01   1.545613e+05  -5.374432e+04   1.080409e+05   2.759068e+10   9.433587e+10   7.456124e+09   1.960880e+05   1.331149e-28   0.000000e+00   0.000000e+00
     4136000   4.135999e-07   1.609316e-01   6.353640e+00   1.640759e+01   1.545834e+05  -5.366884e+04   1.080469e+05   2.754543e+10   9.435308e+10   7.457466e+09   1.960880e+05   1.331255e-28   0.000000e+00   0.000000e+00
     4144000   4.143999e-07   1.610552e-01   6.353597e+00   1.640767e+01   1.546054e+05  -5.359335e+04   1.080529e+05   2.750017e+10   9.437027e+10   7.458805e+09   1.960880e+05   1.331361e-28   0.000000e+00   0.000000e+00
     4152000   4.151999e-07   1.611789e-01   6.353554e+00   1.640776e+01   1.546274e+05  -5.351785e+04   1.080588e+05   2.745491e+10   9.438744e+10   7.460140e+09   1.960880e+05   1.331467e-28   0.000000e+00   0.000000e+00
     4160000   4.159999e-07   1.613026e-01   6.353511e+00   1.640785e+01   1.546493e+05  -5.344233e+04   1.080648e+05   2.740963e+10   9.440460e+10   7.461471e+09   1.960880e+05   1.331573e-28   0.000000e+00   0.000000e+00
     4168000   4.167999e-07   1.614264e-01   6.353468e+00   1.640793e+01   1.546712e+05  -5.336680e+04   1.080708e+05   2.736434e+10   9.442173e+10   7.462798e+09   1.960880e+05   1.331679e-28   0.000000e+00   0.000000e+00
     4176000   4.175999e-07   1.615501e-01   6.353426e+00   1.640802e+01   1.546931e+05  -5.329126e+04   1.080767e+05   2.731904e+10   9.443884e+10   7.464122e+09   1.960880e+05   1.331785e-28   0.000000e+00   0.000000e+00
     4184000   4.183999e-07   1.616739e-01   6.353383e+00   1.640811e+01   1.547149e+05  -5.321570e+04   1.080827e+05   2.727374e+10   9.445594e+10   7.465441e+09   1.960880e+05   1.331891e-28   0.000000e+00   0.000000e+00
     4192000   4.191999e-07   1.617977e-01   6.353341e+00   1.640819e+01   1.547367e+05  -5.314013e+04   1.080887e+05   2.722842e+10   9.447301e+10   7.466757e+09   1.960880e+05   1.331998e-28   0.000000e+00   0.000000e+00
     4200000   4.199999e-07   1.619215e-01   6.353298e+00   1.640828e+01   1.547585e+05  -5.306454e+04   1.080947e+05   2.718309e+10   9.449007e+10   7.468069e+09   1.960880e+05   1.332104e-28   0.000000e+00   0.000000e+00
     4208000   4.207999e-07   1.620453e-01   6.353256e+00   1.640837e+01   1.547802e+05  -5.298894e+04   1.081006e+05   2.713775e+10   9.450710e+10   7.469378e+09   1.960880e+05   1.332210e-28   0.000000e+00   0.000000e+00
     4216000   4.215999e-07   1.621691e-01   6.353213e+00   1.640845e+01   1.548019e+05  -5.291333e+04   1.081066e+05   2.709241e+10   9.452412e+10   7.470682e+09   1.960880e+05   1.332317e-28   0.000000e+00   0.000000e+00
     4224000   4.223999e-07   1.622930e-01   6.353171e+00   1.640854e+01   1.548236e+05  -5.283770e+04   1.081126e+05   2.704705e+10   9.454112e+10   7.471983e+09   1.960880e+05   1.332423e-28   0.000000e+00   0.000000e+00
     4232000   4.231999e-07   1.624168e-01   6.353129e+00   1.640862e+01   1.548452e+05  -5.276206e+04   1.081186e+05   2.700168e+10   9.455809e+10   7.473280e+09   1.960880e+05   1.332530e-28   0.000000e+00   0.000000e+00
     4240000   4.239999e-07   1.625407e-01   6.353087e+00   1.640871e+01   1.548668e+05  -5.268641e+04   1.081245e+05   2.695631e+10   9.457505e+10   7.474573e+09   1.960880e+05   1.332636e-28   0.000000e+00   0.000000e+00
     4248000   4.247999e-07   1.626646e-01   6.353044e+00   1.640880e+01   1.548883e+05  -5.261074e+04   1.081305e+05   2.691092e+10   9.459199e+10   7.475862e+09   1.960880e+05   1.332743e-28   0.000000e+00   0.000000e+00
     4256000   4.255999e-07   1.627885e-01   6.353002e+00   1.640888e+01   1.549098e+05  -5.253506e+04   1.081365e+05   2.686552e+10   9.460891e+10   7.477147e+09   1.960880e+05   1.332850e-28   0.000000e+00   0.000000e+00
     4264000   4.263999e-07   1.629125e-01   6.352960e+00   1.640897e+01   1.549313e+05  -5.245937e+04   1.081425e+05   2.682011e+10   9.462581e+10   7.478429e+09   1.960880e+05   1.332957e-28   0.000000e+00   0.000000e+00
     4272000   4.271999e-07   1.630364e-01   6.352918e+00   1.640906e+01   1.549528e+05  -5.238366e+04   1.081485e+05   2.677470e+10   9.464269e+10   7.479706e+09   1.960880e+05   1.333064e-28   0.000000e+00   0.000000e+00
     4280000   4.279999e-07   1.631604e-01   6.352877e+00   1.640914e+01   1.549742e+05  -5.230794e+04   1.081545e+05   2.672927e+10   9.465955e+10   7.480980e+09   1.960880e+05   1.333170e-28   0.000000e+00   0.000000e+00
     4288000   4.287999e-07   1.632844e-01   6.352835e+00   1.640923e+01   1.549955e+05  -5.223221e+04   1.081604e+05   2.668383e+10   9.467639e+10   7.482250e+09   1.960880e+05   1.333277e-28   0.000000e+00   0.000000e+00
