     timestep     time              x             y              z              vx             vy             vz             ax             ay             az         v_magnitude      ELoss        Electronic      Nuclear
           0   0.000000e+00   1.000000e-01   2.334423e+00   1.191141e+01  -7.234177e+04  -1.277569e+05   1.343694e+04   0.000000e+00   0.000000e+00   0.000000e+00   1.474304e+05   0.000000e+00   0.000000e+00   0.000000e+00
        8000   7.999000e-10   9.994213e-02   2.334321e+00   1.191142e+01  -7.233044e+04  -1.277633e+05   1.343707e+04   1.415671e+10  -7.996780e+09   1.686098e+08   1.474304e+05   2.047625e-30   0.000000e+00   0.000000e+00
       16000   1.599900e-09   9.988427e-02   2.334219e+00   1.191143e+01  -7.231912e+04  -1.277697e+05   1.343721e+04   1.415663e+10  -7.995082e+09   1.686217e+08   1.474304e+05   2.047399e-30   0.000000e+00   0.000000e+00
       24000   2.399900e-09   9.982642e-02   2.334116e+00   1.191144e+01  -7.230779e+04  -1.277761e+05   1.343734e+04   1.415656e+10  -7.993384e+09   1.686335e+08   1.474304e+05   2.047173e-30   0.000000e+00   0.000000e+00
       32000   3.199900e-09   9.976858e-02   2.334014e+00   1.191145e+01  -7.229647e+04  -1.277825e+05   1.343748e+04   1.415649e+10  -7.991687e+09   1.686454e+08   1.474304e+05   2.046947e-30   0.000000e+00   0.000000e+00
       40000   3.999900e-09   9.971075e-02   2.333912e+00   1.191146e+01  -7.228514e+04  -1.277889e+05   1.343761e+04   1.415641e+10  -7.989989e+09   1.686572e+08   1.474304e+05   2.046720e-30   0.000000e+00   0.000000e+00
       48000   4.799900e-09   9.965292e-02   2.333810e+00   1.191147e+01  -7.227381e+04  -1.277953e+05   1.343775e+04   1.415634e+10  -7.988292e+09   1.686689e+08   1.474304e+05   2.046494e-30   0.000000e+00   0.000000e+00
       56000   5.599900e-09   9.959511e-02   2.333707e+00   1.191148e+01  -7.226249e+04  -1.278017e+05   1.343788e+04   1.415626e+10  -7.986595e+09   1.686807e+08   1.474304e+05   2.046268e-30   0.000000e+00   0.000000e+00
       64000   6.399900e-09   9.953730e-02   2.333605e+00   1.191149e+01  -7.225116e+04  -1.278081e+05   1.343802e+04   1.415619e+10  -7.984898e+09   1.686924e+08   1.474304e+05   2.046042e-30   0.000000e+00   0.000000e+00
       72000   7.199900e-09   9.947951e-02   2.333503e+00   1.191151e+01  -7.223984e+04  -1.278145e+05   1.343815e+04   1.415612e+10  -7.983201e+09   1.687041e+08   1.474304e+05   2.045816e-30   0.000000e+00   0.000000e+00
       80000   7.999900e-09   9.942172e-02   2.333401e+00   1.191152e+01  -7.222852e+04  -1.278208e+05   1.343829e+04   1.415604e+10  -7.981504e+09   1.687158e+08   1.474304e+05   2.045590e-30   0.000000e+00   0.000000e+00
       88000   8.799900e-09   9.936394e-02   2.333298e+00   1.191153e+01  -7.221719e+04  -1.278272e+05   1.343842e+04   1.415597e+10  -7.979808e+09   1.687274e+08   1.474304e+05   2.045363e-30   0.000000e+00   0.000000e+00
       96000   9.599900e-09   9.930617e-02   2.333196e+00   1.191154e+01  -7.220587e+04  -1.278336e+05   1.343856e+04   1.415589e+10  -7.978111e+09   1.687390e+08   1.474304e+05   2.045137e-30   0.000000e+00   0.000000e+00
      104000   1.039990e-08   9.924841e-02   2.333094e+00   1.191155e+01  -7.219454e+04  -1.278400e+05   1.343869e+04   1.415582e+10  -7.976415e+09   1.687506e+08   1.474304e+05   2.044911e-30   0.000000e+00   0.000000e+00
      112000   1.119990e-08   9.919066e-02   2.332992e+00   1.191156e+01  -7.218322e+04  -1.278464e+05   1.343883e+04   1.415574e+10  -7.974719e+09   1.687621e+08   1.474304e+05   2.044685e-30   0.000000e+00   0.000000e+00
      120000   1.199990e-08   9.913292e-02   2.332889e+00   1.191157e+01  -7.217189e+04  -1.278528e+05   1.343896e+04   1.415566e+10  -7.973023e+09   1.687736e+08   1.474304e+05   2.044459e-30   0.000000e+00   0.000000e+00
      128000   1.279990e-08   9.907519e-02   2.332787e+00   1.191158e+01  -7.216057e+04  -1.278591e+05   1.343910e+04   1.415559e+10  -7.971327e+09   1.687851e+08   1.474304e+05   2.044233e-30   0.000000e+00   0.000000e+00
      136000   1.359990e-08   9.901746e-02   2.332685e+00   1.191159e+01  -7.214924e+04  -1.278655e+05   1.343923e+04   1.415551e+10  -7.969632e+09   1.687966e+08   1.474304e+05   2.044007e-30   0.000000e+00   0.000000e+00
      144000   1.439990e-08   9.895975e-02   2.332582e+00   1.191160e+01  -7.213792e+04  -1.278719e+05   1.343937e+04   1.415544e+10  -7.967936e+09   1.688080e+08   1.474304e+05   2.043781e-30   0.000000e+00   0.000000e+00
      152000   1.519990e-08   9.890204e-02   2.332480e+00   1.191161e+01  -7.212659e+04  -1.278783e+05   1.343950e+04   1.415536e+10  -7.966241e+09   1.688194e+08   1.474304e+05   2.043555e-30   0.000000e+00   0.000000e+00
      160000   1.599990e-08   9.884434e-02   2.332378e+00   1.191162e+01  -7.211527e+04  -1.278846e+05   1.343964e+04   1.415528e+10  -7.964546e+09   1.688308e+08   1.474304e+05   2.043329e-30   0.000000e+00   0.000000e+00
      168000   1.679990e-08   9.878666e-02   2.332276e+00   1.191163e+01  -7.210395e+04  -1.278910e+05   1.343977e+04   1.415521e+10  -7.962851e+09   1.688421e+08   1.474304e+05   2.043103e-30   0.000000e+00   0.000000e+00
      176000   1.759990e-08   9.872898e-02   2.332173e+00   1.191165e+01  -7.209262e+04  -1.278974e+05   1.343991e+04   1.415513e+10  -7.961156e+09   1.688534e+08   1.474304e+05   2.042877e-30   0.000000e+00   0.000000e+00
      184000   1.839990e-08   9.867131e-02   2.332071e+00   1.191166e+01  -7.208130e+04  -1.279037e+05   1.344004e+04   1.415505e+10  -7.959462e+09   1.688647e+08   1.474304e+05   2.042651e-30   0.000000e+00   0.000000e+00
      192000   1.919990e-08   9.861365e-02   2.331969e+00   1.191167e+01  -7.206997e+04  -1.279101e+05   1.344018e+04   1.415497e+10  -7.957767e+09   1.688760e+08   1.474304e+05   2.042426e-30   0.000000e+00   0.000000e+00
      200000   1.999990e-08   9.855600e-02   2.331866e+00   1.191168e+01  -7.205865e+04  -1.279165e+05   1.344031e+04   1.415489e+10  -7.956073e+09   1.688872e+08   1.474304e+05   2.042200e-30   0.000000e+00   0.000000e+00
      208000   2.079990e-08   9.849835e-02   2.331764e+00   1.191169e+01  -7.204733e+04  -1.279228e+05   1.344045e+04   1.415482e+10  -7.954379e+09   1.688984e+08   1.474304e+05   2.041974e-30   0.000000e+00   0.000000e+00
      216000   2.159990e-08   9.844072e-02   2.331662e+00   1.191170e+01  -7.203600e+04  -1.279292e+05   1.344058e+04   1.415474e+10  -7.952685e+09   1.689096e+08   1.474304e+05   2.041748e-30   0.000000e+00   0.000000e+00
      224000   2.239990e-08   9.838310e-02   2.331559e+00   1.191171e+01  -7.202468e+04  -1.279356e+05   1.344072e+04   1.415466e+10  -7.950991e+09   1.689207e+08   1.474304e+05   2.041522e-30   0.000000e+00   0.000000e+00
      232000   2.319990e-08   9.832548e-02   2.331457e+00   1.191172e+01  -7.201335e+04  -1.279419e+05   1.344085e+04   1.415458e+10  -7.949297e+09   1.689319e+08   1.474304e+05   2.041296e-30   0.000000e+00   0.000000e+00
      240000   2.399990e-08   9.826787e-02   2.331355e+00   1.191173e+01  -7.200203e+04  -1.279483e+05   1.344099e+04   1.415450e+10  -7.947603e+09   1.689429e+08   1.474304e+05   2.041071e-30   0.000000e+00   0.000000e+00
      248000   2.479990e-08   9.821028e-02   2.331252e+00   1.191174e+01  -7.199071e+04  -1.279546e+05   1.344112e+04   1.415442e+10  -7.945910e+09   1.689540e+08   1.474304e+05   2.040845e-30   0.000000e+00   0.000000e+00
      256000   2.559990e-08   9.815269e-02   2.331150e+00   1.191175e+01  -7.197938e+04  -1.279610e+05   1.344126e+04   1.415434e+10  -7.944217e+09   1.689650e+08   1.474304e+05   2.040619e-30   0.000000e+00   0.000000e+00
      264000   2.639990e-08   9.809511e-02   2.331047e+00   1.191176e+01  -7.196806e+04  -1.279673e+05   1.344139e+04   1.415426e+10  -7.942524e+09   1.689760e+08   1.474304e+05   2.040393e-30   0.000000e+00   0.000000e+00
      272000   2.719990e-08   9.803754e-02   2.330945e+00   1.191177e+01  -7.195674e+04  -1.279737e+05   1.344153e+04   1.415418e+10  -7.940831e+09   1.689870e+08   1.474304e+05   2.040168e-30   0.000000e+00   0.000000e+00
      280000   2.799990e-08   9.797998e-02   2.330843e+00   1.191179e+01  -7.194541e+04  -1.279801e+05   1.344166e+04   1.415410e+10  -7.939138e+09   1.689980e+08   1.474304e+05   2.039942e-30   0.000000e+00   0.000000e+00
      288000   2.879990e-08   9.792243e-02   2.330740e+00   1.191180e+01  -7.193409e+04  -1.279864e+05   1.344180e+04   1.415402e+10  -7.937446e+09   1.690089e+08   1.474304e+05   2.039716e-30   0.000000e+00   0.000000e+00
      296000   2.959990e-08   9.786489e-02   2.330638e+00   1.191181e+01  -7.192277e+04  -1.279928e+05   1.344193e+04   1.415394e+10  -7.935753e+09   1.690198e+08   1.474304e+05   2.039491e-30   0.000000e+00   0.000000e+00
      304000   3.039990e-08   9.780735e-02   2.330536e+00   1.191182e+01  -7.191144e+04  -1.279991e+05   1.344207e+04   1.415386e+10  -7.934061e+09   1.690306e+08   1.474304e+05   2.039265e-30   0.000000e+00   0.000000e+00
      312000   3.119990e-08   9.774983e-02   2.330433e+00   1.191183e+01  -7.190012e+04  -1.280054e+05   1.344220e+04   1.415378e+10  -7.932369e+09   1.690415e+08   1.474304e+05   2.039039e-30   0.000000e+00   0.000000e+00
      320000   3.199990e-08   9.769231e-02   2.330331e+00   1.191184e+01  -7.188880e+04  -1.280118e+05   1.344234e+04   1.415370e+10  -7.930677e+09   1.690523e+08   1.474304e+05   2.038814e-30   0.000000e+00   0.000000e+00
      328000   3.279990e-08   9.763480e-02   2.330228e+00   1.191185e+01  -7.187747e+04  -1.280181e+05   1.344247e+04   1.415362e+10  -7.928985e+09   1.690630e+08   1.474304e+05   2.038588e-30   0.000000e+00   0.000000e+00
      336000   3.359990e-08   9.757731e-02   2.330126e+00   1.191186e+01  -7.186615e+04  -1.280245e+05   1.344261e+04   1.415354e+10  -7.927293e+09   1.690738e+08   1.474304e+05   2.038362e-30   0.000000e+00   0.000000e+00
      344000   3.439990e-08   9.751982e-02   2.330023e+00   1.191187e+01  -7.185483e+04  -1.280308e+05   1.344275e+04   1.415346e+10  -7.925602e+09   1.690845e+08   1.474304e+05   2.038137e-30   0.000000e+00   0.000000e+00
      352000   3.519990e-08   9.746234e-02   2.329921e+00   1.191188e+01  -7.184351e+04  -1.280372e+05   1.344288e+04   1.415337e+10  -7.923910e+09   1.690952e+08   1.474304e+05   2.037911e-30   0.000000e+00   0.000000e+00
      360000   3.599990e-08   9.740487e-02   2.329819e+00   1.191189e+01  -7.183218e+04  -1.280435e+05   1.344302e+04   1.415329e+10  -7.922219e+09   1.691058e+08   1.474304e+05   2.037686e-30   0.000000e+00   0.000000e+00
      368000   3.679990e-08   9.734741e-02   2.329716e+00   1.191190e+01  -7.182086e+04  -1.280498e+05   1.344315e+04   1.415321e+10  -7.920528e+09   1.691165e+08   1.474304e+05   2.037460e-30   0.000000e+00   0.000000e+00
      376000   3.759990e-08   9.728996e-02   2.329614e+00   1.191191e+01  -7.180954e+04  -1.280562e+05   1.344329e+04   1.415313e+10  -7.918837e+09   1.691271e+08   1.474304e+05   2.037235e-30   0.000000e+00   0.000000e+00
      384000   3.839990e-08   9.723251e-02   2.329511e+00   1.191193e+01  -7.179822e+04  -1.280625e+05   1.344342e+04   1.415304e+10  -7.917147e+09   1.691377e+08   1.474304e+05   2.037009e-30   0.000000e+00   0.000000e+00
      392000   3.919990e-08   9.717508e-02   2.329409e+00   1.191194e+01  -7.178689e+04  -1.280688e+05   1.344356e+04   1.415296e+10  -7.915456e+09   1.691482e+08   1.474304e+05   2.036784e-30   0.000000e+00   0.000000e+00
      400000   3.999990e-08   9.711765e-02   2.329306e+00   1.191195e+01  -7.177557e+04  -1.280752e+05   1.344369e+04   1.415288e+10  -7.913766e+09   1.691587e+08   1.474304e+05   2.036558e-30   0.000000e+00   0.000000e+00
      408000   4.079990e-08   9.706024e-02   2.329204e+00   1.191196e+01  -7.176425e+04  -1.280815e+05   1.344383e+04   1.415280e+10  -7.912075e+09   1.691692e+08   1.474304e+05   2.036333e-30   0.000000e+00   0.000000e+00
      416000   4.159990e-08   9.700283e-02   2.329101e+00   1.191197e+01  -7.175293e+04  -1.280878e+05   1.344396e+04   1.415271e+10  -7.910385e+09   1.691797e+08   1.474304e+05   2.036108e-30   0.000000e+00   0.000000e+00
      424000   4.239990e-08   9.694543e-02   2.328999e+00   1.191198e+01  -7.174160e+04  -1.280942e+05   1.344410e+04   1.415263e+10  -7.908695e+09   1.691901e+08   1.474304e+05   2.035882e-30   0.000000e+00   0.000000e+00
      432000   4.319990e-08   9.688804e-02   2.328896e+00   1.191199e+01  -7.173028e+04  -1.281005e+05   1.344423e+04   1.415254e+10  -7.907006e+09   1.692005e+08   1.474304e+05   2.035657e-30   0.000000e+00   0.000000e+00
      440000   4.399990e-08   9.683066e-02   2.328794e+00   1.191200e+01  -7.171896e+04  -1.281068e+05   1.344437e+04   1.415246e+10  -7.905316e+09   1.692109e+08   1.474304e+05   2.035432e-30   0.000000e+00   0.000000e+00
      448000   4.479990e-08   9.677329e-02   2.328691e+00   1.191201e+01  -7.170764e+04  -1.281131e+05   1.344450e+04   1.415238e+10  -7.903627e+09   1.692213e+08   1.474304e+05   2.035206e-30   0.000000e+00   0.000000e+00
      456000   4.559990e-08   9.671593e-02   2.328589e+00   1.191202e+01  -7.169632e+04  -1.281195e+05   1.344464e+04   1.415229e+10  -7.901937e+09   1.692316e+08   1.474304e+05   2.034981e-30   0.000000e+00   0.000000e+00
      464000   4.639990e-08   9.665858e-02   2.328487e+00   1.191203e+01  -7.168500e+04  -1.281258e+05   1.344478e+04   1.415221e+10  -7.900248e+09   1.692419e+08   1.474304e+05   2.034756e-30   0.000000e+00   0.000000e+00
      472000   4.719990e-08   9.660124e-02   2.328384e+00   1.191204e+01  -7.167367e+04  -1.281321e+05   1.344491e+04   1.415212e+10  -7.898559e+09   1.692521e+08   1.474304e+05   2.034530e-30   0.000000e+00   0.000000e+00
      480000   4.799990e-08   9.654390e-02   2.328281e+00   1.191205e+01  -7.166235e+04  -1.281384e+05   1.344505e+04   1.415204e+10  -7.896870e+09   1.692624e+08   1.474304e+05   2.034305e-30   0.000000e+00   0.000000e+00
      488000   4.879990e-08   9.648658e-02   2.328179e+00   1.191206e+01  -7.165103e+04  -1.281447e+05   1.344518e+04   1.415195e+10  -7.895182e+09   1.692726e+08   1.474304e+05   2.034080e-30   0.000000e+00   0.000000e+00
      496000   4.959990e-08   9.642926e-02   2.328076e+00   1.191208e+01  -7.163971e+04  -1.281510e+05   1.344532e+04   1.415186e+10  -7.893493e+09   1.692828e+08   1.474304e+05   2.033855e-30   0.000000e+00   0.000000e+00
      504000   5.039990e-08   9.637195e-02   2.327974e+00   1.191209e+01  -7.162839e+04  -1.281574e+05   1.344545e+04   1.415178e+10  -7.891805e+09   1.692929e+08   1.474304e+05   2.033629e-30   0.000000e+00   0.000000e+00
      512000   5.119990e-08   9.631466e-02   2.327871e+00   1.191210e+01  -7.161707e+04  -1.281637e+05   1.344559e+04   1.415169e+10  -7.890117e+09   1.693030e+08   1.474304e+05   2.033404e-30   0.000000e+00   0.000000e+00
      520000   5.199990e-08   9.625737e-02   2.327769e+00   1.191211e+01  -7.160574e+04  -1.281700e+05   1.344572e+04   1.415161e+10  -7.888429e+09   1.693131e+08   1.474304e+05   2.033179e-30   0.000000e+00   0.000000e+00
      528000   5.279990e-08   9.620009e-02   2.327666e+00   1.191212e+01  -7.159442e+04  -1.281763e+05   1.344586e+04   1.415152e+10  -7.886741e+09   1.693232e+08   1.474304e+05   2.032954e-30   0.000000e+00   0.000000e+00
      536000   5.359990e-08   9.614281e-02   2.327564e+00   1.191213e+01  -7.158310e+04  -1.281826e+05   1.344599e+04   1.415143e+10  -7.885053e+09   1.693333e+08   1.474304e+05   2.032729e-30   0.000000e+00   0.000000e+00
      544000   5.439990e-08   9.608555e-02   2.327461e+00   1.191214e+01  -7.157178e+04  -1.281889e+05   1.344613e+04   1.415135e+10  -7.883365e+09   1.693433e+08   1.474304e+05   2.032503e-30   0.000000e+00   0.000000e+00
      552000   5.519990e-08   9.602830e-02   2.327359e+00   1.191215e+01  -7.156046e+04  -1.281952e+05   1.344627e+04   1.415126e+10  -7.881678e+09   1.693533e+08   1.474304e+05   2.032278e-30   0.000000e+00   0.000000e+00
      560000   5.599990e-08   9.597106e-02   2.327256e+00   1.191216e+01  -7.154914e+04  -1.282015e+05   1.344640e+04   1.415117e+10  -7.879991e+09   1.693632e+08   1.474304e+05   2.032053e-30   0.000000e+00   0.000000e+00
      568000   5.679990e-08   9.591382e-02   2.327154e+00   1.191217e+01  -7.153782e+04  -1.282078e+05   1.344654e+04   1.415108e+10  -7.878304e+09   1.693731e+08   1.474304e+05   2.031828e-30   0.000000e+00   0.000000e+00
      576000   5.759990e-08   9.585660e-02   2.327051e+00   1.191218e+01  -7.152650e+04  -1.282141e+05   1.344667e+04   1.415100e+10  -7.876617e+09   1.693830e+08   1.474304e+05   2.031603e-30   0.000000e+00   0.000000e+00
      584000   5.839990e-08   9.579938e-02   2.326948e+00   1.191219e+01  -7.151518e+04  -1.282204e+05   1.344681e+04   1.415091e+10  -7.874930e+09   1.693929e+08   1.474304e+05   2.031378e-30   0.000000e+00   0.000000e+00
      592000   5.919990e-08   9.574217e-02   2.326846e+00   1.191220e+01  -7.150386e+04  -1.282267e+05   1.344694e+04   1.415082e+10  -7.873243e+09   1.694028e+08   1.474304e+05   2.031153e-30   0.000000e+00   0.000000e+00
      600000   5.999990e-08   9.568497e-02   2.326743e+00   1.191222e+01  -7.149254e+04  -1.282330e+05   1.344708e+04   1.415073e+10  -7.871557e+09   1.694126e+08   1.474304e+05   2.030928e-30   0.000000e+00   0.000000e+00
      608000   6.079990e-08   9.562778e-02   2.326641e+00   1.191223e+01  -7.148121e+04  -1.282393e+05   1.344721e+04   1.415064e+10  -7.869870e+09   1.694224e+08   1.474304e+05   2.030703e-30   0.000000e+00   0.000000e+00
      616000   6.159990e-08   9.557060e-02   2.326538e+00   1.191224e+01  -7.146989e+04  -1.282456e+05   1.344735e+04   1.415055e+10  -7.868184e+09   1.694321e+08   1.474304e+05   2.030478e-30   0.000000e+00   0.000000e+00
      624000   6.239990e-08   9.551343e-02   2.326435e+00   1.191225e+01  -7.145857e+04  -1.282519e+05   1.344748e+04   1.415046e+10  -7.866498e+09   1.694419e+08   1.474304e+05   2.030253e-30   0.000000e+00   0.000000e+00
      632000   6.319990e-08   9.545627e-02   2.326333e+00   1.191226e+01  -7.144725e+04  -1.282582e+05   1.344762e+04   1.415037e+10  -7.864813e+09   1.694516e+08   1.474304e+05   2.030028e-30   0.000000e+00   0.000000e+00
      640000   6.399990e-08   9.539912e-02   2.326230e+00   1.191227e+01  -7.143593e+04  -1.282645e+05   1.344776e+04   1.415028e+10  -7.863127e+09   1.694612e+08   1.474304e+05   2.029803e-30   0.000000e+00   0.000000e+00
      648000   6.479990e-08   9.534197e-02   2.326128e+00   1.191228e+01  -7.142461e+04  -1.282708e+05   1.344789e+04   1.415020e+10  -7.861441e+09   1.694709e+08   1.474304e+05   2.029578e-30   0.000000e+00   0.000000e+00
      656000   6.559990e-08   9.528484e-02   2.326025e+00   1.191229e+01  -7.141329e+04  -1.282771e+05   1.344803e+04   1.415011e+10  -7.859756e+09   1.694805e+08   1.474304e+05   2.029353e-30   0.000000e+00   0.000000e+00
      664000   6.639990e-08   9.522771e-02   2.325922e+00   1.191230e+01  -7.140197e+04  -1.282834e+05   1.344816e+04   1.415002e+10  -7.858071e+09   1.694901e+08   1.474304e+05   2.029129e-30   0.000000e+00   0.000000e+00
      672000   6.719990e-08   9.517059e-02   2.325820e+00   1.191231e+01  -7.139065e+04  -1.282896e+05   1.344830e+04   1.414992e+10  -7.856386e+09   1.694997e+08   1.474304e+05   2.028904e-30   0.000000e+00   0.000000e+00
      680000   6.799990e-08   9.511349e-02   2.325717e+00   1.191232e+01  -7.137933e+04  -1.282959e+05   1.344843e+04   1.414983e+10  -7.854701e+09   1.695092e+08   1.474304e+05   2.028679e-30   0.000000e+00   0.000000e+00
      688000   6.879990e-08   9.505639e-02   2.325615e+00   1.191233e+01  -7.136801e+04  -1.283022e+05   1.344857e+04   1.414974e+10  -7.853016e+09   1.695187e+08   1.474304e+05   2.028454e-30   0.000000e+00   0.000000e+00
      696000   6.959990e-08   9.499930e-02   2.325512e+00   1.191234e+01  -7.135669e+04  -1.283085e+05   1.344870e+04   1.414965e+10  -7.851332e+09   1.695282e+08   1.474304e+05   2.028229e-30   0.000000e+00   0.000000e+00
      704000   7.039990e-08   9.494222e-02   2.325409e+00   1.191236e+01  -7.134537e+04  -1.283148e+05   1.344884e+04   1.414956e+10  -7.849647e+09   1.695376e+08   1.474304e+05   2.028004e-30   0.000000e+00   0.000000e+00
      712000   7.119990e-08   9.488514e-02   2.325307e+00   1.191237e+01  -7.133405e+04  -1.283211e+05   1.344898e+04   1.414947e+10  -7.847963e+09   1.695471e+08   1.474304e+05   2.027780e-30   0.000000e+00   0.000000e+00
      720000   7.199990e-08   9.482808e-02   2.325204e+00   1.191238e+01  -7.132273e+04  -1.283273e+05   1.344911e+04   1.414938e+10  -7.846279e+09   1.695565e+08   1.474304e+05   2.027555e-30   0.000000e+00   0.000000e+00
      728000   7.279990e-08   9.477103e-02   2.325101e+00   1.191239e+01  -7.131142e+04  -1.283336e+05   1.344925e+04   1.414929e+10  -7.844595e+09   1.695658e+08   1.474304e+05   2.027330e-30   0.000000e+00   0.000000e+00
      736000   7.359990e-08   9.471398e-02   2.324999e+00   1.191240e+01  -7.130010e+04  -1.283399e+05   1.344938e+04   1.414919e+10  -7.842911e+09   1.695752e+08   1.474304e+05   2.027106e-30   0.000000e+00   0.000000e+00
      744000   7.439990e-08   9.465695e-02   2.324896e+00   1.191241e+01  -7.128878e+04  -1.283462e+05   1.344952e+04   1.414910e+10  -7.841227e+09   1.695845e+08   1.474304e+05   2.026881e-30   0.000000e+00   0.000000e+00
      752000   7.519990e-08   9.459992e-02   2.324793e+00   1.191242e+01  -7.127746e+04  -1.283524e+05   1.344965e+04   1.414901e+10  -7.839544e+09   1.695938e+08   1.474304e+05   2.026656e-30   0.000000e+00   0.000000e+00
      760000   7.599990e-08   9.454290e-02   2.324691e+00   1.191243e+01  -7.126614e+04  -1.283587e+05   1.344979e+04   1.414892e+10  -7.837861e+09   1.696030e+08   1.474304e+05   2.026431e-30   0.000000e+00   0.000000e+00
      768000   7.679990e-08   9.448590e-02   2.324588e+00   1.191244e+01  -7.125482e+04  -1.283650e+05   1.344993e+04   1.414882e+10  -7.836178e+09   1.696123e+08   1.474304e+05   2.026207e-30   0.000000e+00   0.000000e+00
      776000   7.759990e-08   9.442890e-02   2.324485e+00   1.191245e+01  -7.124350e+04  -1.283712e+05   1.345006e+04   1.414873e+10  -7.834495e+09   1.696215e+08   1.474304e+05   2.025982e-30   0.000000e+00   0.000000e+00
      784000   7.839990e-08   9.437191e-02   2.324382e+00   1.191246e+01  -7.123218e+04  -1.283775e+05   1.345020e+04   1.414864e+10  -7.832812e+09   1.696306e+08   1.474304e+05   2.025758e-30   0.000000e+00   0.000000e+00
      792000   7.919990e-08   9.431492e-02   2.324280e+00   1.191247e+01  -7.122086e+04  -1.283838e+05   1.345033e+04   1.414854e+10  -7.831129e+09   1.696398e+08   1.474304e+05   2.025533e-30   0.000000e+00   0.000000e+00
      800000   7.999990e-08   9.425795e-02   2.324177e+00   1.191248e+01  -7.120954e+04  -1.283900e+05   1.345047e+04   1.414845e+10  -7.829447e+09   1.696489e+08   1.474304e+05   2.025308e-30   0.000000e+00   0.000000e+00
      808000   8.079990e-08   9.420099e-02   2.324074e+00   1.191250e+01  -7.119822e+04  -1.283963e+05   1.345060e+04   1.414836e+10  -7.827764e+09   1.696580e+08   1.474304e+05   2.025084e-30   0.000000e+00   0.000000e+00
      816000   8.159990e-08   9.414403e-02   2.323972e+00   1.191251e+01  -7.118691e+04  -1.284026e+05   1.345074e+04   1.414826e+10  -7.826082e+09   1.696671e+08   1.474304e+05   2.024859e-30   0.000000e+00   0.000000e+00
      824000   8.239990e-08   9.408709e-02   2.323869e+00   1.191252e+01  -7.117559e+04  -1.284088e+05   1.345088e+04   1.414817e+10  -7.824400e+09   1.696761e+08   1.474304e+05   2.024635e-30   0.000000e+00   0.000000e+00
      832000   8.319990e-08   9.403015e-02   2.323766e+00   1.191253e+01  -7.116427e+04  -1.284151e+05   1.345101e+04   1.414807e+10  -7.822718e+09   1.696851e+08   1.474304e+05   2.024410e-30   0.000000e+00   0.000000e+00
      840000   8.399990e-08   9.397323e-02   2.323663e+00   1.191254e+01  -7.115295e+04  -1.284213e+05   1.345115e+04   1.414798e+10  -7.821036e+09   1.696941e+08   1.474304e+05   2.024186e-30   0.000000e+00   0.000000e+00
      848000   8.479990e-08   9.391631e-02   2.323561e+00   1.191255e+01  -7.114163e+04  -1.284276e+05   1.345128e+04   1.414788e+10  -7.819355e+09   1.697030e+08   1.474304e+05   2.023961e-30   0.000000e+00   0.000000e+00
      856000   8.559990e-08   9.385940e-02   2.323458e+00   1.191256e+01  -7.113031e+04  -1.284338e+05   1.345142e+04   1.414779e+10  -7.817673e+09   1.697120e+08   1.474304e+05   2.023737e-30   0.000000e+00   0.000000e+00
      864000   8.639990e-08   9.380250e-02   2.323355e+00   1.191257e+01  -7.111900e+04  -1.284401e+05   1.345155e+04   1.414769e+10  -7.815992e+09   1.697209e+08   1.474304e+05   2.023512e-30   0.000000e+00   0.000000e+00
      872000   8.719990e-08   9.374561e-02   2.323252e+00   1.191258e+01  -7.110768e+04  -1.284463e+05   1.345169e+04   1.414760e+10  -7.814311e+09   1.697297e+08   1.474304e+05   2.023288e-30   0.000000e+00   0.000000e+00
      880000   8.799990e-08   9.368873e-02   2.323150e+00   1.191259e+01  -7.109636e+04  -1.284526e+05   1.345183e+04   1.414750e+10  -7.812630e+09   1.697386e+08   1.474304e+05   2.023064e-30   0.000000e+00   0.000000e+00
      888000   8.879990e-08   9.363186e-02   2.323047e+00   1.191260e+01  -7.108504e+04  -1.284588e+05   1.345196e+04   1.414741e+10  -7.810949e+09   1.697474e+08   1.474304e+05   2.022839e-30   0.000000e+00   0.000000e+00
      896000   8.959990e-08   9.357499e-02   2.322944e+00   1.191261e+01  -7.107372e+04  -1.284651e+05   1.345210e+04   1.414731e+10  -7.809269e+09   1.697562e+08   1.474304e+05   2.022615e-30   0.000000e+00   0.000000e+00
      904000   9.039990e-08   9.351814e-02   2.322841e+00   1.191262e+01  -7.106241e+04  -1.284713e+05   1.345223e+04   1.414721e+10  -7.807588e+09   1.697649e+08   1.474304e+05   2.022390e-30   0.000000e+00   0.000000e+00
      912000   9.119990e-08   9.346129e-02   2.322739e+00   1.191264e+01  -7.105109e+04  -1.284776e+05   1.345237e+04   1.414712e+10  -7.805908e+09   1.697737e+08   1.474304e+05   2.022166e-30   0.000000e+00   0.000000e+00
      920000   9.199990e-08   9.340446e-02   2.322636e+00   1.191265e+01  -7.103977e+04  -1.284838e+05   1.345251e+04   1.414702e+10  -7.804228e+09   1.697824e+08   1.474304e+05   2.021942e-30   0.000000e+00   0.000000e+00
      928000   9.279990e-08   9.334763e-02   2.322533e+00   1.191266e+01  -7.102845e+04  -1.284901e+05   1.345264e+04   1.414692e+10  -7.802548e+09   1.697911e+08   1.474304e+05   2.021718e-30   0.000000e+00   0.000000e+00
      936000   9.359990e-08   9.329081e-02   2.322430e+00   1.191267e+01  -7.101714e+04  -1.284963e+05   1.345278e+04   1.414683e+10  -7.800868e+09   1.697997e+08   1.474304e+05   2.021493e-30   0.000000e+00   0.000000e+00
      944000   9.439990e-08   9.323400e-02   2.322327e+00   1.191268e+01  -7.100582e+04  -1.285026e+05   1.345291e+04   1.414673e+10  -7.799188e+09   1.698083e+08   1.474304e+05   2.021269e-30   0.000000e+00   0.000000e+00
      952000   9.519990e-08   9.317720e-02   2.322225e+00   1.191269e+01  -7.099450e+04  -1.285088e+05   1.345305e+04   1.414663e+10  -7.797509e+09   1.698169e+08   1.474304e+05   2.021045e-30   0.000000e+00   0.000000e+00
      960000   9.599990e-08   9.312041e-02   2.322122e+00   1.191270e+01  -7.098318e+04  -1.285150e+05   1.345318e+04   1.414653e+10  -7.795829e+09   1.698255e+08   1.474304e+05   2.020820e-30   0.000000e+00   0.000000e+00
      968000   9.679990e-08   9.306363e-02   2.322019e+00   1.191271e+01  -7.097187e+04  -1.285213e+05   1.345332e+04   1.414643e+10  -7.794150e+09   1.698340e+08   1.474304e+05   2.020596e-30   0.000000e+00   0.000000e+00
      976000   9.759990e-08   9.300686e-02   2.321916e+00   1.191272e+01  -7.096055e+04  -1.285275e+05   1.345346e+04   1.414634e+10  -7.792471e+09   1.698425e+08   1.474304e+05   2.020372e-30   0.000000e+00   0.000000e+00
      984000   9.839990e-08   9.295009e-02   2.321813e+00   1.191273e+01  -7.094923e+04  -1.285337e+05   1.345359e+04   1.414624e+10  -7.790792e+09   1.698510e+08   1.474304e+05   2.020148e-30   0.000000e+00   0.000000e+00
      992000   9.919990e-08   9.289334e-02   2.321711e+00   1.191274e+01  -7.093791e+04  -1.285400e+05   1.345373e+04   1.414614e+10  -7.789114e+09   1.698595e+08   1.474304e+05   2.019924e-30   0.000000e+00   0.000000e+00
     1000000   9.999990e-08   9.283659e-02   2.321608e+00   1.191275e+01  -7.092660e+04  -1.285462e+05   1.345386e+04   1.414604e+10  -7.787435e+09   1.698679e+08   1.474304e+05   2.019700e-30   0.000000e+00   0.000000e+00
     1008000   1.007999e-07   9.277985e-02   2.321505e+00   1.191276e+01  -7.091528e+04  -1.285524e+05   1.345400e+04   1.414594e+10  -7.785757e+09   1.698763e+08   1.474304e+05   2.019475e-30   0.000000e+00   0.000000e+00
     1016000   1.015999e-07   9.272313e-02   2.321402e+00   1.191278e+01  -7.090396e+04  -1.285587e+05   1.345414e+04   1.414584e+10  -7.784078e+09   1.698847e+08   1.474304e+05   2.019251e-30   0.000000e+00   0.000000e+00
     1024000   1.023999e-07   9.266641e-02   2.321299e+00   1.191279e+01  -7.089265e+04  -1.285649e+05   1.345427e+04   1.414574e+10  -7.782400e+09   1.698930e+08   1.474304e+05   2.019027e-30   0.000000e+00   0.000000e+00
     1032000   1.031999e-07   9.260970e-02   2.321196e+00   1.191280e+01  -7.088133e+04  -1.285711e+05   1.345441e+04   1.414564e+10  -7.780722e+09   1.699014e+08   1.474304e+05   2.018803e-30   0.000000e+00   0.000000e+00
     1040000   1.039999e-07   9.255300e-02   2.321093e+00   1.191281e+01  -7.087001e+04  -1.285773e+05   1.345454e+04   1.414554e+10  -7.779045e+09   1.699097e+08   1.474304e+05   2.018579e-30   0.000000e+00   0.000000e+00
     1048000   1.047999e-07   9.249631e-02   2.320991e+00   1.191282e+01  -7.085870e+04  -1.285836e+05   1.345468e+04   1.414544e+10  -7.777367e+09   1.699179e+08   1.474304e+05   2.018355e-30   0.000000e+00   0.000000e+00
     1056000   1.055999e-07   9.243962e-02   2.320888e+00   1.191283e+01  -7.084738e+04  -1.285898e+05   1.345482e+04   1.414534e+10  -7.775690e+09   1.699262e+08   1.474304e+05   2.018131e-30   0.000000e+00   0.000000e+00
     1064000   1.063999e-07   9.238295e-02   2.320785e+00   1.191284e+01  -7.083607e+04  -1.285960e+05   1.345495e+04   1.414524e+10  -7.774012e+09   1.699344e+08   1.474304e+05   2.017907e-30   0.000000e+00   0.000000e+00
     1072000   1.071999e-07   9.232629e-02   2.320682e+00   1.191285e+01  -7.082475e+04  -1.286022e+05   1.345509e+04   1.414514e+10  -7.772335e+09   1.699425e+08   1.474304e+05   2.017683e-30   0.000000e+00   0.000000e+00
     1080000   1.079999e-07   9.226963e-02   2.320579e+00   1.191286e+01  -7.081343e+04  -1.286084e+05   1.345522e+04   1.414504e+10  -7.770658e+09   1.699507e+08   1.474304e+05   2.017459e-30   0.000000e+00   0.000000e+00
     1088000   1.087999e-07   9.221298e-02   2.320476e+00   1.191287e+01  -7.080212e+04  -1.286146e+05   1.345536e+04   1.414494e+10  -7.768981e+09   1.699588e+08   1.474304e+05   2.017235e-30   0.000000e+00   0.000000e+00
     1096000   1.095999e-07   9.215635e-02   2.320373e+00   1.191288e+01  -7.079080e+04  -1.286209e+05   1.345550e+04   1.414484e+10  -7.767305e+09   1.699669e+08   1.474304e+05   2.017011e-30   0.000000e+00   0.000000e+00
     1104000   1.103999e-07   9.209972e-02   2.320270e+00   1.191289e+01  -7.077949e+04  -1.286271e+05   1.345563e+04   1.414474e+10  -7.765628e+09   1.699750e+08   1.474304e+05   2.016787e-30   0.000000e+00   0.000000e+00
     1112000   1.111999e-07   9.204310e-02   2.320167e+00   1.191290e+01  -7.076817e+04  -1.286333e+05   1.345577e+04   1.414463e+10  -7.763952e+09   1.699830e+08   1.474304e+05   2.016563e-30   0.000000e+00   0.000000e+00
     1120000   1.119999e-07   9.198649e-02   2.320065e+00   1.191291e+01  -7.075685e+04  -1.286395e+05   1.345590e+04   1.414453e+10  -7.762276e+09   1.699911e+08   1.474304e+05   2.016339e-30   0.000000e+00   0.000000e+00
     1128000   1.127999e-07   9.192989e-02   2.319962e+00   1.191293e+01  -7.074554e+04  -1.286457e+05   1.345604e+04   1.414443e+10  -7.760600e+09   1.699991e+08   1.474304e+05   2.016116e-30   0.000000e+00   0.000000e+00
     1136000   1.135999e-07   9.187330e-02   2.319859e+00   1.191294e+01  -7.073422e+04  -1.286519e+05   1.345618e+04   1.414433e+10  -7.758924e+09   1.700070e+08   1.474304e+05   2.015892e-30   0.000000e+00   0.000000e+00
     1144000   1.143999e-07   9.181671e-02   2.319756e+00   1.191295e+01  -7.072291e+04  -1.286581e+05   1.345631e+04   1.414422e+10  -7.757248e+09   1.700150e+08   1.474304e+05   2.015668e-30   0.000000e+00   0.000000e+00
     1152000   1.151999e-07   9.176014e-02   2.319653e+00   1.191296e+01  -7.071159e+04  -1.286643e+05   1.345645e+04   1.414412e+10  -7.755572e+09   1.700229e+08   1.474304e+05   2.015444e-30   0.000000e+00   0.000000e+00
     1160000   1.159999e-07   9.170358e-02   2.319550e+00   1.191297e+01  -7.070028e+04  -1.286705e+05   1.345658e+04   1.414402e+10  -7.753897e+09   1.700307e+08   1.474304e+05   2.015220e-30   0.000000e+00   0.000000e+00
     1168000   1.167999e-07   9.164702e-02   2.319447e+00   1.191298e+01  -7.068896e+04  -1.286767e+05   1.345672e+04   1.414392e+10  -7.752222e+09   1.700386e+08   1.474304e+05   2.014997e-30   0.000000e+00   0.000000e+00
     1176000   1.175999e-07   9.159047e-02   2.319344e+00   1.191299e+01  -7.067765e+04  -1.286829e+05   1.345686e+04   1.414381e+10  -7.750547e+09   1.700464e+08   1.474304e+05   2.014773e-30   0.000000e+00   0.000000e+00
     1184000   1.183999e-07   9.153394e-02   2.319241e+00   1.191300e+01  -7.066633e+04  -1.286891e+05   1.345699e+04   1.414371e+10  -7.748872e+09   1.700542e+08   1.474304e+05   2.014549e-30   0.000000e+00   0.000000e+00
     1192000   1.191999e-07   9.147741e-02   2.319138e+00   1.191301e+01  -7.065502e+04  -1.286953e+05   1.345713e+04   1.414360e+10  -7.747197e+09   1.700620e+08   1.474304e+05   2.014325e-30   0.000000e+00   0.000000e+00
     1200000   1.199999e-07   9.142089e-02   2.319035e+00   1.191302e+01  -7.064370e+04  -1.287015e+05   1.345726e+04   1.414350e+10  -7.745522e+09   1.700697e+08   1.474304e+05   2.014102e-30   0.000000e+00   0.000000e+00
     1208000   1.207999e-07   9.136438e-02   2.318932e+00   1.191303e+01  -7.063239e+04  -1.287077e+05   1.345740e+04   1.414340e+10  -7.743848e+09   1.700775e+08   1.474304e+05   2.013878e-30   0.000000e+00   0.000000e+00
     1216000   1.215999e-07   9.130788e-02   2.318829e+00   1.191304e+01  -7.062107e+04  -1.287139e+05   1.345754e+04   1.414329e+10  -7.742174e+09   1.700852e+08   1.474304e+05   2.013654e-30   0.000000e+00   0.000000e+00
     1224000   1.223999e-07   9.125138e-02   2.318726e+00   1.191305e+01  -7.060976e+04  -1.287201e+05   1.345767e+04   1.414319e+10  -7.740500e+09   1.700928e+08   1.474304e+05   2.013431e-30   0.000000e+00   0.000000e+00
     1232000   1.231999e-07   9.119490e-02   2.318623e+00   1.191307e+01  -7.059844e+04  -1.287263e+05   1.345781e+04   1.414308e+10  -7.738826e+09   1.701005e+08   1.474304e+05   2.013207e-30   0.000000e+00   0.000000e+00
     1240000   1.239999e-07   9.113843e-02   2.318520e+00   1.191308e+01  -7.058713e+04  -1.287325e+05   1.345794e+04   1.414298e+10  -7.737152e+09   1.701081e+08   1.474304e+05   2.012983e-30   0.000000e+00   0.000000e+00
     1248000   1.247999e-07   9.108196e-02   2.318417e+00   1.191309e+01  -7.057582e+04  -1.287387e+05   1.345808e+04   1.414287e+10  -7.735478e+09   1.701157e+08   1.474304e+05   2.012760e-30   0.000000e+00   0.000000e+00
     1256000   1.255999e-07   9.102550e-02   2.318314e+00   1.191310e+01  -7.056450e+04  -1.287449e+05   1.345822e+04   1.414277e+10  -7.733805e+09   1.701232e+08   1.474304e+05   2.012536e-30   0.000000e+00   0.000000e+00
     1264000   1.263999e-07   9.096906e-02   2.318211e+00   1.191311e+01  -7.055319e+04  -1.287511e+05   1.345835e+04   1.414266e+10  -7.732131e+09   1.701307e+08   1.474304e+05   2.012313e-30   0.000000e+00   0.000000e+00
     1272000   1.271999e-07   9.091262e-02   2.318108e+00   1.191312e+01  -7.054187e+04  -1.287572e+05   1.345849e+04   1.414255e+10  -7.730458e+09   1.701382e+08   1.474304e+05   2.012089e-30   0.000000e+00   0.000000e+00
     1280000   1.279999e-07   9.085619e-02   2.318005e+00   1.191313e+01  -7.053056e+04  -1.287634e+05   1.345862e+04   1.414245e+10  -7.728785e+09   1.701457e+08   1.474304e+05   2.011865e-30   0.000000e+00   0.000000e+00
     1288000   1.287999e-07   9.079977e-02   2.317902e+00   1.191314e+01  -7.051924e+04  -1.287696e+05   1.345876e+04   1.414234e+10  -7.727112e+09   1.701532e+08   1.474304e+05   2.011642e-30   0.000000e+00   0.000000e+00
     1296000   1.295999e-07   9.074336e-02   2.317799e+00   1.191315e+01  -7.050793e+04  -1.287758e+05   1.345890e+04   1.414224e+10  -7.725440e+09   1.701606e+08   1.474304e+05   2.011418e-30   0.000000e+00   0.000000e+00
     1304000   1.303999e-07   9.068696e-02   2.317696e+00   1.191316e+01  -7.049662e+04  -1.287820e+05   1.345903e+04   1.414213e+10  -7.723767e+09   1.701680e+08   1.474304e+05   2.011195e-30   0.000000e+00   0.000000e+00
     1312000   1.311999e-07   9.063057e-02   2.317593e+00   1.191317e+01  -7.048530e+04  -1.287881e+05   1.345917e+04   1.414202e+10  -7.722095e+09   1.701753e+08   1.474304e+05   2.010971e-30   0.000000e+00   0.000000e+00
     1320000   1.319999e-07   9.057418e-02   2.317490e+00   1.191318e+01  -7.047399e+04  -1.287943e+05   1.345930e+04   1.414191e+10  -7.720423e+09   1.701827e+08   1.474304e+05   2.010748e-30   0.000000e+00   0.000000e+00
     1328000   1.327999e-07   9.051781e-02   2.317387e+00   1.191319e+01  -7.046268e+04  -1.288005e+05   1.345944e+04   1.414181e+10  -7.718751e+09   1.701900e+08   1.474304e+05   2.010525e-30   0.000000e+00   0.000000e+00
     1336000   1.335999e-07   9.046144e-02   2.317284e+00   1.191321e+01  -7.045136e+04  -1.288067e+05   1.345958e+04   1.414170e+10  -7.717079e+09   1.701973e+08   1.474304e+05   2.010301e-30   0.000000e+00   0.000000e+00
     1344000   1.343999e-07   9.040508e-02   2.317181e+00   1.191322e+01  -7.044005e+04  -1.288128e+05   1.345971e+04   1.414159e+10  -7.715407e+09   1.702045e+08   1.474304e+05   2.010078e-30   0.000000e+00   0.000000e+00
     1352000   1.351999e-07   9.034874e-02   2.317078e+00   1.191323e+01  -7.042874e+04  -1.288190e+05   1.345985e+04   1.414148e+10  -7.713735e+09   1.702118e+08   1.474304e+05   2.009854e-30   0.000000e+00   0.000000e+00
     1360000   1.359999e-07   9.029240e-02   2.316975e+00   1.191324e+01  -7.041742e+04  -1.288252e+05   1.345999e+04   1.414138e+10  -7.712064e+09   1.702190e+08   1.474304e+05   2.009631e-30   0.000000e+00   0.000000e+00
     1368000   1.367999e-07   9.023607e-02   2.316872e+00   1.191325e+01  -7.040611e+04  -1.288314e+05   1.346012e+04   1.414127e+10  -7.710393e+09   1.702261e+08   1.474304e+05   2.009408e-30   0.000000e+00   0.000000e+00
     1376000   1.375999e-07   9.017975e-02   2.316769e+00   1.191326e+01  -7.039480e+04  -1.288375e+05   1.346026e+04   1.414116e+10  -7.708722e+09   1.702333e+08   1.474304e+05   2.009184e-30   0.000000e+00   0.000000e+00
     1384000   1.383999e-07   9.012344e-02   2.316666e+00   1.191327e+01  -7.038348e+04  -1.288437e+05   1.346039e+04   1.414105e+10  -7.707051e+09   1.702404e+08   1.474304e+05   2.008961e-30   0.000000e+00   0.000000e+00
     1392000   1.391999e-07   9.006714e-02   2.316563e+00   1.191328e+01  -7.037217e+04  -1.288499e+05   1.346053e+04   1.414094e+10  -7.705380e+09   1.702475e+08   1.474304e+05   2.008738e-30   0.000000e+00   0.000000e+00
     1400000   1.399999e-07   9.001084e-02   2.316460e+00   1.191329e+01  -7.036086e+04  -1.288560e+05   1.346067e+04   1.414083e+10  -7.703709e+09   1.702546e+08   1.474304e+05   2.008514e-30   0.000000e+00   0.000000e+00
     1408000   1.407999e-07   8.995456e-02   2.316357e+00   1.191330e+01  -7.034955e+04  -1.288622e+05   1.346080e+04   1.414072e+10  -7.702039e+09   1.702616e+08   1.474304e+05   2.008291e-30   0.000000e+00   0.000000e+00
     1416000   1.415999e-07   8.989828e-02   2.316253e+00   1.191331e+01  -7.033823e+04  -1.288683e+05   1.346094e+04   1.414061e+10  -7.700368e+09   1.702686e+08   1.474304e+05   2.008068e-30   0.000000e+00   0.000000e+00
     1424000   1.423999e-07   8.984202e-02   2.316150e+00   1.191332e+01  -7.032692e+04  -1.288745e+05   1.346108e+04   1.414050e+10  -7.698698e+09   1.702756e+08   1.474304e+05   2.007845e-30   0.000000e+00   0.000000e+00
     1432000   1.431999e-07   8.978576e-02   2.316047e+00   1.191333e+01  -7.031561e+04  -1.288807e+05   1.346121e+04   1.414039e+10  -7.697028e+09   1.702826e+08   1.474304e+05   2.007621e-30   0.000000e+00   0.000000e+00
     1440000   1.439999e-07   8.972951e-02   2.315944e+00   1.191335e+01  -7.030430e+04  -1.288868e+05   1.346135e+04   1.414028e+10  -7.695358e+09   1.702895e+08   1.474304e+05   2.007398e-30   0.000000e+00   0.000000e+00
     1448000   1.447999e-07   8.967327e-02   2.315841e+00   1.191336e+01  -7.029298e+04  -1.288930e+05   1.346148e+04   1.414017e+10  -7.693689e+09   1.702964e+08   1.474304e+05   2.007175e-30   0.000000e+00   0.000000e+00
     1456000   1.455999e-07   8.961704e-02   2.315738e+00   1.191337e+01  -7.028167e+04  -1.288991e+05   1.346162e+04   1.414006e+10  -7.692019e+09   1.703033e+08   1.474304e+05   2.006952e-30   0.000000e+00   0.000000e+00
     1464000   1.463999e-07   8.956082e-02   2.315635e+00   1.191338e+01  -7.027036e+04  -1.289053e+05   1.346176e+04   1.413995e+10  -7.690350e+09   1.703102e+08   1.474304e+05   2.006729e-30   0.000000e+00   0.000000e+00
     1472000   1.471999e-07   8.950461e-02   2.315532e+00   1.191339e+01  -7.025905e+04  -1.289114e+05   1.346189e+04   1.413984e+10  -7.688681e+09   1.703170e+08   1.474304e+05   2.006506e-30   0.000000e+00   0.000000e+00
     1480000   1.479999e-07   8.944841e-02   2.315429e+00   1.191340e+01  -7.024774e+04  -1.289176e+05   1.346203e+04   1.413973e+10  -7.687012e+09   1.703238e+08   1.474304e+05   2.006283e-30   0.000000e+00   0.000000e+00
     1488000   1.487999e-07   8.939221e-02   2.315325e+00   1.191341e+01  -7.023642e+04  -1.289237e+05   1.346217e+04   1.413962e+10  -7.685343e+09   1.703306e+08   1.474304e+05   2.006060e-30   0.000000e+00   0.000000e+00
     1496000   1.495999e-07   8.933603e-02   2.315222e+00   1.191342e+01  -7.022511e+04  -1.289299e+05   1.346230e+04   1.413950e+10  -7.683674e+09   1.703373e+08   1.474304e+05   2.005836e-30   0.000000e+00   0.000000e+00
     1504000   1.503999e-07   8.927985e-02   2.315119e+00   1.191343e+01  -7.021380e+04  -1.289360e+05   1.346244e+04   1.413939e+10  -7.682006e+09   1.703440e+08   1.474304e+05   2.005613e-30   0.000000e+00   0.000000e+00
     1512000   1.511999e-07   8.922369e-02   2.315016e+00   1.191344e+01  -7.020249e+04  -1.289422e+05   1.346257e+04   1.413928e+10  -7.680337e+09   1.703507e+08   1.474304e+05   2.005390e-30   0.000000e+00   0.000000e+00
     1520000   1.519999e-07   8.916753e-02   2.314913e+00   1.191345e+01  -7.019118e+04  -1.289483e+05   1.346271e+04   1.413917e+10  -7.678669e+09   1.703574e+08   1.474304e+05   2.005167e-30   0.000000e+00   0.000000e+00
     1528000   1.527999e-07   8.911138e-02   2.314810e+00   1.191346e+01  -7.017987e+04  -1.289545e+05   1.346285e+04   1.413906e+10  -7.677001e+09   1.703640e+08   1.474304e+05   2.004944e-30   0.000000e+00   0.000000e+00
     1536000   1.535999e-07   8.905524e-02   2.314706e+00   1.191347e+01  -7.016856e+04  -1.289606e+05   1.346298e+04   1.413894e+10  -7.675333e+09   1.703706e+08   1.474304e+05   2.004721e-30   0.000000e+00   0.000000e+00
     1544000   1.543999e-07   8.899911e-02   2.314603e+00   1.191349e+01  -7.015725e+04  -1.289667e+05   1.346312e+04   1.413883e+10  -7.673665e+09   1.703772e+08   1.474304e+05   2.004498e-30   0.000000e+00   0.000000e+00
     1552000   1.551999e-07   8.894299e-02   2.314500e+00   1.191350e+01  -7.014593e+04  -1.289729e+05   1.346326e+04   1.413872e+10  -7.671998e+09   1.703838e+08   1.474304e+05   2.004275e-30   0.000000e+00   0.000000e+00
     1560000   1.559999e-07   8.888688e-02   2.314397e+00   1.191351e+01  -7.013462e+04  -1.289790e+05   1.346339e+04   1.413860e+10  -7.670330e+09   1.703903e+08   1.474304e+05   2.004052e-30   0.000000e+00   0.000000e+00
     1568000   1.567999e-07   8.883078e-02   2.314294e+00   1.191352e+01  -7.012331e+04  -1.289851e+05   1.346353e+04   1.413849e+10  -7.668663e+09   1.703968e+08   1.474304e+05   2.003830e-30   0.000000e+00   0.000000e+00
     1576000   1.575999e-07   8.877468e-02   2.314191e+00   1.191353e+01  -7.011200e+04  -1.289913e+05   1.346366e+04   1.413838e+10  -7.666996e+09   1.704033e+08   1.474304e+05   2.003607e-30   0.000000e+00   0.000000e+00
     1584000   1.583999e-07   8.871860e-02   2.314087e+00   1.191354e+01  -7.010069e+04  -1.289974e+05   1.346380e+04   1.413826e+10  -7.665329e+09   1.704097e+08   1.474304e+05   2.003384e-30   0.000000e+00   0.000000e+00
     1592000   1.591999e-07   8.866252e-02   2.313984e+00   1.191355e+01  -7.008938e+04  -1.290035e+05   1.346394e+04   1.413815e+10  -7.663662e+09   1.704162e+08   1.474304e+05   2.003161e-30   0.000000e+00   0.000000e+00
     1600000   1.599999e-07   8.860645e-02   2.313881e+00   1.191356e+01  -7.007807e+04  -1.290097e+05   1.346407e+04   1.413803e+10  -7.661995e+09   1.704226e+08   1.474304e+05   2.002938e-30   0.000000e+00   0.000000e+00
     1608000   1.607999e-07   8.855040e-02   2.313778e+00   1.191357e+01  -7.006676e+04  -1.290158e+05   1.346421e+04   1.413792e+10  -7.660329e+09   1.704289e+08   1.474304e+05   2.002715e-30   0.000000e+00   0.000000e+00
     1616000   1.615999e-07   8.849435e-02   2.313675e+00   1.191358e+01  -7.005545e+04  -1.290219e+05   1.346435e+04   1.413780e+10  -7.658663e+09   1.704353e+08   1.474304e+05   2.002492e-30   0.000000e+00   0.000000e+00
     1624000   1.623999e-07   8.843831e-02   2.313571e+00   1.191359e+01  -7.004414e+04  -1.290281e+05   1.346448e+04   1.413769e+10  -7.656996e+09   1.704416e+08   1.474304e+05   2.002270e-30   0.000000e+00   0.000000e+00
     1632000   1.631999e-07   8.838228e-02   2.313468e+00   1.191360e+01  -7.003283e+04  -1.290342e+05   1.346462e+04   1.413757e+10  -7.655330e+09   1.704479e+08   1.474304e+05   2.002047e-30   0.000000e+00   0.000000e+00
     1640000   1.639999e-07   8.832625e-02   2.313365e+00   1.191361e+01  -7.002152e+04  -1.290403e+05   1.346476e+04   1.413746e+10  -7.653665e+09   1.704542e+08   1.474304e+05   2.001824e-30   0.000000e+00   0.000000e+00
     1648000   1.647999e-07   8.827024e-02   2.313262e+00   1.191363e+01  -7.001021e+04  -1.290464e+05   1.346489e+04   1.413734e+10  -7.651999e+09   1.704604e+08   1.474304e+05   2.001601e-30   0.000000e+00   0.000000e+00
     1656000   1.655999e-07   8.821424e-02   2.313158e+00   1.191364e+01  -6.999890e+04  -1.290526e+05   1.346503e+04   1.413723e+10  -7.650333e+09   1.704666e+08   1.474304e+05   2.001379e-30   0.000000e+00   0.000000e+00
     1664000   1.663999e-07   8.815824e-02   2.313055e+00   1.191365e+01  -6.998759e+04  -1.290587e+05   1.346516e+04   1.413711e+10  -7.648668e+09   1.704728e+08   1.474304e+05   2.001156e-30   0.000000e+00   0.000000e+00
     1672000   1.671999e-07   8.810226e-02   2.312952e+00   1.191366e+01  -6.997628e+04  -1.290648e+05   1.346530e+04   1.413700e+10  -7.647003e+09   1.704789e+08   1.474304e+05   2.000933e-30   0.000000e+00   0.000000e+00
     1680000   1.679999e-07   8.804628e-02   2.312849e+00   1.191367e+01  -6.996497e+04  -1.290709e+05   1.346544e+04   1.413688e+10  -7.645338e+09   1.704851e+08   1.474304e+05   2.000711e-30   0.000000e+00   0.000000e+00
     1688000   1.687999e-07   8.799031e-02   2.312745e+00   1.191368e+01  -6.995366e+04  -1.290770e+05   1.346557e+04   1.413676e+10  -7.643673e+09   1.704912e+08   1.474304e+05   2.000488e-30   0.000000e+00   0.000000e+00
     1696000   1.695999e-07   8.793436e-02   2.312642e+00   1.191369e+01  -6.994235e+04  -1.290831e+05   1.346571e+04   1.413665e+10  -7.642008e+09   1.704973e+08   1.474304e+05   2.000265e-30   0.000000e+00   0.000000e+00
     1704000   1.703999e-07   8.787841e-02   2.312539e+00   1.191370e+01  -6.993104e+04  -1.290893e+05   1.346585e+04   1.413653e+10  -7.640344e+09   1.705033e+08   1.474304e+05   2.000043e-30   0.000000e+00   0.000000e+00
     1712000   1.711999e-07   8.782247e-02   2.312436e+00   1.191371e+01  -6.991973e+04  -1.290954e+05   1.346598e+04   1.413641e+10  -7.638679e+09   1.705093e+08   1.474304e+05   1.999820e-30   0.000000e+00   0.000000e+00
     1720000   1.719999e-07   8.776653e-02   2.312332e+00   1.191372e+01  -6.990842e+04  -1.291015e+05   1.346612e+04   1.413629e+10  -7.637015e+09   1.705153e+08   1.474304e+05   1.999597e-30   0.000000e+00   0.000000e+00
     1728000   1.727999e-07   8.771061e-02   2.312229e+00   1.191373e+01  -6.989712e+04  -1.291076e+05   1.346626e+04   1.413618e+10  -7.635351e+09   1.705213e+08   1.474304e+05   1.999375e-30   0.000000e+00   0.000000e+00
     1736000   1.735999e-07   8.765470e-02   2.312126e+00   1.191374e+01  -6.988581e+04  -1.291137e+05   1.346639e+04   1.413606e+10  -7.633687e+09   1.705273e+08   1.474304e+05   1.999152e-30   0.000000e+00   0.000000e+00
     1744000   1.743999e-07   8.759879e-02   2.312022e+00   1.191375e+01  -6.987450e+04  -1.291198e+05   1.346653e+04   1.413594e+10  -7.632023e+09   1.705332e+08   1.474304e+05   1.998930e-30   0.000000e+00   0.000000e+00
     1752000   1.751999e-07   8.754290e-02   2.311919e+00   1.191377e+01  -6.986319e+04  -1.291259e+05   1.346666e+04   1.413582e+10  -7.630360e+09   1.705391e+08   1.474304e+05   1.998707e-30   0.000000e+00   0.000000e+00
     1760000   1.759999e-07   8.748701e-02   2.311816e+00   1.191378e+01  -6.985188e+04  -1.291320e+05   1.346680e+04   1.413570e+10  -7.628696e+09   1.705449e+08   1.474304e+05   1.998485e-30   0.000000e+00   0.000000e+00
     1768000   1.767999e-07   8.743114e-02   2.311713e+00   1.191379e+01  -6.984057e+04  -1.291381e+05   1.346694e+04   1.413559e+10  -7.627033e+09   1.705508e+08   1.474304e+05   1.998262e-30   0.000000e+00   0.000000e+00
     1776000   1.775999e-07   8.737527e-02   2.311609e+00   1.191380e+01  -6.982926e+04  -1.291442e+05   1.346707e+04   1.413547e+10  -7.625370e+09   1.705566e+08   1.474304e+05   1.998040e-30   0.000000e+00   0.000000e+00
     1784000   1.783999e-07   8.731941e-02   2.311506e+00   1.191381e+01  -6.981795e+04  -1.291503e+05   1.346721e+04   1.413535e+10  -7.623707e+09   1.705624e+08   1.474304e+05   1.997817e-30   0.000000e+00   0.000000e+00
     1792000   1.791999e-07   8.726356e-02   2.311403e+00   1.191382e+01  -6.980665e+04  -1.291564e+05   1.346735e+04   1.413523e+10  -7.622044e+09   1.705681e+08   1.474304e+05   1.997595e-30   0.000000e+00   0.000000e+00
     1800000   1.799999e-07   8.720772e-02   2.311299e+00   1.191383e+01  -6.979534e+04  -1.291625e+05   1.346748e+04   1.413511e+10  -7.620381e+09   1.705739e+08   1.474304e+05   1.997373e-30   0.000000e+00   0.000000e+00
     1808000   1.807999e-07   8.715189e-02   2.311196e+00   1.191384e+01  -6.978403e+04  -1.291686e+05   1.346762e+04   1.413499e+10  -7.618719e+09   1.705796e+08   1.474304e+05   1.997150e-30   0.000000e+00   0.000000e+00
     1816000   1.815999e-07   8.709606e-02   2.311093e+00   1.191385e+01  -6.977272e+04  -1.291747e+05   1.346776e+04   1.413487e+10  -7.617056e+09   1.705853e+08   1.474304e+05   1.996928e-30   0.000000e+00   0.000000e+00
     1824000   1.823999e-07   8.704025e-02   2.310989e+00   1.191386e+01  -6.976141e+04  -1.291808e+05   1.346789e+04   1.413475e+10  -7.615394e+09   1.705909e+08   1.474304e+05   1.996705e-30   0.000000e+00   0.000000e+00
     1832000   1.831999e-07   8.698445e-02   2.310886e+00   1.191387e+01  -6.975011e+04  -1.291869e+05   1.346803e+04   1.413463e+10  -7.613732e+09   1.705965e+08   1.474304e+05   1.996483e-30   0.000000e+00   0.000000e+00
     1840000   1.839999e-07   8.692865e-02   2.310783e+00   1.191388e+01  -6.973880e+04  -1.291930e+05   1.346817e+04   1.413451e+10  -7.612070e+09   1.706021e+08   1.474304e+05   1.996261e-30   0.000000e+00   0.000000e+00
     1848000   1.847999e-07   8.687286e-02   2.310679e+00   1.191390e+01  -6.972749e+04  -1.291991e+05   1.346830e+04   1.413439e+10  -7.610409e+09   1.706077e+08   1.474304e+05   1.996039e-30   0.000000e+00   0.000000e+00
     1856000   1.855999e-07   8.681709e-02   2.310576e+00   1.191391e+01  -6.971618e+04  -1.292051e+05   1.346844e+04   1.413427e+10  -7.608747e+09   1.706133e+08   1.474304e+05   1.995816e-30   0.000000e+00   0.000000e+00
     1864000   1.863999e-07   8.676132e-02   2.310472e+00   1.191392e+01  -6.970488e+04  -1.292112e+05   1.346858e+04   1.413415e+10  -7.607086e+09   1.706188e+08   1.474304e+05   1.995594e-30   0.000000e+00   0.000000e+00
     1872000   1.871999e-07   8.670556e-02   2.310369e+00   1.191393e+01  -6.969357e+04  -1.292173e+05   1.346871e+04   1.413402e+10  -7.605425e+09   1.706243e+08   1.474304e+05   1.995372e-30   0.000000e+00   0.000000e+00
     1880000   1.879999e-07   8.664981e-02   2.310266e+00   1.191394e+01  -6.968226e+04  -1.292234e+05   1.346885e+04   1.413390e+10  -7.603764e+09   1.706298e+08   1.474304e+05   1.995149e-30   0.000000e+00   0.000000e+00
     1888000   1.887999e-07   8.659407e-02   2.310162e+00   1.191395e+01  -6.967096e+04  -1.292295e+05   1.346898e+04   1.413378e+10  -7.602103e+09   1.706352e+08   1.474304e+05   1.994927e-30   0.000000e+00   0.000000e+00
     1896000   1.895999e-07   8.653834e-02   2.310059e+00   1.191396e+01  -6.965965e+04  -1.292356e+05   1.346912e+04   1.413366e+10  -7.600442e+09   1.706406e+08   1.474304e+05   1.994705e-30   0.000000e+00   0.000000e+00
     1904000   1.903999e-07   8.648261e-02   2.309956e+00   1.191397e+01  -6.964834e+04  -1.292416e+05   1.346926e+04   1.413354e+10  -7.598781e+09   1.706460e+08   1.474304e+05   1.994483e-30   0.000000e+00   0.000000e+00
     1912000   1.911999e-07   8.642690e-02   2.309852e+00   1.191398e+01  -6.963703e+04  -1.292477e+05   1.346939e+04   1.413341e+10  -7.597121e+09   1.706514e+08   1.474304e+05   1.994261e-30   0.000000e+00   0.000000e+00
     1920000   1.919999e-07   8.637119e-02   2.309749e+00   1.191399e+01  -6.962573e+04  -1.292538e+05   1.346953e+04   1.413329e+10  -7.595461e+09   1.706567e+08   1.474304e+05   1.994039e-30   0.000000e+00   0.000000e+00
     1928000   1.927999e-07   8.631550e-02   2.309645e+00   1.191400e+01  -6.961442e+04  -1.292599e+05   1.346967e+04   1.413317e+10  -7.593801e+09   1.706620e+08   1.474304e+05   1.993816e-30   0.000000e+00   0.000000e+00
     1936000   1.935999e-07   8.625981e-02   2.309542e+00   1.191401e+01  -6.960311e+04  -1.292659e+05   1.346980e+04   1.413305e+10  -7.592141e+09   1.706673e+08   1.474304e+05   1.993594e-30   0.000000e+00   0.000000e+00
     1944000   1.943999e-07   8.620413e-02   2.309439e+00   1.191402e+01  -6.959181e+04  -1.292720e+05   1.346994e+04   1.413292e+10  -7.590481e+09   1.706726e+08   1.474304e+05   1.993372e-30   0.000000e+00   0.000000e+00
     1952000   1.951999e-07   8.614846e-02   2.309335e+00   1.191404e+01  -6.958050e+04  -1.292781e+05   1.347008e+04   1.413280e+10  -7.588821e+09   1.706778e+08   1.474304e+05   1.993150e-30   0.000000e+00   0.000000e+00
     1960000   1.959999e-07   8.609280e-02   2.309232e+00   1.191405e+01  -6.956920e+04  -1.292842e+05   1.347021e+04   1.413268e+10  -7.587162e+09   1.706830e+08   1.474304e+05   1.992928e-30   0.000000e+00   0.000000e+00
     1968000   1.967999e-07   8.603715e-02   2.309128e+00   1.191406e+01  -6.955789e+04  -1.292902e+05   1.347035e+04   1.413255e+10  -7.585503e+09   1.706882e+08   1.474304e+05   1.992706e-30   0.000000e+00   0.000000e+00
     1976000   1.975999e-07   8.598151e-02   2.309025e+00   1.191407e+01  -6.954658e+04  -1.292963e+05   1.347049e+04   1.413243e+10  -7.583843e+09   1.706934e+08   1.474304e+05   1.992484e-30   0.000000e+00   0.000000e+00
     1984000   1.983999e-07   8.592588e-02   2.308921e+00   1.191408e+01  -6.953528e+04  -1.293024e+05   1.347062e+04   1.413231e+10  -7.582184e+09   1.706985e+08   1.474304e+05   1.992262e-30   0.000000e+00   0.000000e+00
     1992000   1.991999e-07   8.587025e-02   2.308818e+00   1.191409e+01  -6.952397e+04  -1.293084e+05   1.347076e+04   1.413218e+10  -7.580526e+09   1.707036e+08   1.474304e+05   1.992040e-30   0.000000e+00   0.000000e+00
     2000000   1.999999e-07   8.581464e-02   2.308714e+00   1.191410e+01  -6.951267e+04  -1.293145e+05   1.347090e+04   1.413206e+10  -7.578867e+09   1.707087e+08   1.474304e+05   1.991818e-30   0.000000e+00   0.000000e+00
     2008000   2.007999e-07   8.575903e-02   2.308611e+00   1.191411e+01  -6.950136e+04  -1.293206e+05   1.347103e+04   1.413193e+10  -7.577209e+09   1.707137e+08   1.474304e+05   1.991596e-30   0.000000e+00   0.000000e+00
     2016000   2.015999e-07   8.570344e-02   2.308508e+00   1.191412e+01  -6.949006e+04  -1.293266e+05   1.347117e+04   1.413181e+10  -7.575550e+09   1.707187e+08   1.474304e+05   1.991374e-30   0.000000e+00   0.000000e+00
     2024000   2.023999e-07   8.564785e-02   2.308404e+00   1.191413e+01  -6.947875e+04  -1.293327e+05   1.347131e+04   1.413168e+10  -7.573892e+09   1.707237e+08   1.474304e+05   1.991152e-30   0.000000e+00   0.000000e+00
     2032000   2.031999e-07   8.559227e-02   2.308301e+00   1.191414e+01  -6.946744e+04  -1.293387e+05   1.347144e+04   1.413156e+10  -7.572234e+09   1.707287e+08   1.474304e+05   1.990930e-30   0.000000e+00   0.000000e+00
     2040000   2.039999e-07   8.553670e-02   2.308197e+00   1.191415e+01  -6.945614e+04  -1.293448e+05   1.347158e+04   1.413143e+10  -7.570576e+09   1.707337e+08   1.474304e+05   1.990708e-30   0.000000e+00   0.000000e+00
     2048000   2.047999e-07   8.548114e-02   2.308094e+00   1.191416e+01  -6.944483e+04  -1.293508e+05   1.347172e+04   1.413131e+10  -7.568919e+09   1.707386e+08   1.474304e+05   1.990486e-30   0.000000e+00   0.000000e+00
     2056000   2.055999e-07   8.542559e-02   2.307990e+00   1.191418e+01  -6.943353e+04  -1.293569e+05   1.347185e+04   1.413118e+10  -7.567261e+09   1.707435e+08   1.474304e+05   1.990265e-30   0.000000e+00   0.000000e+00
     2064000   2.063999e-07   8.537005e-02   2.307887e+00   1.191419e+01  -6.942222e+04  -1.293630e+05   1.347199e+04   1.413105e+10  -7.565604e+09   1.707483e+08   1.474304e+05   1.990043e-30   0.000000e+00   0.000000e+00
     2072000   2.071999e-07   8.531451e-02   2.307783e+00   1.191420e+01  -6.941092e+04  -1.293690e+05   1.347213e+04   1.413093e+10  -7.563946e+09   1.707532e+08   1.474304e+05   1.989821e-30   0.000000e+00   0.000000e+00
     2080000   2.079999e-07   8.525899e-02   2.307680e+00   1.191421e+01  -6.939962e+04  -1.293751e+05   1.347226e+04   1.413080e+10  -7.562289e+09   1.707580e+08   1.474304e+05   1.989599e-30   0.000000e+00   0.000000e+00
     2088000   2.087999e-07   8.520347e-02   2.307576e+00   1.191422e+01  -6.938831e+04  -1.293811e+05   1.347240e+04   1.413067e+10  -7.560632e+09   1.707628e+08   1.474304e+05   1.989377e-30   0.000000e+00   0.000000e+00
     2096000   2.095999e-07   8.514797e-02   2.307473e+00   1.191423e+01  -6.937701e+04  -1.293872e+05   1.347254e+04   1.413055e+10  -7.558976e+09   1.707675e+08   1.474304e+05   1.989156e-30   0.000000e+00   0.000000e+00
     2104000   2.103999e-07   8.509247e-02   2.307369e+00   1.191424e+01  -6.936570e+04  -1.293932e+05   1.347267e+04   1.413042e+10  -7.557319e+09   1.707723e+08   1.474304e+05   1.988934e-30   0.000000e+00   0.000000e+00
     2112000   2.111999e-07   8.503698e-02   2.307266e+00   1.191425e+01  -6.935440e+04  -1.293992e+05   1.347281e+04   1.413029e+10  -7.555663e+09   1.707770e+08   1.474304e+05   1.988712e-30   0.000000e+00   0.000000e+00
     2120000   2.119999e-07   8.498150e-02   2.307162e+00   1.191426e+01  -6.934309e+04  -1.294053e+05   1.347295e+04   1.413016e+10  -7.554007e+09   1.707817e+08   1.474304e+05   1.988490e-30   0.000000e+00   0.000000e+00
     2128000   2.127999e-07   8.492603e-02   2.307059e+00   1.191427e+01  -6.933179e+04  -1.294113e+05   1.347308e+04   1.413004e+10  -7.552350e+09   1.707863e+08   1.474304e+05   1.988269e-30   0.000000e+00   0.000000e+00
     2136000   2.135999e-07   8.487057e-02   2.306955e+00   1.191428e+01  -6.932049e+04  -1.294174e+05   1.347322e+04   1.412991e+10  -7.550695e+09   1.707910e+08   1.474304e+05   1.988047e-30   0.000000e+00   0.000000e+00
     2144000   2.143999e-07   8.481512e-02   2.306852e+00   1.191429e+01  -6.930918e+04  -1.294234e+05   1.347336e+04   1.412978e+10  -7.549039e+09   1.707956e+08   1.474304e+05   1.987825e-30   0.000000e+00   0.000000e+00
     2152000   2.151999e-07   8.475968e-02   2.306748e+00   1.191430e+01  -6.929788e+04  -1.294295e+05   1.347349e+04   1.412965e+10  -7.547383e+09   1.708002e+08   1.474304e+05   1.987604e-30   0.000000e+00   0.000000e+00
     2160000   2.159999e-07   8.470425e-02   2.306644e+00   1.191432e+01  -6.928657e+04  -1.294355e+05   1.347363e+04   1.412952e+10  -7.545728e+09   1.708047e+08   1.474304e+05   1.987382e-30   0.000000e+00   0.000000e+00
     2168000   2.167999e-07   8.464882e-02   2.306541e+00   1.191433e+01  -6.927527e+04  -1.294415e+05   1.347376e+04   1.412940e+10  -7.544072e+09   1.708093e+08   1.474304e+05   1.987160e-30   0.000000e+00   0.000000e+00
     2176000   2.175999e-07   8.459340e-02   2.306437e+00   1.191434e+01  -6.926397e+04  -1.294476e+05   1.347390e+04   1.412927e+10  -7.542417e+09   1.708138e+08   1.474304e+05   1.986939e-30   0.000000e+00   0.000000e+00
     2184000   2.183999e-07   8.453800e-02   2.306334e+00   1.191435e+01  -6.925266e+04  -1.294536e+05   1.347404e+04   1.412914e+10  -7.540762e+09   1.708182e+08   1.474304e+05   1.986717e-30   0.000000e+00   0.000000e+00
     2192000   2.191999e-07   8.448260e-02   2.306230e+00   1.191436e+01  -6.924136e+04  -1.294596e+05   1.347417e+04   1.412901e+10  -7.539108e+09   1.708227e+08   1.474304e+05   1.986496e-30   0.000000e+00   0.000000e+00
     2200000   2.199999e-07   8.442721e-02   2.306127e+00   1.191437e+01  -6.923006e+04  -1.294657e+05   1.347431e+04   1.412888e+10  -7.537453e+09   1.708271e+08   1.474304e+05   1.986274e-30   0.000000e+00   0.000000e+00
     2208000   2.207999e-07   8.437183e-02   2.306023e+00   1.191438e+01  -6.921875e+04  -1.294717e+05   1.347445e+04   1.412875e+10  -7.535798e+09   1.708315e+08   1.474304e+05   1.986053e-30   0.000000e+00   0.000000e+00
     2216000   2.215999e-07   8.431646e-02   2.305920e+00   1.191439e+01  -6.920745e+04  -1.294777e+05   1.347458e+04   1.412862e+10  -7.534144e+09   1.708359e+08   1.474304e+05   1.985831e-30   0.000000e+00   0.000000e+00
     2224000   2.223999e-07   8.426110e-02   2.305816e+00   1.191440e+01  -6.919615e+04  -1.294837e+05   1.347472e+04   1.412849e+10  -7.532490e+09   1.708402e+08   1.474304e+05   1.985610e-30   0.000000e+00   0.000000e+00
     2232000   2.231999e-07   8.420575e-02   2.305712e+00   1.191441e+01  -6.918485e+04  -1.294898e+05   1.347486e+04   1.412836e+10  -7.530836e+09   1.708446e+08   1.474304e+05   1.985388e-30   0.000000e+00   0.000000e+00
     2240000   2.239999e-07   8.415040e-02   2.305609e+00   1.191442e+01  -6.917354e+04  -1.294958e+05   1.347499e+04   1.412823e+10  -7.529182e+09   1.708489e+08   1.474304e+05   1.985167e-30   0.000000e+00   0.000000e+00
     2248000   2.247999e-07   8.409507e-02   2.305505e+00   1.191443e+01  -6.916224e+04  -1.295018e+05   1.347513e+04   1.412810e+10  -7.527528e+09   1.708531e+08   1.474304e+05   1.984945e-30   0.000000e+00   0.000000e+00
     2256000   2.255999e-07   8.403975e-02   2.305402e+00   1.191444e+01  -6.915094e+04  -1.295078e+05   1.347527e+04   1.412797e+10  -7.525875e+09   1.708574e+08   1.474304e+05   1.984724e-30   0.000000e+00   0.000000e+00
     2264000   2.263999e-07   8.398443e-02   2.305298e+00   1.191446e+01  -6.913964e+04  -1.295139e+05   1.347541e+04   1.412783e+10  -7.524222e+09   1.708616e+08   1.474304e+05   1.984503e-30   0.000000e+00   0.000000e+00
     2272000   2.271999e-07   8.392912e-02   2.305194e+00   1.191447e+01  -6.912833e+04  -1.295199e+05   1.347554e+04   1.412770e+10  -7.522568e+09   1.708658e+08   1.474304e+05   1.984281e-30   0.000000e+00   0.000000e+00
     2280000   2.279999e-07   8.387382e-02   2.305091e+00   1.191448e+01  -6.911703e+04  -1.295259e+05   1.347568e+04   1.412757e+10  -7.520915e+09   1.708699e+08   1.474304e+05   1.984060e-30   0.000000e+00   0.000000e+00
     2288000   2.287999e-07   8.381853e-02   2.304987e+00   1.191449e+01  -6.910573e+04  -1.295319e+05   1.347582e+04   1.412744e+10  -7.519262e+09   1.708741e+08   1.474304e+05   1.983838e-30   0.000000e+00   0.000000e+00
     2296000   2.295999e-07   8.376325e-02   2.304883e+00   1.191450e+01  -6.909443e+04  -1.295379e+05   1.347595e+04   1.412731e+10  -7.517610e+09   1.708782e+08   1.474304e+05   1.983617e-30   0.000000e+00   0.000000e+00
     2304000   2.303999e-07   8.370798e-02   2.304780e+00   1.191451e+01  -6.908313e+04  -1.295439e+05   1.347609e+04   1.412718e+10  -7.515957e+09   1.708823e+08   1.474304e+05   1.983396e-30   0.000000e+00   0.000000e+00
     2312000   2.311999e-07   8.365272e-02   2.304676e+00   1.191452e+01  -6.907182e+04  -1.295499e+05   1.347623e+04   1.412704e+10  -7.514305e+09   1.708864e+08   1.474304e+05   1.983174e-30   0.000000e+00   0.000000e+00
     2320000   2.319999e-07   8.359747e-02   2.304573e+00   1.191453e+01  -6.906052e+04  -1.295560e+05   1.347636e+04   1.412691e+10  -7.512653e+09   1.708904e+08   1.474304e+05   1.982953e-30   0.000000e+00   0.000000e+00
     2328000   2.327999e-07   8.354222e-02   2.304469e+00   1.191454e+01  -6.904922e+04  -1.295620e+05   1.347650e+04   1.412678e+10  -7.511000e+09   1.708944e+08   1.474304e+05   1.982732e-30   0.000000e+00   0.000000e+00
     2336000   2.335999e-07   8.348699e-02   2.304365e+00   1.191455e+01  -6.903792e+04  -1.295680e+05   1.347664e+04   1.412665e+10  -7.509349e+09   1.708984e+08   1.474304e+05   1.982511e-30   0.000000e+00   0.000000e+00
     2344000   2.343999e-07   8.343176e-02   2.304262e+00   1.191456e+01  -6.902662e+04  -1.295740e+05   1.347677e+04   1.412651e+10  -7.507697e+09   1.709024e+08   1.474304e+05   1.982289e-30   0.000000e+00   0.000000e+00
     2352000   2.351999e-07   8.337655e-02   2.304158e+00   1.191457e+01  -6.901532e+04  -1.295800e+05   1.347691e+04   1.412638e+10  -7.506045e+09   1.709063e+08   1.474304e+05   1.982068e-30   0.000000e+00   0.000000e+00
     2360000   2.359999e-07   8.332134e-02   2.304054e+00   1.191458e+01  -6.900402e+04  -1.295860e+05   1.347705e+04   1.412625e+10  -7.504394e+09   1.709102e+08   1.474304e+05   1.981847e-30   0.000000e+00   0.000000e+00
     2368000   2.367999e-07   8.326614e-02   2.303951e+00   1.191460e+01  -6.899271e+04  -1.295920e+05   1.347718e+04   1.412611e+10  -7.502743e+09   1.709141e+08   1.474304e+05   1.981626e-30   0.000000e+00   0.000000e+00
     2376000   2.375999e-07   8.321095e-02   2.303847e+00   1.191461e+01  -6.898141e+04  -1.295980e+05   1.347732e+04   1.412598e+10  -7.501091e+09   1.709179e+08   1.474304e+05   1.981405e-30   0.000000e+00   0.000000e+00
     2384000   2.383999e-07   8.315577e-02   2.303743e+00   1.191462e+01  -6.897011e+04  -1.296040e+05   1.347746e+04   1.412584e+10  -7.499440e+09   1.709218e+08   1.474304e+05   1.981184e-30   0.000000e+00   0.000000e+00
     2392000   2.391999e-07   8.310060e-02   2.303640e+00   1.191463e+01  -6.895881e+04  -1.296100e+05   1.347759e+04   1.412571e+10  -7.497790e+09   1.709256e+08   1.474304e+05   1.980962e-30   0.000000e+00   0.000000e+00
     2400000   2.399999e-07   8.304544e-02   2.303536e+00   1.191464e+01  -6.894751e+04  -1.296160e+05   1.347773e+04   1.412557e+10  -7.496139e+09   1.709294e+08   1.474304e+05   1.980741e-30   0.000000e+00   0.000000e+00
     2408000   2.407999e-07   8.299028e-02   2.303432e+00   1.191465e+01  -6.893621e+04  -1.296220e+05   1.347787e+04   1.412544e+10  -7.494489e+09   1.709331e+08   1.474304e+05   1.980520e-30   0.000000e+00   0.000000e+00
     2416000   2.415999e-07   8.293514e-02   2.303328e+00   1.191466e+01  -6.892491e+04  -1.296280e+05   1.347800e+04   1.412530e+10  -7.492838e+09   1.709369e+08   1.474304e+05   1.980299e-30   0.000000e+00   0.000000e+00
     2424000   2.423999e-07   8.288000e-02   2.303225e+00   1.191467e+01  -6.891361e+04  -1.296340e+05   1.347814e+04   1.412517e+10  -7.491188e+09   1.709406e+08   1.474304e+05   1.980078e-30   0.000000e+00   0.000000e+00
     2432000   2.431999e-07   8.282488e-02   2.303121e+00   1.191468e+01  -6.890231e+04  -1.296400e+05   1.347828e+04   1.412503e+10  -7.489538e+09   1.709442e+08   1.474304e+05   1.979857e-30   0.000000e+00   0.000000e+00
     2440000   2.439999e-07   8.276976e-02   2.303017e+00   1.191469e+01  -6.889101e+04  -1.296460e+05   1.347841e+04   1.412490e+10  -7.487888e+09   1.709479e+08   1.474304e+05   1.979636e-30   0.000000e+00   0.000000e+00
     2448000   2.447999e-07   8.271465e-02   2.302914e+00   1.191470e+01  -6.887971e+04  -1.296520e+05   1.347855e+04   1.412476e+10  -7.486239e+09   1.709515e+08   1.474304e+05   1.979415e-30   0.000000e+00   0.000000e+00
     2456000   2.455999e-07   8.265955e-02   2.302810e+00   1.191471e+01  -6.886841e+04  -1.296579e+05   1.347869e+04   1.412463e+10  -7.484589e+09   1.709551e+08   1.474304e+05   1.979194e-30   0.000000e+00   0.000000e+00
     2464000   2.463999e-07   8.260446e-02   2.302706e+00   1.191473e+01  -6.885711e+04  -1.296639e+05   1.347882e+04   1.412449e+10  -7.482940e+09   1.709587e+08   1.474304e+05   1.978973e-30   0.000000e+00   0.000000e+00
     2472000   2.471999e-07   8.254938e-02   2.302602e+00   1.191474e+01  -6.884581e+04  -1.296699e+05   1.347896e+04   1.412435e+10  -7.481291e+09   1.709623e+08   1.474304e+05   1.978752e-30   0.000000e+00   0.000000e+00
     2480000   2.479999e-07   8.249431e-02   2.302499e+00   1.191475e+01  -6.883451e+04  -1.296759e+05   1.347910e+04   1.412422e+10  -7.479642e+09   1.709658e+08   1.474304e+05   1.978531e-30   0.000000e+00   0.000000e+00
     2488000   2.487999e-07   8.243925e-02   2.302395e+00   1.191476e+01  -6.882321e+04  -1.296819e+05   1.347923e+04   1.412408e+10  -7.477993e+09   1.709693e+08   1.474304e+05   1.978310e-30   0.000000e+00   0.000000e+00
     2496000   2.495999e-07   8.238419e-02   2.302291e+00   1.191477e+01  -6.881191e+04  -1.296879e+05   1.347937e+04   1.412394e+10  -7.476344e+09   1.709728e+08   1.474304e+05   1.978089e-30   0.000000e+00   0.000000e+00
     2504000   2.503999e-07   8.232915e-02   2.302187e+00   1.191478e+01  -6.880062e+04  -1.296938e+05   1.347951e+04   1.412381e+10  -7.474696e+09   1.709762e+08   1.474304e+05   1.977869e-30   0.000000e+00   0.000000e+00
     2512000   2.511999e-07   8.227411e-02   2.302084e+00   1.191479e+01  -6.878932e+04  -1.296998e+05   1.347964e+04   1.412367e+10  -7.473047e+09   1.709796e+08   1.474304e+05   1.977648e-30   0.000000e+00   0.000000e+00
     2520000   2.519999e-07   8.221908e-02   2.301980e+00   1.191480e+01  -6.877802e+04  -1.297058e+05   1.347978e+04   1.412353e+10  -7.471399e+09   1.709830e+08   1.474304e+05   1.977427e-30   0.000000e+00   0.000000e+00
     2528000   2.527999e-07   8.216407e-02   2.301876e+00   1.191481e+01  -6.876672e+04  -1.297118e+05   1.347992e+04   1.412339e+10  -7.469751e+09   1.709864e+08   1.474304e+05   1.977206e-30   0.000000e+00   0.000000e+00
     2536000   2.535999e-07   8.210906e-02   2.301772e+00   1.191482e+01  -6.875542e+04  -1.297177e+05   1.348005e+04   1.412326e+10  -7.468103e+09   1.709897e+08   1.474304e+05   1.976985e-30   0.000000e+00   0.000000e+00
     2544000   2.543999e-07   8.205406e-02   2.301669e+00   1.191483e+01  -6.874412e+04  -1.297237e+05   1.348019e+04   1.412312e+10  -7.466455e+09   1.709931e+08   1.474304e+05   1.976764e-30   0.000000e+00   0.000000e+00
     2552000   2.551999e-07   8.199907e-02   2.301565e+00   1.191484e+01  -6.873282e+04  -1.297297e+05   1.348033e+04   1.412298e+10  -7.464808e+09   1.709964e+08   1.474304e+05   1.976544e-30   0.000000e+00   0.000000e+00
     2560000   2.559999e-07   8.194408e-02   2.301461e+00   1.191485e+01  -6.872152e+04  -1.297357e+05   1.348046e+04   1.412284e+10  -7.463160e+09   1.709996e+08   1.474304e+05   1.976323e-30   0.000000e+00   0.000000e+00
     2568000   2.567999e-07   8.188911e-02   2.301357e+00   1.191487e+01  -6.871023e+04  -1.297416e+05   1.348060e+04   1.412270e+10  -7.461513e+09   1.710029e+08   1.474304e+05   1.976102e-30   0.000000e+00   0.000000e+00
     2576000   2.575999e-07   8.183415e-02   2.301253e+00   1.191488e+01  -6.869893e+04  -1.297476e+05   1.348074e+04   1.412256e+10  -7.459866e+09   1.710061e+08   1.474304e+05   1.975881e-30   0.000000e+00   0.000000e+00
     2584000   2.583999e-07   8.177919e-02   2.301150e+00   1.191489e+01  -6.868763e+04  -1.297536e+05   1.348088e+04   1.412242e+10  -7.458219e+09   1.710093e+08   1.474304e+05   1.975661e-30   0.000000e+00   0.000000e+00
     2592000   2.591999e-07   8.172425e-02   2.301046e+00   1.191490e+01  -6.867633e+04  -1.297595e+05   1.348101e+04   1.412229e+10  -7.456572e+09   1.710125e+08   1.474304e+05   1.975440e-30   0.000000e+00   0.000000e+00
     2600000   2.599999e-07   8.166931e-02   2.300942e+00   1.191491e+01  -6.866503e+04  -1.297655e+05   1.348115e+04   1.412215e+10  -7.454926e+09   1.710156e+08   1.474304e+05   1.975219e-30   0.000000e+00   0.000000e+00
     2608000   2.607999e-07   8.161438e-02   2.300838e+00   1.191492e+01  -6.865374e+04  -1.297715e+05   1.348129e+04   1.412201e+10  -7.453279e+09   1.710187e+08   1.474304e+05   1.974999e-30   0.000000e+00   0.000000e+00
     2616000   2.615999e-07   8.155947e-02   2.300734e+00   1.191493e+01  -6.864244e+04  -1.297774e+05   1.348142e+04   1.412187e+10  -7.451633e+09   1.710218e+08   1.474304e+05   1.974778e-30   0.000000e+00   0.000000e+00
     2624000   2.623999e-07   8.150456e-02   2.300631e+00   1.191494e+01  -6.863114e+04  -1.297834e+05   1.348156e+04   1.412173e+10  -7.449987e+09   1.710249e+08   1.474304e+05   1.974557e-30   0.000000e+00   0.000000e+00
     2632000   2.631999e-07   8.144966e-02   2.300527e+00   1.191495e+01  -6.861984e+04  -1.297893e+05   1.348170e+04   1.412159e+10  -7.448341e+09   1.710279e+08   1.474304e+05   1.974337e-30   0.000000e+00   0.000000e+00
     2640000   2.639999e-07   8.139476e-02   2.300423e+00   1.191496e+01  -6.860855e+04  -1.297953e+05   1.348183e+04   1.412145e+10  -7.446695e+09   1.710309e+08   1.474304e+05   1.974116e-30   0.000000e+00   0.000000e+00
     2648000   2.647999e-07   8.133988e-02   2.300319e+00   1.191497e+01  -6.859725e+04  -1.298013e+05   1.348197e+04   1.412130e+10  -7.445050e+09   1.710339e+08   1.474304e+05   1.973896e-30   0.000000e+00   0.000000e+00
     2656000   2.655999e-07   8.128501e-02   2.300215e+00   1.191498e+01  -6.858595e+04  -1.298072e+05   1.348211e+04   1.412116e+10  -7.443404e+09   1.710369e+08   1.474304e+05   1.973675e-30   0.000000e+00   0.000000e+00
     2664000   2.663999e-07   8.123014e-02   2.300111e+00   1.191499e+01  -6.857466e+04  -1.298132e+05   1.348224e+04   1.412102e+10  -7.441759e+09   1.710398e+08   1.474304e+05   1.973455e-30   0.000000e+00   0.000000e+00
     2672000   2.671999e-07   8.117529e-02   2.300008e+00   1.191501e+01  -6.856336e+04  -1.298191e+05   1.348238e+04   1.412088e+10  -7.440114e+09   1.710428e+08   1.474304e+05   1.973234e-30   0.000000e+00   0.000000e+00
     2680000   2.679999e-07   8.112044e-02   2.299904e+00   1.191502e+01  -6.855206e+04  -1.298251e+05   1.348252e+04   1.412705e+10  -7.441219e+09   1.766351e+08   1.474304e+05   1.974726e-30   0.000000e+00   0.000000e+00
     2688000   2.687999e-07   8.106561e-02   2.299800e+00   1.191503e+01  -6.854076e+04  -1.298310e+05   1.348266e+04   1.412690e+10  -7.439568e+09   1.766222e+08   1.474304e+05   1.974502e-30   0.000000e+00   0.000000e+00
     2696000   2.695999e-07   8.101078e-02   2.299696e+00   1.191504e+01  -6.852946e+04  -1.298370e+05   1.348280e+04   1.412674e+10  -7.437917e+09   1.766092e+08   1.474304e+05   1.974278e-30   0.000000e+00   0.000000e+00
     2704000   2.703999e-07   8.095596e-02   2.299592e+00   1.191505e+01  -6.851815e+04  -1.298429e+05   1.348294e+04   1.412659e+10  -7.436267e+09   1.765962e+08   1.474304e+05   1.974054e-30   0.000000e+00   0.000000e+00
     2712000   2.711999e-07   8.090115e-02   2.299488e+00   1.191506e+01  -6.850685e+04  -1.298489e+05   1.348309e+04   1.412643e+10  -7.434617e+09   1.765832e+08   1.474304e+05   1.973830e-30   0.000000e+00   0.000000e+00
     2720000   2.719999e-07   8.084635e-02   2.299384e+00   1.191507e+01  -6.849555e+04  -1.298548e+05   1.348323e+04   1.412628e+10  -7.432967e+09   1.765702e+08   1.474304e+05   1.973607e-30   0.000000e+00   0.000000e+00
     2728000   2.727999e-07   8.079156e-02   2.299280e+00   1.191508e+01  -6.848425e+04  -1.298608e+05   1.348337e+04   1.412613e+10  -7.431317e+09   1.765572e+08   1.474304e+05   1.973383e-30   0.000000e+00   0.000000e+00
     2736000   2.735999e-07   8.073677e-02   2.299177e+00   1.191509e+01  -6.847295e+04  -1.298667e+05   1.348351e+04   1.412597e+10  -7.429667e+09   1.765441e+08   1.474304e+05   1.973159e-30   0.000000e+00   0.000000e+00
     2744000   2.743999e-07   8.068200e-02   2.299073e+00   1.191510e+01  -6.846165e+04  -1.298727e+05   1.348365e+04   1.412582e+10  -7.428017e+09   1.765310e+08   1.474304e+05   1.972935e-30   0.000000e+00   0.000000e+00
     2752000   2.751999e-07   8.062723e-02   2.298969e+00   1.191511e+01  -6.845035e+04  -1.298786e+05   1.348379e+04   1.412566e+10  -7.426368e+09   1.765178e+08   1.474304e+05   1.972712e-30   0.000000e+00   0.000000e+00
     2760000   2.759999e-07   8.057248e-02   2.298865e+00   1.191512e+01  -6.843905e+04  -1.298845e+05   1.348393e+04   1.412551e+10  -7.424719e+09   1.765047e+08   1.474304e+05   1.972488e-30   0.000000e+00   0.000000e+00
     2768000   2.767999e-07   8.051773e-02   2.298761e+00   1.191513e+01  -6.842775e+04  -1.298905e+05   1.348407e+04   1.412535e+10  -7.423070e+09   1.764915e+08   1.474304e+05   1.972264e-30   0.000000e+00   0.000000e+00
     2776000   2.775999e-07   8.046299e-02   2.298657e+00   1.191515e+01  -6.841645e+04  -1.298964e+05   1.348422e+04   1.412519e+10  -7.421421e+09   1.764782e+08   1.474304e+05   1.972041e-30   0.000000e+00   0.000000e+00
     2784000   2.783999e-07   8.040827e-02   2.298553e+00   1.191516e+01  -6.840515e+04  -1.299024e+05   1.348436e+04   1.412504e+10  -7.419772e+09   1.764650e+08   1.474304e+05   1.971817e-30   0.000000e+00   0.000000e+00
     2792000   2.791999e-07   8.035355e-02   2.298449e+00   1.191517e+01  -6.839385e+04  -1.299083e+05   1.348450e+04   1.412488e+10  -7.418123e+09   1.764517e+08   1.474304e+05   1.971593e-30   0.000000e+00   0.000000e+00
     2800000   2.799999e-07   8.029884e-02   2.298345e+00   1.191518e+01  -6.838255e+04  -1.299142e+05   1.348464e+04   1.412473e+10  -7.416475e+09   1.764384e+08   1.474304e+05   1.971370e-30   0.000000e+00   0.000000e+00
     2808000   2.807999e-07   8.024413e-02   2.298241e+00   1.191519e+01  -6.837125e+04  -1.299202e+05   1.348478e+04   1.412457e+10  -7.414827e+09   1.764251e+08   1.474304e+05   1.971146e-30   0.000000e+00   0.000000e+00
     2816000   2.815999e-07   8.018944e-02   2.298137e+00   1.191520e+01  -6.835995e+04  -1.299261e+05   1.348492e+04   1.412441e+10  -7.413179e+09   1.764117e+08   1.474304e+05   1.970923e-30   0.000000e+00   0.000000e+00
     2824000   2.823999e-07   8.013476e-02   2.298033e+00   1.191521e+01  -6.834865e+04  -1.299320e+05   1.348506e+04   1.412426e+10  -7.411531e+09   1.763983e+08   1.474304e+05   1.970699e-30   0.000000e+00   0.000000e+00
     2832000   2.831999e-07   8.008008e-02   2.297929e+00   1.191522e+01  -6.833735e+04  -1.299379e+05   1.348520e+04   1.412410e+10  -7.409883e+09   1.763849e+08   1.474304e+05   1.970476e-30   0.000000e+00   0.000000e+00
     2840000   2.839999e-07   8.002542e-02   2.297826e+00   1.191523e+01  -6.832605e+04  -1.299439e+05   1.348535e+04   1.412394e+10  -7.408235e+09   1.763714e+08   1.474304e+05   1.970252e-30   0.000000e+00   0.000000e+00
     2848000   2.847999e-07   7.997076e-02   2.297722e+00   1.191524e+01  -6.831475e+04  -1.299498e+05   1.348549e+04   1.412379e+10  -7.406588e+09   1.763580e+08   1.474304e+05   1.970029e-30   0.000000e+00   0.000000e+00
     2856000   2.855999e-07   7.991611e-02   2.297618e+00   1.191525e+01  -6.830345e+04  -1.299557e+05   1.348563e+04   1.412363e+10  -7.404941e+09   1.763444e+08   1.474304e+05   1.969805e-30   0.000000e+00   0.000000e+00
     2864000   2.863999e-07   7.986148e-02   2.297514e+00   1.191526e+01  -6.829215e+04  -1.299616e+05   1.348577e+04   1.412347e+10  -7.403294e+09   1.763309e+08   1.474304e+05   1.969582e-30   0.000000e+00   0.000000e+00
     2872000   2.871999e-07   7.980685e-02   2.297410e+00   1.191528e+01  -6.828085e+04  -1.299676e+05   1.348591e+04   1.412331e+10  -7.401647e+09   1.763174e+08   1.474304e+05   1.969358e-30   0.000000e+00   0.000000e+00
     2880000   2.879999e-07   7.975223e-02   2.297306e+00   1.191529e+01  -6.826956e+04  -1.299735e+05   1.348605e+04   1.412315e+10  -7.400000e+09   1.763038e+08   1.474304e+05   1.969135e-30   0.000000e+00   0.000000e+00
     2888000   2.887999e-07   7.969762e-02   2.297202e+00   1.191530e+01  -6.825826e+04  -1.299794e+05   1.348619e+04   1.412300e+10  -7.398353e+09   1.762901e+08   1.474304e+05   1.968911e-30   0.000000e+00   0.000000e+00
     2896000   2.895999e-07   7.964301e-02   2.297098e+00   1.191531e+01  -6.824696e+04  -1.299853e+05   1.348633e+04   1.412284e+10  -7.396707e+09   1.762765e+08   1.474304e+05   1.968688e-30   0.000000e+00   0.000000e+00
     2904000   2.903999e-07   7.958842e-02   2.296994e+00   1.191532e+01  -6.823566e+04  -1.299912e+05   1.348647e+04   1.412268e+10  -7.395060e+09   1.762628e+08   1.474304e+05   1.968465e-30   0.000000e+00   0.000000e+00
     2912000   2.911999e-07   7.953384e-02   2.296890e+00   1.191533e+01  -6.822436e+04  -1.299972e+05   1.348661e+04   1.412252e+10  -7.393414e+09   1.762491e+08   1.474304e+05   1.968241e-30   0.000000e+00   0.000000e+00
     2920000   2.919999e-07   7.947926e-02   2.296786e+00   1.191534e+01  -6.821307e+04  -1.300031e+05   1.348676e+04   1.412236e+10  -7.391768e+09   1.762354e+08   1.474304e+05   1.968018e-30   0.000000e+00   0.000000e+00
     2928000   2.927999e-07   7.942470e-02   2.296682e+00   1.191535e+01  -6.820177e+04  -1.300090e+05   1.348690e+04   1.412220e+10  -7.390123e+09   1.762216e+08   1.474304e+05   1.967795e-30   0.000000e+00   0.000000e+00
     2936000   2.935999e-07   7.937014e-02   2.296578e+00   1.191536e+01  -6.819047e+04  -1.300149e+05   1.348704e+04   1.412204e+10  -7.388477e+09   1.762078e+08   1.474304e+05   1.967571e-30   0.000000e+00   0.000000e+00
     2944000   2.943999e-07   7.931559e-02   2.296474e+00   1.191537e+01  -6.817917e+04  -1.300208e+05   1.348718e+04   1.412188e+10  -7.386832e+09   1.761940e+08   1.474304e+05   1.967348e-30   0.000000e+00   0.000000e+00
     2952000   2.951999e-07   7.926105e-02   2.296370e+00   1.191538e+01  -6.816787e+04  -1.300267e+05   1.348732e+04   1.412172e+10  -7.385186e+09   1.761802e+08   1.474304e+05   1.967125e-30   0.000000e+00   0.000000e+00
     2960000   2.959999e-07   7.920652e-02   2.296266e+00   1.191539e+01  -6.815658e+04  -1.300326e+05   1.348746e+04   1.412156e+10  -7.383541e+09   1.761663e+08   1.474304e+05   1.966902e-30   0.000000e+00   0.000000e+00
     2968000   2.967999e-07   7.915200e-02   2.296162e+00   1.191540e+01  -6.814528e+04  -1.300385e+05   1.348760e+04   1.412140e+10  -7.381896e+09   1.761524e+08   1.474304e+05   1.966678e-30   0.000000e+00   0.000000e+00
     2976000   2.975999e-07   7.909749e-02   2.296058e+00   1.191542e+01  -6.813398e+04  -1.300444e+05   1.348774e+04   1.412124e+10  -7.380251e+09   1.761385e+08   1.474304e+05   1.966455e-30   0.000000e+00   0.000000e+00
     2984000   2.983999e-07   7.904299e-02   2.295954e+00   1.191543e+01  -6.812269e+04  -1.300503e+05   1.348788e+04   1.412108e+10  -7.378607e+09   1.761245e+08   1.474304e+05   1.966232e-30   0.000000e+00   0.000000e+00
     2992000   2.991999e-07   7.898849e-02   2.295850e+00   1.191544e+01  -6.811139e+04  -1.300562e+05   1.348802e+04   1.412092e+10  -7.376962e+09   1.761106e+08   1.474304e+05   1.966009e-30   0.000000e+00   0.000000e+00
     3000000   2.999999e-07   7.893401e-02   2.295745e+00   1.191545e+01  -6.810009e+04  -1.300621e+05   1.348816e+04   1.412076e+10  -7.375318e+09   1.760966e+08   1.474304e+05   1.965786e-30   0.000000e+00   0.000000e+00
     3008000   3.007999e-07   7.887953e-02   2.295641e+00   1.191546e+01  -6.808880e+04  -1.300680e+05   1.348831e+04   1.412060e+10  -7.373674e+09   1.760825e+08   1.474304e+05   1.965563e-30   0.000000e+00   0.000000e+00
     3016000   3.015999e-07   7.882507e-02   2.295537e+00   1.191547e+01  -6.807750e+04  -1.300739e+05   1.348845e+04   1.412043e+10  -7.372030e+09   1.760685e+08   1.474304e+05   1.965339e-30   0.000000e+00   0.000000e+00
     3024000   3.023999e-07   7.877061e-02   2.295433e+00   1.191548e+01  -6.806620e+04  -1.300798e+05   1.348859e+04   1.412027e+10  -7.370386e+09   1.760544e+08   1.474304e+05   1.965116e-30   0.000000e+00   0.000000e+00
     3032000   3.031999e-07   7.871616e-02   2.295329e+00   1.191549e+01  -6.805491e+04  -1.300857e+05   1.348873e+04   1.412011e+10  -7.368742e+09   1.760402e+08   1.474304e+05   1.964893e-30   0.000000e+00   0.000000e+00
     3040000   3.039999e-07   7.866172e-02   2.295225e+00   1.191550e+01  -6.804361e+04  -1.300916e+05   1.348887e+04   1.411995e+10  -7.367099e+09   1.760261e+08   1.474304e+05   1.964670e-30   0.000000e+00   0.000000e+00
     3048000   3.047999e-07   7.860729e-02   2.295121e+00   1.191551e+01  -6.803232e+04  -1.300975e+05   1.348901e+04   1.411979e+10  -7.365456e+09   1.760119e+08   1.474304e+05   1.964447e-30   0.000000e+00   0.000000e+00
     3056000   3.055999e-07   7.855287e-02   2.295017e+00   1.191552e+01  -6.802102e+04  -1.301034e+05   1.348915e+04   1.411962e+10  -7.363813e+09   1.759977e+08   1.474304e+05   1.964224e-30   0.000000e+00   0.000000e+00
     3064000   3.063999e-07   7.849846e-02   2.294913e+00   1.191553e+01  -6.800972e+04  -1.301093e+05   1.348929e+04   1.411946e+10  -7.362170e+09   1.759835e+08   1.474304e+05   1.964001e-30   0.000000e+00   0.000000e+00
     3072000   3.071999e-07   7.844405e-02   2.294809e+00   1.191554e+01  -6.799843e+04  -1.301152e+05   1.348943e+04   1.411930e+10  -7.360527e+09   1.759692e+08   1.474304e+05   1.963778e-30   0.000000e+00   0.000000e+00
     3080000   3.079999e-07   7.838966e-02   2.294705e+00   1.191556e+01  -6.798713e+04  -1.301211e+05   1.348957e+04   1.411913e+10  -7.358884e+09   1.759549e+08   1.474304e+05   1.963555e-30   0.000000e+00   0.000000e+00
     3088000   3.087999e-07   7.833527e-02   2.294601e+00   1.191557e+01  -6.797584e+04  -1.301270e+05   1.348971e+04   1.411897e+10  -7.357242e+09   1.759406e+08   1.474304e+05   1.963332e-30   0.000000e+00   0.000000e+00
     3096000   3.095999e-07   7.828090e-02   2.294497e+00   1.191558e+01  -6.796454e+04  -1.301329e+05   1.348985e+04   1.411881e+10  -7.355599e+09   1.759263e+08   1.474304e+05   1.963109e-30   0.000000e+00   0.000000e+00
     3104000   3.103999e-07   7.822653e-02   2.294392e+00   1.191559e+01  -6.795325e+04  -1.301387e+05   1.349000e+04   1.411864e+10  -7.353957e+09   1.759119e+08   1.474304e+05   1.962886e-30   0.000000e+00   0.000000e+00
     3112000   3.111999e-07   7.817217e-02   2.294288e+00   1.191560e+01  -6.794195e+04  -1.301446e+05   1.349014e+04   1.411848e+10  -7.352315e+09   1.758975e+08   1.474304e+05   1.962663e-30   0.000000e+00   0.000000e+00
     3120000   3.119999e-07   7.811782e-02   2.294184e+00   1.191561e+01  -6.793066e+04  -1.301505e+05   1.349028e+04   1.411832e+10  -7.350673e+09   1.758831e+08   1.474304e+05   1.962441e-30   0.000000e+00   0.000000e+00
     3128000   3.127999e-07   7.806348e-02   2.294080e+00   1.191562e+01  -6.791936e+04  -1.301564e+05   1.349042e+04   1.411815e+10  -7.349032e+09   1.758686e+08   1.474304e+05   1.962218e-30   0.000000e+00   0.000000e+00
     3136000   3.135999e-07   7.800915e-02   2.293976e+00   1.191563e+01  -6.790807e+04  -1.301623e+05   1.349056e+04   1.411799e+10  -7.347390e+09   1.758541e+08   1.474304e+05   1.961995e-30   0.000000e+00   0.000000e+00
     3144000   3.143999e-07   7.795483e-02   2.293872e+00   1.191564e+01  -6.789677e+04  -1.301681e+05   1.349070e+04   1.411782e+10  -7.345749e+09   1.758396e+08   1.474304e+05   1.961772e-30   0.000000e+00   0.000000e+00
     3152000   3.151999e-07   7.790052e-02   2.293768e+00   1.191565e+01  -6.788548e+04  -1.301740e+05   1.349084e+04   1.411766e+10  -7.344108e+09   1.758251e+08   1.474304e+05   1.961549e-30   0.000000e+00   0.000000e+00
     3160000   3.159999e-07   7.784621e-02   2.293664e+00   1.191566e+01  -6.787419e+04  -1.301799e+05   1.349098e+04   1.411749e+10  -7.342467e+09   1.758105e+08   1.474304e+05   1.961326e-30   0.000000e+00   0.000000e+00
     3168000   3.167999e-07   7.779192e-02   2.293559e+00   1.191567e+01  -6.786289e+04  -1.301858e+05   1.349112e+04   1.411733e+10  -7.340826e+09   1.757959e+08   1.474304e+05   1.961104e-30   0.000000e+00   0.000000e+00
     3176000   3.175999e-07   7.773763e-02   2.293455e+00   1.191569e+01  -6.785160e+04  -1.301916e+05   1.349126e+04   1.411716e+10  -7.339185e+09   1.757813e+08   1.474304e+05   1.960881e-30   0.000000e+00   0.000000e+00
     3184000   3.183999e-07   7.768336e-02   2.293351e+00   1.191570e+01  -6.784031e+04  -1.301975e+05   1.349140e+04   1.411700e+10  -7.337545e+09   1.757667e+08   1.474304e+05   1.960658e-30   0.000000e+00   0.000000e+00
     3192000   3.191999e-07   7.762909e-02   2.293247e+00   1.191571e+01  -6.782901e+04  -1.302034e+05   1.349154e+04   1.411683e+10  -7.335904e+09   1.757520e+08   1.474304e+05   1.960435e-30   0.000000e+00   0.000000e+00
     3200000   3.199999e-07   7.757483e-02   2.293143e+00   1.191572e+01  -6.781772e+04  -1.302092e+05   1.349168e+04   1.411666e+10  -7.334264e+09   1.757373e+08   1.474304e+05   1.960213e-30   0.000000e+00   0.000000e+00
     3208000   3.207999e-07   7.752058e-02   2.293039e+00   1.191573e+01  -6.780643e+04  -1.302151e+05   1.349182e+04   1.411650e+10  -7.332624e+09   1.757225e+08   1.474304e+05   1.959990e-30   0.000000e+00   0.000000e+00
     3216000   3.215999e-07   7.746634e-02   2.292934e+00   1.191574e+01  -6.779513e+04  -1.302210e+05   1.349196e+04   1.411633e+10  -7.330984e+09   1.757078e+08   1.474304e+05   1.959767e-30   0.000000e+00   0.000000e+00
     3224000   3.223999e-07   7.741211e-02   2.292830e+00   1.191575e+01  -6.778384e+04  -1.302268e+05   1.349210e+04   1.411616e+10  -7.329345e+09   1.756930e+08   1.474304e+05   1.959545e-30   0.000000e+00   0.000000e+00
     3232000   3.231999e-07   7.735789e-02   2.292726e+00   1.191576e+01  -6.777255e+04  -1.302327e+05   1.349225e+04   1.411600e+10  -7.327705e+09   1.756782e+08   1.474304e+05   1.959322e-30   0.000000e+00   0.000000e+00
     3240000   3.239999e-07   7.730367e-02   2.292622e+00   1.191577e+01  -6.776125e+04  -1.302386e+05   1.349239e+04   1.411583e+10  -7.326066e+09   1.756633e+08   1.474304e+05   1.959099e-30   0.000000e+00   0.000000e+00
     3248000   3.247999e-07   7.724947e-02   2.292518e+00   1.191578e+01  -6.774996e+04  -1.302444e+05   1.349253e+04   1.411566e+10  -7.324427e+09   1.756485e+08   1.474304e+05   1.958877e-30   0.000000e+00   0.000000e+00
     3256000   3.255999e-07   7.719527e-02   2.292413e+00   1.191579e+01  -6.773867e+04  -1.302503e+05   1.349267e+04   1.411550e+10  -7.322788e+09   1.756336e+08   1.474304e+05   1.958654e-30   0.000000e+00   0.000000e+00
     3264000   3.263999e-07   7.714109e-02   2.292309e+00   1.191580e+01  -6.772738e+04  -1.302561e+05   1.349281e+04   1.411533e+10  -7.321149e+09   1.756187e+08   1.474304e+05   1.958432e-30   0.000000e+00   0.000000e+00
     3272000   3.271999e-07   7.708691e-02   2.292205e+00   1.191581e+01  -6.771608e+04  -1.302620e+05   1.349295e+04   1.411516e+10  -7.319510e+09   1.756037e+08   1.474304e+05   1.958209e-30   0.000000e+00   0.000000e+00
     3280000   3.279999e-07   7.703274e-02   2.292101e+00   1.191583e+01  -6.770479e+04  -1.302678e+05   1.349309e+04   1.411499e+10  -7.317872e+09   1.755887e+08   1.474304e+05   1.957987e-30   0.000000e+00   0.000000e+00
     3288000   3.287999e-07   7.697858e-02   2.291997e+00   1.191584e+01  -6.769350e+04  -1.302737e+05   1.349323e+04   1.411482e+10  -7.316233e+09   1.755737e+08   1.474304e+05   1.957764e-30   0.000000e+00   0.000000e+00
     3296000   3.295999e-07   7.692443e-02   2.291892e+00   1.191585e+01  -6.768221e+04  -1.302796e+05   1.349337e+04   1.411466e+10  -7.314595e+09   1.755587e+08   1.474304e+05   1.957542e-30   0.000000e+00   0.000000e+00
     3304000   3.303999e-07   7.687029e-02   2.291788e+00   1.191586e+01  -6.767092e+04  -1.302854e+05   1.349351e+04   1.411449e+10  -7.312957e+09   1.755436e+08   1.474304e+05   1.957319e-30   0.000000e+00   0.000000e+00
     3312000   3.311999e-07   7.681616e-02   2.291684e+00   1.191587e+01  -6.765962e+04  -1.302913e+05   1.349365e+04   1.411432e+10  -7.311319e+09   1.755285e+08   1.474304e+05   1.957097e-30   0.000000e+00   0.000000e+00
     3320000   3.319999e-07   7.676203e-02   2.291580e+00   1.191588e+01  -6.764833e+04  -1.302971e+05   1.349379e+04   1.411415e+10  -7.309682e+09   1.755134e+08   1.474304e+05   1.956874e-30   0.000000e+00   0.000000e+00
     3328000   3.327999e-07   7.670792e-02   2.291475e+00   1.191589e+01  -6.763704e+04  -1.303029e+05   1.349393e+04   1.411398e+10  -7.308044e+09   1.754983e+08   1.474304e+05   1.956652e-30   0.000000e+00   0.000000e+00
     3336000   3.335999e-07   7.665382e-02   2.291371e+00   1.191590e+01  -6.762575e+04  -1.303088e+05   1.349407e+04   1.411381e+10  -7.306407e+09   1.754831e+08   1.474304e+05   1.956429e-30   0.000000e+00   0.000000e+00
     3344000   3.343999e-07   7.659972e-02   2.291267e+00   1.191591e+01  -6.761446e+04  -1.303146e+05   1.349421e+04   1.411364e+10  -7.304770e+09   1.754679e+08   1.474304e+05   1.956207e-30   0.000000e+00   0.000000e+00
     3352000   3.351999e-07   7.654563e-02   2.291163e+00   1.191592e+01  -6.760317e+04  -1.303205e+05   1.349435e+04   1.411347e+10  -7.303133e+09   1.754527e+08   1.474304e+05   1.955985e-30   0.000000e+00   0.000000e+00
     3360000   3.359999e-07   7.649155e-02   2.291058e+00   1.191593e+01  -6.759188e+04  -1.303263e+05   1.349449e+04   1.411330e+10  -7.301496e+09   1.754374e+08   1.474304e+05   1.955762e-30   0.000000e+00   0.000000e+00
     3368000   3.367999e-07   7.643749e-02   2.290954e+00   1.191594e+01  -6.758059e+04  -1.303322e+05   1.349463e+04   1.411313e+10  -7.299859e+09   1.754221e+08   1.474304e+05   1.955540e-30   0.000000e+00   0.000000e+00
     3376000   3.375999e-07   7.638343e-02   2.290850e+00   1.191596e+01  -6.756930e+04  -1.303380e+05   1.349477e+04   1.411296e+10  -7.298223e+09   1.754068e+08   1.474304e+05   1.955318e-30   0.000000e+00   0.000000e+00
     3384000   3.383999e-07   7.632937e-02   2.290746e+00   1.191597e+01  -6.755801e+04  -1.303438e+05   1.349491e+04   1.411279e+10  -7.296586e+09   1.753915e+08   1.474304e+05   1.955095e-30   0.000000e+00   0.000000e+00
     3392000   3.391999e-07   7.627533e-02   2.290641e+00   1.191598e+01  -6.754672e+04  -1.303497e+05   1.349505e+04   1.411262e+10  -7.294950e+09   1.753761e+08   1.474304e+05   1.954873e-30   0.000000e+00   0.000000e+00
     3400000   3.399999e-07   7.622130e-02   2.290537e+00   1.191599e+01  -6.753543e+04  -1.303555e+05   1.349519e+04   1.411245e+10  -7.293314e+09   1.753607e+08   1.474304e+05   1.954651e-30   0.000000e+00   0.000000e+00
     3408000   3.407999e-07   7.616728e-02   2.290433e+00   1.191600e+01  -6.752414e+04  -1.303613e+05   1.349533e+04   1.411228e+10  -7.291678e+09   1.753453e+08   1.474304e+05   1.954429e-30   0.000000e+00   0.000000e+00
     3416000   3.415999e-07   7.611326e-02   2.290329e+00   1.191601e+01  -6.751285e+04  -1.303672e+05   1.349547e+04   1.411211e+10  -7.290043e+09   1.753299e+08   1.474304e+05   1.954206e-30   0.000000e+00   0.000000e+00
     3424000   3.423999e-07   7.605926e-02   2.290224e+00   1.191602e+01  -6.750156e+04  -1.303730e+05   1.349562e+04   1.411193e+10  -7.288407e+09   1.753144e+08   1.474304e+05   1.953984e-30   0.000000e+00   0.000000e+00
     3432000   3.431999e-07   7.600526e-02   2.290120e+00   1.191603e+01  -6.749027e+04  -1.303788e+05   1.349576e+04   1.411176e+10  -7.286772e+09   1.752989e+08   1.474304e+05   1.953762e-30   0.000000e+00   0.000000e+00
     3440000   3.439999e-07   7.595127e-02   2.290016e+00   1.191604e+01  -6.747898e+04  -1.303847e+05   1.349590e+04   1.411159e+10  -7.285137e+09   1.752834e+08   1.474304e+05   1.953540e-30   0.000000e+00   0.000000e+00
     3448000   3.447999e-07   7.589729e-02   2.289911e+00   1.191605e+01  -6.746769e+04  -1.303905e+05   1.349604e+04   1.411142e+10  -7.283501e+09   1.752678e+08   1.474304e+05   1.953318e-30   0.000000e+00   0.000000e+00
     3456000   3.455999e-07   7.584332e-02   2.289807e+00   1.191606e+01  -6.745640e+04  -1.303963e+05   1.349618e+04   1.411125e+10  -7.281867e+09   1.752522e+08   1.474304e+05   1.953096e-30   0.000000e+00   0.000000e+00
     3464000   3.463999e-07   7.578936e-02   2.289703e+00   1.191607e+01  -6.744511e+04  -1.304021e+05   1.349632e+04   1.411107e+10  -7.280232e+09   1.752366e+08   1.474304e+05   1.952873e-30   0.000000e+00   0.000000e+00
     3472000   3.471999e-07   7.573541e-02   2.289598e+00   1.191608e+01  -6.743382e+04  -1.304080e+05   1.349646e+04   1.411090e+10  -7.278597e+09   1.752210e+08   1.474304e+05   1.952651e-30   0.000000e+00   0.000000e+00
     3480000   3.479999e-07   7.568147e-02   2.289494e+00   1.191610e+01  -6.742253e+04  -1.304138e+05   1.349660e+04   1.411073e+10  -7.276963e+09   1.752053e+08   1.474304e+05   1.952429e-30   0.000000e+00   0.000000e+00
     3488000   3.487999e-07   7.562753e-02   2.289390e+00   1.191611e+01  -6.741125e+04  -1.304196e+05   1.349674e+04   1.411055e+10  -7.275329e+09   1.751897e+08   1.474304e+05   1.952207e-30   0.000000e+00   0.000000e+00
     3496000   3.495999e-07   7.557361e-02   2.289285e+00   1.191612e+01  -6.739996e+04  -1.304254e+05   1.349688e+04   1.411038e+10  -7.273695e+09   1.751739e+08   1.474304e+05   1.951985e-30   0.000000e+00   0.000000e+00
     3504000   3.503999e-07   7.551969e-02   2.289181e+00   1.191613e+01  -6.738867e+04  -1.304313e+05   1.349702e+04   1.411021e+10  -7.272061e+09   1.751582e+08   1.474304e+05   1.951763e-30   0.000000e+00   0.000000e+00
     3512000   3.511999e-07   7.546579e-02   2.289077e+00   1.191614e+01  -6.737738e+04  -1.304371e+05   1.349716e+04   1.411003e+10  -7.270427e+09   1.751424e+08   1.474304e+05   1.951541e-30   0.000000e+00   0.000000e+00
     3520000   3.519999e-07   7.541189e-02   2.288972e+00   1.191615e+01  -6.736609e+04  -1.304429e+05   1.349730e+04   1.410986e+10  -7.268794e+09   1.751266e+08   1.474304e+05   1.951319e-30   0.000000e+00   0.000000e+00
     3528000   3.527999e-07   7.535800e-02   2.288868e+00   1.191616e+01  -6.735481e+04  -1.304487e+05   1.349744e+04   1.410969e+10  -7.267160e+09   1.751108e+08   1.474304e+05   1.951097e-30   0.000000e+00   0.000000e+00
     3536000   3.535999e-07   7.530412e-02   2.288764e+00   1.191617e+01  -6.734352e+04  -1.304545e+05   1.349758e+04   1.410951e+10  -7.265527e+09   1.750949e+08   1.474304e+05   1.950875e-30   0.000000e+00   0.000000e+00
     3544000   3.543999e-07   7.525025e-02   2.288659e+00   1.191618e+01  -6.733223e+04  -1.304603e+05   1.349772e+04   1.410934e+10  -7.263894e+09   1.750791e+08   1.474304e+05   1.950653e-30   0.000000e+00   0.000000e+00
     3552000   3.551999e-07   7.519639e-02   2.288555e+00   1.191619e+01  -6.732094e+04  -1.304661e+05   1.349786e+04   1.410916e+10  -7.262261e+09   1.750631e+08   1.474304e+05   1.950431e-30   0.000000e+00   0.000000e+00
     3560000   3.559999e-07   7.514254e-02   2.288450e+00   1.191620e+01  -6.730966e+04  -1.304719e+05   1.349800e+04   1.410899e+10  -7.260629e+09   1.750472e+08   1.474304e+05   1.950210e-30   0.000000e+00   0.000000e+00
     3568000   3.567999e-07   7.508870e-02   2.288346e+00   1.191621e+01  -6.729837e+04  -1.304778e+05   1.349814e+04   1.410881e+10  -7.258996e+09   1.750312e+08   1.474304e+05   1.949988e-30   0.000000e+00   0.000000e+00
     3576000   3.575999e-07   7.503486e-02   2.288242e+00   1.191622e+01  -6.728708e+04  -1.304836e+05   1.349828e+04   1.410864e+10  -7.257364e+09   1.750153e+08   1.474304e+05   1.949766e-30   0.000000e+00   0.000000e+00
     3584000   3.583999e-07   7.498104e-02   2.288137e+00   1.191624e+01  -6.727579e+04  -1.304894e+05   1.349842e+04   1.410846e+10  -7.255732e+09   1.749992e+08   1.474304e+05   1.949544e-30   0.000000e+00   0.000000e+00
     3592000   3.591999e-07   7.492722e-02   2.288033e+00   1.191625e+01  -6.726451e+04  -1.304952e+05   1.349856e+04   1.410829e+10  -7.254100e+09   1.749832e+08   1.474304e+05   1.949322e-30   0.000000e+00   0.000000e+00
     3600000   3.599999e-07   7.487341e-02   2.287929e+00   1.191626e+01  -6.725322e+04  -1.305010e+05   1.349870e+04   1.410811e+10  -7.252468e+09   1.749671e+08   1.474304e+05   1.949100e-30   0.000000e+00   0.000000e+00
     3608000   3.607999e-07   7.481962e-02   2.287824e+00   1.191627e+01  -6.724193e+04  -1.305068e+05   1.349884e+04   1.410793e+10  -7.250836e+09   1.749510e+08   1.474304e+05   1.948878e-30   0.000000e+00   0.000000e+00
     3616000   3.615999e-07   7.476583e-02   2.287720e+00   1.191628e+01  -6.723065e+04  -1.305126e+05   1.349898e+04   1.410776e+10  -7.249204e+09   1.749349e+08   1.474304e+05   1.948657e-30   0.000000e+00   0.000000e+00
     3624000   3.623999e-07   7.471205e-02   2.287615e+00   1.191629e+01  -6.721936e+04  -1.305184e+05   1.349912e+04   1.410758e+10  -7.247573e+09   1.749188e+08   1.474304e+05   1.948435e-30   0.000000e+00   0.000000e+00
     3632000   3.631999e-07   7.465828e-02   2.287511e+00   1.191630e+01  -6.720808e+04  -1.305242e+05   1.349926e+04   1.410741e+10  -7.245942e+09   1.749026e+08   1.474304e+05   1.948213e-30   0.000000e+00   0.000000e+00
     3640000   3.639999e-07   7.460451e-02   2.287406e+00   1.191631e+01  -6.719679e+04  -1.305300e+05   1.349940e+04   1.410723e+10  -7.244311e+09   1.748864e+08   1.474304e+05   1.947992e-30   0.000000e+00   0.000000e+00
     3648000   3.647999e-07   7.455076e-02   2.287302e+00   1.191632e+01  -6.718550e+04  -1.305358e+05   1.349954e+04   1.410705e+10  -7.242680e+09   1.748701e+08   1.474304e+05   1.947770e-30   0.000000e+00   0.000000e+00
     3656000   3.655999e-07   7.449702e-02   2.287198e+00   1.191633e+01  -6.717422e+04  -1.305416e+05   1.349968e+04   1.410687e+10  -7.241049e+09   1.748539e+08   1.474304e+05   1.947548e-30   0.000000e+00   0.000000e+00
     3664000   3.663999e-07   7.444328e-02   2.287093e+00   1.191634e+01  -6.716293e+04  -1.305473e+05   1.349982e+04   1.410670e+10  -7.239419e+09   1.748376e+08   1.474304e+05   1.947326e-30   0.000000e+00   0.000000e+00
     3672000   3.671999e-07   7.438956e-02   2.286989e+00   1.191635e+01  -6.715165e+04  -1.305531e+05   1.349996e+04   1.410652e+10  -7.237788e+09   1.748213e+08   1.474304e+05   1.947105e-30   0.000000e+00   0.000000e+00
     3680000   3.679999e-07   7.433584e-02   2.286884e+00   1.191637e+01  -6.714036e+04  -1.305589e+05   1.350010e+04   1.410634e+10  -7.236158e+09   1.748049e+08   1.474304e+05   1.946883e-30   0.000000e+00   0.000000e+00
     3688000   3.687999e-07   7.428213e-02   2.286780e+00   1.191638e+01  -6.712908e+04  -1.305647e+05   1.350024e+04   1.410616e+10  -7.234528e+09   1.747886e+08   1.474304e+05   1.946662e-30   0.000000e+00   0.000000e+00
     3696000   3.695999e-07   7.422843e-02   2.286675e+00   1.191639e+01  -6.711779e+04  -1.305705e+05   1.350038e+04   1.410599e+10  -7.232898e+09   1.747722e+08   1.474304e+05   1.946440e-30   0.000000e+00   0.000000e+00
     3704000   3.703999e-07   7.417474e-02   2.286571e+00   1.191640e+01  -6.710651e+04  -1.305763e+05   1.350052e+04   1.410581e+10  -7.231269e+09   1.747558e+08   1.474304e+05   1.946218e-30   0.000000e+00   0.000000e+00
     3712000   3.711999e-07   7.412106e-02   2.286466e+00   1.191641e+01  -6.709522e+04  -1.305821e+05   1.350066e+04   1.410563e+10  -7.229639e+09   1.747393e+08   1.474304e+05   1.945997e-30   0.000000e+00   0.000000e+00
     3720000   3.719999e-07   7.406739e-02   2.286362e+00   1.191642e+01  -6.708394e+04  -1.305879e+05   1.350080e+04   1.410545e+10  -7.228010e+09   1.747228e+08   1.474304e+05   1.945775e-30   0.000000e+00   0.000000e+00
     3728000   3.727999e-07   7.401373e-02   2.286258e+00   1.191643e+01  -6.707266e+04  -1.305936e+05   1.350094e+04   1.410527e+10  -7.226380e+09   1.747063e+08   1.474304e+05   1.945554e-30   0.000000e+00   0.000000e+00
     3736000   3.735999e-07   7.396007e-02   2.286153e+00   1.191644e+01  -6.706137e+04  -1.305994e+05   1.350108e+04   1.410509e+10  -7.224751e+09   1.746898e+08   1.474304e+05   1.945332e-30   0.000000e+00   0.000000e+00
     3744000   3.743999e-07   7.390643e-02   2.286049e+00   1.191645e+01  -6.705009e+04  -1.306052e+05   1.350122e+04   1.410491e+10  -7.223122e+09   1.746732e+08   1.474304e+05   1.945111e-30   0.000000e+00   0.000000e+00
     3752000   3.751999e-07   7.385279e-02   2.285944e+00   1.191646e+01  -6.703880e+04  -1.306110e+05   1.350135e+04   1.410473e+10  -7.221494e+09   1.746567e+08   1.474304e+05   1.944889e-30   0.000000e+00   0.000000e+00
     3760000   3.759999e-07   7.379917e-02   2.285840e+00   1.191647e+01  -6.702752e+04  -1.306168e+05   1.350149e+04   1.410455e+10  -7.219865e+09   1.746400e+08   1.474304e+05   1.944668e-30   0.000000e+00   0.000000e+00
     3768000   3.767999e-07   7.374555e-02   2.285735e+00   1.191648e+01  -6.701624e+04  -1.306225e+05   1.350163e+04   1.410437e+10  -7.218237e+09   1.746234e+08   1.474304e+05   1.944446e-30   0.000000e+00   0.000000e+00
     3776000   3.775999e-07   7.369194e-02   2.285631e+00   1.191649e+01  -6.700495e+04  -1.306283e+05   1.350177e+04   1.410419e+10  -7.216609e+09   1.746067e+08   1.474304e+05   1.944225e-30   0.000000e+00   0.000000e+00
     3784000   3.783999e-07   7.363834e-02   2.285526e+00   1.191651e+01  -6.699367e+04  -1.306341e+05   1.350191e+04   1.410401e+10  -7.214981e+09   1.745901e+08   1.474304e+05   1.944004e-30   0.000000e+00   0.000000e+00
     3792000   3.791999e-07   7.358475e-02   2.285422e+00   1.191652e+01  -6.698239e+04  -1.306398e+05   1.350205e+04   1.410383e+10  -7.213353e+09   1.745733e+08   1.474304e+05   1.943782e-30   0.000000e+00   0.000000e+00
     3800000   3.799999e-07   7.353117e-02   2.285317e+00   1.191653e+01  -6.697110e+04  -1.306456e+05   1.350219e+04   1.410365e+10  -7.211725e+09   1.745566e+08   1.474304e+05   1.943561e-30   0.000000e+00   0.000000e+00
     3808000   3.807999e-07   7.347760e-02   2.285213e+00   1.191654e+01  -6.695982e+04  -1.306514e+05   1.350233e+04   1.410347e+10  -7.210097e+09   1.745398e+08   1.474304e+05   1.943340e-30   0.000000e+00   0.000000e+00
     3816000   3.815999e-07   7.342403e-02   2.285108e+00   1.191655e+01  -6.694854e+04  -1.306571e+05   1.350247e+04   1.410329e+10  -7.208470e+09   1.745230e+08   1.474304e+05   1.943118e-30   0.000000e+00   0.000000e+00
     3824000   3.823999e-07   7.337048e-02   2.285003e+00   1.191656e+01  -6.693726e+04  -1.306629e+05   1.350261e+04   1.410311e+10  -7.206843e+09   1.745062e+08   1.474304e+05   1.942897e-30   0.000000e+00   0.000000e+00
     3832000   3.831999e-07   7.331693e-02   2.284899e+00   1.191657e+01  -6.692597e+04  -1.306687e+05   1.350275e+04   1.410293e+10  -7.205216e+09   1.744894e+08   1.474304e+05   1.942676e-30   0.000000e+00   0.000000e+00
     3840000   3.839999e-07   7.326340e-02   2.284794e+00   1.191658e+01  -6.691469e+04  -1.306744e+05   1.350289e+04   1.410275e+10  -7.203589e+09   1.744725e+08   1.474304e+05   1.942454e-30   0.000000e+00   0.000000e+00
     3848000   3.847999e-07   7.320987e-02   2.284690e+00   1.191659e+01  -6.690341e+04  -1.306802e+05   1.350303e+04   1.410256e+10  -7.201962e+09   1.744556e+08   1.474304e+05   1.942233e-30   0.000000e+00   0.000000e+00
     3856000   3.855999e-07   7.315635e-02   2.284585e+00   1.191660e+01  -6.689213e+04  -1.306860e+05   1.350317e+04   1.410238e+10  -7.200336e+09   1.744386e+08   1.474304e+05   1.942012e-30   0.000000e+00   0.000000e+00
     3864000   3.863999e-07   7.310284e-02   2.284481e+00   1.191661e+01  -6.688084e+04  -1.306917e+05   1.350331e+04   1.410220e+10  -7.198709e+09   1.744217e+08   1.474304e+05   1.941791e-30   0.000000e+00   0.000000e+00
     3872000   3.871999e-07   7.304934e-02   2.284376e+00   1.191662e+01  -6.686956e+04  -1.306975e+05   1.350345e+04   1.410202e+10  -7.197083e+09   1.744047e+08   1.474304e+05   1.941569e-30   0.000000e+00   0.000000e+00
     3880000   3.879999e-07   7.299585e-02   2.284272e+00   1.191664e+01  -6.685828e+04  -1.307032e+05   1.350359e+04   1.410183e+10  -7.195457e+09   1.743877e+08   1.474304e+05   1.941348e-30   0.000000e+00   0.000000e+00
     3888000   3.887999e-07   7.294237e-02   2.284167e+00   1.191665e+01  -6.684700e+04  -1.307090e+05   1.350373e+04   1.410165e+10  -7.193831e+09   1.743706e+08   1.474304e+05   1.941127e-30   0.000000e+00   0.000000e+00
     3896000   3.895999e-07   7.288890e-02   2.284063e+00   1.191666e+01  -6.683572e+04  -1.307148e+05   1.350387e+04   1.410147e+10  -7.192206e+09   1.743536e+08   1.474304e+05   1.940906e-30   0.000000e+00   0.000000e+00
     3904000   3.903999e-07   7.283543e-02   2.283958e+00   1.191667e+01  -6.682444e+04  -1.307205e+05   1.350401e+04   1.410129e+10  -7.190580e+09   1.743365e+08   1.474304e+05   1.940685e-30   0.000000e+00   0.000000e+00
     3912000   3.911999e-07   7.278198e-02   2.283853e+00   1.191668e+01  -6.681316e+04  -1.307263e+05   1.350415e+04   1.410110e+10  -7.188955e+09   1.743194e+08   1.474304e+05   1.940464e-30   0.000000e+00   0.000000e+00
     3920000   3.919999e-07   7.272853e-02   2.283749e+00   1.191669e+01  -6.680188e+04  -1.307320e+05   1.350429e+04   1.410092e+10  -7.187329e+09   1.743022e+08   1.474304e+05   1.940243e-30   0.000000e+00   0.000000e+00
     3928000   3.927999e-07   7.267510e-02   2.283644e+00   1.191670e+01  -6.679060e+04  -1.307378e+05   1.350443e+04   1.410073e+10  -7.185704e+09   1.742851e+08   1.474304e+05   1.940022e-30   0.000000e+00   0.000000e+00
     3936000   3.935999e-07   7.262167e-02   2.283540e+00   1.191671e+01  -6.677931e+04  -1.307435e+05   1.350456e+04   1.410055e+10  -7.184079e+09   1.742679e+08   1.474304e+05   1.939801e-30   0.000000e+00   0.000000e+00
     3944000   3.943999e-07   7.256825e-02   2.283435e+00   1.191672e+01  -6.676803e+04  -1.307493e+05   1.350470e+04   1.410037e+10  -7.182455e+09   1.742506e+08   1.474304e+05   1.939579e-30   0.000000e+00   0.000000e+00
     3952000   3.951999e-07   7.251484e-02   2.283330e+00   1.191673e+01  -6.675675e+04  -1.307550e+05   1.350484e+04   1.410018e+10  -7.180830e+09   1.742334e+08   1.474304e+05   1.939358e-30   0.000000e+00   0.000000e+00
     3960000   3.959999e-07   7.246144e-02   2.283226e+00   1.191674e+01  -6.674547e+04  -1.307607e+05   1.350498e+04   1.410000e+10  -7.179206e+09   1.742161e+08   1.474304e+05   1.939137e-30   0.000000e+00   0.000000e+00
     3968000   3.967999e-07   7.240805e-02   2.283121e+00   1.191675e+01  -6.673419e+04  -1.307665e+05   1.350512e+04   1.409981e+10  -7.177582e+09   1.741988e+08   1.474304e+05   1.938916e-30   0.000000e+00   0.000000e+00
     3976000   3.975999e-07   7.235466e-02   2.283017e+00   1.191677e+01  -6.672291e+04  -1.307722e+05   1.350526e+04   1.409963e+10  -7.175958e+09   1.741815e+08   1.474304e+05   1.938696e-30   0.000000e+00   0.000000e+00
     3984000   3.983999e-07   7.230129e-02   2.282912e+00   1.191678e+01  -6.671163e+04  -1.307780e+05   1.350540e+04   1.409944e+10  -7.174334e+09   1.741641e+08   1.474304e+05   1.938475e-30   0.000000e+00   0.000000e+00
     3992000   3.991999e-07   7.224792e-02   2.282807e+00   1.191679e+01  -6.670036e+04  -1.307837e+05   1.350554e+04   1.409926e+10  -7.172710e+09   1.741467e+08   1.474304e+05   1.938254e-30   0.000000e+00   0.000000e+00
     4000000   3.999999e-07   7.219457e-02   2.282703e+00   1.191680e+01  -6.668908e+04  -1.307894e+05   1.350568e+04   1.409907e+10  -7.171086e+09   1.741293e+08   1.474304e+05   1.938033e-30   0.000000e+00   0.000000e+00
     4008000   4.007999e-07   7.214122e-02   2.282598e+00   1.191681e+01  -6.667780e+04  -1.307952e+05   1.350582e+04   1.409889e+10  -7.169463e+09   1.741119e+08   1.474304e+05   1.937812e-30   0.000000e+00   0.000000e+00
     4016000   4.015999e-07   7.208788e-02   2.282493e+00   1.191682e+01  -6.666652e+04  -1.308009e+05   1.350596e+04   1.409870e+10  -7.167840e+09   1.740944e+08   1.474304e+05   1.937591e-30   0.000000e+00   0.000000e+00
     4024000   4.023999e-07   7.203456e-02   2.282389e+00   1.191683e+01  -6.665524e+04  -1.308066e+05   1.350610e+04   1.409851e+10  -7.166217e+09   1.740769e+08   1.474304e+05   1.937370e-30   0.000000e+00   0.000000e+00
     4032000   4.031999e-07   7.198124e-02   2.282284e+00   1.191684e+01  -6.664396e+04  -1.308124e+05   1.350624e+04   1.409833e+10  -7.164594e+09   1.740594e+08   1.474304e+05   1.937149e-30   0.000000e+00   0.000000e+00
     4040000   4.039999e-07   7.192792e-02   2.282179e+00   1.191685e+01  -6.663268e+04  -1.308181e+05   1.350638e+04   1.409814e+10  -7.162971e+09   1.740419e+08   1.474304e+05   1.936928e-30   0.000000e+00   0.000000e+00
     4048000   4.047999e-07   7.187462e-02   2.282075e+00   1.191686e+01  -6.662140e+04  -1.308238e+05   1.350652e+04   1.409796e+10  -7.161349e+09   1.740243e+08   1.474304e+05   1.936708e-30   0.000000e+00   0.000000e+00
     4056000   4.055999e-07   7.182133e-02   2.281970e+00   1.191687e+01  -6.661012e+04  -1.308296e+05   1.350665e+04   1.409777e+10  -7.159726e+09   1.740067e+08   1.474304e+05   1.936487e-30   0.000000e+00   0.000000e+00
     4064000   4.063999e-07   7.176805e-02   2.281866e+00   1.191688e+01  -6.659885e+04  -1.308353e+05   1.350679e+04   1.409758e+10  -7.158104e+09   1.739891e+08   1.474304e+05   1.936266e-30   0.000000e+00   0.000000e+00
     4072000   4.071999e-07   7.171477e-02   2.281761e+00   1.191689e+01  -6.658757e+04  -1.308410e+05   1.350693e+04   1.409739e+10  -7.156482e+09   1.739714e+08   1.474304e+05   1.936045e-30   0.000000e+00   0.000000e+00
     4080000   4.079999e-07   7.166151e-02   2.281656e+00   1.191691e+01  -6.657629e+04  -1.308467e+05   1.350707e+04   1.409721e+10  -7.154860e+09   1.739538e+08   1.474304e+05   1.935825e-30   0.000000e+00   0.000000e+00
     4088000   4.087999e-07   7.160825e-02   2.281551e+00   1.191692e+01  -6.656501e+04  -1.308525e+05   1.350721e+04   1.409702e+10  -7.153238e+09   1.739361e+08   1.474304e+05   1.935604e-30   0.000000e+00   0.000000e+00
     4096000   4.095999e-07   7.155500e-02   2.281447e+00   1.191693e+01  -6.655374e+04  -1.308582e+05   1.350735e+04   1.409683e+10  -7.151617e+09   1.739183e+08   1.474304e+05   1.935383e-30   0.000000e+00   0.000000e+00
     4104000   4.103999e-07   7.150176e-02   2.281342e+00   1.191694e+01  -6.654246e+04  -1.308639e+05   1.350749e+04   1.409664e+10  -7.149996e+09   1.739006e+08   1.474304e+05   1.935163e-30   0.000000e+00   0.000000e+00
     4112000   4.111999e-07   7.144854e-02   2.281237e+00   1.191695e+01  -6.653118e+04  -1.308696e+05   1.350763e+04   1.409646e+10  -7.148374e+09   1.738828e+08   1.474304e+05   1.934942e-30   0.000000e+00   0.000000e+00
     4120000   4.119999e-07   7.139531e-02   2.281133e+00   1.191696e+01  -6.651990e+04  -1.308753e+05   1.350777e+04   1.409627e+10  -7.146753e+09   1.738650e+08   1.474304e+05   1.934721e-30   0.000000e+00   0.000000e+00
     4128000   4.127999e-07   7.134210e-02   2.281028e+00   1.191697e+01  -6.650863e+04  -1.308811e+05   1.350791e+04   1.409608e+10  -7.145132e+09   1.738472e+08   1.474304e+05   1.934501e-30   0.000000e+00   0.000000e+00
     4136000   4.135999e-07   7.128890e-02   2.280923e+00   1.191698e+01  -6.649735e+04  -1.308868e+05   1.350805e+04   1.409589e+10  -7.143512e+09   1.738293e+08   1.474304e+05   1.934280e-30   0.000000e+00   0.000000e+00
     4144000   4.143999e-07   7.123571e-02   2.280819e+00   1.191699e+01  -6.648607e+04  -1.308925e+05   1.350818e+04   1.409570e+10  -7.141891e+09   1.738114e+08   1.474304e+05   1.934059e-30   0.000000e+00   0.000000e+00
     4152000   4.151999e-07   7.118252e-02   2.280714e+00   1.191700e+01  -6.647480e+04  -1.308982e+05   1.350832e+04   1.409551e+10  -7.140271e+09   1.737935e+08   1.474304e+05   1.933839e-30   0.000000e+00   0.000000e+00
     4160000   4.159999e-07   7.112935e-02   2.280609e+00   1.191701e+01  -6.646352e+04  -1.309039e+05   1.350846e+04   1.409532e+10  -7.138651e+09   1.737756e+08   1.474304e+05   1.933618e-30   0.000000e+00   0.000000e+00
     4168000   4.167999e-07   7.107618e-02   2.280504e+00   1.191702e+01  -6.645224e+04  -1.309096e+05   1.350860e+04   1.409513e+10  -7.137031e+09   1.737576e+08   1.474304e+05   1.933398e-30   0.000000e+00   0.000000e+00
     4176000   4.175999e-07   7.102302e-02   2.280400e+00   1.191704e+01  -6.644097e+04  -1.309153e+05   1.350874e+04   1.409494e+10  -7.135411e+09   1.737396e+08   1.474304e+05   1.933177e-30   0.000000e+00   0.000000e+00
     4184000   4.183999e-07   7.096988e-02   2.280295e+00   1.191705e+01  -6.642969e+04  -1.309210e+05   1.350888e+04   1.409475e+10  -7.133791e+09   1.737216e+08   1.474304e+05   1.932957e-30   0.000000e+00   0.000000e+00
     4192000   4.191999e-07   7.091674e-02   2.280190e+00   1.191706e+01  -6.641842e+04  -1.309268e+05   1.350902e+04   1.409456e+10  -7.132171e+09   1.737036e+08   1.474304e+05   1.932736e-30   0.000000e+00   0.000000e+00
     4200000   4.199999e-07   7.086361e-02   2.280085e+00   1.191707e+01  -6.640714e+04  -1.309325e+05   1.350916e+04   1.409437e+10  -7.130552e+09   1.736855e+08   1.474304e+05   1.932516e-30   0.000000e+00   0.000000e+00
     4208000   4.207999e-07   7.081049e-02   2.279981e+00   1.191708e+01  -6.639587e+04  -1.309382e+05   1.350930e+04   1.409418e+10  -7.128933e+09   1.736674e+08   1.474304e+05   1.932295e-30   0.000000e+00   0.000000e+00
     4216000   4.215999e-07   7.075737e-02   2.279876e+00   1.191709e+01  -6.638459e+04  -1.309439e+05   1.350944e+04   1.409399e+10  -7.127314e+09   1.736493e+08   1.474304e+05   1.932075e-30   0.000000e+00   0.000000e+00
     4224000   4.223999e-07   7.070427e-02   2.279771e+00   1.191710e+01  -6.637332e+04  -1.309496e+05   1.350957e+04   1.409380e+10  -7.125695e+09   1.736311e+08   1.474304e+05   1.931855e-30   0.000000e+00   0.000000e+00
     4232000   4.231999e-07   7.065118e-02   2.279666e+00   1.191711e+01  -6.636204e+04  -1.309553e+05   1.350971e+04   1.409361e+10  -7.124076e+09   1.736129e+08   1.474304e+05   1.931634e-30   0.000000e+00   0.000000e+00
     4240000   4.239999e-07   7.059809e-02   2.279562e+00   1.191712e+01  -6.635077e+04  -1.309610e+05   1.350985e+04   1.409342e+10  -7.122458e+09   1.735947e+08   1.474304e+05   1.931414e-30   0.000000e+00   0.000000e+00
     4248000   4.247999e-07   7.054501e-02   2.279457e+00   1.191713e+01  -6.633949e+04  -1.309667e+05   1.350999e+04   1.409323e+10  -7.120839e+09   1.735765e+08   1.474304e+05   1.931193e-30   0.000000e+00   0.000000e+00
     4256000   4.255999e-07   7.049195e-02   2.279352e+00   1.191714e+01  -6.632822e+04  -1.309724e+05   1.351013e+04   1.409304e+10  -7.119221e+09   1.735583e+08   1.474304e+05   1.930973e-30   0.000000e+00   0.000000e+00
     4264000   4.263999e-07   7.043889e-02   2.279247e+00   1.191715e+01  -6.631694e+04  -1.309781e+05   1.351027e+04   1.409284e+10  -7.117603e+09   1.735400e+08   1.474304e+05   1.930753e-30   0.000000e+00   0.000000e+00
     4272000   4.271999e-07   7.038584e-02   2.279143e+00   1.191716e+01  -6.630567e+04  -1.309837e+05   1.351041e+04   1.409265e+10  -7.115985e+09   1.735217e+08   1.474304e+05   1.930532e-30   0.000000e+00   0.000000e+00
     4280000   4.279999e-07   7.033280e-02   2.279038e+00   1.191718e+01  -6.629439e+04  -1.309894e+05   1.351055e+04   1.409246e+10  -7.114368e+09   1.735033e+08   1.474304e+05   1.930312e-30   0.000000e+00   0.000000e+00
     4288000   4.287999e-07   7.027977e-02   2.278933e+00   1.191719e+01  -6.628312e+04  -1.309951e+05   1.351069e+04   1.409227e+10  -7.112750e+09   1.734850e+08   1.474304e+05   1.930092e-30   0.000000e+00   0.000000e+00
