     timestep     time              x             y              z              vx             vy             vz             ax             ay             az         v_magnitude      ELoss        Electronic      Nuclear
           0   0.000000e+00   1.000000e-01   1.116425e+01   8.753964e+00  -1.436431e+05   2.421496e+03  -3.311339e+04   0.000000e+00   0.000000e+00   0.000000e+00   1.474304e+05   0.000000e+00   0.000000e+00   0.000000e+00
        8000   7.999000e-10   9.988509e-02   1.116425e+01   8.753938e+00  -1.436437e+05   2.382625e+03  -3.311397e+04  -6.391904e+08  -4.858808e+10  -7.233130e+08   1.474304e+05   1.829100e-29   0.000000e+00   0.000000e+00
       16000   1.599900e-09   9.977017e-02   1.116425e+01   8.753911e+00  -1.436442e+05   2.343755e+03  -3.311455e+04  -6.261928e+08  -4.858784e+10  -7.226213e+08   1.474304e+05   1.829069e-29   0.000000e+00   0.000000e+00
       24000   2.399900e-09   9.965525e-02   1.116425e+01   8.753885e+00  -1.436447e+05   2.304885e+03  -3.311512e+04  -6.131954e+08  -4.858760e+10  -7.219298e+08   1.474304e+05   1.829038e-29   0.000000e+00   0.000000e+00
       32000   3.199900e-09   9.954034e-02   1.116425e+01   8.753858e+00  -1.436452e+05   2.266015e+03  -3.311570e+04  -6.001983e+08  -4.858735e+10  -7.212386e+08   1.474304e+05   1.829006e-29   0.000000e+00   0.000000e+00
       40000   3.999900e-09   9.942542e-02   1.116426e+01   8.753832e+00  -1.436456e+05   2.227145e+03  -3.311628e+04  -5.872013e+08  -4.858711e+10  -7.205477e+08   1.474304e+05   1.828975e-29   0.000000e+00   0.000000e+00
       48000   4.799900e-09   9.931051e-02   1.116426e+01   8.753805e+00  -1.436461e+05   2.188275e+03  -3.311685e+04  -5.742046e+08  -4.858685e+10  -7.198570e+08   1.474304e+05   1.828943e-29   0.000000e+00   0.000000e+00
       56000   5.599900e-09   9.919559e-02   1.116426e+01   8.753779e+00  -1.436465e+05   2.149406e+03  -3.311743e+04  -5.612081e+08  -4.858660e+10  -7.191666e+08   1.474304e+05   1.828912e-29   0.000000e+00   0.000000e+00
       64000   6.399900e-09   9.908067e-02   1.116426e+01   8.753752e+00  -1.436470e+05   2.110537e+03  -3.311800e+04  -5.482119e+08  -4.858634e+10  -7.184765e+08   1.474304e+05   1.828880e-29   0.000000e+00   0.000000e+00
       72000   7.199900e-09   9.896575e-02   1.116426e+01   8.753726e+00  -1.436474e+05   2.071668e+03  -3.311858e+04  -5.352158e+08  -4.858608e+10  -7.177867e+08   1.474304e+05   1.828849e-29   0.000000e+00   0.000000e+00
       80000   7.999900e-09   9.885084e-02   1.116426e+01   8.753699e+00  -1.436478e+05   2.032799e+03  -3.311915e+04  -5.222200e+08  -4.858581e+10  -7.170971e+08   1.474304e+05   1.828818e-29   0.000000e+00   0.000000e+00
       88000   8.799900e-09   9.873592e-02   1.116427e+01   8.753673e+00  -1.436483e+05   1.993930e+03  -3.311973e+04  -5.092244e+08  -4.858554e+10  -7.164078e+08   1.474304e+05   1.828786e-29   0.000000e+00   0.000000e+00
       96000   9.599900e-09   9.862100e-02   1.116427e+01   8.753646e+00  -1.436487e+05   1.955062e+03  -3.312030e+04  -4.962290e+08  -4.858527e+10  -7.157187e+08   1.474304e+05   1.828755e-29   0.000000e+00   0.000000e+00
      104000   1.039990e-08   9.850608e-02   1.116427e+01   8.753620e+00  -1.436491e+05   1.916194e+03  -3.312087e+04  -4.832339e+08  -4.858499e+10  -7.150299e+08   1.474304e+05   1.828723e-29   0.000000e+00   0.000000e+00
      112000   1.119990e-08   9.839116e-02   1.116427e+01   8.753593e+00  -1.436494e+05   1.877326e+03  -3.312144e+04  -4.702389e+08  -4.858471e+10  -7.143414e+08   1.474304e+05   1.828692e-29   0.000000e+00   0.000000e+00
      120000   1.199990e-08   9.827624e-02   1.116427e+01   8.753567e+00  -1.436498e+05   1.838459e+03  -3.312201e+04  -4.572443e+08  -4.858442e+10  -7.136532e+08   1.474304e+05   1.828660e-29   0.000000e+00   0.000000e+00
      128000   1.279990e-08   9.816132e-02   1.116427e+01   8.753540e+00  -1.436502e+05   1.799591e+03  -3.312258e+04  -4.442498e+08  -4.858413e+10  -7.129653e+08   1.474304e+05   1.828628e-29   0.000000e+00   0.000000e+00
      136000   1.359990e-08   9.804640e-02   1.116428e+01   8.753514e+00  -1.436505e+05   1.760724e+03  -3.312315e+04  -4.312556e+08  -4.858384e+10  -7.122776e+08   1.474304e+05   1.828597e-29   0.000000e+00   0.000000e+00
      144000   1.439990e-08   9.793148e-02   1.116428e+01   8.753487e+00  -1.436509e+05   1.721857e+03  -3.312372e+04  -4.182616e+08  -4.858354e+10  -7.115901e+08   1.474304e+05   1.828565e-29   0.000000e+00   0.000000e+00
      152000   1.519990e-08   9.781656e-02   1.116428e+01   8.753461e+00  -1.436512e+05   1.682990e+03  -3.312429e+04  -4.052678e+08  -4.858325e+10  -7.109030e+08   1.474304e+05   1.828534e-29   0.000000e+00   0.000000e+00
      160000   1.599990e-08   9.770164e-02   1.116428e+01   8.753434e+00  -1.436515e+05   1.644124e+03  -3.312486e+04  -3.922743e+08  -4.858294e+10  -7.102161e+08   1.474304e+05   1.828502e-29   0.000000e+00   0.000000e+00
      168000   1.679990e-08   9.758672e-02   1.116428e+01   8.753408e+00  -1.436518e+05   1.605258e+03  -3.312543e+04  -3.792810e+08  -4.858263e+10  -7.095295e+08   1.474304e+05   1.828470e-29   0.000000e+00   0.000000e+00
      176000   1.759990e-08   9.747179e-02   1.116428e+01   8.753381e+00  -1.436521e+05   1.566392e+03  -3.312600e+04  -3.662880e+08  -4.858232e+10  -7.088432e+08   1.474304e+05   1.828439e-29   0.000000e+00   0.000000e+00
      184000   1.839990e-08   9.735687e-02   1.116428e+01   8.753355e+00  -1.436524e+05   1.527526e+03  -3.312656e+04  -3.532952e+08  -4.858201e+10  -7.081571e+08   1.474304e+05   1.828407e-29   0.000000e+00   0.000000e+00
      192000   1.919990e-08   9.724195e-02   1.116428e+01   8.753328e+00  -1.436527e+05   1.488660e+03  -3.312713e+04  -3.403026e+08  -4.858169e+10  -7.074714e+08   1.474304e+05   1.828376e-29   0.000000e+00   0.000000e+00
      200000   1.999990e-08   9.712703e-02   1.116429e+01   8.753302e+00  -1.436529e+05   1.449795e+03  -3.312770e+04  -3.273103e+08  -4.858137e+10  -7.067858e+08   1.474304e+05   1.828344e-29   0.000000e+00   0.000000e+00
      208000   2.079990e-08   9.701211e-02   1.116429e+01   8.753275e+00  -1.436532e+05   1.410930e+03  -3.312826e+04  -3.143182e+08  -4.858104e+10  -7.061006e+08   1.474304e+05   1.828312e-29   0.000000e+00   0.000000e+00
      216000   2.159990e-08   9.689718e-02   1.116429e+01   8.753249e+00  -1.436534e+05   1.372065e+03  -3.312883e+04  -3.013263e+08  -4.858072e+10  -7.054156e+08   1.474304e+05   1.828280e-29   0.000000e+00   0.000000e+00
      224000   2.239990e-08   9.678226e-02   1.116429e+01   8.753222e+00  -1.436537e+05   1.333201e+03  -3.312939e+04  -2.883347e+08  -4.858038e+10  -7.047309e+08   1.474304e+05   1.828249e-29   0.000000e+00   0.000000e+00
      232000   2.319990e-08   9.666734e-02   1.116429e+01   8.753196e+00  -1.436539e+05   1.294337e+03  -3.312995e+04  -2.753434e+08  -4.858005e+10  -7.040465e+08   1.474304e+05   1.828217e-29   0.000000e+00   0.000000e+00
      240000   2.399990e-08   9.655241e-02   1.116429e+01   8.753169e+00  -1.436541e+05   1.255473e+03  -3.313052e+04  -2.623523e+08  -4.857971e+10  -7.033624e+08   1.474304e+05   1.828185e-29   0.000000e+00   0.000000e+00
      248000   2.479990e-08   9.643749e-02   1.116429e+01   8.753143e+00  -1.436543e+05   1.216609e+03  -3.313108e+04  -2.493614e+08  -4.857936e+10  -7.026785e+08   1.474304e+05   1.828154e-29   0.000000e+00   0.000000e+00
      256000   2.559990e-08   9.632257e-02   1.116429e+01   8.753116e+00  -1.436545e+05   1.177746e+03  -3.313164e+04  -2.363708e+08  -4.857902e+10  -7.019949e+08   1.474304e+05   1.828122e-29   0.000000e+00   0.000000e+00
      264000   2.639990e-08   9.620764e-02   1.116429e+01   8.753090e+00  -1.436547e+05   1.138883e+03  -3.313220e+04  -2.233804e+08  -4.857867e+10  -7.013115e+08   1.474304e+05   1.828090e-29   0.000000e+00   0.000000e+00
      272000   2.719990e-08   9.609272e-02   1.116429e+01   8.753063e+00  -1.436549e+05   1.100020e+03  -3.313276e+04  -2.103903e+08  -4.857831e+10  -7.006285e+08   1.474304e+05   1.828058e-29   0.000000e+00   0.000000e+00
      280000   2.799990e-08   9.597780e-02   1.116430e+01   8.753037e+00  -1.436550e+05   1.061158e+03  -3.313332e+04  -1.974005e+08  -4.857795e+10  -6.999457e+08   1.474304e+05   1.828026e-29   0.000000e+00   0.000000e+00
      288000   2.879990e-08   9.586287e-02   1.116430e+01   8.753010e+00  -1.436552e+05   1.022295e+03  -3.313388e+04  -1.844108e+08  -4.857759e+10  -6.992632e+08   1.474304e+05   1.827995e-29   0.000000e+00   0.000000e+00
      296000   2.959990e-08   9.574795e-02   1.116430e+01   8.752984e+00  -1.436553e+05   9.834334e+02  -3.313444e+04  -1.714215e+08  -4.857722e+10  -6.985810e+08   1.474304e+05   1.827963e-29   0.000000e+00   0.000000e+00
      304000   3.039990e-08   9.563302e-02   1.116430e+01   8.752957e+00  -1.436555e+05   9.445718e+02  -3.313500e+04  -1.584324e+08  -4.857686e+10  -6.978990e+08   1.474304e+05   1.827931e-29   0.000000e+00   0.000000e+00
      312000   3.119990e-08   9.551810e-02   1.116430e+01   8.752931e+00  -1.436556e+05   9.057104e+02  -3.313556e+04  -1.454435e+08  -4.857648e+10  -6.972173e+08   1.474304e+05   1.827899e-29   0.000000e+00   0.000000e+00
      320000   3.199990e-08   9.540317e-02   1.116430e+01   8.752904e+00  -1.436557e+05   8.668494e+02  -3.313612e+04  -1.324550e+08  -4.857611e+10  -6.965359e+08   1.474304e+05   1.827867e-29   0.000000e+00   0.000000e+00
      328000   3.279990e-08   9.528825e-02   1.116430e+01   8.752877e+00  -1.436558e+05   8.279887e+02  -3.313667e+04  -1.194666e+08  -4.857573e+10  -6.958548e+08   1.474304e+05   1.827835e-29   0.000000e+00   0.000000e+00
      336000   3.359990e-08   9.517332e-02   1.116430e+01   8.752851e+00  -1.436559e+05   7.891282e+02  -3.313723e+04  -1.064786e+08  -4.857534e+10  -6.951739e+08   1.474304e+05   1.827803e-29   0.000000e+00   0.000000e+00
      344000   3.439990e-08   9.505840e-02   1.116430e+01   8.752824e+00  -1.436560e+05   7.502681e+02  -3.313778e+04  -9.349076e+07  -4.857495e+10  -6.944933e+08   1.474304e+05   1.827771e-29   0.000000e+00   0.000000e+00
      352000   3.519990e-08   9.494348e-02   1.116430e+01   8.752798e+00  -1.436560e+05   7.114083e+02  -3.313834e+04  -8.050321e+07  -4.857456e+10  -6.938130e+08   1.474304e+05   1.827740e-29   0.000000e+00   0.000000e+00
      360000   3.599990e-08   9.482855e-02   1.116430e+01   8.752771e+00  -1.436561e+05   6.725488e+02  -3.313889e+04  -6.751593e+07  -4.857417e+10  -6.931330e+08   1.474304e+05   1.827708e-29   0.000000e+00   0.000000e+00
      368000   3.679990e-08   9.471363e-02   1.116430e+01   8.752745e+00  -1.436562e+05   6.336897e+02  -3.313945e+04  -5.452891e+07  -4.857377e+10  -6.924532e+08   1.474304e+05   1.827676e-29   0.000000e+00   0.000000e+00
      376000   3.759990e-08   9.459870e-02   1.116430e+01   8.752718e+00  -1.436562e+05   5.948308e+02  -3.314000e+04  -4.154216e+07  -4.857337e+10  -6.917737e+08   1.474304e+05   1.827644e-29   0.000000e+00   0.000000e+00
      384000   3.839990e-08   9.448378e-02   1.116430e+01   8.752692e+00  -1.436562e+05   5.559723e+02  -3.314056e+04  -2.855567e+07  -4.857296e+10  -6.910945e+08   1.474304e+05   1.827612e-29   0.000000e+00   0.000000e+00
      392000   3.919990e-08   9.436885e-02   1.116430e+01   8.752665e+00  -1.436562e+05   5.171141e+02  -3.314111e+04  -1.556945e+07  -4.857255e+10  -6.904156e+08   1.474304e+05   1.827580e-29   0.000000e+00   0.000000e+00
      400000   3.999990e-08   9.425393e-02   1.116430e+01   8.752639e+00  -1.436562e+05   4.782562e+02  -3.314166e+04  -2.583498e+06  -4.857214e+10  -6.897369e+08   1.474304e+05   1.827548e-29   0.000000e+00   0.000000e+00
      408000   4.079990e-08   9.413900e-02   1.116431e+01   8.752612e+00  -1.436562e+05   4.393986e+02  -3.314221e+04   1.040218e+07  -4.857172e+10  -6.890585e+08   1.474304e+05   1.827516e-29   0.000000e+00   0.000000e+00
      416000   4.159990e-08   9.402408e-02   1.116431e+01   8.752586e+00  -1.436562e+05   4.005414e+02  -3.314276e+04   2.338760e+07  -4.857130e+10  -6.883804e+08   1.474304e+05   1.827484e-29   0.000000e+00   0.000000e+00
      424000   4.239990e-08   9.390915e-02   1.116431e+01   8.752559e+00  -1.436562e+05   3.616846e+02  -3.314331e+04   3.637274e+07  -4.857088e+10  -6.877026e+08   1.474304e+05   1.827452e-29   0.000000e+00   0.000000e+00
      432000   4.319990e-08   9.379423e-02   1.116431e+01   8.752533e+00  -1.436562e+05   3.228280e+02  -3.314386e+04   4.935761e+07  -4.857045e+10  -6.870250e+08   1.474304e+05   1.827420e-29   0.000000e+00   0.000000e+00
      440000   4.399990e-08   9.367930e-02   1.116431e+01   8.752506e+00  -1.436561e+05   2.839719e+02  -3.314441e+04   6.234220e+07  -4.857002e+10  -6.863477e+08   1.474304e+05   1.827388e-29   0.000000e+00   0.000000e+00
      448000   4.479990e-08   9.356438e-02   1.116431e+01   8.752480e+00  -1.436561e+05   2.451160e+02  -3.314496e+04   7.532652e+07  -4.856958e+10  -6.856707e+08   1.474304e+05   1.827356e-29   0.000000e+00   0.000000e+00
      456000   4.559990e-08   9.344945e-02   1.116431e+01   8.752453e+00  -1.436560e+05   2.062605e+02  -3.314551e+04   8.831056e+07  -4.856914e+10  -6.849940e+08   1.474304e+05   1.827323e-29   0.000000e+00   0.000000e+00
      464000   4.639990e-08   9.333453e-02   1.116431e+01   8.752427e+00  -1.436559e+05   1.674054e+02  -3.314606e+04   1.012943e+08  -4.856870e+10  -6.843175e+08   1.474304e+05   1.827291e-29   0.000000e+00   0.000000e+00
      472000   4.719990e-08   9.321960e-02   1.116431e+01   8.752400e+00  -1.436558e+05   1.285506e+02  -3.314660e+04   1.142778e+08  -4.856825e+10  -6.836414e+08   1.474304e+05   1.827259e-29   0.000000e+00   0.000000e+00
      480000   4.799990e-08   9.310468e-02   1.116431e+01   8.752374e+00  -1.436557e+05   8.969618e+01  -3.314715e+04   1.272610e+08  -4.856780e+10  -6.829655e+08   1.474304e+05   1.827227e-29   0.000000e+00   0.000000e+00
      488000   4.879990e-08   9.298975e-02   1.116431e+01   8.752347e+00  -1.436556e+05   5.084212e+01  -3.314770e+04   1.402440e+08  -4.856735e+10  -6.822899e+08   1.474304e+05   1.827195e-29   0.000000e+00   0.000000e+00
      496000   4.959990e-08   9.287483e-02   1.116431e+01   8.752321e+00  -1.436555e+05   1.198842e+01  -3.314824e+04   1.532266e+08  -4.856689e+10  -6.816145e+08   1.474304e+05   1.827163e-29   0.000000e+00   0.000000e+00
      504000   5.039990e-08   9.275990e-02   1.116431e+01   8.752294e+00  -1.436554e+05  -2.686491e+01  -3.314879e+04   1.662090e+08  -4.856643e+10  -6.809395e+08   1.474304e+05   1.827131e-29   0.000000e+00   0.000000e+00
      512000   5.119990e-08   9.264498e-02   1.116431e+01   8.752268e+00  -1.436553e+05  -6.571787e+01  -3.314933e+04   1.791910e+08  -4.856597e+10  -6.802647e+08   1.474304e+05   1.827098e-29   0.000000e+00   0.000000e+00
      520000   5.199990e-08   9.253006e-02   1.116431e+01   8.752241e+00  -1.436551e+05  -1.045705e+02  -3.314988e+04   1.921728e+08  -4.856550e+10  -6.795902e+08   1.474304e+05   1.827066e-29   0.000000e+00   0.000000e+00
      528000   5.279990e-08   9.241513e-02   1.116431e+01   8.752215e+00  -1.436549e+05  -1.434227e+02  -3.315042e+04   2.051544e+08  -4.856503e+10  -6.789159e+08   1.474304e+05   1.827034e-29   0.000000e+00   0.000000e+00
      536000   5.359990e-08   9.230021e-02   1.116431e+01   8.752188e+00  -1.436548e+05  -1.822745e+02  -3.315096e+04   2.181356e+08  -4.856455e+10  -6.782420e+08   1.474304e+05   1.827002e-29   0.000000e+00   0.000000e+00
      544000   5.439990e-08   9.218528e-02   1.116431e+01   8.752162e+00  -1.436546e+05  -2.211260e+02  -3.315150e+04   2.311165e+08  -4.856407e+10  -6.775683e+08   1.474304e+05   1.826970e-29   0.000000e+00   0.000000e+00
      552000   5.519990e-08   9.207036e-02   1.116431e+01   8.752135e+00  -1.436544e+05  -2.599770e+02  -3.315205e+04   2.440972e+08  -4.856359e+10  -6.768949e+08   1.474304e+05   1.826937e-29   0.000000e+00   0.000000e+00
      560000   5.599990e-08   9.195544e-02   1.116431e+01   8.752109e+00  -1.436542e+05  -2.988277e+02  -3.315259e+04   2.570775e+08  -4.856310e+10  -6.762218e+08   1.474304e+05   1.826905e-29   0.000000e+00   0.000000e+00
      568000   5.679990e-08   9.184051e-02   1.116431e+01   8.752082e+00  -1.436540e+05  -3.376780e+02  -3.315313e+04   2.700576e+08  -4.856261e+10  -6.755489e+08   1.474304e+05   1.826873e-29   0.000000e+00   0.000000e+00
      576000   5.759990e-08   9.172559e-02   1.116431e+01   8.752055e+00  -1.436538e+05  -3.765279e+02  -3.315367e+04   2.830374e+08  -4.856212e+10  -6.748764e+08   1.474304e+05   1.826840e-29   0.000000e+00   0.000000e+00
      584000   5.839990e-08   9.161067e-02   1.116431e+01   8.752029e+00  -1.436535e+05  -4.153774e+02  -3.315421e+04   2.960168e+08  -4.856162e+10  -6.742041e+08   1.474304e+05   1.826808e-29   0.000000e+00   0.000000e+00
      592000   5.919990e-08   9.149574e-02   1.116431e+01   8.752002e+00  -1.436533e+05  -4.542265e+02  -3.315475e+04   3.089960e+08  -4.856112e+10  -6.735321e+08   1.474304e+05   1.826776e-29   0.000000e+00   0.000000e+00
      600000   5.999990e-08   9.138082e-02   1.116430e+01   8.751976e+00  -1.436530e+05  -4.930752e+02  -3.315529e+04   3.219749e+08  -4.856062e+10  -6.728604e+08   1.474304e+05   1.826744e-29   0.000000e+00   0.000000e+00
      608000   6.079990e-08   9.126590e-02   1.116430e+01   8.751949e+00  -1.436528e+05  -5.319235e+02  -3.315582e+04   3.349535e+08  -4.856011e+10  -6.721889e+08   1.474304e+05   1.826711e-29   0.000000e+00   0.000000e+00
      616000   6.159990e-08   9.115098e-02   1.116430e+01   8.751923e+00  -1.436525e+05  -5.707713e+02  -3.315636e+04   3.479318e+08  -4.855960e+10  -6.715177e+08   1.474304e+05   1.826679e-29   0.000000e+00   0.000000e+00
      624000   6.239990e-08   9.103606e-02   1.116430e+01   8.751896e+00  -1.436522e+05  -6.096188e+02  -3.315690e+04   3.609098e+08  -4.855908e+10  -6.708469e+08   1.474304e+05   1.826647e-29   0.000000e+00   0.000000e+00
      632000   6.319990e-08   9.092113e-02   1.116430e+01   8.751870e+00  -1.436519e+05  -6.484659e+02  -3.315743e+04   3.738875e+08  -4.855856e+10  -6.701763e+08   1.474304e+05   1.826614e-29   0.000000e+00   0.000000e+00
      640000   6.399990e-08   9.080621e-02   1.116430e+01   8.751843e+00  -1.436516e+05  -6.873125e+02  -3.315797e+04   3.868649e+08  -4.855804e+10  -6.695059e+08   1.474304e+05   1.826582e-29   0.000000e+00   0.000000e+00
      648000   6.479990e-08   9.069129e-02   1.116430e+01   8.751817e+00  -1.436513e+05  -7.261587e+02  -3.315851e+04   3.998420e+08  -4.855751e+10  -6.688359e+08   1.474304e+05   1.826549e-29   0.000000e+00   0.000000e+00
      656000   6.559990e-08   9.057637e-02   1.116430e+01   8.751790e+00  -1.436510e+05  -7.650045e+02  -3.315904e+04   4.128187e+08  -4.855698e+10  -6.681661e+08   1.474304e+05   1.826517e-29   0.000000e+00   0.000000e+00
      664000   6.639990e-08   9.046145e-02   1.116430e+01   8.751764e+00  -1.436507e+05  -8.038499e+02  -3.315958e+04   4.257952e+08  -4.855645e+10  -6.674966e+08   1.474304e+05   1.826484e-29   0.000000e+00   0.000000e+00
      672000   6.719990e-08   9.034653e-02   1.116430e+01   8.751737e+00  -1.436503e+05  -8.426948e+02  -3.316011e+04   4.387714e+08  -4.855591e+10  -6.668274e+08   1.474304e+05   1.826452e-29   0.000000e+00   0.000000e+00
      680000   6.799990e-08   9.023161e-02   1.116430e+01   8.751711e+00  -1.436500e+05  -8.815394e+02  -3.316064e+04   4.517473e+08  -4.855537e+10  -6.661585e+08   1.474304e+05   1.826420e-29   0.000000e+00   0.000000e+00
      688000   6.879990e-08   9.011669e-02   1.116430e+01   8.751684e+00  -1.436496e+05  -9.203834e+02  -3.316117e+04   4.647228e+08  -4.855482e+10  -6.654898e+08   1.474304e+05   1.826387e-29   0.000000e+00   0.000000e+00
      696000   6.959990e-08   9.000177e-02   1.116430e+01   8.751658e+00  -1.436492e+05  -9.592271e+02  -3.316171e+04   4.776981e+08  -4.855427e+10  -6.648215e+08   1.474304e+05   1.826355e-29   0.000000e+00   0.000000e+00
      704000   7.039990e-08   8.988685e-02   1.116430e+01   8.751631e+00  -1.436488e+05  -9.980703e+02  -3.316224e+04   4.906730e+08  -4.855372e+10  -6.641534e+08   1.474304e+05   1.826322e-29   0.000000e+00   0.000000e+00
      712000   7.119990e-08   8.977193e-02   1.116430e+01   8.751605e+00  -1.436484e+05  -1.036913e+03  -3.316277e+04   5.036477e+08  -4.855317e+10  -6.634856e+08   1.474304e+05   1.826290e-29   0.000000e+00   0.000000e+00
      720000   7.199990e-08   8.965701e-02   1.116430e+01   8.751578e+00  -1.436480e+05  -1.075755e+03  -3.316330e+04   5.166220e+08  -4.855261e+10  -6.628181e+08   1.474304e+05   1.826257e-29   0.000000e+00   0.000000e+00
      728000   7.279990e-08   8.954209e-02   1.116429e+01   8.751551e+00  -1.436476e+05  -1.114597e+03  -3.316383e+04   5.295960e+08  -4.855204e+10  -6.621508e+08   1.474304e+05   1.826225e-29   0.000000e+00   0.000000e+00
      736000   7.359990e-08   8.942718e-02   1.116429e+01   8.751525e+00  -1.436472e+05  -1.153439e+03  -3.316436e+04   5.425697e+08  -4.855148e+10  -6.614839e+08   1.474304e+05   1.826192e-29   0.000000e+00   0.000000e+00
      744000   7.439990e-08   8.931226e-02   1.116429e+01   8.751498e+00  -1.436467e+05  -1.192280e+03  -3.316489e+04   5.555431e+08  -4.855091e+10  -6.608172e+08   1.474304e+05   1.826159e-29   0.000000e+00   0.000000e+00
      752000   7.519990e-08   8.919734e-02   1.116429e+01   8.751472e+00  -1.436463e+05  -1.231120e+03  -3.316542e+04   5.685161e+08  -4.855033e+10  -6.601508e+08   1.474304e+05   1.826127e-29   0.000000e+00   0.000000e+00
      760000   7.599990e-08   8.908243e-02   1.116429e+01   8.751445e+00  -1.436458e+05  -1.269960e+03  -3.316594e+04   5.814889e+08  -4.854975e+10  -6.594847e+08   1.474304e+05   1.826094e-29   0.000000e+00   0.000000e+00
      768000   7.679990e-08   8.896751e-02   1.116429e+01   8.751419e+00  -1.436453e+05  -1.308800e+03  -3.316647e+04   5.944613e+08  -4.854917e+10  -6.588188e+08   1.474304e+05   1.826062e-29   0.000000e+00   0.000000e+00
      776000   7.759990e-08   8.885259e-02   1.116429e+01   8.751392e+00  -1.436449e+05  -1.347639e+03  -3.316700e+04   6.074334e+08  -4.854859e+10  -6.581533e+08   1.474304e+05   1.826029e-29   0.000000e+00   0.000000e+00
      784000   7.839990e-08   8.873768e-02   1.116429e+01   8.751366e+00  -1.436444e+05  -1.386477e+03  -3.316753e+04   6.204052e+08  -4.854800e+10  -6.574880e+08   1.474304e+05   1.825997e-29   0.000000e+00   0.000000e+00
      792000   7.919990e-08   8.862276e-02   1.116429e+01   8.751339e+00  -1.436439e+05  -1.425316e+03  -3.316805e+04   6.333766e+08  -4.854741e+10  -6.568230e+08   1.474304e+05   1.825964e-29   0.000000e+00   0.000000e+00
      800000   7.999990e-08   8.850785e-02   1.116429e+01   8.751313e+00  -1.436434e+05  -1.464153e+03  -3.316858e+04   6.463478e+08  -4.854681e+10  -6.561583e+08   1.474304e+05   1.825931e-29   0.000000e+00   0.000000e+00
      808000   8.079990e-08   8.839293e-02   1.116428e+01   8.751286e+00  -1.436428e+05  -1.502990e+03  -3.316910e+04   6.593186e+08  -4.854621e+10  -6.554939e+08   1.474304e+05   1.825899e-29   0.000000e+00   0.000000e+00
      816000   8.159990e-08   8.827802e-02   1.116428e+01   8.751260e+00  -1.436423e+05  -1.541827e+03  -3.316962e+04   6.722891e+08  -4.854561e+10  -6.548297e+08   1.474304e+05   1.825866e-29   0.000000e+00   0.000000e+00
      824000   8.239990e-08   8.816310e-02   1.116428e+01   8.751233e+00  -1.436418e+05  -1.580663e+03  -3.317015e+04   6.852592e+08  -4.854500e+10  -6.541659e+08   1.474304e+05   1.825833e-29   0.000000e+00   0.000000e+00
      832000   8.319990e-08   8.804819e-02   1.116428e+01   8.751207e+00  -1.436412e+05  -1.619499e+03  -3.317067e+04   6.982291e+08  -4.854439e+10  -6.535023e+08   1.474304e+05   1.825800e-29   0.000000e+00   0.000000e+00
      840000   8.399990e-08   8.793328e-02   1.116428e+01   8.751180e+00  -1.436406e+05  -1.658334e+03  -3.317119e+04   7.111986e+08  -4.854377e+10  -6.528390e+08   1.474304e+05   1.825768e-29   0.000000e+00   0.000000e+00
      848000   8.479990e-08   8.781837e-02   1.116428e+01   8.751153e+00  -1.436401e+05  -1.697169e+03  -3.317172e+04   7.241678e+08  -4.854316e+10  -6.521760e+08   1.474304e+05   1.825735e-29   0.000000e+00   0.000000e+00
      856000   8.559990e-08   8.770345e-02   1.116428e+01   8.751127e+00  -1.436395e+05  -1.736003e+03  -3.317224e+04   7.371366e+08  -4.854253e+10  -6.515133e+08   1.474304e+05   1.825702e-29   0.000000e+00   0.000000e+00
      864000   8.639990e-08   8.758854e-02   1.116427e+01   8.751100e+00  -1.436389e+05  -1.774837e+03  -3.317276e+04   7.501051e+08  -4.854191e+10  -6.508508e+08   1.474304e+05   1.825670e-29   0.000000e+00   0.000000e+00
      872000   8.719990e-08   8.747363e-02   1.116427e+01   8.751074e+00  -1.436383e+05  -1.813671e+03  -3.317328e+04   7.630733e+08  -4.854128e+10  -6.501887e+08   1.474304e+05   1.825637e-29   0.000000e+00   0.000000e+00
      880000   8.799990e-08   8.735872e-02   1.116427e+01   8.751047e+00  -1.436377e+05  -1.852503e+03  -3.317380e+04   7.760411e+08  -4.854065e+10  -6.495268e+08   1.474304e+05   1.825604e-29   0.000000e+00   0.000000e+00
      888000   8.879990e-08   8.724381e-02   1.116427e+01   8.751021e+00  -1.436370e+05  -1.891336e+03  -3.317432e+04   7.890087e+08  -4.854001e+10  -6.488652e+08   1.474304e+05   1.825571e-29   0.000000e+00   0.000000e+00
      896000   8.959990e-08   8.712890e-02   1.116427e+01   8.750994e+00  -1.436364e+05  -1.930167e+03  -3.317484e+04   8.019758e+08  -4.853937e+10  -6.482039e+08   1.474304e+05   1.825538e-29   0.000000e+00   0.000000e+00
      904000   9.039990e-08   8.701399e-02   1.116427e+01   8.750968e+00  -1.436358e+05  -1.968999e+03  -3.317536e+04   8.149427e+08  -4.853873e+10  -6.475429e+08   1.474304e+05   1.825506e-29   0.000000e+00   0.000000e+00
      912000   9.119990e-08   8.689909e-02   1.116427e+01   8.750941e+00  -1.436351e+05  -2.007829e+03  -3.317587e+04   8.279092e+08  -4.853808e+10  -6.468821e+08   1.474304e+05   1.825473e-29   0.000000e+00   0.000000e+00
      920000   9.199990e-08   8.678418e-02   1.116426e+01   8.750915e+00  -1.436344e+05  -2.046659e+03  -3.317639e+04   8.408753e+08  -4.853743e+10  -6.462217e+08   1.474304e+05   1.825440e-29   0.000000e+00   0.000000e+00
      928000   9.279990e-08   8.666927e-02   1.116426e+01   8.750888e+00  -1.436338e+05  -2.085489e+03  -3.317691e+04   8.538411e+08  -4.853677e+10  -6.455615e+08   1.474304e+05   1.825407e-29   0.000000e+00   0.000000e+00
      936000   9.359990e-08   8.655436e-02   1.116426e+01   8.750862e+00  -1.436331e+05  -2.124318e+03  -3.317742e+04   8.668066e+08  -4.853612e+10  -6.449016e+08   1.474304e+05   1.825374e-29   0.000000e+00   0.000000e+00
      944000   9.439990e-08   8.643946e-02   1.116426e+01   8.750835e+00  -1.436324e+05  -2.163147e+03  -3.317794e+04   8.797718e+08  -4.853545e+10  -6.442420e+08   1.474304e+05   1.825341e-29   0.000000e+00   0.000000e+00
      952000   9.519990e-08   8.632455e-02   1.116426e+01   8.750808e+00  -1.436317e+05  -2.201975e+03  -3.317845e+04   8.927366e+08  -4.853479e+10  -6.435827e+08   1.474304e+05   1.825308e-29   0.000000e+00   0.000000e+00
      960000   9.599990e-08   8.620965e-02   1.116426e+01   8.750782e+00  -1.436309e+05  -2.240803e+03  -3.317897e+04   9.057010e+08  -4.853412e+10  -6.429237e+08   1.474304e+05   1.825276e-29   0.000000e+00   0.000000e+00
      968000   9.679990e-08   8.609474e-02   1.116425e+01   8.750755e+00  -1.436302e+05  -2.279630e+03  -3.317948e+04   9.186651e+08  -4.853345e+10  -6.422649e+08   1.474304e+05   1.825243e-29   0.000000e+00   0.000000e+00
      976000   9.759990e-08   8.597984e-02   1.116425e+01   8.750729e+00  -1.436295e+05  -2.318456e+03  -3.318000e+04   9.316288e+08  -4.853277e+10  -6.416065e+08   1.474304e+05   1.825210e-29   0.000000e+00   0.000000e+00
      984000   9.839990e-08   8.586494e-02   1.116425e+01   8.750702e+00  -1.436287e+05  -2.357282e+03  -3.318051e+04   9.445922e+08  -4.853209e+10  -6.409483e+08   1.474304e+05   1.825177e-29   0.000000e+00   0.000000e+00
      992000   9.919990e-08   8.575003e-02   1.116425e+01   8.750676e+00  -1.436280e+05  -2.396107e+03  -3.318102e+04   9.575553e+08  -4.853141e+10  -6.402904e+08   1.474304e+05   1.825144e-29   0.000000e+00   0.000000e+00
     1000000   9.999990e-08   8.563513e-02   1.116425e+01   8.750649e+00  -1.436272e+05  -2.434932e+03  -3.318153e+04   9.705180e+08  -4.853072e+10  -6.396328e+08   1.474304e+05   1.825111e-29   0.000000e+00   0.000000e+00
     1008000   1.007999e-07   8.552023e-02   1.116424e+01   8.750623e+00  -1.436264e+05  -2.473757e+03  -3.318204e+04   9.834804e+08  -4.853003e+10  -6.389755e+08   1.474304e+05   1.825078e-29   0.000000e+00   0.000000e+00
     1016000   1.015999e-07   8.540533e-02   1.116424e+01   8.750596e+00  -1.436256e+05  -2.512580e+03  -3.318256e+04   9.964424e+08  -4.852933e+10  -6.383184e+08   1.474304e+05   1.825045e-29   0.000000e+00   0.000000e+00
     1024000   1.023999e-07   8.529043e-02   1.116424e+01   8.750570e+00  -1.436248e+05  -2.551404e+03  -3.318307e+04   1.009404e+09  -4.852864e+10  -6.376617e+08   1.474304e+05   1.825012e-29   0.000000e+00   0.000000e+00
     1032000   1.031999e-07   8.517553e-02   1.116424e+01   8.750543e+00  -1.436240e+05  -2.590226e+03  -3.318358e+04   1.022365e+09  -4.852793e+10  -6.370052e+08   1.474304e+05   1.824979e-29   0.000000e+00   0.000000e+00
     1040000   1.039999e-07   8.506063e-02   1.116424e+01   8.750516e+00  -1.436232e+05  -2.629048e+03  -3.318409e+04   1.035326e+09  -4.852723e+10  -6.363491e+08   1.474304e+05   1.824946e-29   0.000000e+00   0.000000e+00
     1048000   1.047999e-07   8.494573e-02   1.116423e+01   8.750490e+00  -1.436223e+05  -2.667870e+03  -3.318459e+04   1.048287e+09  -4.852652e+10  -6.356932e+08   1.474304e+05   1.824913e-29   0.000000e+00   0.000000e+00
     1056000   1.055999e-07   8.483083e-02   1.116423e+01   8.750463e+00  -1.436215e+05  -2.706691e+03  -3.318510e+04   1.061247e+09  -4.852581e+10  -6.350376e+08   1.474304e+05   1.824880e-29   0.000000e+00   0.000000e+00
     1064000   1.063999e-07   8.471594e-02   1.116423e+01   8.750437e+00  -1.436207e+05  -2.745511e+03  -3.318561e+04   1.074207e+09  -4.852509e+10  -6.343822e+08   1.474304e+05   1.824847e-29   0.000000e+00   0.000000e+00
     1072000   1.071999e-07   8.460104e-02   1.116423e+01   8.750410e+00  -1.436198e+05  -2.784331e+03  -3.318612e+04   1.087166e+09  -4.852437e+10  -6.337272e+08   1.474304e+05   1.824814e-29   0.000000e+00   0.000000e+00
     1080000   1.079999e-07   8.448615e-02   1.116423e+01   8.750384e+00  -1.436189e+05  -2.823150e+03  -3.318662e+04   1.100126e+09  -4.852364e+10  -6.330725e+08   1.474304e+05   1.824780e-29   0.000000e+00   0.000000e+00
     1088000   1.087999e-07   8.437125e-02   1.116422e+01   8.750357e+00  -1.436180e+05  -2.861969e+03  -3.318713e+04   1.113084e+09  -4.852292e+10  -6.324180e+08   1.474304e+05   1.824747e-29   0.000000e+00   0.000000e+00
     1096000   1.095999e-07   8.425636e-02   1.116422e+01   8.750331e+00  -1.436171e+05  -2.900787e+03  -3.318764e+04   1.126043e+09  -4.852219e+10  -6.317638e+08   1.474304e+05   1.824714e-29   0.000000e+00   0.000000e+00
     1104000   1.103999e-07   8.414146e-02   1.116422e+01   8.750304e+00  -1.436162e+05  -2.939604e+03  -3.318814e+04   1.139001e+09  -4.852145e+10  -6.311100e+08   1.474304e+05   1.824681e-29   0.000000e+00   0.000000e+00
     1112000   1.111999e-07   8.402657e-02   1.116422e+01   8.750278e+00  -1.436153e+05  -2.978421e+03  -3.318865e+04   1.151958e+09  -4.852071e+10  -6.304564e+08   1.474304e+05   1.824648e-29   0.000000e+00   0.000000e+00
     1120000   1.119999e-07   8.391168e-02   1.116421e+01   8.750251e+00  -1.436144e+05  -3.017237e+03  -3.318915e+04   1.164916e+09  -4.851997e+10  -6.298031e+08   1.474304e+05   1.824615e-29   0.000000e+00   0.000000e+00
     1128000   1.127999e-07   8.379679e-02   1.116421e+01   8.750224e+00  -1.436134e+05  -3.056053e+03  -3.318965e+04   1.177873e+09  -4.851922e+10  -6.291500e+08   1.474304e+05   1.824582e-29   0.000000e+00   0.000000e+00
     1136000   1.135999e-07   8.368190e-02   1.116421e+01   8.750198e+00  -1.436125e+05  -3.094868e+03  -3.319016e+04   1.190829e+09  -4.851847e+10  -6.284973e+08   1.474304e+05   1.824548e-29   0.000000e+00   0.000000e+00
     1144000   1.143999e-07   8.356701e-02   1.116421e+01   8.750171e+00  -1.436115e+05  -3.133683e+03  -3.319066e+04   1.203785e+09  -4.851772e+10  -6.278449e+08   1.474304e+05   1.824515e-29   0.000000e+00   0.000000e+00
     1152000   1.151999e-07   8.345212e-02   1.116420e+01   8.750145e+00  -1.436106e+05  -3.172496e+03  -3.319116e+04   1.216741e+09  -4.851697e+10  -6.271927e+08   1.474304e+05   1.824482e-29   0.000000e+00   0.000000e+00
     1160000   1.159999e-07   8.333723e-02   1.116420e+01   8.750118e+00  -1.436096e+05  -3.211310e+03  -3.319166e+04   1.229697e+09  -4.851620e+10  -6.265408e+08   1.474304e+05   1.824449e-29   0.000000e+00   0.000000e+00
     1168000   1.167999e-07   8.322234e-02   1.116420e+01   8.750092e+00  -1.436086e+05  -3.250122e+03  -3.319216e+04   1.242652e+09  -4.851544e+10  -6.258893e+08   1.474304e+05   1.824415e-29   0.000000e+00   0.000000e+00
     1176000   1.175999e-07   8.310746e-02   1.116420e+01   8.750065e+00  -1.436076e+05  -3.288934e+03  -3.319266e+04   1.255607e+09  -4.851467e+10  -6.252380e+08   1.474304e+05   1.824382e-29   0.000000e+00   0.000000e+00
     1184000   1.183999e-07   8.299257e-02   1.116419e+01   8.750039e+00  -1.436066e+05  -3.327746e+03  -3.319316e+04   1.268561e+09  -4.851390e+10  -6.245870e+08   1.474304e+05   1.824349e-29   0.000000e+00   0.000000e+00
     1192000   1.191999e-07   8.287769e-02   1.116419e+01   8.750012e+00  -1.436056e+05  -3.366557e+03  -3.319366e+04   1.281515e+09  -4.851313e+10  -6.239363e+08   1.474304e+05   1.824316e-29   0.000000e+00   0.000000e+00
     1200000   1.199999e-07   8.276280e-02   1.116419e+01   8.749985e+00  -1.436045e+05  -3.405367e+03  -3.319416e+04   1.294468e+09  -4.851235e+10  -6.232858e+08   1.474304e+05   1.824282e-29   0.000000e+00   0.000000e+00
     1208000   1.207999e-07   8.264792e-02   1.116419e+01   8.749959e+00  -1.436035e+05  -3.444176e+03  -3.319466e+04   1.307422e+09  -4.851157e+10  -6.226357e+08   1.474304e+05   1.824249e-29   0.000000e+00   0.000000e+00
     1216000   1.215999e-07   8.253304e-02   1.116418e+01   8.749932e+00  -1.436025e+05  -3.482985e+03  -3.319516e+04   1.320375e+09  -4.851078e+10  -6.219858e+08   1.474304e+05   1.824216e-29   0.000000e+00   0.000000e+00
     1224000   1.223999e-07   8.241816e-02   1.116418e+01   8.749906e+00  -1.436014e+05  -3.521794e+03  -3.319566e+04   1.333327e+09  -4.850999e+10  -6.213363e+08   1.474304e+05   1.824182e-29   0.000000e+00   0.000000e+00
     1232000   1.231999e-07   8.230327e-02   1.116418e+01   8.749879e+00  -1.436003e+05  -3.560601e+03  -3.319615e+04   1.346279e+09  -4.850920e+10  -6.206870e+08   1.474304e+05   1.824149e-29   0.000000e+00   0.000000e+00
     1240000   1.239999e-07   8.218839e-02   1.116417e+01   8.749853e+00  -1.435992e+05  -3.599408e+03  -3.319665e+04   1.359231e+09  -4.850840e+10  -6.200380e+08   1.474304e+05   1.824116e-29   0.000000e+00   0.000000e+00
     1248000   1.247999e-07   8.207352e-02   1.116417e+01   8.749826e+00  -1.435981e+05  -3.638215e+03  -3.319714e+04   1.372182e+09  -4.850760e+10  -6.193893e+08   1.474304e+05   1.824082e-29   0.000000e+00   0.000000e+00
     1256000   1.255999e-07   8.195864e-02   1.116417e+01   8.749800e+00  -1.435970e+05  -3.677020e+03  -3.319764e+04   1.385133e+09  -4.850680e+10  -6.187409e+08   1.474304e+05   1.824049e-29   0.000000e+00   0.000000e+00
     1264000   1.263999e-07   8.184376e-02   1.116417e+01   8.749773e+00  -1.435959e+05  -3.715826e+03  -3.319813e+04   1.398083e+09  -4.850599e+10  -6.180928e+08   1.474304e+05   1.824016e-29   0.000000e+00   0.000000e+00
     1272000   1.271999e-07   8.172888e-02   1.116416e+01   8.749746e+00  -1.435948e+05  -3.754630e+03  -3.319863e+04   1.411034e+09  -4.850518e+10  -6.174450e+08   1.474304e+05   1.823982e-29   0.000000e+00   0.000000e+00
     1280000   1.279999e-07   8.161401e-02   1.116416e+01   8.749720e+00  -1.435937e+05  -3.793434e+03  -3.319912e+04   1.423983e+09  -4.850436e+10  -6.167975e+08   1.474304e+05   1.823949e-29   0.000000e+00   0.000000e+00
     1288000   1.287999e-07   8.149913e-02   1.116416e+01   8.749693e+00  -1.435925e+05  -3.832237e+03  -3.319962e+04   1.436933e+09  -4.850354e+10  -6.161502e+08   1.474304e+05   1.823915e-29   0.000000e+00   0.000000e+00
     1296000   1.295999e-07   8.138426e-02   1.116415e+01   8.749667e+00  -1.435914e+05  -3.871040e+03  -3.320011e+04   1.449882e+09  -4.850272e+10  -6.155033e+08   1.474304e+05   1.823882e-29   0.000000e+00   0.000000e+00
     1304000   1.303999e-07   8.126939e-02   1.116415e+01   8.749640e+00  -1.435902e+05  -3.909841e+03  -3.320060e+04   1.462830e+09  -4.850190e+10  -6.148566e+08   1.474304e+05   1.823848e-29   0.000000e+00   0.000000e+00
     1312000   1.311999e-07   8.115452e-02   1.116415e+01   8.749614e+00  -1.435890e+05  -3.948643e+03  -3.320109e+04   1.475778e+09  -4.850107e+10  -6.142102e+08   1.474304e+05   1.823815e-29   0.000000e+00   0.000000e+00
     1320000   1.319999e-07   8.103965e-02   1.116414e+01   8.749587e+00  -1.435878e+05  -3.987443e+03  -3.320158e+04   1.488726e+09  -4.850023e+10  -6.135642e+08   1.474304e+05   1.823781e-29   0.000000e+00   0.000000e+00
     1328000   1.327999e-07   8.092478e-02   1.116414e+01   8.749560e+00  -1.435866e+05  -4.026243e+03  -3.320207e+04   1.501674e+09  -4.849940e+10  -6.129184e+08   1.474304e+05   1.823748e-29   0.000000e+00   0.000000e+00
     1336000   1.335999e-07   8.080991e-02   1.116414e+01   8.749534e+00  -1.435854e+05  -4.065042e+03  -3.320256e+04   1.514621e+09  -4.849856e+10  -6.122729e+08   1.474304e+05   1.823714e-29   0.000000e+00   0.000000e+00
     1344000   1.343999e-07   8.069504e-02   1.116413e+01   8.749507e+00  -1.435842e+05  -4.103841e+03  -3.320305e+04   1.527567e+09  -4.849771e+10  -6.116277e+08   1.474304e+05   1.823681e-29   0.000000e+00   0.000000e+00
     1352000   1.351999e-07   8.058017e-02   1.116413e+01   8.749481e+00  -1.435830e+05  -4.142638e+03  -3.320354e+04   1.540513e+09  -4.849686e+10  -6.109828e+08   1.474304e+05   1.823647e-29   0.000000e+00   0.000000e+00
     1360000   1.359999e-07   8.046531e-02   1.116413e+01   8.749454e+00  -1.435818e+05  -4.181436e+03  -3.320403e+04   1.553459e+09  -4.849601e+10  -6.103381e+08   1.474304e+05   1.823614e-29   0.000000e+00   0.000000e+00
     1368000   1.367999e-07   8.035044e-02   1.116412e+01   8.749428e+00  -1.435805e+05  -4.220232e+03  -3.320452e+04   1.566405e+09  -4.849516e+10  -6.096938e+08   1.474304e+05   1.823580e-29   0.000000e+00   0.000000e+00
     1376000   1.375999e-07   8.023558e-02   1.116412e+01   8.749401e+00  -1.435793e+05  -4.259028e+03  -3.320501e+04   1.579350e+09  -4.849430e+10  -6.090498e+08   1.474304e+05   1.823547e-29   0.000000e+00   0.000000e+00
     1384000   1.383999e-07   8.012071e-02   1.116412e+01   8.749375e+00  -1.435780e+05  -4.297823e+03  -3.320549e+04   1.592294e+09  -4.849344e+10  -6.084060e+08   1.474304e+05   1.823513e-29   0.000000e+00   0.000000e+00
     1392000   1.391999e-07   8.000585e-02   1.116411e+01   8.749348e+00  -1.435767e+05  -4.336617e+03  -3.320598e+04   1.605238e+09  -4.849257e+10  -6.077625e+08   1.474304e+05   1.823480e-29   0.000000e+00   0.000000e+00
     1400000   1.399999e-07   7.989099e-02   1.116411e+01   8.749321e+00  -1.435754e+05  -4.375411e+03  -3.320647e+04   1.618182e+09  -4.849170e+10  -6.071194e+08   1.474304e+05   1.823446e-29   0.000000e+00   0.000000e+00
     1408000   1.407999e-07   7.977613e-02   1.116411e+01   8.749295e+00  -1.435741e+05  -4.414204e+03  -3.320695e+04   1.631126e+09  -4.849083e+10  -6.064765e+08   1.474304e+05   1.823412e-29   0.000000e+00   0.000000e+00
     1416000   1.415999e-07   7.966127e-02   1.116410e+01   8.749268e+00  -1.435728e+05  -4.452996e+03  -3.320744e+04   1.644068e+09  -4.848995e+10  -6.058339e+08   1.474304e+05   1.823379e-29   0.000000e+00   0.000000e+00
     1424000   1.423999e-07   7.954642e-02   1.116410e+01   8.749242e+00  -1.435715e+05  -4.491788e+03  -3.320792e+04   1.657011e+09  -4.848907e+10  -6.051916e+08   1.474304e+05   1.823345e-29   0.000000e+00   0.000000e+00
     1432000   1.431999e-07   7.943156e-02   1.116410e+01   8.749215e+00  -1.435702e+05  -4.530579e+03  -3.320840e+04   1.669953e+09  -4.848819e+10  -6.045496e+08   1.474304e+05   1.823311e-29   0.000000e+00   0.000000e+00
     1440000   1.439999e-07   7.931670e-02   1.116409e+01   8.749189e+00  -1.435688e+05  -4.569369e+03  -3.320889e+04   1.682895e+09  -4.848730e+10  -6.039079e+08   1.474304e+05   1.823278e-29   0.000000e+00   0.000000e+00
     1448000   1.447999e-07   7.920185e-02   1.116409e+01   8.749162e+00  -1.435675e+05  -4.608159e+03  -3.320937e+04   1.695836e+09  -4.848641e+10  -6.032665e+08   1.474304e+05   1.823244e-29   0.000000e+00   0.000000e+00
     1456000   1.455999e-07   7.908700e-02   1.116408e+01   8.749135e+00  -1.435661e+05  -4.646947e+03  -3.320985e+04   1.708777e+09  -4.848551e+10  -6.026254e+08   1.474304e+05   1.823210e-29   0.000000e+00   0.000000e+00
     1464000   1.463999e-07   7.897214e-02   1.116408e+01   8.749109e+00  -1.435647e+05  -4.685735e+03  -3.321034e+04   1.721718e+09  -4.848461e+10  -6.019846e+08   1.474304e+05   1.823177e-29   0.000000e+00   0.000000e+00
     1472000   1.471999e-07   7.885729e-02   1.116408e+01   8.749082e+00  -1.435633e+05  -4.724523e+03  -3.321082e+04   1.734658e+09  -4.848371e+10  -6.013440e+08   1.474304e+05   1.823143e-29   0.000000e+00   0.000000e+00
     1480000   1.479999e-07   7.874244e-02   1.116407e+01   8.749056e+00  -1.435620e+05  -4.763309e+03  -3.321130e+04   1.747597e+09  -4.848280e+10  -6.007038e+08   1.474304e+05   1.823109e-29   0.000000e+00   0.000000e+00
     1488000   1.487999e-07   7.862759e-02   1.116407e+01   8.749029e+00  -1.435606e+05  -4.802095e+03  -3.321178e+04   1.760537e+09  -4.848189e+10  -6.000638e+08   1.474304e+05   1.823075e-29   0.000000e+00   0.000000e+00
     1496000   1.495999e-07   7.851274e-02   1.116407e+01   8.749003e+00  -1.435591e+05  -4.840880e+03  -3.321226e+04   1.773476e+09  -4.848098e+10  -5.994242e+08   1.474304e+05   1.823042e-29   0.000000e+00   0.000000e+00
     1504000   1.503999e-07   7.839790e-02   1.116406e+01   8.748976e+00  -1.435577e+05  -4.879665e+03  -3.321274e+04   1.786414e+09  -4.848006e+10  -5.987848e+08   1.474304e+05   1.823008e-29   0.000000e+00   0.000000e+00
     1512000   1.511999e-07   7.828305e-02   1.116406e+01   8.748949e+00  -1.435563e+05  -4.918448e+03  -3.321322e+04   1.799352e+09  -4.847914e+10  -5.981457e+08   1.474304e+05   1.822974e-29   0.000000e+00   0.000000e+00
     1520000   1.519999e-07   7.816821e-02   1.116405e+01   8.748923e+00  -1.435548e+05  -4.957231e+03  -3.321369e+04   1.812290e+09  -4.847822e+10  -5.975070e+08   1.474304e+05   1.822940e-29   0.000000e+00   0.000000e+00
     1528000   1.527999e-07   7.805336e-02   1.116405e+01   8.748896e+00  -1.435534e+05  -4.996014e+03  -3.321417e+04   1.825227e+09  -4.847729e+10  -5.968685e+08   1.474304e+05   1.822907e-29   0.000000e+00   0.000000e+00
     1536000   1.535999e-07   7.793852e-02   1.116405e+01   8.748870e+00  -1.435519e+05  -5.034795e+03  -3.321465e+04   1.838163e+09  -4.847636e+10  -5.962303e+08   1.474304e+05   1.822873e-29   0.000000e+00   0.000000e+00
     1544000   1.543999e-07   7.782368e-02   1.116404e+01   8.748843e+00  -1.435504e+05  -5.073576e+03  -3.321513e+04   1.851100e+09  -4.847543e+10  -5.955924e+08   1.474304e+05   1.822839e-29   0.000000e+00   0.000000e+00
     1552000   1.551999e-07   7.770884e-02   1.116404e+01   8.748817e+00  -1.435490e+05  -5.112356e+03  -3.321560e+04   1.864036e+09  -4.847449e+10  -5.949548e+08   1.474304e+05   1.822805e-29   0.000000e+00   0.000000e+00
     1560000   1.559999e-07   7.759400e-02   1.116403e+01   8.748790e+00  -1.435475e+05  -5.151135e+03  -3.321608e+04   1.876971e+09  -4.847354e+10  -5.943175e+08   1.474304e+05   1.822771e-29   0.000000e+00   0.000000e+00
     1568000   1.567999e-07   7.747917e-02   1.116403e+01   8.748763e+00  -1.435459e+05  -5.189913e+03  -3.321655e+04   1.889906e+09  -4.847260e+10  -5.936805e+08   1.474304e+05   1.822737e-29   0.000000e+00   0.000000e+00
     1576000   1.575999e-07   7.736433e-02   1.116403e+01   8.748737e+00  -1.435444e+05  -5.228691e+03  -3.321703e+04   1.902841e+09  -4.847165e+10  -5.930438e+08   1.474304e+05   1.822703e-29   0.000000e+00   0.000000e+00
     1584000   1.583999e-07   7.724949e-02   1.116402e+01   8.748710e+00  -1.435429e+05  -5.267468e+03  -3.321750e+04   1.915775e+09  -4.847070e+10  -5.924073e+08   1.474304e+05   1.822669e-29   0.000000e+00   0.000000e+00
     1592000   1.591999e-07   7.713466e-02   1.116402e+01   8.748684e+00  -1.435414e+05  -5.306244e+03  -3.321798e+04   1.928709e+09  -4.846974e+10  -5.917712e+08   1.474304e+05   1.822636e-29   0.000000e+00   0.000000e+00
     1600000   1.599999e-07   7.701983e-02   1.116401e+01   8.748657e+00  -1.435398e+05  -5.345020e+03  -3.321845e+04   1.941642e+09  -4.846878e+10  -5.911354e+08   1.474304e+05   1.822602e-29   0.000000e+00   0.000000e+00
     1608000   1.607999e-07   7.690500e-02   1.116401e+01   8.748631e+00  -1.435383e+05  -5.383794e+03  -3.321892e+04   1.954575e+09  -4.846781e+10  -5.904998e+08   1.474304e+05   1.822568e-29   0.000000e+00   0.000000e+00
     1616000   1.615999e-07   7.679017e-02   1.116400e+01   8.748604e+00  -1.435367e+05  -5.422568e+03  -3.321939e+04   1.967507e+09  -4.846685e+10  -5.898646e+08   1.474304e+05   1.822534e-29   0.000000e+00   0.000000e+00
     1624000   1.623999e-07   7.667534e-02   1.116400e+01   8.748577e+00  -1.435351e+05  -5.461341e+03  -3.321986e+04   1.980439e+09  -4.846587e+10  -5.892296e+08   1.474304e+05   1.822500e-29   0.000000e+00   0.000000e+00
     1632000   1.631999e-07   7.656051e-02   1.116400e+01   8.748551e+00  -1.435335e+05  -5.500114e+03  -3.322034e+04   1.993371e+09  -4.846490e+10  -5.885950e+08   1.474304e+05   1.822466e-29   0.000000e+00   0.000000e+00
     1640000   1.639999e-07   7.644569e-02   1.116399e+01   8.748524e+00  -1.435319e+05  -5.538885e+03  -3.322081e+04   2.006302e+09  -4.846392e+10  -5.879606e+08   1.474304e+05   1.822432e-29   0.000000e+00   0.000000e+00
     1648000   1.647999e-07   7.633086e-02   1.116399e+01   8.748498e+00  -1.435303e+05  -5.577656e+03  -3.322128e+04   2.019233e+09  -4.846294e+10  -5.873266e+08   1.474304e+05   1.822398e-29   0.000000e+00   0.000000e+00
     1656000   1.655999e-07   7.621604e-02   1.116398e+01   8.748471e+00  -1.435287e+05  -5.616426e+03  -3.322175e+04   2.032163e+09  -4.846195e+10  -5.866928e+08   1.474304e+05   1.822364e-29   0.000000e+00   0.000000e+00
     1664000   1.663999e-07   7.610121e-02   1.116398e+01   8.748445e+00  -1.435271e+05  -5.655195e+03  -3.322222e+04   2.045093e+09  -4.846096e+10  -5.860593e+08   1.474304e+05   1.822330e-29   0.000000e+00   0.000000e+00
     1672000   1.671999e-07   7.598639e-02   1.116397e+01   8.748418e+00  -1.435254e+05  -5.693963e+03  -3.322268e+04   2.058022e+09  -4.845997e+10  -5.854262e+08   1.474304e+05   1.822296e-29   0.000000e+00   0.000000e+00
     1680000   1.679999e-07   7.587157e-02   1.116397e+01   8.748391e+00  -1.435238e+05  -5.732731e+03  -3.322315e+04   2.070951e+09  -4.845897e+10  -5.847933e+08   1.474304e+05   1.822262e-29   0.000000e+00   0.000000e+00
     1688000   1.687999e-07   7.575676e-02   1.116396e+01   8.748365e+00  -1.435221e+05  -5.771498e+03  -3.322362e+04   2.083879e+09  -4.845797e+10  -5.841607e+08   1.474304e+05   1.822228e-29   0.000000e+00   0.000000e+00
     1696000   1.695999e-07   7.564194e-02   1.116396e+01   8.748338e+00  -1.435204e+05  -5.810264e+03  -3.322409e+04   2.096808e+09  -4.845697e+10  -5.835284e+08   1.474304e+05   1.822194e-29   0.000000e+00   0.000000e+00
     1704000   1.703999e-07   7.552712e-02   1.116395e+01   8.748312e+00  -1.435188e+05  -5.849029e+03  -3.322455e+04   2.109735e+09  -4.845596e+10  -5.828964e+08   1.474304e+05   1.822159e-29   0.000000e+00   0.000000e+00
     1712000   1.711999e-07   7.541231e-02   1.116395e+01   8.748285e+00  -1.435171e+05  -5.887793e+03  -3.322502e+04   2.122662e+09  -4.845495e+10  -5.822647e+08   1.474304e+05   1.822125e-29   0.000000e+00   0.000000e+00
     1720000   1.719999e-07   7.529750e-02   1.116395e+01   8.748259e+00  -1.435154e+05  -5.926557e+03  -3.322548e+04   2.135589e+09  -4.845393e+10  -5.816333e+08   1.474304e+05   1.822091e-29   0.000000e+00   0.000000e+00
     1728000   1.727999e-07   7.518268e-02   1.116394e+01   8.748232e+00  -1.435136e+05  -5.965319e+03  -3.322595e+04   2.148515e+09  -4.845292e+10  -5.810022e+08   1.474304e+05   1.822057e-29   0.000000e+00   0.000000e+00
     1736000   1.735999e-07   7.506787e-02   1.116394e+01   8.748205e+00  -1.435119e+05  -6.004081e+03  -3.322641e+04   2.161441e+09  -4.845189e+10  -5.803714e+08   1.474304e+05   1.822023e-29   0.000000e+00   0.000000e+00
     1744000   1.743999e-07   7.495306e-02   1.116393e+01   8.748179e+00  -1.435102e+05  -6.042843e+03  -3.322688e+04   2.174366e+09  -4.845087e+10  -5.797409e+08   1.474304e+05   1.821989e-29   0.000000e+00   0.000000e+00
     1752000   1.751999e-07   7.483826e-02   1.116393e+01   8.748152e+00  -1.435084e+05  -6.081603e+03  -3.322734e+04   2.187291e+09  -4.844984e+10  -5.791107e+08   1.474304e+05   1.821955e-29   0.000000e+00   0.000000e+00
     1760000   1.759999e-07   7.472345e-02   1.116392e+01   8.748126e+00  -1.435067e+05  -6.120362e+03  -3.322781e+04   2.200216e+09  -4.844881e+10  -5.784808e+08   1.474304e+05   1.821920e-29   0.000000e+00   0.000000e+00
     1768000   1.767999e-07   7.460865e-02   1.116392e+01   8.748099e+00  -1.435049e+05  -6.159121e+03  -3.322827e+04   2.213140e+09  -4.844777e+10  -5.778512e+08   1.474304e+05   1.821886e-29   0.000000e+00   0.000000e+00
     1776000   1.775999e-07   7.449384e-02   1.116391e+01   8.748072e+00  -1.435031e+05  -6.197879e+03  -3.322873e+04   2.226063e+09  -4.844673e+10  -5.772219e+08   1.474304e+05   1.821852e-29   0.000000e+00   0.000000e+00
     1784000   1.783999e-07   7.437904e-02   1.116391e+01   8.748046e+00  -1.435014e+05  -6.236636e+03  -3.322919e+04   2.238986e+09  -4.844568e+10  -5.765929e+08   1.474304e+05   1.821818e-29   0.000000e+00   0.000000e+00
     1792000   1.791999e-07   7.426424e-02   1.116390e+01   8.748019e+00  -1.434996e+05  -6.275392e+03  -3.322965e+04   2.251909e+09  -4.844464e+10  -5.759641e+08   1.474304e+05   1.821784e-29   0.000000e+00   0.000000e+00
     1800000   1.799999e-07   7.414944e-02   1.116390e+01   8.747993e+00  -1.434978e+05  -6.314147e+03  -3.323011e+04   2.264831e+09  -4.844359e+10  -5.753357e+08   1.474304e+05   1.821749e-29   0.000000e+00   0.000000e+00
     1808000   1.807999e-07   7.403464e-02   1.116389e+01   8.747966e+00  -1.434959e+05  -6.352902e+03  -3.323057e+04   2.277753e+09  -4.844253e+10  -5.747076e+08   1.474304e+05   1.821715e-29   0.000000e+00   0.000000e+00
     1816000   1.815999e-07   7.391985e-02   1.116389e+01   8.747940e+00  -1.434941e+05  -6.391655e+03  -3.323103e+04   2.290674e+09  -4.844147e+10  -5.740798e+08   1.474304e+05   1.821681e-29   0.000000e+00   0.000000e+00
     1824000   1.823999e-07   7.380505e-02   1.116388e+01   8.747913e+00  -1.434923e+05  -6.430408e+03  -3.323149e+04   2.303595e+09  -4.844041e+10  -5.734522e+08   1.474304e+05   1.821647e-29   0.000000e+00   0.000000e+00
     1832000   1.831999e-07   7.369026e-02   1.116388e+01   8.747886e+00  -1.434904e+05  -6.469160e+03  -3.323195e+04   2.316515e+09  -4.843934e+10  -5.728250e+08   1.474304e+05   1.821612e-29   0.000000e+00   0.000000e+00
     1840000   1.839999e-07   7.357547e-02   1.116387e+01   8.747860e+00  -1.434886e+05  -6.507911e+03  -3.323241e+04   2.329435e+09  -4.843827e+10  -5.721981e+08   1.474304e+05   1.821578e-29   0.000000e+00   0.000000e+00
     1848000   1.847999e-07   7.346068e-02   1.116387e+01   8.747833e+00  -1.434867e+05  -6.546661e+03  -3.323287e+04   2.342354e+09  -4.843720e+10  -5.715714e+08   1.474304e+05   1.821544e-29   0.000000e+00   0.000000e+00
     1856000   1.855999e-07   7.334589e-02   1.116386e+01   8.747807e+00  -1.434848e+05  -6.585410e+03  -3.323332e+04   2.355273e+09  -4.843612e+10  -5.709451e+08   1.474304e+05   1.821509e-29   0.000000e+00   0.000000e+00
     1864000   1.863999e-07   7.323110e-02   1.116385e+01   8.747780e+00  -1.434829e+05  -6.624159e+03  -3.323378e+04   2.368191e+09  -4.843504e+10  -5.703191e+08   1.474304e+05   1.821475e-29   0.000000e+00   0.000000e+00
     1872000   1.871999e-07   7.311632e-02   1.116385e+01   8.747753e+00  -1.434810e+05  -6.662906e+03  -3.323423e+04   2.381109e+09  -4.843396e+10  -5.696933e+08   1.474304e+05   1.821441e-29   0.000000e+00   0.000000e+00
     1880000   1.879999e-07   7.300153e-02   1.116384e+01   8.747727e+00  -1.434791e+05  -6.701653e+03  -3.323469e+04   2.394027e+09  -4.843287e+10  -5.690679e+08   1.474304e+05   1.821406e-29   0.000000e+00   0.000000e+00
     1888000   1.887999e-07   7.288675e-02   1.116384e+01   8.747700e+00  -1.434772e+05  -6.740399e+03  -3.323515e+04   2.406944e+09  -4.843178e+10  -5.684427e+08   1.474304e+05   1.821372e-29   0.000000e+00   0.000000e+00
     1896000   1.895999e-07   7.277197e-02   1.116383e+01   8.747674e+00  -1.434753e+05  -6.779144e+03  -3.323560e+04   2.419861e+09  -4.843069e+10  -5.678179e+08   1.474304e+05   1.821337e-29   0.000000e+00   0.000000e+00
     1904000   1.903999e-07   7.265719e-02   1.116383e+01   8.747647e+00  -1.434733e+05  -6.817888e+03  -3.323605e+04   2.432777e+09  -4.842959e+10  -5.671934e+08   1.474304e+05   1.821303e-29   0.000000e+00   0.000000e+00
     1912000   1.911999e-07   7.254241e-02   1.116382e+01   8.747620e+00  -1.434714e+05  -6.856631e+03  -3.323651e+04   2.445692e+09  -4.842849e+10  -5.665691e+08   1.474304e+05   1.821269e-29   0.000000e+00   0.000000e+00
     1920000   1.919999e-07   7.242764e-02   1.116382e+01   8.747594e+00  -1.434694e+05  -6.895374e+03  -3.323696e+04   2.458607e+09  -4.842738e+10  -5.659452e+08   1.474304e+05   1.821234e-29   0.000000e+00   0.000000e+00
     1928000   1.927999e-07   7.231286e-02   1.116381e+01   8.747567e+00  -1.434674e+05  -6.934115e+03  -3.323741e+04   2.471522e+09  -4.842627e+10  -5.653215e+08   1.474304e+05   1.821200e-29   0.000000e+00   0.000000e+00
     1936000   1.935999e-07   7.219809e-02   1.116381e+01   8.747541e+00  -1.434655e+05  -6.972856e+03  -3.323786e+04   2.484436e+09  -4.842516e+10  -5.646982e+08   1.474304e+05   1.821165e-29   0.000000e+00   0.000000e+00
     1944000   1.943999e-07   7.208332e-02   1.116380e+01   8.747514e+00  -1.434635e+05  -7.011595e+03  -3.323832e+04   2.497350e+09  -4.842404e+10  -5.640752e+08   1.474304e+05   1.821131e-29   0.000000e+00   0.000000e+00
     1952000   1.951999e-07   7.196855e-02   1.116379e+01   8.747488e+00  -1.434615e+05  -7.050334e+03  -3.323877e+04   2.510263e+09  -4.842292e+10  -5.634524e+08   1.474304e+05   1.821096e-29   0.000000e+00   0.000000e+00
     1960000   1.959999e-07   7.185378e-02   1.116379e+01   8.747461e+00  -1.434594e+05  -7.089072e+03  -3.323922e+04   2.523176e+09  -4.842180e+10  -5.628300e+08   1.474304e+05   1.821062e-29   0.000000e+00   0.000000e+00
     1968000   1.967999e-07   7.173901e-02   1.116378e+01   8.747434e+00  -1.434574e+05  -7.127809e+03  -3.323967e+04   2.536088e+09  -4.842067e+10  -5.622078e+08   1.474304e+05   1.821027e-29   0.000000e+00   0.000000e+00
     1976000   1.975999e-07   7.162425e-02   1.116378e+01   8.747408e+00  -1.434554e+05  -7.166545e+03  -3.324012e+04   2.549000e+09  -4.841954e+10  -5.615860e+08   1.474304e+05   1.820993e-29   0.000000e+00   0.000000e+00
     1984000   1.983999e-07   7.150948e-02   1.116377e+01   8.747381e+00  -1.434533e+05  -7.205280e+03  -3.324057e+04   2.561911e+09  -4.841841e+10  -5.609644e+08   1.474304e+05   1.820958e-29   0.000000e+00   0.000000e+00
     1992000   1.991999e-07   7.139472e-02   1.116377e+01   8.747355e+00  -1.434513e+05  -7.244015e+03  -3.324102e+04   2.574822e+09  -4.841727e+10  -5.603432e+08   1.474304e+05   1.820924e-29   0.000000e+00   0.000000e+00
     2000000   1.999999e-07   7.127996e-02   1.116376e+01   8.747328e+00  -1.434492e+05  -7.282748e+03  -3.324146e+04   2.587732e+09  -4.841613e+10  -5.597223e+08   1.474304e+05   1.820889e-29   0.000000e+00   0.000000e+00
     2008000   2.007999e-07   7.116520e-02   1.116375e+01   8.747301e+00  -1.434472e+05  -7.321480e+03  -3.324191e+04   2.600642e+09  -4.841498e+10  -5.591016e+08   1.474304e+05   1.820855e-29   0.000000e+00   0.000000e+00
     2016000   2.015999e-07   7.105045e-02   1.116375e+01   8.747275e+00  -1.434451e+05  -7.360212e+03  -3.324236e+04   2.613551e+09  -4.841383e+10  -5.584813e+08   1.474304e+05   1.820820e-29   0.000000e+00   0.000000e+00
     2024000   2.023999e-07   7.093569e-02   1.116374e+01   8.747248e+00  -1.434430e+05  -7.398943e+03  -3.324280e+04   2.626460e+09  -4.841268e+10  -5.578612e+08   1.474304e+05   1.820786e-29   0.000000e+00   0.000000e+00
     2032000   2.031999e-07   7.082094e-02   1.116374e+01   8.747222e+00  -1.434409e+05  -7.437672e+03  -3.324325e+04   2.639369e+09  -4.841152e+10  -5.572415e+08   1.474304e+05   1.820751e-29   0.000000e+00   0.000000e+00
     2040000   2.039999e-07   7.070619e-02   1.116373e+01   8.747195e+00  -1.434387e+05  -7.476401e+03  -3.324370e+04   2.652276e+09  -4.841036e+10  -5.566221e+08   1.474304e+05   1.820716e-29   0.000000e+00   0.000000e+00
     2048000   2.047999e-07   7.059144e-02   1.116372e+01   8.747168e+00  -1.434366e+05  -7.515129e+03  -3.324414e+04   2.665184e+09  -4.840920e+10  -5.560029e+08   1.474304e+05   1.820682e-29   0.000000e+00   0.000000e+00
     2056000   2.055999e-07   7.047669e-02   1.116372e+01   8.747142e+00  -1.434345e+05  -7.553856e+03  -3.324459e+04   2.678091e+09  -4.840803e+10  -5.553841e+08   1.474304e+05   1.820647e-29   0.000000e+00   0.000000e+00
     2064000   2.063999e-07   7.036194e-02   1.116371e+01   8.747115e+00  -1.434323e+05  -7.592582e+03  -3.324503e+04   2.690997e+09  -4.840686e+10  -5.547656e+08   1.474304e+05   1.820612e-29   0.000000e+00   0.000000e+00
     2072000   2.071999e-07   7.024720e-02   1.116371e+01   8.747089e+00  -1.434302e+05  -7.631307e+03  -3.324547e+04   2.703903e+09  -4.840569e+10  -5.541473e+08   1.474304e+05   1.820578e-29   0.000000e+00   0.000000e+00
     2080000   2.079999e-07   7.013245e-02   1.116370e+01   8.747062e+00  -1.434280e+05  -7.670031e+03  -3.324592e+04   2.716808e+09  -4.840451e+10  -5.535294e+08   1.474304e+05   1.820543e-29   0.000000e+00   0.000000e+00
     2088000   2.087999e-07   7.001771e-02   1.116369e+01   8.747035e+00  -1.434258e+05  -7.708754e+03  -3.324636e+04   2.729713e+09  -4.840333e+10  -5.529118e+08   1.474304e+05   1.820508e-29   0.000000e+00   0.000000e+00
     2096000   2.095999e-07   6.990297e-02   1.116369e+01   8.747009e+00  -1.434236e+05  -7.747476e+03  -3.324680e+04   2.742618e+09  -4.840214e+10  -5.522945e+08   1.474304e+05   1.820474e-29   0.000000e+00   0.000000e+00
     2104000   2.103999e-07   6.978823e-02   1.116368e+01   8.746982e+00  -1.434214e+05  -7.786197e+03  -3.324724e+04   2.755522e+09  -4.840095e+10  -5.516775e+08   1.474304e+05   1.820439e-29   0.000000e+00   0.000000e+00
     2112000   2.111999e-07   6.967350e-02   1.116368e+01   8.746956e+00  -1.434192e+05  -7.824918e+03  -3.324768e+04   2.768425e+09  -4.839976e+10  -5.510607e+08   1.474304e+05   1.820404e-29   0.000000e+00   0.000000e+00
     2120000   2.119999e-07   6.955876e-02   1.116367e+01   8.746929e+00  -1.434170e+05  -7.863637e+03  -3.324812e+04   2.781328e+09  -4.839856e+10  -5.504443e+08   1.474304e+05   1.820369e-29   0.000000e+00   0.000000e+00
     2128000   2.127999e-07   6.944403e-02   1.116366e+01   8.746902e+00  -1.434148e+05  -7.902355e+03  -3.324856e+04   2.794230e+09  -4.839736e+10  -5.498282e+08   1.474304e+05   1.820335e-29   0.000000e+00   0.000000e+00
     2136000   2.135999e-07   6.932930e-02   1.116366e+01   8.746876e+00  -1.434125e+05  -7.941073e+03  -3.324900e+04   2.807132e+09  -4.839616e+10  -5.492124e+08   1.474304e+05   1.820300e-29   0.000000e+00   0.000000e+00
     2144000   2.143999e-07   6.921457e-02   1.116365e+01   8.746849e+00  -1.434103e+05  -7.979789e+03  -3.324944e+04   2.820033e+09  -4.839495e+10  -5.485969e+08   1.474304e+05   1.820265e-29   0.000000e+00   0.000000e+00
     2152000   2.151999e-07   6.909984e-02   1.116364e+01   8.746823e+00  -1.434080e+05  -8.018505e+03  -3.324988e+04   2.832934e+09  -4.839374e+10  -5.479817e+08   1.474304e+05   1.820230e-29   0.000000e+00   0.000000e+00
     2160000   2.159999e-07   6.898512e-02   1.116364e+01   8.746796e+00  -1.434058e+05  -8.057219e+03  -3.325032e+04   2.845835e+09  -4.839253e+10  -5.473668e+08   1.474304e+05   1.820196e-29   0.000000e+00   0.000000e+00
     2168000   2.167999e-07   6.887039e-02   1.116363e+01   8.746769e+00  -1.434035e+05  -8.095933e+03  -3.325076e+04   2.858735e+09  -4.839131e+10  -5.467522e+08   1.474304e+05   1.820161e-29   0.000000e+00   0.000000e+00
     2176000   2.175999e-07   6.875567e-02   1.116362e+01   8.746743e+00  -1.434012e+05  -8.134645e+03  -3.325119e+04   2.871634e+09  -4.839009e+10  -5.461379e+08   1.474304e+05   1.820126e-29   0.000000e+00   0.000000e+00
     2184000   2.183999e-07   6.864095e-02   1.116362e+01   8.746716e+00  -1.433989e+05  -8.173357e+03  -3.325163e+04   2.884533e+09  -4.838886e+10  -5.455239e+08   1.474304e+05   1.820091e-29   0.000000e+00   0.000000e+00
     2192000   2.191999e-07   6.852623e-02   1.116361e+01   8.746690e+00  -1.433966e+05  -8.212067e+03  -3.325207e+04   2.897431e+09  -4.838763e+10  -5.449102e+08   1.474304e+05   1.820056e-29   0.000000e+00   0.000000e+00
     2200000   2.199999e-07   6.841152e-02   1.116360e+01   8.746663e+00  -1.433942e+05  -8.250777e+03  -3.325250e+04   2.910329e+09  -4.838640e+10  -5.442968e+08   1.474304e+05   1.820021e-29   0.000000e+00   0.000000e+00
     2208000   2.207999e-07   6.829680e-02   1.116360e+01   8.746636e+00  -1.433919e+05  -8.289486e+03  -3.325294e+04   2.923226e+09  -4.838517e+10  -5.436837e+08   1.474304e+05   1.819986e-29   0.000000e+00   0.000000e+00
     2216000   2.215999e-07   6.818209e-02   1.116359e+01   8.746610e+00  -1.433896e+05  -8.328193e+03  -3.325337e+04   2.936123e+09  -4.838393e+10  -5.430710e+08   1.474304e+05   1.819952e-29   0.000000e+00   0.000000e+00
     2224000   2.223999e-07   6.806738e-02   1.116359e+01   8.746583e+00  -1.433872e+05  -8.366900e+03  -3.325381e+04   2.949019e+09  -4.838268e+10  -5.424585e+08   1.474304e+05   1.819917e-29   0.000000e+00   0.000000e+00
     2232000   2.231999e-07   6.795267e-02   1.116358e+01   8.746557e+00  -1.433849e+05  -8.405606e+03  -3.325424e+04   2.961915e+09  -4.838144e+10  -5.418463e+08   1.474304e+05   1.819882e-29   0.000000e+00   0.000000e+00
     2240000   2.239999e-07   6.783796e-02   1.116357e+01   8.746530e+00  -1.433825e+05  -8.444310e+03  -3.325467e+04   2.974810e+09  -4.838019e+10  -5.412344e+08   1.474304e+05   1.819847e-29   0.000000e+00   0.000000e+00
     2248000   2.247999e-07   6.772326e-02   1.116356e+01   8.746503e+00  -1.433801e+05  -8.483014e+03  -3.325511e+04   2.987705e+09  -4.837893e+10  -5.406229e+08   1.474304e+05   1.819812e-29   0.000000e+00   0.000000e+00
     2256000   2.255999e-07   6.760855e-02   1.116356e+01   8.746477e+00  -1.433777e+05  -8.521716e+03  -3.325554e+04   3.000599e+09  -4.837767e+10  -5.400116e+08   1.474304e+05   1.819777e-29   0.000000e+00   0.000000e+00
     2264000   2.263999e-07   6.749385e-02   1.116355e+01   8.746450e+00  -1.433753e+05  -8.560418e+03  -3.325597e+04   3.013493e+09  -4.837641e+10  -5.394007e+08   1.474304e+05   1.819742e-29   0.000000e+00   0.000000e+00
     2272000   2.271999e-07   6.737915e-02   1.116354e+01   8.746424e+00  -1.433729e+05  -8.599119e+03  -3.325640e+04   3.026386e+09  -4.837515e+10  -5.387900e+08   1.474304e+05   1.819707e-29   0.000000e+00   0.000000e+00
     2280000   2.279999e-07   6.726446e-02   1.116354e+01   8.746397e+00  -1.433704e+05  -8.637818e+03  -3.325683e+04   3.039278e+09  -4.837388e+10  -5.381797e+08   1.474304e+05   1.819672e-29   0.000000e+00   0.000000e+00
     2288000   2.287999e-07   6.714976e-02   1.116353e+01   8.746370e+00  -1.433680e+05  -8.676517e+03  -3.325726e+04   3.052170e+09  -4.837261e+10  -5.375696e+08   1.474304e+05   1.819637e-29   0.000000e+00   0.000000e+00
     2296000   2.295999e-07   6.703507e-02   1.116352e+01   8.746344e+00  -1.433656e+05  -8.715215e+03  -3.325769e+04   3.065062e+09  -4.837133e+10  -5.369599e+08   1.474304e+05   1.819602e-29   0.000000e+00   0.000000e+00
     2304000   2.303999e-07   6.692038e-02   1.116352e+01   8.746317e+00  -1.433631e+05  -8.753911e+03  -3.325812e+04   3.077953e+09  -4.837005e+10  -5.363505e+08   1.474304e+05   1.819567e-29   0.000000e+00   0.000000e+00
     2312000   2.311999e-07   6.680569e-02   1.116351e+01   8.746291e+00  -1.433606e+05  -8.792607e+03  -3.325855e+04   3.090844e+09  -4.836877e+10  -5.357414e+08   1.474304e+05   1.819532e-29   0.000000e+00   0.000000e+00
     2320000   2.319999e-07   6.669100e-02   1.116350e+01   8.746264e+00  -1.433582e+05  -8.831301e+03  -3.325898e+04   3.103734e+09  -4.836748e+10  -5.351325e+08   1.474304e+05   1.819497e-29   0.000000e+00   0.000000e+00
     2328000   2.327999e-07   6.657631e-02   1.116350e+01   8.746237e+00  -1.433557e+05  -8.869995e+03  -3.325941e+04   3.116623e+09  -4.836619e+10  -5.345240e+08   1.474304e+05   1.819462e-29   0.000000e+00   0.000000e+00
     2336000   2.335999e-07   6.646163e-02   1.116349e+01   8.746211e+00  -1.433532e+05  -8.908687e+03  -3.325983e+04   3.129512e+09  -4.836490e+10  -5.339158e+08   1.474304e+05   1.819427e-29   0.000000e+00   0.000000e+00
     2344000   2.343999e-07   6.634695e-02   1.116348e+01   8.746184e+00  -1.433507e+05  -8.947378e+03  -3.326026e+04   3.142400e+09  -4.836360e+10  -5.333079e+08   1.474304e+05   1.819392e-29   0.000000e+00   0.000000e+00
     2352000   2.351999e-07   6.623227e-02   1.116347e+01   8.746158e+00  -1.433481e+05  -8.986069e+03  -3.326069e+04   3.155288e+09  -4.836230e+10  -5.327003e+08   1.474304e+05   1.819357e-29   0.000000e+00   0.000000e+00
     2360000   2.359999e-07   6.611759e-02   1.116347e+01   8.746131e+00  -1.433456e+05  -9.024758e+03  -3.326111e+04   3.168175e+09  -4.836100e+10  -5.320930e+08   1.474304e+05   1.819321e-29   0.000000e+00   0.000000e+00
     2368000   2.367999e-07   6.600292e-02   1.116346e+01   8.746104e+00  -1.433431e+05  -9.063446e+03  -3.326154e+04   3.181062e+09  -4.835969e+10  -5.314860e+08   1.474304e+05   1.819286e-29   0.000000e+00   0.000000e+00
     2376000   2.375999e-07   6.588824e-02   1.116345e+01   8.746078e+00  -1.433405e+05  -9.102134e+03  -3.326196e+04   3.193948e+09  -4.835838e+10  -5.308794e+08   1.474304e+05   1.819251e-29   0.000000e+00   0.000000e+00
     2384000   2.383999e-07   6.577357e-02   1.116344e+01   8.746051e+00  -1.433380e+05  -9.140820e+03  -3.326239e+04   3.206834e+09  -4.835706e+10  -5.302730e+08   1.474304e+05   1.819216e-29   0.000000e+00   0.000000e+00
     2392000   2.391999e-07   6.565890e-02   1.116344e+01   8.746024e+00  -1.433354e+05  -9.179505e+03  -3.326281e+04   3.219719e+09  -4.835574e+10  -5.296669e+08   1.474304e+05   1.819181e-29   0.000000e+00   0.000000e+00
     2400000   2.399999e-07   6.554423e-02   1.116343e+01   8.745998e+00  -1.433328e+05  -9.218189e+03  -3.326324e+04   3.232604e+09  -4.835442e+10  -5.290612e+08   1.474304e+05   1.819146e-29   0.000000e+00   0.000000e+00
     2408000   2.407999e-07   6.542957e-02   1.116342e+01   8.745971e+00  -1.433302e+05  -9.256872e+03  -3.326366e+04   3.245488e+09  -4.835309e+10  -5.284557e+08   1.474304e+05   1.819110e-29   0.000000e+00   0.000000e+00
     2416000   2.415999e-07   6.531491e-02   1.116342e+01   8.745945e+00  -1.433276e+05  -9.295554e+03  -3.326408e+04   3.258372e+09  -4.835176e+10  -5.278506e+08   1.474304e+05   1.819075e-29   0.000000e+00   0.000000e+00
     2424000   2.423999e-07   6.520025e-02   1.116341e+01   8.745918e+00  -1.433250e+05  -9.334235e+03  -3.326450e+04   3.271255e+09  -4.835043e+10  -5.272457e+08   1.474304e+05   1.819040e-29   0.000000e+00   0.000000e+00
     2432000   2.431999e-07   6.508559e-02   1.116340e+01   8.745891e+00  -1.433224e+05  -9.372915e+03  -3.326493e+04   3.284137e+09  -4.834909e+10  -5.266412e+08   1.474304e+05   1.819005e-29   0.000000e+00   0.000000e+00
     2440000   2.439999e-07   6.497093e-02   1.116339e+01   8.745865e+00  -1.433198e+05  -9.411593e+03  -3.326535e+04   3.297019e+09  -4.834775e+10  -5.260370e+08   1.474304e+05   1.818970e-29   0.000000e+00   0.000000e+00
     2448000   2.447999e-07   6.485627e-02   1.116339e+01   8.745838e+00  -1.433171e+05  -9.450271e+03  -3.326577e+04   3.309900e+09  -4.834641e+10  -5.254330e+08   1.474304e+05   1.818934e-29   0.000000e+00   0.000000e+00
     2456000   2.455999e-07   6.474162e-02   1.116338e+01   8.745812e+00  -1.433145e+05  -9.488948e+03  -3.326619e+04   3.322781e+09  -4.834506e+10  -5.248294e+08   1.474304e+05   1.818899e-29   0.000000e+00   0.000000e+00
     2464000   2.463999e-07   6.462697e-02   1.116337e+01   8.745785e+00  -1.433118e+05  -9.527623e+03  -3.326661e+04   3.335661e+09  -4.834371e+10  -5.242261e+08   1.474304e+05   1.818864e-29   0.000000e+00   0.000000e+00
     2472000   2.471999e-07   6.451232e-02   1.116336e+01   8.745758e+00  -1.433091e+05  -9.566298e+03  -3.326703e+04   3.348541e+09  -4.834235e+10  -5.236231e+08   1.474304e+05   1.818828e-29   0.000000e+00   0.000000e+00
     2480000   2.479999e-07   6.439768e-02   1.116335e+01   8.745732e+00  -1.433064e+05  -9.604971e+03  -3.326744e+04   3.361420e+09  -4.834099e+10  -5.230204e+08   1.474304e+05   1.818793e-29   0.000000e+00   0.000000e+00
     2488000   2.487999e-07   6.428303e-02   1.116335e+01   8.745705e+00  -1.433037e+05  -9.643643e+03  -3.326786e+04   3.374299e+09  -4.833963e+10  -5.224181e+08   1.474304e+05   1.818758e-29   0.000000e+00   0.000000e+00
     2496000   2.495999e-07   6.416839e-02   1.116334e+01   8.745679e+00  -1.433010e+05  -9.682314e+03  -3.326828e+04   3.387177e+09  -4.833827e+10  -5.218160e+08   1.474304e+05   1.818723e-29   0.000000e+00   0.000000e+00
     2504000   2.503999e-07   6.405375e-02   1.116333e+01   8.745652e+00  -1.432983e+05  -9.720984e+03  -3.326870e+04   3.400054e+09  -4.833690e+10  -5.212142e+08   1.474304e+05   1.818687e-29   0.000000e+00   0.000000e+00
     2512000   2.511999e-07   6.393911e-02   1.116332e+01   8.745625e+00  -1.432956e+05  -9.759653e+03  -3.326911e+04   3.412931e+09  -4.833552e+10  -5.206128e+08   1.474304e+05   1.818652e-29   0.000000e+00   0.000000e+00
     2520000   2.519999e-07   6.382448e-02   1.116332e+01   8.745599e+00  -1.432929e+05  -9.798321e+03  -3.326953e+04   3.425808e+09  -4.833415e+10  -5.200116e+08   1.474304e+05   1.818617e-29   0.000000e+00   0.000000e+00
     2528000   2.527999e-07   6.370985e-02   1.116331e+01   8.745572e+00  -1.432901e+05  -9.836988e+03  -3.326995e+04   3.438683e+09  -4.833277e+10  -5.194108e+08   1.474304e+05   1.818581e-29   0.000000e+00   0.000000e+00
     2536000   2.535999e-07   6.359521e-02   1.116330e+01   8.745545e+00  -1.432874e+05  -9.875654e+03  -3.327036e+04   3.451559e+09  -4.833138e+10  -5.188102e+08   1.474304e+05   1.818546e-29   0.000000e+00   0.000000e+00
     2544000   2.543999e-07   6.348059e-02   1.116329e+01   8.745519e+00  -1.432846e+05  -9.914318e+03  -3.327078e+04   3.464433e+09  -4.832999e+10  -5.182100e+08   1.474304e+05   1.818510e-29   0.000000e+00   0.000000e+00
     2552000   2.551999e-07   6.336596e-02   1.116328e+01   8.745492e+00  -1.432818e+05  -9.952982e+03  -3.327119e+04   3.477308e+09  -4.832860e+10  -5.176101e+08   1.474304e+05   1.818475e-29   0.000000e+00   0.000000e+00
     2560000   2.559999e-07   6.325133e-02   1.116328e+01   8.745466e+00  -1.432790e+05  -9.991644e+03  -3.327160e+04   3.490181e+09  -4.832721e+10  -5.170105e+08   1.474304e+05   1.818440e-29   0.000000e+00   0.000000e+00
     2568000   2.567999e-07   6.313671e-02   1.116327e+01   8.745439e+00  -1.432762e+05  -1.003031e+04  -3.327202e+04   3.503054e+09  -4.832581e+10  -5.164112e+08   1.474304e+05   1.818404e-29   0.000000e+00   0.000000e+00
     2576000   2.575999e-07   6.302209e-02   1.116326e+01   8.745412e+00  -1.432734e+05  -1.006897e+04  -3.327243e+04   3.515927e+09  -4.832441e+10  -5.158122e+08   1.474304e+05   1.818369e-29   0.000000e+00   0.000000e+00
     2584000   2.583999e-07   6.290747e-02   1.116325e+01   8.745386e+00  -1.432706e+05  -1.010762e+04  -3.327284e+04   3.528799e+09  -4.832300e+10  -5.152135e+08   1.474304e+05   1.818333e-29   0.000000e+00   0.000000e+00
     2592000   2.591999e-07   6.279286e-02   1.116324e+01   8.745359e+00  -1.432678e+05  -1.014628e+04  -3.327326e+04   3.541670e+09  -4.832159e+10  -5.146151e+08   1.474304e+05   1.818298e-29   0.000000e+00   0.000000e+00
     2600000   2.599999e-07   6.267825e-02   1.116324e+01   8.745332e+00  -1.432649e+05  -1.018494e+04  -3.327367e+04   3.554541e+09  -4.832018e+10  -5.140170e+08   1.474304e+05   1.818262e-29   0.000000e+00   0.000000e+00
     2608000   2.607999e-07   6.256364e-02   1.116323e+01   8.745306e+00  -1.432621e+05  -1.022359e+04  -3.327408e+04   3.567411e+09  -4.831876e+10  -5.134193e+08   1.474304e+05   1.818227e-29   0.000000e+00   0.000000e+00
     2616000   2.615999e-07   6.244903e-02   1.116322e+01   8.745279e+00  -1.432592e+05  -1.026225e+04  -3.327449e+04   3.580281e+09  -4.831734e+10  -5.128218e+08   1.474304e+05   1.818191e-29   0.000000e+00   0.000000e+00
     2624000   2.623999e-07   6.233442e-02   1.116321e+01   8.745253e+00  -1.432564e+05  -1.030090e+04  -3.327490e+04   3.593150e+09  -4.831592e+10  -5.122247e+08   1.474304e+05   1.818156e-29   0.000000e+00   0.000000e+00
     2632000   2.631999e-07   6.221982e-02   1.116320e+01   8.745226e+00  -1.432535e+05  -1.033955e+04  -3.327531e+04   3.606018e+09  -4.831449e+10  -5.116279e+08   1.474304e+05   1.818120e-29   0.000000e+00   0.000000e+00
     2640000   2.639999e-07   6.210522e-02   1.116320e+01   8.745199e+00  -1.432506e+05  -1.037821e+04  -3.327572e+04   3.618886e+09  -4.831306e+10  -5.110314e+08   1.474304e+05   1.818085e-29   0.000000e+00   0.000000e+00
     2648000   2.647999e-07   6.199062e-02   1.116319e+01   8.745173e+00  -1.432477e+05  -1.041686e+04  -3.327613e+04   3.631753e+09  -4.831163e+10  -5.104351e+08   1.474304e+05   1.818049e-29   0.000000e+00   0.000000e+00
     2656000   2.655999e-07   6.187602e-02   1.116318e+01   8.745146e+00  -1.432448e+05  -1.045550e+04  -3.327653e+04   3.644620e+09  -4.831019e+10  -5.098392e+08   1.474304e+05   1.818013e-29   0.000000e+00   0.000000e+00
     2664000   2.663999e-07   6.176142e-02   1.116317e+01   8.745120e+00  -1.432419e+05  -1.049415e+04  -3.327694e+04   3.657486e+09  -4.830875e+10  -5.092437e+08   1.474304e+05   1.817978e-29   0.000000e+00   0.000000e+00
     2672000   2.671999e-07   6.164683e-02   1.116316e+01   8.745093e+00  -1.432389e+05  -1.053280e+04  -3.327735e+04   3.670352e+09  -4.830730e+10  -5.086484e+08   1.474304e+05   1.817942e-29   0.000000e+00   0.000000e+00
     2680000   2.679999e-07   6.153224e-02   1.116315e+01   8.745066e+00  -1.432360e+05  -1.057144e+04  -3.327775e+04   3.683217e+09  -4.830585e+10  -5.080534e+08   1.474304e+05   1.817907e-29   0.000000e+00   0.000000e+00
     2688000   2.687999e-07   6.141765e-02   1.116314e+01   8.745040e+00  -1.432330e+05  -1.061009e+04  -3.327816e+04   3.696081e+09  -4.830440e+10  -5.074587e+08   1.474304e+05   1.817871e-29   0.000000e+00   0.000000e+00
     2696000   2.695999e-07   6.130307e-02   1.116314e+01   8.745013e+00  -1.432301e+05  -1.064873e+04  -3.327857e+04   3.708945e+09  -4.830295e+10  -5.068644e+08   1.474304e+05   1.817835e-29   0.000000e+00   0.000000e+00
     2704000   2.703999e-07   6.118849e-02   1.116313e+01   8.744986e+00  -1.432271e+05  -1.068737e+04  -3.327897e+04   3.721809e+09  -4.830149e+10  -5.062704e+08   1.474304e+05   1.817800e-29   0.000000e+00   0.000000e+00
     2712000   2.711999e-07   6.107391e-02   1.116312e+01   8.744960e+00  -1.432241e+05  -1.072601e+04  -3.327938e+04   3.734671e+09  -4.830002e+10  -5.056766e+08   1.474304e+05   1.817764e-29   0.000000e+00   0.000000e+00
     2720000   2.719999e-07   6.095933e-02   1.116311e+01   8.744933e+00  -1.432211e+05  -1.076465e+04  -3.327978e+04   3.747533e+09  -4.829856e+10  -5.050832e+08   1.474304e+05   1.817728e-29   0.000000e+00   0.000000e+00
     2728000   2.727999e-07   6.084475e-02   1.116310e+01   8.744907e+00  -1.432181e+05  -1.080329e+04  -3.328019e+04   3.760395e+09  -4.829709e+10  -5.044901e+08   1.474304e+05   1.817693e-29   0.000000e+00   0.000000e+00
     2736000   2.735999e-07   6.073018e-02   1.116309e+01   8.744880e+00  -1.432151e+05  -1.084193e+04  -3.328059e+04   3.773256e+09  -4.829561e+10  -5.038973e+08   1.474304e+05   1.817657e-29   0.000000e+00   0.000000e+00
     2744000   2.743999e-07   6.061561e-02   1.116308e+01   8.744853e+00  -1.432121e+05  -1.088056e+04  -3.328099e+04   3.786116e+09  -4.829413e+10  -5.033048e+08   1.474304e+05   1.817621e-29   0.000000e+00   0.000000e+00
     2752000   2.751999e-07   6.050104e-02   1.116308e+01   8.744827e+00  -1.432091e+05  -1.091920e+04  -3.328139e+04   3.798976e+09  -4.829265e+10  -5.027126e+08   1.474304e+05   1.817586e-29   0.000000e+00   0.000000e+00
     2760000   2.759999e-07   6.038647e-02   1.116307e+01   8.744800e+00  -1.432060e+05  -1.095783e+04  -3.328180e+04   3.811835e+09  -4.829117e+10  -5.021208e+08   1.474304e+05   1.817550e-29   0.000000e+00   0.000000e+00
     2768000   2.767999e-07   6.027191e-02   1.116306e+01   8.744773e+00  -1.432030e+05  -1.099646e+04  -3.328220e+04   3.824694e+09  -4.828968e+10  -5.015292e+08   1.474304e+05   1.817514e-29   0.000000e+00   0.000000e+00
     2776000   2.775999e-07   6.015735e-02   1.116305e+01   8.744747e+00  -1.431999e+05  -1.103509e+04  -3.328260e+04   3.837552e+09  -4.828819e+10  -5.009380e+08   1.474304e+05   1.817478e-29   0.000000e+00   0.000000e+00
     2784000   2.783999e-07   6.004279e-02   1.116304e+01   8.744720e+00  -1.431968e+05  -1.107372e+04  -3.328300e+04   3.850409e+09  -4.828669e+10  -5.003471e+08   1.474304e+05   1.817443e-29   0.000000e+00   0.000000e+00
     2792000   2.791999e-07   5.992823e-02   1.116303e+01   8.744694e+00  -1.431937e+05  -1.111235e+04  -3.328340e+04   3.863266e+09  -4.828519e+10  -4.997564e+08   1.474304e+05   1.817407e-29   0.000000e+00   0.000000e+00
     2800000   2.799999e-07   5.981368e-02   1.116302e+01   8.744667e+00  -1.431906e+05  -1.115098e+04  -3.328380e+04   3.876122e+09  -4.828369e+10  -4.991661e+08   1.474304e+05   1.817371e-29   0.000000e+00   0.000000e+00
     2808000   2.807999e-07   5.969913e-02   1.116301e+01   8.744640e+00  -1.431875e+05  -1.118961e+04  -3.328420e+04   3.888978e+09  -4.828218e+10  -4.985761e+08   1.474304e+05   1.817335e-29   0.000000e+00   0.000000e+00
     2816000   2.815999e-07   5.958458e-02   1.116300e+01   8.744614e+00  -1.431844e+05  -1.122823e+04  -3.328460e+04   3.901833e+09  -4.828067e+10  -4.979865e+08   1.474304e+05   1.817300e-29   0.000000e+00   0.000000e+00
     2824000   2.823999e-07   5.947003e-02   1.116300e+01   8.744587e+00  -1.431813e+05  -1.126686e+04  -3.328499e+04   3.914688e+09  -4.827916e+10  -4.973971e+08   1.474304e+05   1.817264e-29   0.000000e+00   0.000000e+00
     2832000   2.831999e-07   5.935549e-02   1.116299e+01   8.744560e+00  -1.431782e+05  -1.130548e+04  -3.328539e+04   3.927541e+09  -4.827764e+10  -4.968080e+08   1.474304e+05   1.817228e-29   0.000000e+00   0.000000e+00
     2840000   2.839999e-07   5.924095e-02   1.116298e+01   8.744534e+00  -1.431750e+05  -1.134410e+04  -3.328579e+04   3.940395e+09  -4.827612e+10  -4.962193e+08   1.474304e+05   1.817192e-29   0.000000e+00   0.000000e+00
     2848000   2.847999e-07   5.912641e-02   1.116297e+01   8.744507e+00  -1.431718e+05  -1.138272e+04  -3.328619e+04   3.953247e+09  -4.827460e+10  -4.956309e+08   1.474304e+05   1.817156e-29   0.000000e+00   0.000000e+00
     2856000   2.855999e-07   5.901187e-02   1.116296e+01   8.744481e+00  -1.431687e+05  -1.142134e+04  -3.328658e+04   3.966099e+09  -4.827307e+10  -4.950427e+08   1.474304e+05   1.817120e-29   0.000000e+00   0.000000e+00
     2864000   2.863999e-07   5.889734e-02   1.116295e+01   8.744454e+00  -1.431655e+05  -1.145996e+04  -3.328698e+04   3.978951e+09  -4.827154e+10  -4.944549e+08   1.474304e+05   1.817084e-29   0.000000e+00   0.000000e+00
     2872000   2.871999e-07   5.878281e-02   1.116294e+01   8.744427e+00  -1.431623e+05  -1.149857e+04  -3.328737e+04   3.991802e+09  -4.827000e+10  -4.938674e+08   1.474304e+05   1.817048e-29   0.000000e+00   0.000000e+00
     2880000   2.879999e-07   5.866828e-02   1.116293e+01   8.744401e+00  -1.431591e+05  -1.153719e+04  -3.328777e+04   4.004652e+09  -4.826846e+10  -4.932803e+08   1.474304e+05   1.817013e-29   0.000000e+00   0.000000e+00
     2888000   2.887999e-07   5.855375e-02   1.116292e+01   8.744374e+00  -1.431559e+05  -1.157580e+04  -3.328816e+04   4.017502e+09  -4.826692e+10  -4.926934e+08   1.474304e+05   1.816977e-29   0.000000e+00   0.000000e+00
     2896000   2.895999e-07   5.843923e-02   1.116291e+01   8.744347e+00  -1.431527e+05  -1.161442e+04  -3.328856e+04   4.030351e+09  -4.826538e+10  -4.921068e+08   1.474304e+05   1.816941e-29   0.000000e+00   0.000000e+00
     2904000   2.903999e-07   5.832471e-02   1.116290e+01   8.744321e+00  -1.431495e+05  -1.165303e+04  -3.328895e+04   4.043199e+09  -4.826383e+10  -4.915206e+08   1.474304e+05   1.816905e-29   0.000000e+00   0.000000e+00
     2912000   2.911999e-07   5.821019e-02   1.116289e+01   8.744294e+00  -1.431462e+05  -1.169164e+04  -3.328934e+04   4.056047e+09  -4.826227e+10  -4.909347e+08   1.474304e+05   1.816869e-29   0.000000e+00   0.000000e+00
     2920000   2.919999e-07   5.809568e-02   1.116289e+01   8.744267e+00  -1.431430e+05  -1.173025e+04  -3.328974e+04   4.068894e+09  -4.826072e+10  -4.903490e+08   1.474304e+05   1.816833e-29   0.000000e+00   0.000000e+00
     2928000   2.927999e-07   5.798116e-02   1.116288e+01   8.744241e+00  -1.431397e+05  -1.176886e+04  -3.329013e+04   4.081741e+09  -4.825916e+10  -4.897637e+08   1.474304e+05   1.816797e-29   0.000000e+00   0.000000e+00
     2936000   2.935999e-07   5.786665e-02   1.116287e+01   8.744214e+00  -1.431364e+05  -1.180746e+04  -3.329052e+04   4.094587e+09  -4.825759e+10  -4.891787e+08   1.474304e+05   1.816761e-29   0.000000e+00   0.000000e+00
     2944000   2.943999e-07   5.775214e-02   1.116286e+01   8.744188e+00  -1.431332e+05  -1.184607e+04  -3.329091e+04   4.107432e+09  -4.825603e+10  -4.885941e+08   1.474304e+05   1.816725e-29   0.000000e+00   0.000000e+00
     2952000   2.951999e-07   5.763764e-02   1.116285e+01   8.744161e+00  -1.431299e+05  -1.188467e+04  -3.329130e+04   4.120277e+09  -4.825445e+10  -4.880097e+08   1.474304e+05   1.816689e-29   0.000000e+00   0.000000e+00
     2960000   2.959999e-07   5.752314e-02   1.116284e+01   8.744134e+00  -1.431266e+05  -1.192328e+04  -3.329169e+04   4.133121e+09  -4.825288e+10  -4.874257e+08   1.474304e+05   1.816653e-29   0.000000e+00   0.000000e+00
     2968000   2.967999e-07   5.740864e-02   1.116283e+01   8.744108e+00  -1.431233e+05  -1.196188e+04  -3.329208e+04   4.145964e+09  -4.825130e+10  -4.868419e+08   1.474304e+05   1.816617e-29   0.000000e+00   0.000000e+00
     2976000   2.975999e-07   5.729414e-02   1.116282e+01   8.744081e+00  -1.431199e+05  -1.200048e+04  -3.329247e+04   4.158807e+09  -4.824972e+10  -4.862585e+08   1.474304e+05   1.816581e-29   0.000000e+00   0.000000e+00
     2984000   2.983999e-07   5.717965e-02   1.116281e+01   8.744054e+00  -1.431166e+05  -1.203908e+04  -3.329286e+04   4.171650e+09  -4.824813e+10  -4.856754e+08   1.474304e+05   1.816545e-29   0.000000e+00   0.000000e+00
     2992000   2.991999e-07   5.706515e-02   1.116280e+01   8.744028e+00  -1.431133e+05  -1.207767e+04  -3.329325e+04   4.184491e+09  -4.824655e+10  -4.850926e+08   1.474304e+05   1.816509e-29   0.000000e+00   0.000000e+00
     3000000   2.999999e-07   5.695066e-02   1.116279e+01   8.744001e+00  -1.431099e+05  -1.211627e+04  -3.329363e+04   4.197332e+09  -4.824495e+10  -4.845101e+08   1.474304e+05   1.816472e-29   0.000000e+00   0.000000e+00
     3008000   3.007999e-07   5.683618e-02   1.116278e+01   8.743975e+00  -1.431065e+05  -1.215487e+04  -3.329402e+04   4.210173e+09  -4.824336e+10  -4.839280e+08   1.474304e+05   1.816436e-29   0.000000e+00   0.000000e+00
     3016000   3.015999e-07   5.672169e-02   1.116277e+01   8.743948e+00  -1.431032e+05  -1.219346e+04  -3.329441e+04   4.223013e+09  -4.824176e+10  -4.833461e+08   1.474304e+05   1.816400e-29   0.000000e+00   0.000000e+00
     3024000   3.023999e-07   5.660721e-02   1.116276e+01   8.743921e+00  -1.430998e+05  -1.223205e+04  -3.329480e+04   4.235852e+09  -4.824015e+10  -4.827646e+08   1.474304e+05   1.816364e-29   0.000000e+00   0.000000e+00
     3032000   3.031999e-07   5.649273e-02   1.116275e+01   8.743895e+00  -1.430964e+05  -1.227064e+04  -3.329518e+04   4.248690e+09  -4.823855e+10  -4.821834e+08   1.474304e+05   1.816328e-29   0.000000e+00   0.000000e+00
     3040000   3.039999e-07   5.637826e-02   1.116274e+01   8.743868e+00  -1.430930e+05  -1.230924e+04  -3.329557e+04   4.261528e+09  -4.823694e+10  -4.816024e+08   1.474304e+05   1.816292e-29   0.000000e+00   0.000000e+00
     3048000   3.047999e-07   5.626378e-02   1.116273e+01   8.743841e+00  -1.430896e+05  -1.234782e+04  -3.329595e+04   4.274365e+09  -4.823532e+10  -4.810219e+08   1.474304e+05   1.816256e-29   0.000000e+00   0.000000e+00
     3056000   3.055999e-07   5.614931e-02   1.116272e+01   8.743815e+00  -1.430861e+05  -1.238641e+04  -3.329634e+04   4.287202e+09  -4.823370e+10  -4.804416e+08   1.474304e+05   1.816219e-29   0.000000e+00   0.000000e+00
     3064000   3.063999e-07   5.603485e-02   1.116271e+01   8.743788e+00  -1.430827e+05  -1.242500e+04  -3.329672e+04   4.300038e+09  -4.823208e+10  -4.798616e+08   1.474304e+05   1.816183e-29   0.000000e+00   0.000000e+00
     3072000   3.071999e-07   5.592038e-02   1.116270e+01   8.743761e+00  -1.430793e+05  -1.246358e+04  -3.329710e+04   4.312874e+09  -4.823046e+10  -4.792820e+08   1.474304e+05   1.816147e-29   0.000000e+00   0.000000e+00
     3080000   3.079999e-07   5.580592e-02   1.116269e+01   8.743735e+00  -1.430758e+05  -1.250217e+04  -3.329749e+04   4.325708e+09  -4.822883e+10  -4.787026e+08   1.474304e+05   1.816111e-29   0.000000e+00   0.000000e+00
     3088000   3.087999e-07   5.569146e-02   1.116268e+01   8.743708e+00  -1.430723e+05  -1.254075e+04  -3.329787e+04   4.338543e+09  -4.822720e+10  -4.781236e+08   1.474304e+05   1.816075e-29   0.000000e+00   0.000000e+00
     3096000   3.095999e-07   5.557700e-02   1.116267e+01   8.743682e+00  -1.430689e+05  -1.257933e+04  -3.329825e+04   4.351376e+09  -4.822556e+10  -4.775449e+08   1.474304e+05   1.816038e-29   0.000000e+00   0.000000e+00
     3104000   3.103999e-07   5.546255e-02   1.116266e+01   8.743655e+00  -1.430654e+05  -1.261791e+04  -3.329863e+04   4.364209e+09  -4.822392e+10  -4.769665e+08   1.474304e+05   1.816002e-29   0.000000e+00   0.000000e+00
     3112000   3.111999e-07   5.534810e-02   1.116265e+01   8.743628e+00  -1.430619e+05  -1.265649e+04  -3.329902e+04   4.377041e+09  -4.822228e+10  -4.763885e+08   1.474304e+05   1.815966e-29   0.000000e+00   0.000000e+00
     3120000   3.119999e-07   5.523365e-02   1.116264e+01   8.743602e+00  -1.430584e+05  -1.269507e+04  -3.329940e+04   4.389873e+09  -4.822063e+10  -4.758107e+08   1.474304e+05   1.815930e-29   0.000000e+00   0.000000e+00
     3128000   3.127999e-07   5.511921e-02   1.116263e+01   8.743575e+00  -1.430549e+05  -1.273364e+04  -3.329978e+04   4.402704e+09  -4.821898e+10  -4.752333e+08   1.474304e+05   1.815893e-29   0.000000e+00   0.000000e+00
     3136000   3.135999e-07   5.500476e-02   1.116262e+01   8.743548e+00  -1.430513e+05  -1.277222e+04  -3.330016e+04   4.415534e+09  -4.821733e+10  -4.746562e+08   1.474304e+05   1.815857e-29   0.000000e+00   0.000000e+00
     3144000   3.143999e-07   5.489032e-02   1.116261e+01   8.743522e+00  -1.430478e+05  -1.281079e+04  -3.330054e+04   4.428364e+09  -4.821567e+10  -4.740794e+08   1.474304e+05   1.815821e-29   0.000000e+00   0.000000e+00
     3152000   3.151999e-07   5.477589e-02   1.116260e+01   8.743495e+00  -1.430442e+05  -1.284936e+04  -3.330092e+04   4.441193e+09  -4.821401e+10  -4.735029e+08   1.474304e+05   1.815784e-29   0.000000e+00   0.000000e+00
     3160000   3.159999e-07   5.466145e-02   1.116259e+01   8.743468e+00  -1.430407e+05  -1.288793e+04  -3.330129e+04   4.454021e+09  -4.821235e+10  -4.729267e+08   1.474304e+05   1.815748e-29   0.000000e+00   0.000000e+00
     3168000   3.167999e-07   5.454702e-02   1.116258e+01   8.743442e+00  -1.430371e+05  -1.292650e+04  -3.330167e+04   4.466849e+09  -4.821068e+10  -4.723508e+08   1.474304e+05   1.815712e-29   0.000000e+00   0.000000e+00
     3176000   3.175999e-07   5.443259e-02   1.116257e+01   8.743415e+00  -1.430335e+05  -1.296507e+04  -3.330205e+04   4.479676e+09  -4.820901e+10  -4.717753e+08   1.474304e+05   1.815675e-29   0.000000e+00   0.000000e+00
     3184000   3.183999e-07   5.431817e-02   1.116256e+01   8.743388e+00  -1.430300e+05  -1.300364e+04  -3.330243e+04   4.492503e+09  -4.820733e+10  -4.712001e+08   1.474304e+05   1.815639e-29   0.000000e+00   0.000000e+00
     3192000   3.191999e-07   5.420375e-02   1.116255e+01   8.743362e+00  -1.430264e+05  -1.304220e+04  -3.330280e+04   4.505329e+09  -4.820565e+10  -4.706252e+08   1.474304e+05   1.815603e-29   0.000000e+00   0.000000e+00
     3200000   3.199999e-07   5.408933e-02   1.116254e+01   8.743335e+00  -1.430227e+05  -1.308076e+04  -3.330318e+04   4.518154e+09  -4.820397e+10  -4.700506e+08   1.474304e+05   1.815566e-29   0.000000e+00   0.000000e+00
     3208000   3.207999e-07   5.397491e-02   1.116253e+01   8.743309e+00  -1.430191e+05  -1.311933e+04  -3.330356e+04   4.530978e+09  -4.820229e+10  -4.694763e+08   1.474304e+05   1.815530e-29   0.000000e+00   0.000000e+00
     3216000   3.215999e-07   5.386050e-02   1.116252e+01   8.743282e+00  -1.430155e+05  -1.315789e+04  -3.330393e+04   4.543802e+09  -4.820060e+10  -4.689024e+08   1.474304e+05   1.815493e-29   0.000000e+00   0.000000e+00
     3224000   3.223999e-07   5.374609e-02   1.116251e+01   8.743255e+00  -1.430119e+05  -1.319645e+04  -3.330431e+04   4.556625e+09  -4.819890e+10  -4.683287e+08   1.474304e+05   1.815457e-29   0.000000e+00   0.000000e+00
     3232000   3.231999e-07   5.363168e-02   1.116250e+01   8.743229e+00  -1.430082e+05  -1.323501e+04  -3.330468e+04   4.569448e+09  -4.819721e+10  -4.677554e+08   1.474304e+05   1.815420e-29   0.000000e+00   0.000000e+00
     3240000   3.239999e-07   5.351727e-02   1.116249e+01   8.743202e+00  -1.430045e+05  -1.327356e+04  -3.330505e+04   4.582270e+09  -4.819551e+10  -4.671824e+08   1.474304e+05   1.815384e-29   0.000000e+00   0.000000e+00
     3248000   3.247999e-07   5.340287e-02   1.116247e+01   8.743175e+00  -1.430009e+05  -1.331212e+04  -3.330543e+04   4.595091e+09  -4.819380e+10  -4.666097e+08   1.474304e+05   1.815347e-29   0.000000e+00   0.000000e+00
     3256000   3.255999e-07   5.328847e-02   1.116246e+01   8.743149e+00  -1.429972e+05  -1.335067e+04  -3.330580e+04   4.607912e+09  -4.819210e+10  -4.660374e+08   1.474304e+05   1.815311e-29   0.000000e+00   0.000000e+00
     3264000   3.263999e-07   5.317407e-02   1.116245e+01   8.743122e+00  -1.429935e+05  -1.338923e+04  -3.330617e+04   4.620732e+09  -4.819039e+10  -4.654653e+08   1.474304e+05   1.815275e-29   0.000000e+00   0.000000e+00
     3272000   3.271999e-07   5.305968e-02   1.116244e+01   8.743095e+00  -1.429898e+05  -1.342778e+04  -3.330655e+04   4.633551e+09  -4.818867e+10  -4.648936e+08   1.474304e+05   1.815238e-29   0.000000e+00   0.000000e+00
     3280000   3.279999e-07   5.294529e-02   1.116243e+01   8.743069e+00  -1.429861e+05  -1.346633e+04  -3.330692e+04   4.646370e+09  -4.818695e+10  -4.643222e+08   1.474304e+05   1.815201e-29   0.000000e+00   0.000000e+00
     3288000   3.287999e-07   5.283090e-02   1.116242e+01   8.743042e+00  -1.429824e+05  -1.350488e+04  -3.330729e+04   4.659188e+09  -4.818523e+10  -4.637511e+08   1.474304e+05   1.815165e-29   0.000000e+00   0.000000e+00
     3296000   3.295999e-07   5.271652e-02   1.116241e+01   8.743015e+00  -1.429786e+05  -1.354342e+04  -3.330766e+04   4.672005e+09  -4.818351e+10  -4.631803e+08   1.474304e+05   1.815128e-29   0.000000e+00   0.000000e+00
     3304000   3.303999e-07   5.260214e-02   1.116240e+01   8.742989e+00  -1.429749e+05  -1.358197e+04  -3.330803e+04   4.684822e+09  -4.818178e+10  -4.626098e+08   1.474304e+05   1.815092e-29   0.000000e+00   0.000000e+00
     3312000   3.311999e-07   5.248776e-02   1.116239e+01   8.742962e+00  -1.429711e+05  -1.362052e+04  -3.330840e+04   4.697638e+09  -4.818005e+10  -4.620397e+08   1.474304e+05   1.815055e-29   0.000000e+00   0.000000e+00
     3320000   3.319999e-07   5.237338e-02   1.116238e+01   8.742936e+00  -1.429674e+05  -1.365906e+04  -3.330877e+04   4.710453e+09  -4.817831e+10  -4.614699e+08   1.474304e+05   1.815019e-29   0.000000e+00   0.000000e+00
     3328000   3.327999e-07   5.225901e-02   1.116237e+01   8.742909e+00  -1.429636e+05  -1.369760e+04  -3.330914e+04   4.723268e+09  -4.817657e+10  -4.609003e+08   1.474304e+05   1.814982e-29   0.000000e+00   0.000000e+00
     3336000   3.335999e-07   5.214464e-02   1.116236e+01   8.742882e+00  -1.429598e+05  -1.373614e+04  -3.330951e+04   4.736082e+09  -4.817483e+10  -4.603312e+08   1.474304e+05   1.814946e-29   0.000000e+00   0.000000e+00
     3344000   3.343999e-07   5.203028e-02   1.116234e+01   8.742856e+00  -1.429560e+05  -1.377468e+04  -3.330987e+04   4.748895e+09  -4.817308e+10  -4.597623e+08   1.474304e+05   1.814909e-29   0.000000e+00   0.000000e+00
     3352000   3.351999e-07   5.191591e-02   1.116233e+01   8.742829e+00  -1.429522e+05  -1.381322e+04  -3.331024e+04   4.761708e+09  -4.817133e+10  -4.591937e+08   1.474304e+05   1.814872e-29   0.000000e+00   0.000000e+00
     3360000   3.359999e-07   5.180155e-02   1.116232e+01   8.742802e+00  -1.429484e+05  -1.385175e+04  -3.331061e+04   4.774520e+09  -4.816958e+10  -4.586255e+08   1.474304e+05   1.814836e-29   0.000000e+00   0.000000e+00
     3368000   3.367999e-07   5.168719e-02   1.116231e+01   8.742776e+00  -1.429446e+05  -1.389029e+04  -3.331098e+04   4.787331e+09  -4.816782e+10  -4.580576e+08   1.474304e+05   1.814799e-29   0.000000e+00   0.000000e+00
     3376000   3.375999e-07   5.157284e-02   1.116230e+01   8.742749e+00  -1.429407e+05  -1.392882e+04  -3.331134e+04   4.800142e+09  -4.816606e+10  -4.574900e+08   1.474304e+05   1.814762e-29   0.000000e+00   0.000000e+00
     3384000   3.383999e-07   5.145849e-02   1.116229e+01   8.742722e+00  -1.429369e+05  -1.396736e+04  -3.331171e+04   4.812952e+09  -4.816429e+10  -4.569227e+08   1.474304e+05   1.814726e-29   0.000000e+00   0.000000e+00
     3392000   3.391999e-07   5.134414e-02   1.116228e+01   8.742696e+00  -1.429330e+05  -1.400589e+04  -3.331207e+04   4.825761e+09  -4.816253e+10  -4.563558e+08   1.474304e+05   1.814689e-29   0.000000e+00   0.000000e+00
     3400000   3.399999e-07   5.122980e-02   1.116227e+01   8.742669e+00  -1.429292e+05  -1.404442e+04  -3.331244e+04   4.838570e+09  -4.816075e+10  -4.557891e+08   1.474304e+05   1.814652e-29   0.000000e+00   0.000000e+00
     3408000   3.407999e-07   5.111545e-02   1.116226e+01   8.742642e+00  -1.429253e+05  -1.408294e+04  -3.331280e+04   4.851378e+09  -4.815898e+10  -4.552228e+08   1.474304e+05   1.814616e-29   0.000000e+00   0.000000e+00
     3416000   3.415999e-07   5.100112e-02   1.116224e+01   8.742616e+00  -1.429214e+05  -1.412147e+04  -3.331317e+04   4.864185e+09  -4.815720e+10  -4.546568e+08   1.474304e+05   1.814579e-29   0.000000e+00   0.000000e+00
     3424000   3.423999e-07   5.088678e-02   1.116223e+01   8.742589e+00  -1.429175e+05  -1.415999e+04  -3.331353e+04   4.876992e+09  -4.815542e+10  -4.540911e+08   1.474304e+05   1.814542e-29   0.000000e+00   0.000000e+00
     3432000   3.431999e-07   5.077245e-02   1.116222e+01   8.742562e+00  -1.429136e+05  -1.419852e+04  -3.331389e+04   4.889798e+09  -4.815363e+10  -4.535258e+08   1.474304e+05   1.814505e-29   0.000000e+00   0.000000e+00
     3440000   3.439999e-07   5.065812e-02   1.116221e+01   8.742536e+00  -1.429097e+05  -1.423704e+04  -3.331426e+04   4.902603e+09  -4.815184e+10  -4.529607e+08   1.474304e+05   1.814469e-29   0.000000e+00   0.000000e+00
     3448000   3.447999e-07   5.054379e-02   1.116220e+01   8.742509e+00  -1.429058e+05  -1.427556e+04  -3.331462e+04   4.915408e+09  -4.815005e+10  -4.523960e+08   1.474304e+05   1.814432e-29   0.000000e+00   0.000000e+00
     3456000   3.455999e-07   5.042947e-02   1.116219e+01   8.742482e+00  -1.429018e+05  -1.431408e+04  -3.331498e+04   4.928212e+09  -4.814825e+10  -4.518316e+08   1.474304e+05   1.814395e-29   0.000000e+00   0.000000e+00
     3464000   3.463999e-07   5.031515e-02   1.116218e+01   8.742456e+00  -1.428979e+05  -1.435260e+04  -3.331534e+04   4.941015e+09  -4.814645e+10  -4.512676e+08   1.474304e+05   1.814358e-29   0.000000e+00   0.000000e+00
     3472000   3.471999e-07   5.020083e-02   1.116216e+01   8.742429e+00  -1.428939e+05  -1.439111e+04  -3.331570e+04   4.953818e+09  -4.814465e+10  -4.507038e+08   1.474304e+05   1.814321e-29   0.000000e+00   0.000000e+00
     3480000   3.479999e-07   5.008652e-02   1.116215e+01   8.742403e+00  -1.428900e+05  -1.442963e+04  -3.331606e+04   4.966619e+09  -4.814284e+10  -4.501404e+08   1.474304e+05   1.814285e-29   0.000000e+00   0.000000e+00
     3488000   3.487999e-07   4.997221e-02   1.116214e+01   8.742376e+00  -1.428860e+05  -1.446814e+04  -3.331642e+04   4.979421e+09  -4.814103e+10  -4.495772e+08   1.474304e+05   1.814248e-29   0.000000e+00   0.000000e+00
     3496000   3.495999e-07   4.985790e-02   1.116213e+01   8.742349e+00  -1.428820e+05  -1.450666e+04  -3.331678e+04   4.992221e+09  -4.813921e+10  -4.490144e+08   1.474304e+05   1.814211e-29   0.000000e+00   0.000000e+00
     3504000   3.503999e-07   4.974360e-02   1.116212e+01   8.742323e+00  -1.428780e+05  -1.454517e+04  -3.331714e+04   5.005021e+09  -4.813740e+10  -4.484520e+08   1.474304e+05   1.814174e-29   0.000000e+00   0.000000e+00
     3512000   3.511999e-07   4.962930e-02   1.116211e+01   8.742296e+00  -1.428740e+05  -1.458368e+04  -3.331750e+04   5.017820e+09  -4.813557e+10  -4.478898e+08   1.474304e+05   1.814137e-29   0.000000e+00   0.000000e+00
     3520000   3.519999e-07   4.951500e-02   1.116209e+01   8.742269e+00  -1.428700e+05  -1.462218e+04  -3.331786e+04   5.030618e+09  -4.813375e+10  -4.473280e+08   1.474304e+05   1.814100e-29   0.000000e+00   0.000000e+00
     3528000   3.527999e-07   4.940071e-02   1.116208e+01   8.742243e+00  -1.428659e+05  -1.466069e+04  -3.331821e+04   5.043416e+09  -4.813192e+10  -4.467665e+08   1.474304e+05   1.814063e-29   0.000000e+00   0.000000e+00
     3536000   3.535999e-07   4.928641e-02   1.116207e+01   8.742216e+00  -1.428619e+05  -1.469919e+04  -3.331857e+04   5.056213e+09  -4.813009e+10  -4.462053e+08   1.474304e+05   1.814027e-29   0.000000e+00   0.000000e+00
     3544000   3.543999e-07   4.917213e-02   1.116206e+01   8.742189e+00  -1.428578e+05  -1.473770e+04  -3.331893e+04   5.069010e+09  -4.812825e+10  -4.456444e+08   1.474304e+05   1.813990e-29   0.000000e+00   0.000000e+00
     3552000   3.551999e-07   4.905784e-02   1.116205e+01   8.742163e+00  -1.428538e+05  -1.477620e+04  -3.331928e+04   5.081805e+09  -4.812641e+10  -4.450838e+08   1.474304e+05   1.813953e-29   0.000000e+00   0.000000e+00
     3560000   3.559999e-07   4.894356e-02   1.116204e+01   8.742136e+00  -1.428497e+05  -1.481470e+04  -3.331964e+04   5.094600e+09  -4.812457e+10  -4.445236e+08   1.474304e+05   1.813916e-29   0.000000e+00   0.000000e+00
     3568000   3.567999e-07   4.882928e-02   1.116202e+01   8.742109e+00  -1.428456e+05  -1.485320e+04  -3.332000e+04   5.107395e+09  -4.812272e+10  -4.439637e+08   1.474304e+05   1.813879e-29   0.000000e+00   0.000000e+00
     3576000   3.575999e-07   4.871501e-02   1.116201e+01   8.742083e+00  -1.428415e+05  -1.489170e+04  -3.332035e+04   5.120188e+09  -4.812087e+10  -4.434041e+08   1.474304e+05   1.813842e-29   0.000000e+00   0.000000e+00
     3584000   3.583999e-07   4.860074e-02   1.116200e+01   8.742056e+00  -1.428374e+05  -1.493019e+04  -3.332071e+04   5.132981e+09  -4.811902e+10  -4.428448e+08   1.474304e+05   1.813805e-29   0.000000e+00   0.000000e+00
     3592000   3.591999e-07   4.848647e-02   1.116199e+01   8.742029e+00  -1.428333e+05  -1.496869e+04  -3.332106e+04   5.145773e+09  -4.811716e+10  -4.422859e+08   1.474304e+05   1.813768e-29   0.000000e+00   0.000000e+00
     3600000   3.599999e-07   4.837220e-02   1.116198e+01   8.742003e+00  -1.428292e+05  -1.500718e+04  -3.332141e+04   5.158565e+09  -4.811530e+10  -4.417273e+08   1.474304e+05   1.813731e-29   0.000000e+00   0.000000e+00
     3608000   3.607999e-07   4.825794e-02   1.116196e+01   8.741976e+00  -1.428251e+05  -1.504567e+04  -3.332177e+04   5.171355e+09  -4.811344e+10  -4.411690e+08   1.474304e+05   1.813694e-29   0.000000e+00   0.000000e+00
     3616000   3.615999e-07   4.814368e-02   1.116195e+01   8.741949e+00  -1.428209e+05  -1.508416e+04  -3.332212e+04   5.184146e+09  -4.811157e+10  -4.406110e+08   1.474304e+05   1.813657e-29   0.000000e+00   0.000000e+00
     3624000   3.623999e-07   4.802943e-02   1.116194e+01   8.741923e+00  -1.428168e+05  -1.512265e+04  -3.332247e+04   5.196935e+09  -4.810970e+10  -4.400533e+08   1.474304e+05   1.813620e-29   0.000000e+00   0.000000e+00
     3632000   3.631999e-07   4.791518e-02   1.116193e+01   8.741896e+00  -1.428126e+05  -1.516114e+04  -3.332282e+04   5.209724e+09  -4.810782e+10  -4.394960e+08   1.474304e+05   1.813583e-29   0.000000e+00   0.000000e+00
     3640000   3.639999e-07   4.780093e-02   1.116192e+01   8.741869e+00  -1.428084e+05  -1.519962e+04  -3.332317e+04   5.222512e+09  -4.810594e+10  -4.389390e+08   1.474304e+05   1.813546e-29   0.000000e+00   0.000000e+00
     3648000   3.647999e-07   4.768668e-02   1.116190e+01   8.741843e+00  -1.428043e+05  -1.523811e+04  -3.332353e+04   5.235299e+09  -4.810406e+10  -4.383823e+08   1.474304e+05   1.813509e-29   0.000000e+00   0.000000e+00
     3656000   3.655999e-07   4.757244e-02   1.116189e+01   8.741816e+00  -1.428001e+05  -1.527659e+04  -3.332388e+04   5.248085e+09  -4.810217e+10  -4.378259e+08   1.474304e+05   1.813472e-29   0.000000e+00   0.000000e+00
     3664000   3.663999e-07   4.745820e-02   1.116188e+01   8.741789e+00  -1.427959e+05  -1.531507e+04  -3.332423e+04   5.260871e+09  -4.810028e+10  -4.372699e+08   1.474304e+05   1.813435e-29   0.000000e+00   0.000000e+00
     3672000   3.671999e-07   4.734397e-02   1.116187e+01   8.741763e+00  -1.427917e+05  -1.535355e+04  -3.332458e+04   5.273656e+09  -4.809839e+10  -4.367142e+08   1.474304e+05   1.813397e-29   0.000000e+00   0.000000e+00
     3680000   3.679999e-07   4.722974e-02   1.116185e+01   8.741736e+00  -1.427874e+05  -1.539203e+04  -3.332492e+04   5.286441e+09  -4.809650e+10  -4.361588e+08   1.474304e+05   1.813360e-29   0.000000e+00   0.000000e+00
     3688000   3.687999e-07   4.711551e-02   1.116184e+01   8.741709e+00  -1.427832e+05  -1.543050e+04  -3.332527e+04   5.299224e+09  -4.809459e+10  -4.356037e+08   1.474304e+05   1.813323e-29   0.000000e+00   0.000000e+00
     3696000   3.695999e-07   4.700128e-02   1.116183e+01   8.741683e+00  -1.427789e+05  -1.546898e+04  -3.332562e+04   5.312008e+09  -4.809269e+10  -4.350489e+08   1.474304e+05   1.813286e-29   0.000000e+00   0.000000e+00
     3704000   3.703999e-07   4.688706e-02   1.116182e+01   8.741656e+00  -1.427747e+05  -1.550745e+04  -3.332597e+04   5.324790e+09  -4.809078e+10  -4.344945e+08   1.474304e+05   1.813249e-29   0.000000e+00   0.000000e+00
     3712000   3.711999e-07   4.677284e-02   1.116181e+01   8.741629e+00  -1.427704e+05  -1.554592e+04  -3.332632e+04   5.337571e+09  -4.808887e+10  -4.339404e+08   1.474304e+05   1.813212e-29   0.000000e+00   0.000000e+00
     3720000   3.719999e-07   4.665863e-02   1.116179e+01   8.741603e+00  -1.427662e+05  -1.558439e+04  -3.332666e+04   5.350352e+09  -4.808696e+10  -4.333866e+08   1.474304e+05   1.813175e-29   0.000000e+00   0.000000e+00
     3728000   3.727999e-07   4.654442e-02   1.116178e+01   8.741576e+00  -1.427619e+05  -1.562286e+04  -3.332701e+04   5.363132e+09  -4.808504e+10  -4.328331e+08   1.474304e+05   1.813137e-29   0.000000e+00   0.000000e+00
     3736000   3.735999e-07   4.643021e-02   1.116177e+01   8.741549e+00  -1.427576e+05  -1.566133e+04  -3.332736e+04   5.375912e+09  -4.808312e+10  -4.322800e+08   1.474304e+05   1.813100e-29   0.000000e+00   0.000000e+00
     3744000   3.743999e-07   4.631600e-02   1.116176e+01   8.741523e+00  -1.427533e+05  -1.569980e+04  -3.332770e+04   5.388690e+09  -4.808119e+10  -4.317272e+08   1.474304e+05   1.813063e-29   0.000000e+00   0.000000e+00
     3752000   3.751999e-07   4.620180e-02   1.116174e+01   8.741496e+00  -1.427489e+05  -1.573826e+04  -3.332805e+04   5.401468e+09  -4.807927e+10  -4.311747e+08   1.474304e+05   1.813026e-29   0.000000e+00   0.000000e+00
     3760000   3.759999e-07   4.608761e-02   1.116173e+01   8.741469e+00  -1.427446e+05  -1.577672e+04  -3.332839e+04   5.414246e+09  -4.807733e+10  -4.306225e+08   1.474304e+05   1.812989e-29   0.000000e+00   0.000000e+00
     3768000   3.767999e-07   4.597341e-02   1.116172e+01   8.741443e+00  -1.427403e+05  -1.581518e+04  -3.332874e+04   5.427022e+09  -4.807540e+10  -4.300707e+08   1.474304e+05   1.812951e-29   0.000000e+00   0.000000e+00
     3776000   3.775999e-07   4.585922e-02   1.116170e+01   8.741416e+00  -1.427359e+05  -1.585364e+04  -3.332908e+04   5.439798e+09  -4.807346e+10  -4.295191e+08   1.474304e+05   1.812914e-29   0.000000e+00   0.000000e+00
     3784000   3.783999e-07   4.574503e-02   1.116169e+01   8.741389e+00  -1.427316e+05  -1.589210e+04  -3.332942e+04   5.452573e+09  -4.807152e+10  -4.289679e+08   1.474304e+05   1.812877e-29   0.000000e+00   0.000000e+00
     3792000   3.791999e-07   4.563085e-02   1.116168e+01   8.741363e+00  -1.427272e+05  -1.593056e+04  -3.332977e+04   5.465348e+09  -4.806957e+10  -4.284171e+08   1.474304e+05   1.812839e-29   0.000000e+00   0.000000e+00
     3800000   3.799999e-07   4.551667e-02   1.116167e+01   8.741336e+00  -1.427228e+05  -1.596901e+04  -3.333011e+04   5.478121e+09  -4.806762e+10  -4.278665e+08   1.474304e+05   1.812802e-29   0.000000e+00   0.000000e+00
     3808000   3.807999e-07   4.540249e-02   1.116165e+01   8.741310e+00  -1.427185e+05  -1.600747e+04  -3.333045e+04   5.490894e+09  -4.806567e+10  -4.273163e+08   1.474304e+05   1.812765e-29   0.000000e+00   0.000000e+00
     3816000   3.815999e-07   4.528832e-02   1.116164e+01   8.741283e+00  -1.427141e+05  -1.604592e+04  -3.333079e+04   5.503666e+09  -4.806371e+10  -4.267664e+08   1.474304e+05   1.812728e-29   0.000000e+00   0.000000e+00
     3824000   3.823999e-07   4.517415e-02   1.116163e+01   8.741256e+00  -1.427096e+05  -1.608437e+04  -3.333113e+04   5.516438e+09  -4.806175e+10  -4.262168e+08   1.474304e+05   1.812690e-29   0.000000e+00   0.000000e+00
     3832000   3.831999e-07   4.505999e-02   1.116162e+01   8.741230e+00  -1.427052e+05  -1.612282e+04  -3.333147e+04   5.529208e+09  -4.805978e+10  -4.256675e+08   1.474304e+05   1.812653e-29   0.000000e+00   0.000000e+00
     3840000   3.839999e-07   4.494582e-02   1.116160e+01   8.741203e+00  -1.427008e+05  -1.616126e+04  -3.333181e+04   5.541978e+09  -4.805782e+10  -4.251186e+08   1.474304e+05   1.812616e-29   0.000000e+00   0.000000e+00
     3848000   3.847999e-07   4.483166e-02   1.116159e+01   8.741176e+00  -1.426964e+05  -1.619971e+04  -3.333215e+04   5.554748e+09  -4.805584e+10  -4.245700e+08   1.474304e+05   1.812578e-29   0.000000e+00   0.000000e+00
     3856000   3.855999e-07   4.471751e-02   1.116158e+01   8.741150e+00  -1.426919e+05  -1.623815e+04  -3.333249e+04   5.567516e+09  -4.805387e+10  -4.240217e+08   1.474304e+05   1.812541e-29   0.000000e+00   0.000000e+00
     3864000   3.863999e-07   4.460336e-02   1.116156e+01   8.741123e+00  -1.426875e+05  -1.627660e+04  -3.333283e+04   5.580284e+09  -4.805189e+10  -4.234738e+08   1.474304e+05   1.812503e-29   0.000000e+00   0.000000e+00
     3872000   3.871999e-07   4.448921e-02   1.116155e+01   8.741096e+00  -1.426830e+05  -1.631504e+04  -3.333317e+04   5.593051e+09  -4.804991e+10  -4.229261e+08   1.474304e+05   1.812466e-29   0.000000e+00   0.000000e+00
     3880000   3.879999e-07   4.437507e-02   1.116154e+01   8.741070e+00  -1.426785e+05  -1.635347e+04  -3.333351e+04   5.605817e+09  -4.804792e+10  -4.223788e+08   1.474304e+05   1.812429e-29   0.000000e+00   0.000000e+00
     3888000   3.887999e-07   4.426092e-02   1.116152e+01   8.741043e+00  -1.426740e+05  -1.639191e+04  -3.333385e+04   5.618583e+09  -4.804593e+10  -4.218318e+08   1.474304e+05   1.812391e-29   0.000000e+00   0.000000e+00
     3896000   3.895999e-07   4.414679e-02   1.116151e+01   8.741016e+00  -1.426695e+05  -1.643035e+04  -3.333418e+04   5.631348e+09  -4.804394e+10  -4.212852e+08   1.474304e+05   1.812354e-29   0.000000e+00   0.000000e+00
     3904000   3.903999e-07   4.403265e-02   1.116150e+01   8.740990e+00  -1.426650e+05  -1.646878e+04  -3.333452e+04   5.644112e+09  -4.804194e+10  -4.207389e+08   1.474304e+05   1.812316e-29   0.000000e+00   0.000000e+00
     3912000   3.911999e-07   4.391852e-02   1.116148e+01   8.740963e+00  -1.426605e+05  -1.650722e+04  -3.333486e+04   5.656875e+09  -4.803994e+10  -4.201929e+08   1.474304e+05   1.812279e-29   0.000000e+00   0.000000e+00
     3920000   3.919999e-07   4.380440e-02   1.116147e+01   8.740936e+00  -1.426560e+05  -1.654565e+04  -3.333519e+04   5.669638e+09  -4.803794e+10  -4.196472e+08   1.474304e+05   1.812241e-29   0.000000e+00   0.000000e+00
     3928000   3.927999e-07   4.369027e-02   1.116146e+01   8.740910e+00  -1.426514e+05  -1.658408e+04  -3.333553e+04   5.682400e+09  -4.803593e+10  -4.191018e+08   1.474304e+05   1.812204e-29   0.000000e+00   0.000000e+00
     3936000   3.935999e-07   4.357615e-02   1.116145e+01   8.740883e+00  -1.426469e+05  -1.662250e+04  -3.333586e+04   5.695161e+09  -4.803392e+10  -4.185568e+08   1.474304e+05   1.812166e-29   0.000000e+00   0.000000e+00
     3944000   3.943999e-07   4.346204e-02   1.116143e+01   8.740856e+00  -1.426423e+05  -1.666093e+04  -3.333620e+04   5.707921e+09  -4.803191e+10  -4.180121e+08   1.474304e+05   1.812129e-29   0.000000e+00   0.000000e+00
     3952000   3.951999e-07   4.334793e-02   1.116142e+01   8.740830e+00  -1.426377e+05  -1.669936e+04  -3.333653e+04   5.720681e+09  -4.802989e+10  -4.174677e+08   1.474304e+05   1.812091e-29   0.000000e+00   0.000000e+00
     3960000   3.959999e-07   4.323382e-02   1.116141e+01   8.740803e+00  -1.426331e+05  -1.673778e+04  -3.333687e+04   5.733440e+09  -4.802787e+10  -4.169237e+08   1.474304e+05   1.812054e-29   0.000000e+00   0.000000e+00
     3968000   3.967999e-07   4.311971e-02   1.116139e+01   8.740776e+00  -1.426286e+05  -1.677620e+04  -3.333720e+04   5.746198e+09  -4.802585e+10  -4.163799e+08   1.474304e+05   1.812016e-29   0.000000e+00   0.000000e+00
     3976000   3.975999e-07   4.300561e-02   1.116138e+01   8.740749e+00  -1.426240e+05  -1.681462e+04  -3.333753e+04   5.758955e+09  -4.802382e+10  -4.158365e+08   1.474304e+05   1.811979e-29   0.000000e+00   0.000000e+00
     3984000   3.983999e-07   4.289151e-02   1.116136e+01   8.740723e+00  -1.426193e+05  -1.685304e+04  -3.333787e+04   5.771712e+09  -4.802179e+10  -4.152935e+08   1.474304e+05   1.811941e-29   0.000000e+00   0.000000e+00
     3992000   3.991999e-07   4.277742e-02   1.116135e+01   8.740696e+00  -1.426147e+05  -1.689145e+04  -3.333820e+04   5.784468e+09  -4.801975e+10  -4.147507e+08   1.474304e+05   1.811904e-29   0.000000e+00   0.000000e+00
     4000000   3.999999e-07   4.266333e-02   1.116134e+01   8.740669e+00  -1.426101e+05  -1.692987e+04  -3.333853e+04   5.797223e+09  -4.801771e+10  -4.142083e+08   1.474304e+05   1.811866e-29   0.000000e+00   0.000000e+00
     4008000   4.007999e-07   4.254925e-02   1.116132e+01   8.740643e+00  -1.426054e+05  -1.696828e+04  -3.333886e+04   5.809977e+09  -4.801567e+10  -4.136662e+08   1.474304e+05   1.811828e-29   0.000000e+00   0.000000e+00
     4016000   4.015999e-07   4.243516e-02   1.116131e+01   8.740616e+00  -1.426008e+05  -1.700669e+04  -3.333919e+04   5.822731e+09  -4.801362e+10  -4.131244e+08   1.474304e+05   1.811791e-29   0.000000e+00   0.000000e+00
     4024000   4.023999e-07   4.232108e-02   1.116130e+01   8.740589e+00  -1.425961e+05  -1.704510e+04  -3.333952e+04   5.835484e+09  -4.801157e+10  -4.125830e+08   1.474304e+05   1.811753e-29   0.000000e+00   0.000000e+00
     4032000   4.031999e-07   4.220701e-02   1.116128e+01   8.740563e+00  -1.425915e+05  -1.708351e+04  -3.333985e+04   5.848236e+09  -4.800952e+10  -4.120419e+08   1.474304e+05   1.811716e-29   0.000000e+00   0.000000e+00
     4040000   4.039999e-07   4.209294e-02   1.116127e+01   8.740536e+00  -1.425868e+05  -1.712192e+04  -3.334018e+04   5.860987e+09  -4.800746e+10  -4.115011e+08   1.474304e+05   1.811678e-29   0.000000e+00   0.000000e+00
     4048000   4.047999e-07   4.197887e-02   1.116126e+01   8.740509e+00  -1.425821e+05  -1.716033e+04  -3.334051e+04   5.873738e+09  -4.800540e+10  -4.109606e+08   1.474304e+05   1.811640e-29   0.000000e+00   0.000000e+00
     4056000   4.055999e-07   4.186481e-02   1.116124e+01   8.740483e+00  -1.425774e+05  -1.719873e+04  -3.334084e+04   5.886488e+09  -4.800334e+10  -4.104205e+08   1.474304e+05   1.811603e-29   0.000000e+00   0.000000e+00
     4064000   4.063999e-07   4.175075e-02   1.116123e+01   8.740456e+00  -1.425727e+05  -1.723713e+04  -3.334117e+04   5.899237e+09  -4.800127e+10  -4.098807e+08   1.474304e+05   1.811565e-29   0.000000e+00   0.000000e+00
     4072000   4.071999e-07   4.163669e-02   1.116121e+01   8.740429e+00  -1.425679e+05  -1.727553e+04  -3.334149e+04   5.911985e+09  -4.799920e+10  -4.093412e+08   1.474304e+05   1.811527e-29   0.000000e+00   0.000000e+00
     4080000   4.079999e-07   4.152264e-02   1.116120e+01   8.740403e+00  -1.425632e+05  -1.731393e+04  -3.334182e+04   5.924733e+09  -4.799713e+10  -4.088020e+08   1.474304e+05   1.811490e-29   0.000000e+00   0.000000e+00
     4088000   4.087999e-07   4.140859e-02   1.116119e+01   8.740376e+00  -1.425585e+05  -1.735233e+04  -3.334215e+04   5.937480e+09  -4.799505e+10  -4.082632e+08   1.474304e+05   1.811452e-29   0.000000e+00   0.000000e+00
     4096000   4.095999e-07   4.129454e-02   1.116117e+01   8.740349e+00  -1.425537e+05  -1.739072e+04  -3.334247e+04   5.950226e+09  -4.799297e+10  -4.077247e+08   1.474304e+05   1.811414e-29   0.000000e+00   0.000000e+00
     4104000   4.103999e-07   4.118050e-02   1.116116e+01   8.740323e+00  -1.425489e+05  -1.742911e+04  -3.334280e+04   5.962971e+09  -4.799088e+10  -4.071865e+08   1.474304e+05   1.811376e-29   0.000000e+00   0.000000e+00
     4112000   4.111999e-07   4.106647e-02   1.116115e+01   8.740296e+00  -1.425442e+05  -1.746751e+04  -3.334313e+04   5.975715e+09  -4.798880e+10  -4.066487e+08   1.474304e+05   1.811339e-29   0.000000e+00   0.000000e+00
     4120000   4.119999e-07   4.095243e-02   1.116113e+01   8.740269e+00  -1.425394e+05  -1.750590e+04  -3.334345e+04   5.988459e+09  -4.798670e+10  -4.061112e+08   1.474304e+05   1.811301e-29   0.000000e+00   0.000000e+00
     4128000   4.127999e-07   4.083840e-02   1.116112e+01   8.740243e+00  -1.425346e+05  -1.754429e+04  -3.334378e+04   6.001202e+09  -4.798461e+10  -4.055740e+08   1.474304e+05   1.811263e-29   0.000000e+00   0.000000e+00
     4136000   4.135999e-07   4.072438e-02   1.116110e+01   8.740216e+00  -1.425298e+05  -1.758267e+04  -3.334410e+04   6.013944e+09  -4.798251e+10  -4.050371e+08   1.474304e+05   1.811225e-29   0.000000e+00   0.000000e+00
     4144000   4.143999e-07   4.061036e-02   1.116109e+01   8.740189e+00  -1.425250e+05  -1.762106e+04  -3.334442e+04   6.026686e+09  -4.798041e+10  -4.045006e+08   1.474304e+05   1.811187e-29   0.000000e+00   0.000000e+00
     4152000   4.151999e-07   4.049634e-02   1.116107e+01   8.740163e+00  -1.425201e+05  -1.765944e+04  -3.334475e+04   6.039426e+09  -4.797830e+10  -4.039644e+08   1.474304e+05   1.811150e-29   0.000000e+00   0.000000e+00
     4160000   4.159999e-07   4.038232e-02   1.116106e+01   8.740136e+00  -1.425153e+05  -1.769782e+04  -3.334507e+04   6.052166e+09  -4.797619e+10  -4.034285e+08   1.474304e+05   1.811112e-29   0.000000e+00   0.000000e+00
     4168000   4.167999e-07   4.026831e-02   1.116105e+01   8.740109e+00  -1.425104e+05  -1.773620e+04  -3.334539e+04   6.064905e+09  -4.797408e+10  -4.028929e+08   1.474304e+05   1.811074e-29   0.000000e+00   0.000000e+00
     4176000   4.175999e-07   4.015431e-02   1.116103e+01   8.740083e+00  -1.425056e+05  -1.777458e+04  -3.334571e+04   6.077644e+09  -4.797196e+10  -4.023577e+08   1.474304e+05   1.811036e-29   0.000000e+00   0.000000e+00
     4184000   4.183999e-07   4.004030e-02   1.116102e+01   8.740056e+00  -1.425007e+05  -1.781296e+04  -3.334604e+04   6.090381e+09  -4.796984e+10  -4.018228e+08   1.474304e+05   1.810998e-29   0.000000e+00   0.000000e+00
     4192000   4.191999e-07   3.992630e-02   1.116100e+01   8.740029e+00  -1.424958e+05  -1.785133e+04  -3.334636e+04   6.103118e+09  -4.796771e+10  -4.012882e+08   1.474304e+05   1.810960e-29   0.000000e+00   0.000000e+00
     4200000   4.199999e-07   3.981231e-02   1.116099e+01   8.740003e+00  -1.424910e+05  -1.788971e+04  -3.334668e+04   6.115854e+09  -4.796559e+10  -4.007540e+08   1.474304e+05   1.810923e-29   0.000000e+00   0.000000e+00
     4208000   4.207999e-07   3.969832e-02   1.116098e+01   8.739976e+00  -1.424861e+05  -1.792808e+04  -3.334700e+04   6.128589e+09  -4.796346e+10  -4.002201e+08   1.474304e+05   1.810885e-29   0.000000e+00   0.000000e+00
     4216000   4.215999e-07   3.958433e-02   1.116096e+01   8.739949e+00  -1.424811e+05  -1.796645e+04  -3.334732e+04   6.141323e+09  -4.796132e+10  -3.996865e+08   1.474304e+05   1.810847e-29   0.000000e+00   0.000000e+00
     4224000   4.223999e-07   3.947035e-02   1.116095e+01   8.739923e+00  -1.424762e+05  -1.800482e+04  -3.334764e+04   6.154057e+09  -4.795918e+10  -3.991533e+08   1.474304e+05   1.810809e-29   0.000000e+00   0.000000e+00
     4232000   4.231999e-07   3.935637e-02   1.116093e+01   8.739896e+00  -1.424713e+05  -1.804318e+04  -3.334796e+04   6.166790e+09  -4.795704e+10  -3.986203e+08   1.474304e+05   1.810771e-29   0.000000e+00   0.000000e+00
     4240000   4.239999e-07   3.924240e-02   1.116092e+01   8.739869e+00  -1.424664e+05  -1.808155e+04  -3.334828e+04   6.179522e+09  -4.795490e+10  -3.980877e+08   1.474304e+05   1.810733e-29   0.000000e+00   0.000000e+00
     4248000   4.247999e-07   3.912842e-02   1.116090e+01   8.739843e+00  -1.424614e+05  -1.811991e+04  -3.334859e+04   6.192253e+09  -4.795275e+10  -3.975555e+08   1.474304e+05   1.810695e-29   0.000000e+00   0.000000e+00
     4256000   4.255999e-07   3.901446e-02   1.116089e+01   8.739816e+00  -1.424565e+05  -1.815827e+04  -3.334891e+04   6.204984e+09  -4.795060e+10  -3.970235e+08   1.474304e+05   1.810657e-29   0.000000e+00   0.000000e+00
     4264000   4.263999e-07   3.890049e-02   1.116087e+01   8.739789e+00  -1.424515e+05  -1.819663e+04  -3.334923e+04   6.217714e+09  -4.794844e+10  -3.964919e+08   1.474304e+05   1.810619e-29   0.000000e+00   0.000000e+00
     4272000   4.271999e-07   3.878653e-02   1.116086e+01   8.739763e+00  -1.424465e+05  -1.823499e+04  -3.334955e+04   6.230442e+09  -4.794628e+10  -3.959607e+08   1.474304e+05   1.810581e-29   0.000000e+00   0.000000e+00
     4280000   4.279999e-07   3.867258e-02   1.116084e+01   8.739736e+00  -1.424415e+05  -1.827335e+04  -3.334986e+04   6.243171e+09  -4.794412e+10  -3.954297e+08   1.474304e+05   1.810543e-29   0.000000e+00   0.000000e+00
     4288000   4.287999e-07   3.855863e-02   1.116083e+01   8.739709e+00  -1.424365e+05  -1.831170e+04  -3.335018e+04   6.255898e+09  -4.794195e+10  -3.948991e+08   1.474304e+05   1.810505e-29   0.000000e+00   0.000000e+00
