     timestep     time              x             y              z              vx             vy             vz             ax             ay             az         v_magnitude      ELoss        Electronic      Nuclear
           0   0.000000e+00   1.000000e-01   7.988682e+00   1.002358e+01  -7.182382e+05  -2.280109e+05  -7.393235e+04   0.000000e+00   0.000000e+00   0.000000e+00   7.571796e+05   0.000000e+00   0.000000e+00   0.000000e+00
        8000   7.999000e-10   9.942543e-02   7.988500e+00   1.002352e+01  -7.181889e+05  -2.281654e+05  -7.393395e+04   6.156651e+10  -1.931470e+11  -1.987083e+09   7.571796e+05   8.396138e-27   0.000000e+00   0.000000e+00
       16000   1.599900e-09   9.885090e-02   7.988317e+00   1.002346e+01  -7.181397e+05  -2.283199e+05  -7.393553e+04   6.160289e+10  -1.931197e+11  -1.980275e+09   7.571796e+05   8.394889e-27   0.000000e+00   0.000000e+00
       24000   2.399900e-09   9.827641e-02   7.988134e+00   1.002340e+01  -7.180904e+05  -2.284744e+05  -7.393711e+04   6.163926e+10  -1.930923e+11  -1.973474e+09   7.571796e+05   8.393639e-27   0.000000e+00   0.000000e+00
       32000   3.199900e-09   9.770195e-02   7.987951e+00   1.002335e+01  -7.180410e+05  -2.286289e+05  -7.393869e+04   6.167562e+10  -1.930649e+11  -1.966679e+09   7.571796e+05   8.392389e-27   0.000000e+00   0.000000e+00
       40000   3.999900e-09   9.712754e-02   7.987768e+00   1.002329e+01  -7.179917e+05  -2.287833e+05  -7.394026e+04   6.171196e+10  -1.930375e+11  -1.959892e+09   7.571796e+05   8.391139e-27   0.000000e+00   0.000000e+00
       48000   4.799900e-09   9.655317e-02   7.987585e+00   1.002323e+01  -7.179423e+05  -2.289377e+05  -7.394183e+04   6.174829e+10  -1.930101e+11  -1.953111e+09   7.571796e+05   8.389889e-27   0.000000e+00   0.000000e+00
       56000   5.599900e-09   9.597883e-02   7.987402e+00   1.002317e+01  -7.178929e+05  -2.290921e+05  -7.394339e+04   6.178461e+10  -1.929827e+11  -1.946337e+09   7.571796e+05   8.388639e-27   0.000000e+00   0.000000e+00
       64000   6.399900e-09   9.540454e-02   7.987219e+00   1.002311e+01  -7.178434e+05  -2.292465e+05  -7.394494e+04   6.182092e+10  -1.929553e+11  -1.939569e+09   7.571796e+05   8.387389e-27   0.000000e+00   0.000000e+00
       72000   7.199900e-09   9.483028e-02   7.987035e+00   1.002305e+01  -7.177940e+05  -2.294009e+05  -7.394649e+04   6.185722e+10  -1.929279e+11  -1.932809e+09   7.571796e+05   8.386138e-27   0.000000e+00   0.000000e+00
       80000   7.999900e-09   9.425607e-02   7.986852e+00   1.002299e+01  -7.177445e+05  -2.295552e+05  -7.394803e+04   6.189350e+10  -1.929004e+11  -1.926056e+09   7.571796e+05   8.384888e-27   0.000000e+00   0.000000e+00
       88000   8.799900e-09   9.368189e-02   7.986668e+00   1.002293e+01  -7.176949e+05  -2.297095e+05  -7.394957e+04   6.192977e+10  -1.928730e+11  -1.919309e+09   7.571796e+05   8.383637e-27   0.000000e+00   0.000000e+00
       96000   9.599900e-09   9.310776e-02   7.986484e+00   1.002287e+01  -7.176454e+05  -2.298638e+05  -7.395110e+04   6.196603e+10  -1.928455e+11  -1.912569e+09   7.571796e+05   8.382386e-27   0.000000e+00   0.000000e+00
      104000   1.039990e-08   9.253366e-02   7.986300e+00   1.002281e+01  -7.175958e+05  -2.300180e+05  -7.395263e+04   6.200228e+10  -1.928181e+11  -1.905836e+09   7.571796e+05   8.381136e-27   0.000000e+00   0.000000e+00
      112000   1.119990e-08   9.195960e-02   7.986116e+00   1.002275e+01  -7.175462e+05  -2.301723e+05  -7.395415e+04   6.203851e+10  -1.927906e+11  -1.899110e+09   7.571796e+05   8.379885e-27   0.000000e+00   0.000000e+00
      120000   1.199990e-08   9.138559e-02   7.985932e+00   1.002269e+01  -7.174965e+05  -2.303265e+05  -7.395567e+04   6.207474e+10  -1.927631e+11  -1.892390e+09   7.571796e+05   8.378634e-27   0.000000e+00   0.000000e+00
      128000   1.279990e-08   9.081161e-02   7.985748e+00   1.002264e+01  -7.174469e+05  -2.304807e+05  -7.395718e+04   6.211095e+10  -1.927356e+11  -1.885678e+09   7.571796e+05   8.377382e-27   0.000000e+00   0.000000e+00
      136000   1.359990e-08   9.023767e-02   7.985563e+00   1.002258e+01  -7.173972e+05  -2.306349e+05  -7.395869e+04   6.214714e+10  -1.927081e+11  -1.878972e+09   7.571796e+05   8.376131e-27   0.000000e+00   0.000000e+00
      144000   1.439990e-08   8.966377e-02   7.985379e+00   1.002252e+01  -7.173474e+05  -2.307890e+05  -7.396019e+04   6.218333e+10  -1.926806e+11  -1.872273e+09   7.571796e+05   8.374880e-27   0.000000e+00   0.000000e+00
      152000   1.519990e-08   8.908991e-02   7.985194e+00   1.002246e+01  -7.172977e+05  -2.309432e+05  -7.396168e+04   6.221950e+10  -1.926531e+11  -1.865581e+09   7.571796e+05   8.373628e-27   0.000000e+00   0.000000e+00
      160000   1.599990e-08   8.851610e-02   7.985009e+00   1.002240e+01  -7.172479e+05  -2.310973e+05  -7.396317e+04   6.225566e+10  -1.926256e+11  -1.858896e+09   7.571796e+05   8.372377e-27   0.000000e+00   0.000000e+00
      168000   1.679990e-08   8.794232e-02   7.984824e+00   1.002234e+01  -7.171980e+05  -2.312514e+05  -7.396466e+04   6.229181e+10  -1.925981e+11  -1.852217e+09   7.571796e+05   8.371125e-27   0.000000e+00   0.000000e+00
      176000   1.759990e-08   8.736858e-02   7.984639e+00   1.002228e+01  -7.171482e+05  -2.314054e+05  -7.396614e+04   6.232795e+10  -1.925705e+11  -1.845545e+09   7.571796e+05   8.369873e-27   0.000000e+00   0.000000e+00
      184000   1.839990e-08   8.679488e-02   7.984454e+00   1.002222e+01  -7.170983e+05  -2.315595e+05  -7.396761e+04   6.236407e+10  -1.925430e+11  -1.838881e+09   7.571796e+05   8.368621e-27   0.000000e+00   0.000000e+00
      192000   1.919990e-08   8.622122e-02   7.984269e+00   1.002216e+01  -7.170484e+05  -2.317135e+05  -7.396908e+04   6.240018e+10  -1.925154e+11  -1.832223e+09   7.571796e+05   8.367369e-27   0.000000e+00   0.000000e+00
      200000   1.999990e-08   8.564760e-02   7.984083e+00   1.002210e+01  -7.169985e+05  -2.318675e+05  -7.397054e+04   6.243628e+10  -1.924879e+11  -1.825571e+09   7.571796e+05   8.366117e-27   0.000000e+00   0.000000e+00
      208000   2.079990e-08   8.507402e-02   7.983898e+00   1.002204e+01  -7.169485e+05  -2.320215e+05  -7.397200e+04   6.247237e+10  -1.924603e+11  -1.818927e+09   7.571796e+05   8.364865e-27   0.000000e+00   0.000000e+00
      216000   2.159990e-08   8.450049e-02   7.983712e+00   1.002198e+01  -7.168985e+05  -2.321754e+05  -7.397345e+04   6.250845e+10  -1.924327e+11  -1.812289e+09   7.571796e+05   8.363612e-27   0.000000e+00   0.000000e+00
      224000   2.239990e-08   8.392699e-02   7.983526e+00   1.002193e+01  -7.168485e+05  -2.323294e+05  -7.397490e+04   6.254451e+10  -1.924051e+11  -1.805659e+09   7.571796e+05   8.362360e-27   0.000000e+00   0.000000e+00
      232000   2.319990e-08   8.335353e-02   7.983340e+00   1.002187e+01  -7.167985e+05  -2.324833e+05  -7.397634e+04   6.258056e+10  -1.923775e+11  -1.799035e+09   7.571796e+05   8.361107e-27   0.000000e+00   0.000000e+00
      240000   2.399990e-08   8.278011e-02   7.983154e+00   1.002181e+01  -7.167484e+05  -2.326372e+05  -7.397778e+04   6.261660e+10  -1.923499e+11  -1.792418e+09   7.571796e+05   8.359854e-27   0.000000e+00   0.000000e+00
      248000   2.479990e-08   8.220673e-02   7.982968e+00   1.002175e+01  -7.166983e+05  -2.327911e+05  -7.397921e+04   6.265262e+10  -1.923223e+11  -1.785807e+09   7.571796e+05   8.358601e-27   0.000000e+00   0.000000e+00
      256000   2.559990e-08   8.163339e-02   7.982782e+00   1.002169e+01  -7.166481e+05  -2.329449e+05  -7.398063e+04   6.268864e+10  -1.922947e+11  -1.779204e+09   7.571796e+05   8.357348e-27   0.000000e+00   0.000000e+00
      264000   2.639990e-08   8.106009e-02   7.982595e+00   1.002163e+01  -7.165980e+05  -2.330987e+05  -7.398206e+04   6.272464e+10  -1.922671e+11  -1.772607e+09   7.571796e+05   8.356095e-27   0.000000e+00   0.000000e+00
      272000   2.719990e-08   8.048684e-02   7.982409e+00   1.002157e+01  -7.165478e+05  -2.332525e+05  -7.398347e+04   6.276063e+10  -1.922394e+11  -1.766017e+09   7.571796e+05   8.354842e-27   0.000000e+00   0.000000e+00
      280000   2.799990e-08   7.991362e-02   7.982222e+00   1.002151e+01  -7.164976e+05  -2.334063e+05  -7.398488e+04   6.279660e+10  -1.922118e+11  -1.759434e+09   7.571796e+05   8.353589e-27   0.000000e+00   0.000000e+00
      288000   2.879990e-08   7.934044e-02   7.982035e+00   1.002145e+01  -7.164473e+05  -2.335601e+05  -7.398629e+04   6.283257e+10  -1.921841e+11  -1.752858e+09   7.571796e+05   8.352336e-27   0.000000e+00   0.000000e+00
      296000   2.959990e-08   7.876730e-02   7.981848e+00   1.002139e+01  -7.163970e+05  -2.337138e+05  -7.398769e+04   6.286852e+10  -1.921565e+11  -1.746289e+09   7.571796e+05   8.351082e-27   0.000000e+00   0.000000e+00
      304000   3.039990e-08   7.819420e-02   7.981661e+00   1.002133e+01  -7.163467e+05  -2.338675e+05  -7.398908e+04   6.290446e+10  -1.921288e+11  -1.739726e+09   7.571796e+05   8.349828e-27   0.000000e+00   0.000000e+00
      312000   3.119990e-08   7.762115e-02   7.981474e+00   1.002127e+01  -7.162964e+05  -2.340212e+05  -7.399047e+04   6.294039e+10  -1.921011e+11  -1.733171e+09   7.571796e+05   8.348575e-27   0.000000e+00   0.000000e+00
      320000   3.199990e-08   7.704813e-02   7.981287e+00   1.002122e+01  -7.162460e+05  -2.341749e+05  -7.399185e+04   6.297630e+10  -1.920734e+11  -1.726622e+09   7.571796e+05   8.347321e-27   0.000000e+00   0.000000e+00
      328000   3.279990e-08   7.647515e-02   7.981100e+00   1.002116e+01  -7.161956e+05  -2.343285e+05  -7.399323e+04   6.301220e+10  -1.920457e+11  -1.720080e+09   7.571796e+05   8.346067e-27   0.000000e+00   0.000000e+00
      336000   3.359990e-08   7.590222e-02   7.980912e+00   1.002110e+01  -7.161452e+05  -2.344822e+05  -7.399461e+04   6.304810e+10  -1.920180e+11  -1.713544e+09   7.571796e+05   8.344813e-27   0.000000e+00   0.000000e+00
      344000   3.439990e-08   7.532932e-02   7.980724e+00   1.002104e+01  -7.160947e+05  -2.346358e+05  -7.399597e+04   6.308397e+10  -1.919903e+11  -1.707016e+09   7.571796e+05   8.343559e-27   0.000000e+00   0.000000e+00
      352000   3.519990e-08   7.475647e-02   7.980537e+00   1.002098e+01  -7.160443e+05  -2.347893e+05  -7.399734e+04   6.311984e+10  -1.919626e+11  -1.700494e+09   7.571796e+05   8.342304e-27   0.000000e+00   0.000000e+00
      360000   3.599990e-08   7.418365e-02   7.980349e+00   1.002092e+01  -7.159937e+05  -2.349429e+05  -7.399869e+04   6.315569e+10  -1.919349e+11  -1.693979e+09   7.571796e+05   8.341050e-27   0.000000e+00   0.000000e+00
      368000   3.679990e-08   7.361088e-02   7.980161e+00   1.002086e+01  -7.159432e+05  -2.350964e+05  -7.400005e+04   6.319153e+10  -1.919071e+11  -1.687471e+09   7.571796e+05   8.339796e-27   0.000000e+00   0.000000e+00
      376000   3.759990e-08   7.303814e-02   7.979973e+00   1.002080e+01  -7.158926e+05  -2.352500e+05  -7.400139e+04   6.322736e+10  -1.918794e+11  -1.680970e+09   7.571796e+05   8.338541e-27   0.000000e+00   0.000000e+00
      384000   3.839990e-08   7.246545e-02   7.979784e+00   1.002074e+01  -7.158420e+05  -2.354034e+05  -7.400274e+04   6.326318e+10  -1.918516e+11  -1.674476e+09   7.571796e+05   8.337286e-27   0.000000e+00   0.000000e+00
      392000   3.919990e-08   7.189279e-02   7.979596e+00   1.002068e+01  -7.157914e+05  -2.355569e+05  -7.400407e+04   6.329898e+10  -1.918239e+11  -1.667988e+09   7.571796e+05   8.336031e-27   0.000000e+00   0.000000e+00
      400000   3.999990e-08   7.132018e-02   7.979407e+00   1.002062e+01  -7.157408e+05  -2.357104e+05  -7.400541e+04   6.333478e+10  -1.917961e+11  -1.661507e+09   7.571796e+05   8.334777e-27   0.000000e+00   0.000000e+00
      408000   4.079990e-08   7.074761e-02   7.979219e+00   1.002056e+01  -7.156901e+05  -2.358638e+05  -7.400673e+04   6.337056e+10  -1.917683e+11  -1.655034e+09   7.571796e+05   8.333522e-27   0.000000e+00   0.000000e+00
      416000   4.159990e-08   7.017508e-02   7.979030e+00   1.002050e+01  -7.156394e+05  -2.360172e+05  -7.400805e+04   6.340632e+10  -1.917405e+11  -1.648566e+09   7.571796e+05   8.332266e-27   0.000000e+00   0.000000e+00
      424000   4.239990e-08   6.960259e-02   7.978841e+00   1.002045e+01  -7.155886e+05  -2.361706e+05  -7.400937e+04   6.344208e+10  -1.917127e+11  -1.642106e+09   7.571796e+05   8.331011e-27   0.000000e+00   0.000000e+00
      432000   4.319990e-08   6.903014e-02   7.978652e+00   1.002039e+01  -7.155379e+05  -2.363239e+05  -7.401068e+04   6.347782e+10  -1.916849e+11  -1.635653e+09   7.571796e+05   8.329756e-27   0.000000e+00   0.000000e+00
      440000   4.399990e-08   6.845773e-02   7.978463e+00   1.002033e+01  -7.154871e+05  -2.364773e+05  -7.401199e+04   6.351355e+10  -1.916571e+11  -1.629206e+09   7.571796e+05   8.328500e-27   0.000000e+00   0.000000e+00
      448000   4.479990e-08   6.788536e-02   7.978274e+00   1.002027e+01  -7.154362e+05  -2.366306e+05  -7.401329e+04   6.354927e+10  -1.916293e+11  -1.622766e+09   7.571796e+05   8.327245e-27   0.000000e+00   0.000000e+00
      456000   4.559990e-08   6.731303e-02   7.978084e+00   1.002021e+01  -7.153854e+05  -2.367839e+05  -7.401458e+04   6.358497e+10  -1.916014e+11  -1.616333e+09   7.571796e+05   8.325989e-27   0.000000e+00   0.000000e+00
      464000   4.639990e-08   6.674074e-02   7.977895e+00   1.002015e+01  -7.153345e+05  -2.369371e+05  -7.401587e+04   6.362067e+10  -1.915736e+11  -1.609907e+09   7.571796e+05   8.324733e-27   0.000000e+00   0.000000e+00
      472000   4.719990e-08   6.616849e-02   7.977705e+00   1.002009e+01  -7.152836e+05  -2.370904e+05  -7.401716e+04   6.365635e+10  -1.915458e+11  -1.603487e+09   7.571796e+05   8.323477e-27   0.000000e+00   0.000000e+00
      480000   4.799990e-08   6.559629e-02   7.977516e+00   1.002003e+01  -7.152327e+05  -2.372436e+05  -7.401844e+04   6.369202e+10  -1.915179e+11  -1.597075e+09   7.571796e+05   8.322221e-27   0.000000e+00   0.000000e+00
      488000   4.879990e-08   6.502412e-02   7.977326e+00   1.001997e+01  -7.151817e+05  -2.373968e+05  -7.401971e+04   6.372767e+10  -1.914900e+11  -1.590669e+09   7.571796e+05   8.320965e-27   0.000000e+00   0.000000e+00
      496000   4.959990e-08   6.445199e-02   7.977136e+00   1.001991e+01  -7.151307e+05  -2.375500e+05  -7.402098e+04   6.376332e+10  -1.914622e+11  -1.584270e+09   7.571796e+05   8.319709e-27   0.000000e+00   0.000000e+00
      504000   5.039990e-08   6.387991e-02   7.976946e+00   1.001985e+01  -7.150797e+05  -2.377032e+05  -7.402225e+04   6.379895e+10  -1.914343e+11  -1.577878e+09   7.571796e+05   8.318453e-27   0.000000e+00   0.000000e+00
      512000   5.119990e-08   6.330787e-02   7.976755e+00   1.001979e+01  -7.150286e+05  -2.378563e+05  -7.402351e+04   6.383457e+10  -1.914064e+11  -1.571492e+09   7.571796e+05   8.317196e-27   0.000000e+00   0.000000e+00
      520000   5.199990e-08   6.273586e-02   7.976565e+00   1.001974e+01  -7.149775e+05  -2.380094e+05  -7.402476e+04   6.387018e+10  -1.913785e+11  -1.565114e+09   7.571796e+05   8.315940e-27   0.000000e+00   0.000000e+00
      528000   5.279990e-08   6.216390e-02   7.976375e+00   1.001968e+01  -7.149264e+05  -2.381625e+05  -7.402601e+04   6.390577e+10  -1.913506e+11  -1.558742e+09   7.571796e+05   8.314683e-27   0.000000e+00   0.000000e+00
      536000   5.359990e-08   6.159198e-02   7.976184e+00   1.001962e+01  -7.148753e+05  -2.383156e+05  -7.402726e+04   6.394135e+10  -1.913227e+11  -1.552377e+09   7.571796e+05   8.313426e-27   0.000000e+00   0.000000e+00
      544000   5.439990e-08   6.102010e-02   7.975993e+00   1.001956e+01  -7.148241e+05  -2.384686e+05  -7.402850e+04   6.397692e+10  -1.912948e+11  -1.546019e+09   7.571796e+05   8.312170e-27   0.000000e+00   0.000000e+00
      552000   5.519990e-08   6.044826e-02   7.975802e+00   1.001950e+01  -7.147729e+05  -2.386216e+05  -7.402973e+04   6.401248e+10  -1.912668e+11  -1.539667e+09   7.571796e+05   8.310913e-27   0.000000e+00   0.000000e+00
      560000   5.599990e-08   5.987647e-02   7.975611e+00   1.001944e+01  -7.147217e+05  -2.387746e+05  -7.403096e+04   6.404802e+10  -1.912389e+11  -1.533323e+09   7.571796e+05   8.309655e-27   0.000000e+00   0.000000e+00
      568000   5.679990e-08   5.930471e-02   7.975420e+00   1.001938e+01  -7.146704e+05  -2.389276e+05  -7.403218e+04   6.408356e+10  -1.912110e+11  -1.526985e+09   7.571796e+05   8.308398e-27   0.000000e+00   0.000000e+00
      576000   5.759990e-08   5.873299e-02   7.975229e+00   1.001932e+01  -7.146192e+05  -2.390806e+05  -7.403340e+04   6.411908e+10  -1.911830e+11  -1.520654e+09   7.571796e+05   8.307141e-27   0.000000e+00   0.000000e+00
      584000   5.839990e-08   5.816132e-02   7.975038e+00   1.001926e+01  -7.145678e+05  -2.392335e+05  -7.403462e+04   6.415459e+10  -1.911551e+11  -1.514330e+09   7.571796e+05   8.305884e-27   0.000000e+00   0.000000e+00
      592000   5.919990e-08   5.758968e-02   7.974846e+00   1.001920e+01  -7.145165e+05  -2.393864e+05  -7.403583e+04   6.419008e+10  -1.911271e+11  -1.508012e+09   7.571796e+05   8.304626e-27   0.000000e+00   0.000000e+00
      600000   5.999990e-08   5.701809e-02   7.974655e+00   1.001914e+01  -7.144651e+05  -2.395393e+05  -7.403703e+04   6.422556e+10  -1.910991e+11  -1.501702e+09   7.571796e+05   8.303369e-27   0.000000e+00   0.000000e+00
      608000   6.079990e-08   5.644654e-02   7.974463e+00   1.001908e+01  -7.144137e+05  -2.396922e+05  -7.403823e+04   6.426104e+10  -1.910711e+11  -1.495398e+09   7.571796e+05   8.302111e-27   0.000000e+00   0.000000e+00
      616000   6.159990e-08   5.587503e-02   7.974271e+00   1.001902e+01  -7.143623e+05  -2.398450e+05  -7.403942e+04   6.429649e+10  -1.910431e+11  -1.489101e+09   7.571796e+05   8.300853e-27   0.000000e+00   0.000000e+00
      624000   6.239990e-08   5.530356e-02   7.974079e+00   1.001897e+01  -7.143109e+05  -2.399979e+05  -7.404061e+04   6.433194e+10  -1.910151e+11  -1.482811e+09   7.571796e+05   8.299595e-27   0.000000e+00   0.000000e+00
      632000   6.319990e-08   5.473213e-02   7.973887e+00   1.001891e+01  -7.142594e+05  -2.401507e+05  -7.404180e+04   6.436737e+10  -1.909871e+11  -1.476528e+09   7.571796e+05   8.298337e-27   0.000000e+00   0.000000e+00
      640000   6.399990e-08   5.416075e-02   7.973695e+00   1.001885e+01  -7.142079e+05  -2.403034e+05  -7.404297e+04   6.440280e+10  -1.909591e+11  -1.470251e+09   7.571796e+05   8.297079e-27   0.000000e+00   0.000000e+00
      648000   6.479990e-08   5.358940e-02   7.973503e+00   1.001879e+01  -7.141564e+05  -2.404562e+05  -7.404415e+04   6.443820e+10  -1.909311e+11  -1.463982e+09   7.571796e+05   8.295821e-27   0.000000e+00   0.000000e+00
      656000   6.559990e-08   5.301810e-02   7.973310e+00   1.001873e+01  -7.141048e+05  -2.406089e+05  -7.404532e+04   6.447360e+10  -1.909030e+11  -1.457719e+09   7.571796e+05   8.294562e-27   0.000000e+00   0.000000e+00
      664000   6.639990e-08   5.244683e-02   7.973118e+00   1.001867e+01  -7.140532e+05  -2.407616e+05  -7.404648e+04   6.450899e+10  -1.908750e+11  -1.451463e+09   7.571796e+05   8.293304e-27   0.000000e+00   0.000000e+00
      672000   6.719990e-08   5.187561e-02   7.972925e+00   1.001861e+01  -7.140016e+05  -2.409143e+05  -7.404764e+04   6.454436e+10  -1.908469e+11  -1.445213e+09   7.571796e+05   8.292045e-27   0.000000e+00   0.000000e+00
      680000   6.799990e-08   5.130443e-02   7.972732e+00   1.001855e+01  -7.139499e+05  -2.410670e+05  -7.404879e+04   6.457972e+10  -1.908189e+11  -1.438971e+09   7.571796e+05   8.290787e-27   0.000000e+00   0.000000e+00
      688000   6.879990e-08   5.073329e-02   7.972540e+00   1.001849e+01  -7.138982e+05  -2.412196e+05  -7.404994e+04   6.461506e+10  -1.907908e+11  -1.432735e+09   7.571796e+05   8.289528e-27   0.000000e+00   0.000000e+00
      696000   6.959990e-08   5.016219e-02   7.972346e+00   1.001843e+01  -7.138465e+05  -2.413723e+05  -7.405108e+04   6.465040e+10  -1.907627e+11  -1.426506e+09   7.571796e+05   8.288269e-27   0.000000e+00   0.000000e+00
      704000   7.039990e-08   4.959114e-02   7.972153e+00   1.001837e+01  -7.137948e+05  -2.415249e+05  -7.405222e+04   6.468572e+10  -1.907347e+11  -1.420284e+09   7.571796e+05   8.287010e-27   0.000000e+00   0.000000e+00
      712000   7.119990e-08   4.902012e-02   7.971960e+00   1.001831e+01  -7.137430e+05  -2.416774e+05  -7.405336e+04   6.472103e+10  -1.907066e+11  -1.414069e+09   7.571796e+05   8.285751e-27   0.000000e+00   0.000000e+00
      720000   7.199990e-08   4.844915e-02   7.971767e+00   1.001825e+01  -7.136912e+05  -2.418300e+05  -7.405449e+04   6.475633e+10  -1.906785e+11  -1.407860e+09   7.571796e+05   8.284492e-27   0.000000e+00   0.000000e+00
      728000   7.279990e-08   4.787822e-02   7.971573e+00   1.001819e+01  -7.136394e+05  -2.419825e+05  -7.405561e+04   6.479162e+10  -1.906504e+11  -1.401659e+09   7.571796e+05   8.283233e-27   0.000000e+00   0.000000e+00
      736000   7.359990e-08   4.730732e-02   7.971379e+00   1.001814e+01  -7.135876e+05  -2.421350e+05  -7.405673e+04   6.482689e+10  -1.906222e+11  -1.395464e+09   7.571796e+05   8.281973e-27   0.000000e+00   0.000000e+00
      744000   7.439990e-08   4.673648e-02   7.971186e+00   1.001808e+01  -7.135357e+05  -2.422875e+05  -7.405784e+04   6.486215e+10  -1.905941e+11  -1.389276e+09   7.571796e+05   8.280714e-27   0.000000e+00   0.000000e+00
      752000   7.519990e-08   4.616567e-02   7.970992e+00   1.001802e+01  -7.134838e+05  -2.424400e+05  -7.405895e+04   6.489740e+10  -1.905660e+11  -1.383094e+09   7.571796e+05   8.279454e-27   0.000000e+00   0.000000e+00
      760000   7.599990e-08   4.559490e-02   7.970798e+00   1.001796e+01  -7.134319e+05  -2.425924e+05  -7.406006e+04   6.493263e+10  -1.905379e+11  -1.376920e+09   7.571796e+05   8.278195e-27   0.000000e+00   0.000000e+00
      768000   7.679990e-08   4.502418e-02   7.970604e+00   1.001790e+01  -7.133799e+05  -2.427448e+05  -7.406115e+04   6.496786e+10  -1.905097e+11  -1.370752e+09   7.571796e+05   8.276935e-27   0.000000e+00   0.000000e+00
      776000   7.759990e-08   4.445349e-02   7.970409e+00   1.001784e+01  -7.133279e+05  -2.428972e+05  -7.406225e+04   6.500307e+10  -1.904815e+11  -1.364591e+09   7.571796e+05   8.275675e-27   0.000000e+00   0.000000e+00
      784000   7.839990e-08   4.388285e-02   7.970215e+00   1.001778e+01  -7.132759e+05  -2.430496e+05  -7.406334e+04   6.503827e+10  -1.904534e+11  -1.358437e+09   7.571796e+05   8.274415e-27   0.000000e+00   0.000000e+00
      792000   7.919990e-08   4.331225e-02   7.970021e+00   1.001772e+01  -7.132239e+05  -2.432020e+05  -7.406442e+04   6.507345e+10  -1.904252e+11  -1.352290e+09   7.571796e+05   8.273155e-27   0.000000e+00   0.000000e+00
      800000   7.999990e-08   4.274169e-02   7.969826e+00   1.001766e+01  -7.131718e+05  -2.433543e+05  -7.406550e+04   6.510863e+10  -1.903970e+11  -1.346149e+09   7.571796e+05   8.271894e-27   0.000000e+00   0.000000e+00
      808000   8.079990e-08   4.217118e-02   7.969631e+00   1.001760e+01  -7.131197e+05  -2.435066e+05  -7.406658e+04   6.514379e+10  -1.903688e+11  -1.340016e+09   7.571796e+05   8.270634e-27   0.000000e+00   0.000000e+00
      816000   8.159990e-08   4.160070e-02   7.969436e+00   1.001754e+01  -7.130676e+05  -2.436589e+05  -7.406765e+04   6.517894e+10  -1.903407e+11  -1.333889e+09   7.571796e+05   8.269374e-27   0.000000e+00   0.000000e+00
      824000   8.239990e-08   4.103027e-02   7.969241e+00   1.001748e+01  -7.130154e+05  -2.438111e+05  -7.406871e+04   6.521407e+10  -1.903124e+11  -1.327769e+09   7.571796e+05   8.268113e-27   0.000000e+00   0.000000e+00
      832000   8.319990e-08   4.045988e-02   7.969046e+00   1.001742e+01  -7.129632e+05  -2.439634e+05  -7.406977e+04   6.524920e+10  -1.902842e+11  -1.321655e+09   7.571796e+05   8.266853e-27   0.000000e+00   0.000000e+00
      840000   8.399990e-08   3.988953e-02   7.968851e+00   1.001737e+01  -7.129110e+05  -2.441156e+05  -7.407082e+04   6.528431e+10  -1.902560e+11  -1.315549e+09   7.571796e+05   8.265592e-27   0.000000e+00   0.000000e+00
      848000   8.479990e-08   3.931922e-02   7.968656e+00   1.001731e+01  -7.128588e+05  -2.442678e+05  -7.407187e+04   6.531941e+10  -1.902278e+11  -1.309449e+09   7.571796e+05   8.264331e-27   0.000000e+00   0.000000e+00
      856000   8.559990e-08   3.874895e-02   7.968460e+00   1.001725e+01  -7.128065e+05  -2.444200e+05  -7.407292e+04   6.535449e+10  -1.901996e+11  -1.303356e+09   7.571796e+05   8.263070e-27   0.000000e+00   0.000000e+00
      864000   8.639990e-08   3.817873e-02   7.968265e+00   1.001719e+01  -7.127542e+05  -2.445721e+05  -7.407396e+04   6.538957e+10  -1.901713e+11  -1.297270e+09   7.571796e+05   8.261809e-27   0.000000e+00   0.000000e+00
      872000   8.719990e-08   3.760855e-02   7.968069e+00   1.001713e+01  -7.127019e+05  -2.447242e+05  -7.407500e+04   6.542463e+10  -1.901431e+11  -1.291190e+09   7.571796e+05   8.260548e-27   0.000000e+00   0.000000e+00
      880000   8.799990e-08   3.703841e-02   7.967873e+00   1.001707e+01  -7.126495e+05  -2.448763e+05  -7.407603e+04   6.545968e+10  -1.901148e+11  -1.285118e+09   7.571796e+05   8.259287e-27   0.000000e+00   0.000000e+00
      888000   8.879990e-08   3.646831e-02   7.967677e+00   1.001701e+01  -7.125971e+05  -2.450284e+05  -7.407705e+04   6.549472e+10  -1.900865e+11  -1.279052e+09   7.571796e+05   8.258025e-27   0.000000e+00   0.000000e+00
      896000   8.959990e-08   3.589825e-02   7.967481e+00   1.001695e+01  -7.125447e+05  -2.451805e+05  -7.407807e+04   6.552974e+10  -1.900583e+11  -1.272993e+09   7.571796e+05   8.256764e-27   0.000000e+00   0.000000e+00
      904000   9.039990e-08   3.532824e-02   7.967285e+00   1.001689e+01  -7.124923e+05  -2.453325e+05  -7.407909e+04   6.556475e+10  -1.900300e+11  -1.266941e+09   7.571796e+05   8.255502e-27   0.000000e+00   0.000000e+00
      912000   9.119990e-08   3.475826e-02   7.967088e+00   1.001683e+01  -7.124398e+05  -2.454845e+05  -7.408010e+04   6.559975e+10  -1.900017e+11  -1.260895e+09   7.571796e+05   8.254241e-27   0.000000e+00   0.000000e+00
      920000   9.199990e-08   3.418833e-02   7.966892e+00   1.001677e+01  -7.123873e+05  -2.456365e+05  -7.408111e+04   6.563474e+10  -1.899734e+11  -1.254857e+09   7.571796e+05   8.252979e-27   0.000000e+00   0.000000e+00
      928000   9.279990e-08   3.361844e-02   7.966695e+00   1.001671e+01  -7.123348e+05  -2.457885e+05  -7.408211e+04   6.566972e+10  -1.899451e+11  -1.248825e+09   7.571796e+05   8.251717e-27   0.000000e+00   0.000000e+00
      936000   9.359990e-08   3.304860e-02   7.966499e+00   1.001665e+01  -7.122823e+05  -2.459404e+05  -7.408310e+04   6.570468e+10  -1.899168e+11  -1.242800e+09   7.571796e+05   8.250455e-27   0.000000e+00   0.000000e+00
      944000   9.439990e-08   3.247879e-02   7.966302e+00   1.001660e+01  -7.122297e+05  -2.460924e+05  -7.408410e+04   6.573963e+10  -1.898884e+11  -1.236782e+09   7.571796e+05   8.249193e-27   0.000000e+00   0.000000e+00
      952000   9.519990e-08   3.190903e-02   7.966105e+00   1.001654e+01  -7.121771e+05  -2.462442e+05  -7.408508e+04   6.577457e+10  -1.898601e+11  -1.230770e+09   7.571796e+05   8.247931e-27   0.000000e+00   0.000000e+00
      960000   9.599990e-08   3.133931e-02   7.965908e+00   1.001648e+01  -7.121244e+05  -2.463961e+05  -7.408607e+04   6.580949e+10  -1.898318e+11  -1.224765e+09   7.571796e+05   8.246669e-27   0.000000e+00   0.000000e+00
      968000   9.679990e-08   3.076963e-02   7.965711e+00   1.001642e+01  -7.120718e+05  -2.465480e+05  -7.408704e+04   6.584441e+10  -1.898034e+11  -1.218767e+09   7.571796e+05   8.245406e-27   0.000000e+00   0.000000e+00
      976000   9.759990e-08   3.019999e-02   7.965513e+00   1.001636e+01  -7.120191e+05  -2.466998e+05  -7.408802e+04   6.587931e+10  -1.897751e+11  -1.212776e+09   7.571796e+05   8.244144e-27   0.000000e+00   0.000000e+00
      984000   9.839990e-08   2.963040e-02   7.965316e+00   1.001630e+01  -7.119664e+05  -2.468516e+05  -7.408898e+04   6.591420e+10  -1.897467e+11  -1.206792e+09   7.571796e+05   8.242881e-27   0.000000e+00   0.000000e+00
      992000   9.919990e-08   2.906085e-02   7.965118e+00   1.001624e+01  -7.119136e+05  -2.470034e+05  -7.408995e+04   6.594907e+10  -1.897183e+11  -1.200814e+09   7.571796e+05   8.241619e-27   0.000000e+00   0.000000e+00
     1000000   9.999990e-08   2.849134e-02   7.964921e+00   1.001618e+01  -7.118609e+05  -2.471552e+05  -7.409090e+04   6.598393e+10  -1.896900e+11  -1.194844e+09   7.571796e+05   8.240356e-27   0.000000e+00   0.000000e+00
     1008000   1.007999e-07   2.792187e-02   7.964723e+00   1.001612e+01  -7.118080e+05  -2.473069e+05  -7.409186e+04   6.601878e+10  -1.896616e+11  -1.188880e+09   7.571796e+05   8.239093e-27   0.000000e+00   0.000000e+00
     1016000   1.015999e-07   2.735245e-02   7.964525e+00   1.001606e+01  -7.117552e+05  -2.474586e+05  -7.409281e+04   6.605362e+10  -1.896332e+11  -1.182922e+09   7.571796e+05   8.237830e-27   0.000000e+00   0.000000e+00
     1024000   1.023999e-07   2.678306e-02   7.964327e+00   1.001600e+01  -7.117024e+05  -2.476103e+05  -7.409375e+04   6.608845e+10  -1.896048e+11  -1.176972e+09   7.571796e+05   8.236567e-27   0.000000e+00   0.000000e+00
     1032000   1.031999e-07   2.621372e-02   7.964129e+00   1.001594e+01  -7.116495e+05  -2.477620e+05  -7.409469e+04   6.612326e+10  -1.895764e+11  -1.171028e+09   7.571796e+05   8.235304e-27   0.000000e+00   0.000000e+00
     1040000   1.039999e-07   2.564442e-02   7.963931e+00   1.001588e+01  -7.115966e+05  -2.479136e+05  -7.409562e+04   6.615806e+10  -1.895480e+11  -1.165092e+09   7.571796e+05   8.234041e-27   0.000000e+00   0.000000e+00
     1048000   1.047999e-07   2.507517e-02   7.963732e+00   1.001582e+01  -7.115436e+05  -2.480653e+05  -7.409655e+04   6.619285e+10  -1.895195e+11  -1.159161e+09   7.571796e+05   8.232777e-27   0.000000e+00   0.000000e+00
     1056000   1.055999e-07   2.450595e-02   7.963534e+00   1.001577e+01  -7.114907e+05  -2.482169e+05  -7.409748e+04   6.622763e+10  -1.894911e+11  -1.153238e+09   7.571796e+05   8.231514e-27   0.000000e+00   0.000000e+00
     1064000   1.063999e-07   2.393678e-02   7.963335e+00   1.001571e+01  -7.114377e+05  -2.483685e+05  -7.409840e+04   6.626239e+10  -1.894627e+11  -1.147322e+09   7.571796e+05   8.230250e-27   0.000000e+00   0.000000e+00
     1072000   1.071999e-07   2.336765e-02   7.963136e+00   1.001565e+01  -7.113846e+05  -2.485200e+05  -7.409931e+04   6.629714e+10  -1.894342e+11  -1.141412e+09   7.571796e+05   8.228987e-27   0.000000e+00   0.000000e+00
     1080000   1.079999e-07   2.279857e-02   7.962937e+00   1.001559e+01  -7.113316e+05  -2.486716e+05  -7.410023e+04   6.633188e+10  -1.894058e+11  -1.135509e+09   7.571796e+05   8.227723e-27   0.000000e+00   0.000000e+00
     1088000   1.087999e-07   2.222952e-02   7.962738e+00   1.001553e+01  -7.112785e+05  -2.488231e+05  -7.410113e+04   6.636661e+10  -1.893773e+11  -1.129613e+09   7.571796e+05   8.226459e-27   0.000000e+00   0.000000e+00
     1096000   1.095999e-07   2.166052e-02   7.962539e+00   1.001547e+01  -7.112254e+05  -2.489746e+05  -7.410203e+04   6.640132e+10  -1.893488e+11  -1.123723e+09   7.571796e+05   8.225195e-27   0.000000e+00   0.000000e+00
     1104000   1.103999e-07   2.109156e-02   7.962340e+00   1.001541e+01  -7.111723e+05  -2.491260e+05  -7.410293e+04   6.643602e+10  -1.893203e+11  -1.117841e+09   7.571796e+05   8.223931e-27   0.000000e+00   0.000000e+00
     1112000   1.111999e-07   2.052265e-02   7.962141e+00   1.001535e+01  -7.111191e+05  -2.492775e+05  -7.410382e+04   6.647071e+10  -1.892919e+11  -1.111965e+09   7.571796e+05   8.222667e-27   0.000000e+00   0.000000e+00
     1120000   1.119999e-07   1.995377e-02   7.961941e+00   1.001529e+01  -7.110659e+05  -2.494289e+05  -7.410471e+04   6.650539e+10  -1.892634e+11  -1.106096e+09   7.571796e+05   8.221403e-27   0.000000e+00   0.000000e+00
     1128000   1.127999e-07   1.938494e-02   7.961742e+00   1.001523e+01  -7.110127e+05  -2.495803e+05  -7.410559e+04   6.654005e+10  -1.892349e+11  -1.100234e+09   7.571796e+05   8.220138e-27   0.000000e+00   0.000000e+00
     1136000   1.135999e-07   1.881615e-02   7.961542e+00   1.001517e+01  -7.109594e+05  -2.497317e+05  -7.410647e+04   6.657470e+10  -1.892064e+11  -1.094378e+09   7.571796e+05   8.218874e-27   0.000000e+00   0.000000e+00
     1144000   1.143999e-07   1.824740e-02   7.961342e+00   1.001511e+01  -7.109062e+05  -2.498830e+05  -7.410734e+04   6.660934e+10  -1.891778e+11  -1.088530e+09   7.571796e+05   8.217609e-27   0.000000e+00   0.000000e+00
     1152000   1.151999e-07   1.767870e-02   7.961142e+00   1.001505e+01  -7.108529e+05  -2.500344e+05  -7.410821e+04   6.664397e+10  -1.891493e+11  -1.082688e+09   7.571796e+05   8.216345e-27   0.000000e+00   0.000000e+00
     1160000   1.159999e-07   1.711004e-02   7.960942e+00   1.001499e+01  -7.107995e+05  -2.501857e+05  -7.410907e+04   6.667858e+10  -1.891208e+11  -1.076852e+09   7.571796e+05   8.215080e-27   0.000000e+00   0.000000e+00
     1168000   1.167999e-07   1.654142e-02   7.960742e+00   1.001494e+01  -7.107462e+05  -2.503369e+05  -7.410993e+04   6.671319e+10  -1.890922e+11  -1.071024e+09   7.571796e+05   8.213815e-27   0.000000e+00   0.000000e+00
     1176000   1.175999e-07   1.597285e-02   7.960542e+00   1.001488e+01  -7.106928e+05  -2.504882e+05  -7.411079e+04   6.674778e+10  -1.890637e+11  -1.065202e+09   7.571796e+05   8.212550e-27   0.000000e+00   0.000000e+00
     1184000   1.183999e-07   1.540431e-02   7.960341e+00   1.001482e+01  -7.106394e+05  -2.506394e+05  -7.411164e+04   6.678235e+10  -1.890351e+11  -1.059388e+09   7.571796e+05   8.211285e-27   0.000000e+00   0.000000e+00
     1192000   1.191999e-07   1.483582e-02   7.960140e+00   1.001476e+01  -7.105860e+05  -2.507907e+05  -7.411248e+04   6.681692e+10  -1.890066e+11  -1.053580e+09   7.571796e+05   8.210020e-27   0.000000e+00   0.000000e+00
     1200000   1.199999e-07   1.426738e-02   7.959940e+00   1.001470e+01  -7.105325e+05  -2.509419e+05  -7.411332e+04   6.685147e+10  -1.889780e+11  -1.047778e+09   7.571796e+05   8.208755e-27   0.000000e+00   0.000000e+00
     1208000   1.207999e-07   1.369897e-02   7.959739e+00   1.001464e+01  -7.104790e+05  -2.510930e+05  -7.411416e+04   6.688601e+10  -1.889494e+11  -1.041984e+09   7.571796e+05   8.207489e-27   0.000000e+00   0.000000e+00
     1216000   1.215999e-07   1.313061e-02   7.959538e+00   1.001458e+01  -7.104255e+05  -2.512442e+05  -7.411499e+04   6.692053e+10  -1.889208e+11  -1.036196e+09   7.571796e+05   8.206224e-27   0.000000e+00   0.000000e+00
     1224000   1.223999e-07   1.256229e-02   7.959337e+00   1.001452e+01  -7.103719e+05  -2.513953e+05  -7.411582e+04   6.695505e+10  -1.888922e+11  -1.030415e+09   7.571796e+05   8.204958e-27   0.000000e+00   0.000000e+00
     1232000   1.231999e-07   1.199401e-02   7.959136e+00   1.001446e+01  -7.103183e+05  -2.515464e+05  -7.411664e+04   6.698955e+10  -1.888636e+11  -1.024641e+09   7.571796e+05   8.203693e-27   0.000000e+00   0.000000e+00
     1240000   1.239999e-07   1.142578e-02   7.958935e+00   1.001440e+01  -7.102647e+05  -2.516975e+05  -7.411746e+04   6.702404e+10  -1.888350e+11  -1.018873e+09   7.571796e+05   8.202427e-27   0.000000e+00   0.000000e+00
     1248000   1.247999e-07   1.085759e-02   7.958733e+00   1.001434e+01  -7.102111e+05  -2.518485e+05  -7.411827e+04   6.705852e+10  -1.888064e+11  -1.013113e+09   7.571796e+05   8.201161e-27   0.000000e+00   0.000000e+00
     1256000   1.255999e-07   1.028944e-02   7.958532e+00   1.001428e+01  -7.101574e+05  -2.519996e+05  -7.411908e+04   6.709298e+10  -1.887778e+11  -1.007359e+09   7.571796e+05   8.199895e-27   0.000000e+00   0.000000e+00
     1264000   1.263999e-07   9.721339e-03   7.958330e+00   1.001422e+01  -7.101038e+05  -2.521506e+05  -7.411988e+04   6.712743e+10  -1.887491e+11  -1.001612e+09   7.571796e+05   8.198629e-27   0.000000e+00   0.000000e+00
     1272000   1.271999e-07   9.153277e-03   7.958128e+00   1.001416e+01  -7.100500e+05  -2.523016e+05  -7.412068e+04   6.716187e+10  -1.887205e+11  -9.958714e+08   7.571796e+05   8.197363e-27   0.000000e+00   0.000000e+00
     1280000   1.279999e-07   8.585259e-03   7.957926e+00   1.001411e+01  -7.099963e+05  -2.524525e+05  -7.412147e+04   6.719630e+10  -1.886919e+11  -9.901379e+08   7.571796e+05   8.196097e-27   0.000000e+00   0.000000e+00
     1288000   1.287999e-07   8.017283e-03   7.957724e+00   1.001405e+01  -7.099425e+05  -2.526035e+05  -7.412226e+04   6.723071e+10  -1.886632e+11  -9.844110e+08   7.571796e+05   8.194831e-27   0.000000e+00   0.000000e+00
     1296000   1.295999e-07   7.449351e-03   7.957522e+00   1.001399e+01  -7.098887e+05  -2.527544e+05  -7.412305e+04   6.726512e+10  -1.886345e+11  -9.786910e+08   7.571796e+05   8.193564e-27   0.000000e+00   0.000000e+00
     1304000   1.303999e-07   6.881461e-03   7.957320e+00   1.001393e+01  -7.098349e+05  -2.529053e+05  -7.412383e+04   6.729951e+10  -1.886059e+11  -9.729777e+08   7.571796e+05   8.192298e-27   0.000000e+00   0.000000e+00
     1312000   1.311999e-07   6.313615e-03   7.957117e+00   1.001387e+01  -7.097810e+05  -2.530562e+05  -7.412461e+04   6.733388e+10  -1.885772e+11  -9.672712e+08   7.571796e+05   8.191031e-27   0.000000e+00   0.000000e+00
     1320000   1.319999e-07   5.745812e-03   7.956915e+00   1.001381e+01  -7.097272e+05  -2.532070e+05  -7.412538e+04   6.736825e+10  -1.885485e+11  -9.615715e+08   7.571796e+05   8.189765e-27   0.000000e+00   0.000000e+00
     1328000   1.327999e-07   5.178051e-03   7.956712e+00   1.001375e+01  -7.096733e+05  -2.533578e+05  -7.412615e+04   6.740260e+10  -1.885198e+11  -9.558785e+08   7.571796e+05   8.188498e-27   0.000000e+00   0.000000e+00
     1336000   1.335999e-07   4.610334e-03   7.956510e+00   1.001369e+01  -7.096193e+05  -2.535086e+05  -7.412691e+04   6.743694e+10  -1.884911e+11  -9.501923e+08   7.571796e+05   8.187231e-27   0.000000e+00   0.000000e+00
     1344000   1.343999e-07   4.042661e-03   7.956307e+00   1.001363e+01  -7.095654e+05  -2.536594e+05  -7.412767e+04   6.747127e+10  -1.884624e+11  -9.445128e+08   7.571796e+05   8.185964e-27   0.000000e+00   0.000000e+00
     1352000   1.351999e-07   3.475030e-03   7.956104e+00   1.001357e+01  -7.095114e+05  -2.538102e+05  -7.412842e+04   6.750558e+10  -1.884337e+11  -9.388402e+08   7.571796e+05   8.184697e-27   0.000000e+00   0.000000e+00
     1360000   1.359999e-07   2.907442e-03   7.955901e+00   1.001351e+01  -7.094573e+05  -2.539609e+05  -7.412917e+04   6.753988e+10  -1.884049e+11  -9.331743e+08   7.571796e+05   8.183430e-27   0.000000e+00   0.000000e+00
     1368000   1.367999e-07   2.339898e-03   7.955697e+00   1.001345e+01  -7.094033e+05  -2.541116e+05  -7.412991e+04   6.757417e+10  -1.883762e+11  -9.275151e+08   7.571796e+05   8.182162e-27   0.000000e+00   0.000000e+00
     1376000   1.375999e-07   1.772397e-03   7.955494e+00   1.001339e+01  -7.093492e+05  -2.542623e+05  -7.413065e+04   6.760845e+10  -1.883475e+11  -9.218627e+08   7.571796e+05   8.180895e-27   0.000000e+00   0.000000e+00
     1384000   1.383999e-07   1.204939e-03   7.955291e+00   1.001333e+01  -7.092951e+05  -2.544130e+05  -7.413139e+04   6.764271e+10  -1.883187e+11  -9.162171e+08   7.571796e+05   8.179628e-27   0.000000e+00   0.000000e+00
     1392000   1.391999e-07   6.375249e-04   7.955087e+00   1.001327e+01  -7.092410e+05  -2.545636e+05  -7.413212e+04   6.767697e+10  -1.882900e+11  -9.105782e+08   7.571796e+05   8.178360e-27   0.000000e+00   0.000000e+00
     1400000   1.399999e-07   7.015373e-05   7.954883e+00   1.001322e+01  -7.091868e+05  -2.547143e+05  -7.413284e+04   6.771120e+10  -1.882612e+11  -9.049461e+08   7.571796e+05   8.177092e-27   0.000000e+00   0.000000e+00
