     timestep     time              x             y              z              vx             vy             vz             ax             ay             az         v_magnitude      ELoss        Electronic      Nuclear
           0   0.000000e+00   1.000000e-01   8.333924e+00   1.691866e+00   3.685960e+04  -3.930605e+04  -1.372302e+05   0.000000e+00   0.000000e+00   0.000000e+00   1.474304e+05   0.000000e+00   0.000000e+00   0.000000e+00
        8000   7.999000e-10   1.000295e-01   8.333893e+00   1.691756e+00   3.686373e+04  -3.930429e+04  -1.372296e+05   5.164412e+09   2.201146e+09   7.568705e+08   1.474304e+05   2.485213e-31   0.000000e+00   0.000000e+00
       16000   1.599900e-09   1.000590e-01   8.333861e+00   1.691646e+00   3.686786e+04  -3.930253e+04  -1.372290e+05   5.164185e+09   2.201088e+09   7.570131e+08   1.474304e+05   2.485028e-31   0.000000e+00   0.000000e+00
       24000   2.399900e-09   1.000885e-01   8.333830e+00   1.691537e+00   3.687199e+04  -3.930077e+04  -1.372283e+05   5.163958e+09   2.201031e+09   7.571557e+08   1.474304e+05   2.484844e-31   0.000000e+00   0.000000e+00
       32000   3.199900e-09   1.001180e-01   8.333798e+00   1.691427e+00   3.687612e+04  -3.929901e+04  -1.372277e+05   5.163731e+09   2.200973e+09   7.572983e+08   1.474304e+05   2.484659e-31   0.000000e+00   0.000000e+00
       40000   3.999900e-09   1.001475e-01   8.333767e+00   1.691317e+00   3.688026e+04  -3.929725e+04  -1.372271e+05   5.163504e+09   2.200915e+09   7.574409e+08   1.474304e+05   2.484475e-31   0.000000e+00   0.000000e+00
       48000   4.799900e-09   1.001770e-01   8.333735e+00   1.691207e+00   3.688439e+04  -3.929549e+04  -1.372265e+05   5.163277e+09   2.200857e+09   7.575836e+08   1.474304e+05   2.484290e-31   0.000000e+00   0.000000e+00
       56000   5.599900e-09   1.002065e-01   8.333704e+00   1.691098e+00   3.688852e+04  -3.929373e+04  -1.372259e+05   5.163050e+09   2.200799e+09   7.577263e+08   1.474304e+05   2.484106e-31   0.000000e+00   0.000000e+00
       64000   6.399900e-09   1.002360e-01   8.333672e+00   1.690988e+00   3.689265e+04  -3.929197e+04  -1.372253e+05   5.162824e+09   2.200740e+09   7.578689e+08   1.474304e+05   2.483921e-31   0.000000e+00   0.000000e+00
       72000   7.199900e-09   1.002655e-01   8.333641e+00   1.690878e+00   3.689678e+04  -3.929021e+04  -1.372247e+05   5.162597e+09   2.200682e+09   7.580117e+08   1.474304e+05   2.483737e-31   0.000000e+00   0.000000e+00
       80000   7.999900e-09   1.002950e-01   8.333610e+00   1.690768e+00   3.690091e+04  -3.928845e+04  -1.372241e+05   5.162370e+09   2.200624e+09   7.581544e+08   1.474304e+05   2.483552e-31   0.000000e+00   0.000000e+00
       88000   8.799900e-09   1.003246e-01   8.333578e+00   1.690658e+00   3.690504e+04  -3.928669e+04  -1.372235e+05   5.162144e+09   2.200565e+09   7.582971e+08   1.474304e+05   2.483368e-31   0.000000e+00   0.000000e+00
       96000   9.599900e-09   1.003541e-01   8.333547e+00   1.690549e+00   3.690917e+04  -3.928493e+04  -1.372229e+05   5.161917e+09   2.200507e+09   7.584399e+08   1.474304e+05   2.483184e-31   0.000000e+00   0.000000e+00
      104000   1.039990e-08   1.003836e-01   8.333515e+00   1.690439e+00   3.691330e+04  -3.928317e+04  -1.372223e+05   5.161691e+09   2.200448e+09   7.585827e+08   1.474304e+05   2.482999e-31   0.000000e+00   0.000000e+00
      112000   1.119990e-08   1.004132e-01   8.333484e+00   1.690329e+00   3.691743e+04  -3.928141e+04  -1.372217e+05   5.161464e+09   2.200389e+09   7.587255e+08   1.474304e+05   2.482815e-31   0.000000e+00   0.000000e+00
      120000   1.199990e-08   1.004427e-01   8.333452e+00   1.690219e+00   3.692155e+04  -3.927964e+04  -1.372211e+05   5.161238e+09   2.200330e+09   7.588683e+08   1.474304e+05   2.482631e-31   0.000000e+00   0.000000e+00
      128000   1.279990e-08   1.004722e-01   8.333421e+00   1.690110e+00   3.692568e+04  -3.927788e+04  -1.372205e+05   5.161011e+09   2.200271e+09   7.590111e+08   1.474304e+05   2.482446e-31   0.000000e+00   0.000000e+00
      136000   1.359990e-08   1.005018e-01   8.333390e+00   1.690000e+00   3.692981e+04  -3.927612e+04  -1.372199e+05   5.160785e+09   2.200212e+09   7.591540e+08   1.474304e+05   2.482262e-31   0.000000e+00   0.000000e+00
      144000   1.439990e-08   1.005313e-01   8.333358e+00   1.689890e+00   3.693394e+04  -3.927436e+04  -1.372192e+05   5.160559e+09   2.200153e+09   7.592968e+08   1.474304e+05   2.482078e-31   0.000000e+00   0.000000e+00
      152000   1.519990e-08   1.005609e-01   8.333327e+00   1.689780e+00   3.693807e+04  -3.927260e+04  -1.372186e+05   5.160332e+09   2.200094e+09   7.594397e+08   1.474304e+05   2.481894e-31   0.000000e+00   0.000000e+00
      160000   1.599990e-08   1.005904e-01   8.333295e+00   1.689670e+00   3.694220e+04  -3.927084e+04  -1.372180e+05   5.160106e+09   2.200035e+09   7.595826e+08   1.474304e+05   2.481709e-31   0.000000e+00   0.000000e+00
      168000   1.679990e-08   1.006200e-01   8.333264e+00   1.689561e+00   3.694632e+04  -3.926908e+04  -1.372174e+05   5.159880e+09   2.199975e+09   7.597256e+08   1.474304e+05   2.481525e-31   0.000000e+00   0.000000e+00
      176000   1.759990e-08   1.006495e-01   8.333233e+00   1.689451e+00   3.695045e+04  -3.926732e+04  -1.372168e+05   5.159654e+09   2.199916e+09   7.598685e+08   1.474304e+05   2.481341e-31   0.000000e+00   0.000000e+00
      184000   1.839990e-08   1.006791e-01   8.333201e+00   1.689341e+00   3.695458e+04  -3.926556e+04  -1.372162e+05   5.159428e+09   2.199856e+09   7.600115e+08   1.474304e+05   2.481157e-31   0.000000e+00   0.000000e+00
      192000   1.919990e-08   1.007087e-01   8.333170e+00   1.689231e+00   3.695871e+04  -3.926380e+04  -1.372156e+05   5.159202e+09   2.199796e+09   7.601545e+08   1.474304e+05   2.480973e-31   0.000000e+00   0.000000e+00
      200000   1.999990e-08   1.007382e-01   8.333138e+00   1.689122e+00   3.696284e+04  -3.926204e+04  -1.372150e+05   5.158976e+09   2.199737e+09   7.602975e+08   1.474304e+05   2.480789e-31   0.000000e+00   0.000000e+00
      208000   2.079990e-08   1.007678e-01   8.333107e+00   1.689012e+00   3.696696e+04  -3.926028e+04  -1.372144e+05   5.158750e+09   2.199677e+09   7.604405e+08   1.474304e+05   2.480605e-31   0.000000e+00   0.000000e+00
      216000   2.159990e-08   1.007974e-01   8.333076e+00   1.688902e+00   3.697109e+04  -3.925852e+04  -1.372138e+05   5.158524e+09   2.199617e+09   7.605835e+08   1.474304e+05   2.480421e-31   0.000000e+00   0.000000e+00
      224000   2.239990e-08   1.008270e-01   8.333044e+00   1.688792e+00   3.697522e+04  -3.925677e+04  -1.372132e+05   5.158298e+09   2.199557e+09   7.607266e+08   1.474304e+05   2.480237e-31   0.000000e+00   0.000000e+00
      232000   2.319990e-08   1.008565e-01   8.333013e+00   1.688682e+00   3.697934e+04  -3.925501e+04  -1.372126e+05   5.158072e+09   2.199497e+09   7.608696e+08   1.474304e+05   2.480053e-31   0.000000e+00   0.000000e+00
      240000   2.399990e-08   1.008861e-01   8.332981e+00   1.688573e+00   3.698347e+04  -3.925325e+04  -1.372120e+05   5.157847e+09   2.199436e+09   7.610127e+08   1.474304e+05   2.479869e-31   0.000000e+00   0.000000e+00
      248000   2.479990e-08   1.009157e-01   8.332950e+00   1.688463e+00   3.698759e+04  -3.925149e+04  -1.372113e+05   5.157621e+09   2.199376e+09   7.611558e+08   1.474304e+05   2.479685e-31   0.000000e+00   0.000000e+00
      256000   2.559990e-08   1.009453e-01   8.332918e+00   1.688353e+00   3.699172e+04  -3.924973e+04  -1.372107e+05   5.157395e+09   2.199316e+09   7.612990e+08   1.474304e+05   2.479501e-31   0.000000e+00   0.000000e+00
      264000   2.639990e-08   1.009749e-01   8.332887e+00   1.688243e+00   3.699585e+04  -3.924797e+04  -1.372101e+05   5.157170e+09   2.199255e+09   7.614421e+08   1.474304e+05   2.479317e-31   0.000000e+00   0.000000e+00
      272000   2.719990e-08   1.010045e-01   8.332856e+00   1.688134e+00   3.699997e+04  -3.924621e+04  -1.372095e+05   5.156944e+09   2.199195e+09   7.615853e+08   1.474304e+05   2.479133e-31   0.000000e+00   0.000000e+00
      280000   2.799990e-08   1.010341e-01   8.332824e+00   1.688024e+00   3.700410e+04  -3.924445e+04  -1.372089e+05   5.156719e+09   2.199134e+09   7.617285e+08   1.474304e+05   2.478949e-31   0.000000e+00   0.000000e+00
      288000   2.879990e-08   1.010637e-01   8.332793e+00   1.687914e+00   3.700822e+04  -3.924269e+04  -1.372083e+05   5.156493e+09   2.199073e+09   7.618717e+08   1.474304e+05   2.478765e-31   0.000000e+00   0.000000e+00
      296000   2.959990e-08   1.010933e-01   8.332762e+00   1.687804e+00   3.701235e+04  -3.924093e+04  -1.372077e+05   5.156268e+09   2.199012e+09   7.620149e+08   1.474304e+05   2.478581e-31   0.000000e+00   0.000000e+00
      304000   3.039990e-08   1.011229e-01   8.332730e+00   1.687695e+00   3.701647e+04  -3.923917e+04  -1.372071e+05   5.156043e+09   2.198951e+09   7.621581e+08   1.474304e+05   2.478397e-31   0.000000e+00   0.000000e+00
      312000   3.119990e-08   1.011525e-01   8.332699e+00   1.687585e+00   3.702060e+04  -3.923741e+04  -1.372065e+05   5.155817e+09   2.198890e+09   7.623014e+08   1.474304e+05   2.478214e-31   0.000000e+00   0.000000e+00
      320000   3.199990e-08   1.011821e-01   8.332667e+00   1.687475e+00   3.702472e+04  -3.923565e+04  -1.372059e+05   5.155592e+09   2.198829e+09   7.624446e+08   1.474304e+05   2.478030e-31   0.000000e+00   0.000000e+00
      328000   3.279990e-08   1.012118e-01   8.332636e+00   1.687365e+00   3.702885e+04  -3.923389e+04  -1.372052e+05   5.155367e+09   2.198768e+09   7.625879e+08   1.474304e+05   2.477846e-31   0.000000e+00   0.000000e+00
      336000   3.359990e-08   1.012414e-01   8.332605e+00   1.687255e+00   3.703297e+04  -3.923214e+04  -1.372046e+05   5.155142e+09   2.198707e+09   7.627312e+08   1.474304e+05   2.477662e-31   0.000000e+00   0.000000e+00
      344000   3.439990e-08   1.012710e-01   8.332573e+00   1.687146e+00   3.703710e+04  -3.923038e+04  -1.372040e+05   5.154917e+09   2.198645e+09   7.628746e+08   1.474304e+05   2.477479e-31   0.000000e+00   0.000000e+00
      352000   3.519990e-08   1.013007e-01   8.332542e+00   1.687036e+00   3.704122e+04  -3.922862e+04  -1.372034e+05   5.154692e+09   2.198584e+09   7.630179e+08   1.474304e+05   2.477295e-31   0.000000e+00   0.000000e+00
      360000   3.599990e-08   1.013303e-01   8.332510e+00   1.686926e+00   3.704534e+04  -3.922686e+04  -1.372028e+05   5.154467e+09   2.198522e+09   7.631613e+08   1.474304e+05   2.477111e-31   0.000000e+00   0.000000e+00
      368000   3.679990e-08   1.013599e-01   8.332479e+00   1.686816e+00   3.704947e+04  -3.922510e+04  -1.372022e+05   5.154242e+09   2.198460e+09   7.633047e+08   1.474304e+05   2.476928e-31   0.000000e+00   0.000000e+00
      376000   3.759990e-08   1.013896e-01   8.332448e+00   1.686707e+00   3.705359e+04  -3.922334e+04  -1.372016e+05   5.154017e+09   2.198399e+09   7.634481e+08   1.474304e+05   2.476744e-31   0.000000e+00   0.000000e+00
      384000   3.839990e-08   1.014192e-01   8.332416e+00   1.686597e+00   3.705771e+04  -3.922158e+04  -1.372010e+05   5.153792e+09   2.198337e+09   7.635915e+08   1.474304e+05   2.476560e-31   0.000000e+00   0.000000e+00
      392000   3.919990e-08   1.014489e-01   8.332385e+00   1.686487e+00   3.706184e+04  -3.921982e+04  -1.372004e+05   5.153567e+09   2.198275e+09   7.637349e+08   1.474304e+05   2.476377e-31   0.000000e+00   0.000000e+00
      400000   3.999990e-08   1.014785e-01   8.332354e+00   1.686377e+00   3.706596e+04  -3.921806e+04  -1.371998e+05   5.153342e+09   2.198213e+09   7.638784e+08   1.474304e+05   2.476193e-31   0.000000e+00   0.000000e+00
      408000   4.079990e-08   1.015082e-01   8.332322e+00   1.686268e+00   3.707008e+04  -3.921631e+04  -1.371991e+05   5.153118e+09   2.198150e+09   7.640219e+08   1.474304e+05   2.476010e-31   0.000000e+00   0.000000e+00
      416000   4.159990e-08   1.015378e-01   8.332291e+00   1.686158e+00   3.707420e+04  -3.921455e+04  -1.371985e+05   5.152893e+09   2.198088e+09   7.641653e+08   1.474304e+05   2.475826e-31   0.000000e+00   0.000000e+00
      424000   4.239990e-08   1.015675e-01   8.332259e+00   1.686048e+00   3.707833e+04  -3.921279e+04  -1.371979e+05   5.152668e+09   2.198026e+09   7.643089e+08   1.474304e+05   2.475643e-31   0.000000e+00   0.000000e+00
      432000   4.319990e-08   1.015972e-01   8.332228e+00   1.685938e+00   3.708245e+04  -3.921103e+04  -1.371973e+05   5.152444e+09   2.197964e+09   7.644524e+08   1.474304e+05   2.475459e-31   0.000000e+00   0.000000e+00
      440000   4.399990e-08   1.016268e-01   8.332197e+00   1.685829e+00   3.708657e+04  -3.920927e+04  -1.371967e+05   5.152219e+09   2.197901e+09   7.645959e+08   1.474304e+05   2.475276e-31   0.000000e+00   0.000000e+00
      448000   4.479990e-08   1.016565e-01   8.332165e+00   1.685719e+00   3.709069e+04  -3.920751e+04  -1.371961e+05   5.151995e+09   2.197838e+09   7.647395e+08   1.474304e+05   2.475092e-31   0.000000e+00   0.000000e+00
      456000   4.559990e-08   1.016862e-01   8.332134e+00   1.685609e+00   3.709481e+04  -3.920576e+04  -1.371955e+05   5.151770e+09   2.197776e+09   7.648831e+08   1.474304e+05   2.474909e-31   0.000000e+00   0.000000e+00
      464000   4.639990e-08   1.017158e-01   8.332103e+00   1.685499e+00   3.709893e+04  -3.920400e+04  -1.371949e+05   5.151546e+09   2.197713e+09   7.650267e+08   1.474304e+05   2.474725e-31   0.000000e+00   0.000000e+00
      472000   4.719990e-08   1.017455e-01   8.332071e+00   1.685390e+00   3.710305e+04  -3.920224e+04  -1.371942e+05   5.151322e+09   2.197650e+09   7.651703e+08   1.474304e+05   2.474542e-31   0.000000e+00   0.000000e+00
      480000   4.799990e-08   1.017752e-01   8.332040e+00   1.685280e+00   3.710718e+04  -3.920048e+04  -1.371936e+05   5.151097e+09   2.197587e+09   7.653139e+08   1.474304e+05   2.474359e-31   0.000000e+00   0.000000e+00
      488000   4.879990e-08   1.018049e-01   8.332008e+00   1.685170e+00   3.711130e+04  -3.919872e+04  -1.371930e+05   5.150873e+09   2.197524e+09   7.654576e+08   1.474304e+05   2.474175e-31   0.000000e+00   0.000000e+00
      496000   4.959990e-08   1.018346e-01   8.331977e+00   1.685060e+00   3.711542e+04  -3.919697e+04  -1.371924e+05   5.150649e+09   2.197461e+09   7.656013e+08   1.474304e+05   2.473992e-31   0.000000e+00   0.000000e+00
      504000   5.039990e-08   1.018643e-01   8.331946e+00   1.684951e+00   3.711954e+04  -3.919521e+04  -1.371918e+05   5.150425e+09   2.197398e+09   7.657450e+08   1.474304e+05   2.473809e-31   0.000000e+00   0.000000e+00
      512000   5.119990e-08   1.018940e-01   8.331914e+00   1.684841e+00   3.712366e+04  -3.919345e+04  -1.371912e+05   5.150201e+09   2.197334e+09   7.658887e+08   1.474304e+05   2.473625e-31   0.000000e+00   0.000000e+00
      520000   5.199990e-08   1.019237e-01   8.331883e+00   1.684731e+00   3.712778e+04  -3.919169e+04  -1.371906e+05   5.149977e+09   2.197271e+09   7.660324e+08   1.474304e+05   2.473442e-31   0.000000e+00   0.000000e+00
      528000   5.279990e-08   1.019534e-01   8.331852e+00   1.684621e+00   3.713190e+04  -3.918993e+04  -1.371900e+05   5.149753e+09   2.197207e+09   7.661761e+08   1.474304e+05   2.473259e-31   0.000000e+00   0.000000e+00
      536000   5.359990e-08   1.019831e-01   8.331820e+00   1.684512e+00   3.713602e+04  -3.918818e+04  -1.371893e+05   5.149529e+09   2.197144e+09   7.663199e+08   1.474304e+05   2.473076e-31   0.000000e+00   0.000000e+00
      544000   5.439990e-08   1.020128e-01   8.331789e+00   1.684402e+00   3.714014e+04  -3.918642e+04  -1.371887e+05   5.149305e+09   2.197080e+09   7.664637e+08   1.474304e+05   2.472892e-31   0.000000e+00   0.000000e+00
      552000   5.519990e-08   1.020425e-01   8.331758e+00   1.684292e+00   3.714426e+04  -3.918466e+04  -1.371881e+05   5.149081e+09   2.197016e+09   7.666075e+08   1.474304e+05   2.472709e-31   0.000000e+00   0.000000e+00
      560000   5.599990e-08   1.020722e-01   8.331726e+00   1.684182e+00   3.714838e+04  -3.918290e+04  -1.371875e+05   5.148857e+09   2.196952e+09   7.667513e+08   1.474304e+05   2.472526e-31   0.000000e+00   0.000000e+00
      568000   5.679990e-08   1.021019e-01   8.331695e+00   1.684073e+00   3.715249e+04  -3.918115e+04  -1.371869e+05   5.148633e+09   2.196889e+09   7.668952e+08   1.474304e+05   2.472343e-31   0.000000e+00   0.000000e+00
      576000   5.759990e-08   1.021317e-01   8.331664e+00   1.683963e+00   3.715661e+04  -3.917939e+04  -1.371863e+05   5.148410e+09   2.196824e+09   7.670390e+08   1.474304e+05   2.472160e-31   0.000000e+00   0.000000e+00
      584000   5.839990e-08   1.021614e-01   8.331632e+00   1.683853e+00   3.716073e+04  -3.917763e+04  -1.371857e+05   5.148186e+09   2.196760e+09   7.671829e+08   1.474304e+05   2.471977e-31   0.000000e+00   0.000000e+00
      592000   5.919990e-08   1.021911e-01   8.331601e+00   1.683743e+00   3.716485e+04  -3.917587e+04  -1.371851e+05   5.147963e+09   2.196696e+09   7.673268e+08   1.474304e+05   2.471794e-31   0.000000e+00   0.000000e+00
      600000   5.999990e-08   1.022209e-01   8.331570e+00   1.683634e+00   3.716897e+04  -3.917412e+04  -1.371844e+05   5.147739e+09   2.196632e+09   7.674707e+08   1.474304e+05   2.471611e-31   0.000000e+00   0.000000e+00
      608000   6.079990e-08   1.022506e-01   8.331538e+00   1.683524e+00   3.717309e+04  -3.917236e+04  -1.371838e+05   5.147515e+09   2.196567e+09   7.676146e+08   1.474304e+05   2.471428e-31   0.000000e+00   0.000000e+00
      616000   6.159990e-08   1.022803e-01   8.331507e+00   1.683414e+00   3.717720e+04  -3.917060e+04  -1.371832e+05   5.147292e+09   2.196503e+09   7.677586e+08   1.474304e+05   2.471245e-31   0.000000e+00   0.000000e+00
      624000   6.239990e-08   1.023101e-01   8.331476e+00   1.683304e+00   3.718132e+04  -3.916884e+04  -1.371826e+05   5.147069e+09   2.196438e+09   7.679025e+08   1.474304e+05   2.471062e-31   0.000000e+00   0.000000e+00
      632000   6.319990e-08   1.023398e-01   8.331444e+00   1.683195e+00   3.718544e+04  -3.916709e+04  -1.371820e+05   5.146845e+09   2.196374e+09   7.680465e+08   1.474304e+05   2.470879e-31   0.000000e+00   0.000000e+00
      640000   6.399990e-08   1.023696e-01   8.331413e+00   1.683085e+00   3.718956e+04  -3.916533e+04  -1.371814e+05   5.146622e+09   2.196309e+09   7.681905e+08   1.474304e+05   2.470696e-31   0.000000e+00   0.000000e+00
      648000   6.479990e-08   1.023993e-01   8.331382e+00   1.682975e+00   3.719367e+04  -3.916357e+04  -1.371808e+05   5.146399e+09   2.196244e+09   7.683345e+08   1.474304e+05   2.470513e-31   0.000000e+00   0.000000e+00
      656000   6.559990e-08   1.024291e-01   8.331350e+00   1.682865e+00   3.719779e+04  -3.916182e+04  -1.371801e+05   5.146175e+09   2.196179e+09   7.684786e+08   1.474304e+05   2.470330e-31   0.000000e+00   0.000000e+00
      664000   6.639990e-08   1.024588e-01   8.331319e+00   1.682756e+00   3.720191e+04  -3.916006e+04  -1.371795e+05   5.145952e+09   2.196114e+09   7.686226e+08   1.474304e+05   2.470147e-31   0.000000e+00   0.000000e+00
      672000   6.719990e-08   1.024886e-01   8.331288e+00   1.682646e+00   3.720603e+04  -3.915830e+04  -1.371789e+05   5.145729e+09   2.196049e+09   7.687667e+08   1.474304e+05   2.469964e-31   0.000000e+00   0.000000e+00
      680000   6.799990e-08   1.025184e-01   8.331256e+00   1.682536e+00   3.721014e+04  -3.915655e+04  -1.371783e+05   5.145506e+09   2.195984e+09   7.689108e+08   1.474304e+05   2.469781e-31   0.000000e+00   0.000000e+00
      688000   6.879990e-08   1.025481e-01   8.331225e+00   1.682426e+00   3.721426e+04  -3.915479e+04  -1.371777e+05   5.145283e+09   2.195918e+09   7.690549e+08   1.474304e+05   2.469599e-31   0.000000e+00   0.000000e+00
      696000   6.959990e-08   1.025779e-01   8.331194e+00   1.682317e+00   3.721837e+04  -3.915303e+04  -1.371771e+05   5.145060e+09   2.195853e+09   7.691991e+08   1.474304e+05   2.469416e-31   0.000000e+00   0.000000e+00
      704000   7.039990e-08   1.026077e-01   8.331162e+00   1.682207e+00   3.722249e+04  -3.915128e+04  -1.371764e+05   5.144837e+09   2.195787e+09   7.693432e+08   1.474304e+05   2.469233e-31   0.000000e+00   0.000000e+00
      712000   7.119990e-08   1.026375e-01   8.331131e+00   1.682097e+00   3.722661e+04  -3.914952e+04  -1.371758e+05   5.144614e+09   2.195722e+09   7.694874e+08   1.474304e+05   2.469050e-31   0.000000e+00   0.000000e+00
      720000   7.199990e-08   1.026673e-01   8.331100e+00   1.681987e+00   3.723072e+04  -3.914776e+04  -1.371752e+05   5.144391e+09   2.195656e+09   7.696316e+08   1.474304e+05   2.468868e-31   0.000000e+00   0.000000e+00
      728000   7.279990e-08   1.026970e-01   8.331068e+00   1.681878e+00   3.723484e+04  -3.914601e+04  -1.371746e+05   5.144169e+09   2.195590e+09   7.697758e+08   1.474304e+05   2.468685e-31   0.000000e+00   0.000000e+00
      736000   7.359990e-08   1.027268e-01   8.331037e+00   1.681768e+00   3.723895e+04  -3.914425e+04  -1.371740e+05   5.143946e+09   2.195524e+09   7.699200e+08   1.474304e+05   2.468502e-31   0.000000e+00   0.000000e+00
      744000   7.439990e-08   1.027566e-01   8.331006e+00   1.681658e+00   3.724307e+04  -3.914249e+04  -1.371734e+05   5.143723e+09   2.195458e+09   7.700642e+08   1.474304e+05   2.468320e-31   0.000000e+00   0.000000e+00
      752000   7.519990e-08   1.027864e-01   8.330974e+00   1.681548e+00   3.724718e+04  -3.914074e+04  -1.371728e+05   5.143500e+09   2.195392e+09   7.702085e+08   1.474304e+05   2.468137e-31   0.000000e+00   0.000000e+00
      760000   7.599990e-08   1.028162e-01   8.330943e+00   1.681439e+00   3.725130e+04  -3.913898e+04  -1.371721e+05   5.143278e+09   2.195326e+09   7.703528e+08   1.474304e+05   2.467954e-31   0.000000e+00   0.000000e+00
      768000   7.679990e-08   1.028460e-01   8.330912e+00   1.681329e+00   3.725541e+04  -3.913722e+04  -1.371715e+05   5.143055e+09   2.195260e+09   7.704971e+08   1.474304e+05   2.467772e-31   0.000000e+00   0.000000e+00
      776000   7.759990e-08   1.028758e-01   8.330880e+00   1.681219e+00   3.725953e+04  -3.913547e+04  -1.371709e+05   5.142833e+09   2.195194e+09   7.706414e+08   1.474304e+05   2.467589e-31   0.000000e+00   0.000000e+00
      784000   7.839990e-08   1.029056e-01   8.330849e+00   1.681109e+00   3.726364e+04  -3.913371e+04  -1.371703e+05   5.142610e+09   2.195127e+09   7.707857e+08   1.474304e+05   2.467407e-31   0.000000e+00   0.000000e+00
      792000   7.919990e-08   1.029355e-01   8.330818e+00   1.681000e+00   3.726775e+04  -3.913196e+04  -1.371697e+05   5.142388e+09   2.195061e+09   7.709301e+08   1.474304e+05   2.467224e-31   0.000000e+00   0.000000e+00
      800000   7.999990e-08   1.029653e-01   8.330787e+00   1.680890e+00   3.727187e+04  -3.913020e+04  -1.371691e+05   5.142166e+09   2.194994e+09   7.710744e+08   1.474304e+05   2.467042e-31   0.000000e+00   0.000000e+00
      808000   8.079990e-08   1.029951e-01   8.330755e+00   1.680780e+00   3.727598e+04  -3.912844e+04  -1.371684e+05   5.141943e+09   2.194928e+09   7.712188e+08   1.474304e+05   2.466859e-31   0.000000e+00   0.000000e+00
      816000   8.159990e-08   1.030249e-01   8.330724e+00   1.680671e+00   3.728010e+04  -3.912669e+04  -1.371678e+05   5.141721e+09   2.194861e+09   7.713632e+08   1.474304e+05   2.466677e-31   0.000000e+00   0.000000e+00
      824000   8.239990e-08   1.030547e-01   8.330693e+00   1.680561e+00   3.728421e+04  -3.912493e+04  -1.371672e+05   5.141499e+09   2.194794e+09   7.715076e+08   1.474304e+05   2.466494e-31   0.000000e+00   0.000000e+00
      832000   8.319990e-08   1.030846e-01   8.330661e+00   1.680451e+00   3.728832e+04  -3.912318e+04  -1.371666e+05   5.141277e+09   2.194727e+09   7.716521e+08   1.474304e+05   2.466312e-31   0.000000e+00   0.000000e+00
      840000   8.399990e-08   1.031144e-01   8.330630e+00   1.680341e+00   3.729243e+04  -3.912142e+04  -1.371660e+05   5.141055e+09   2.194660e+09   7.717965e+08   1.474304e+05   2.466129e-31   0.000000e+00   0.000000e+00
      848000   8.479990e-08   1.031442e-01   8.330599e+00   1.680232e+00   3.729655e+04  -3.911966e+04  -1.371654e+05   5.140832e+09   2.194593e+09   7.719410e+08   1.474304e+05   2.465947e-31   0.000000e+00   0.000000e+00
      856000   8.559990e-08   1.031741e-01   8.330567e+00   1.680122e+00   3.730066e+04  -3.911791e+04  -1.371647e+05   5.140610e+09   2.194526e+09   7.720855e+08   1.474304e+05   2.465765e-31   0.000000e+00   0.000000e+00
      864000   8.639990e-08   1.032039e-01   8.330536e+00   1.680012e+00   3.730477e+04  -3.911615e+04  -1.371641e+05   5.140388e+09   2.194458e+09   7.722300e+08   1.474304e+05   2.465582e-31   0.000000e+00   0.000000e+00
      872000   8.719990e-08   1.032338e-01   8.330505e+00   1.679902e+00   3.730888e+04  -3.911440e+04  -1.371635e+05   5.140167e+09   2.194391e+09   7.723746e+08   1.474304e+05   2.465400e-31   0.000000e+00   0.000000e+00
      880000   8.799990e-08   1.032636e-01   8.330474e+00   1.679793e+00   3.731300e+04  -3.911264e+04  -1.371629e+05   5.139945e+09   2.194323e+09   7.725191e+08   1.474304e+05   2.465218e-31   0.000000e+00   0.000000e+00
      888000   8.879990e-08   1.032935e-01   8.330442e+00   1.679683e+00   3.731711e+04  -3.911089e+04  -1.371623e+05   5.139723e+09   2.194256e+09   7.726637e+08   1.474304e+05   2.465035e-31   0.000000e+00   0.000000e+00
      896000   8.959990e-08   1.033233e-01   8.330411e+00   1.679573e+00   3.732122e+04  -3.910913e+04  -1.371616e+05   5.139501e+09   2.194188e+09   7.728083e+08   1.474304e+05   2.464853e-31   0.000000e+00   0.000000e+00
      904000   9.039990e-08   1.033532e-01   8.330380e+00   1.679464e+00   3.732533e+04  -3.910738e+04  -1.371610e+05   5.139279e+09   2.194120e+09   7.729529e+08   1.474304e+05   2.464671e-31   0.000000e+00   0.000000e+00
      912000   9.119990e-08   1.033830e-01   8.330348e+00   1.679354e+00   3.732944e+04  -3.910562e+04  -1.371604e+05   5.139058e+09   2.194052e+09   7.730975e+08   1.474304e+05   2.464489e-31   0.000000e+00   0.000000e+00
      920000   9.199990e-08   1.034129e-01   8.330317e+00   1.679244e+00   3.733355e+04  -3.910387e+04  -1.371598e+05   5.138836e+09   2.193985e+09   7.732422e+08   1.474304e+05   2.464306e-31   0.000000e+00   0.000000e+00
      928000   9.279990e-08   1.034428e-01   8.330286e+00   1.679134e+00   3.733766e+04  -3.910211e+04  -1.371592e+05   5.138614e+09   2.193917e+09   7.733868e+08   1.474304e+05   2.464124e-31   0.000000e+00   0.000000e+00
      936000   9.359990e-08   1.034726e-01   8.330255e+00   1.679025e+00   3.734178e+04  -3.910036e+04  -1.371586e+05   5.138393e+09   2.193848e+09   7.735315e+08   1.474304e+05   2.463942e-31   0.000000e+00   0.000000e+00
      944000   9.439990e-08   1.035025e-01   8.330223e+00   1.678915e+00   3.734589e+04  -3.909860e+04  -1.371579e+05   5.138171e+09   2.193780e+09   7.736762e+08   1.474304e+05   2.463760e-31   0.000000e+00   0.000000e+00
      952000   9.519990e-08   1.035324e-01   8.330192e+00   1.678805e+00   3.735000e+04  -3.909685e+04  -1.371573e+05   5.137950e+09   2.193712e+09   7.738209e+08   1.474304e+05   2.463578e-31   0.000000e+00   0.000000e+00
      960000   9.599990e-08   1.035623e-01   8.330161e+00   1.678695e+00   3.735411e+04  -3.909509e+04  -1.371567e+05   5.137729e+09   2.193643e+09   7.739656e+08   1.474304e+05   2.463396e-31   0.000000e+00   0.000000e+00
      968000   9.679990e-08   1.035922e-01   8.330129e+00   1.678586e+00   3.735822e+04  -3.909334e+04  -1.371561e+05   5.137507e+09   2.193575e+09   7.741104e+08   1.474304e+05   2.463214e-31   0.000000e+00   0.000000e+00
      976000   9.759990e-08   1.036221e-01   8.330098e+00   1.678476e+00   3.736233e+04  -3.909158e+04  -1.371555e+05   5.137286e+09   2.193506e+09   7.742552e+08   1.474304e+05   2.463032e-31   0.000000e+00   0.000000e+00
      984000   9.839990e-08   1.036519e-01   8.330067e+00   1.678366e+00   3.736644e+04  -3.908983e+04  -1.371548e+05   5.137065e+09   2.193438e+09   7.744000e+08   1.474304e+05   2.462850e-31   0.000000e+00   0.000000e+00
      992000   9.919990e-08   1.036818e-01   8.330036e+00   1.678257e+00   3.737055e+04  -3.908807e+04  -1.371542e+05   5.136843e+09   2.193369e+09   7.745448e+08   1.474304e+05   2.462668e-31   0.000000e+00   0.000000e+00
     1000000   9.999990e-08   1.037117e-01   8.330004e+00   1.678147e+00   3.737466e+04  -3.908632e+04  -1.371536e+05   5.136622e+09   2.193300e+09   7.746896e+08   1.474304e+05   2.462486e-31   0.000000e+00   0.000000e+00
     1008000   1.007999e-07   1.037416e-01   8.329973e+00   1.678037e+00   3.737876e+04  -3.908456e+04  -1.371530e+05   5.136401e+09   2.193231e+09   7.748344e+08   1.474304e+05   2.462304e-31   0.000000e+00   0.000000e+00
     1016000   1.015999e-07   1.037715e-01   8.329942e+00   1.677927e+00   3.738287e+04  -3.908281e+04  -1.371524e+05   5.136180e+09   2.193162e+09   7.749793e+08   1.474304e+05   2.462122e-31   0.000000e+00   0.000000e+00
     1024000   1.023999e-07   1.038015e-01   8.329911e+00   1.677818e+00   3.738698e+04  -3.908105e+04  -1.371517e+05   5.135959e+09   2.193093e+09   7.751242e+08   1.474304e+05   2.461940e-31   0.000000e+00   0.000000e+00
     1032000   1.031999e-07   1.038314e-01   8.329879e+00   1.677708e+00   3.739109e+04  -3.907930e+04  -1.371511e+05   5.135738e+09   2.193024e+09   7.752691e+08   1.474304e+05   2.461758e-31   0.000000e+00   0.000000e+00
     1040000   1.039999e-07   1.038613e-01   8.329848e+00   1.677598e+00   3.739520e+04  -3.907754e+04  -1.371505e+05   5.135517e+09   2.192955e+09   7.754140e+08   1.474304e+05   2.461576e-31   0.000000e+00   0.000000e+00
     1048000   1.047999e-07   1.038912e-01   8.329817e+00   1.677488e+00   3.739931e+04  -3.907579e+04  -1.371499e+05   5.135296e+09   2.192885e+09   7.755589e+08   1.474304e+05   2.461394e-31   0.000000e+00   0.000000e+00
     1056000   1.055999e-07   1.039211e-01   8.329786e+00   1.677379e+00   3.740342e+04  -3.907404e+04  -1.371493e+05   5.135076e+09   2.192816e+09   7.757039e+08   1.474304e+05   2.461213e-31   0.000000e+00   0.000000e+00
     1064000   1.063999e-07   1.039510e-01   8.329754e+00   1.677269e+00   3.740752e+04  -3.907228e+04  -1.371486e+05   5.134855e+09   2.192746e+09   7.758489e+08   1.474304e+05   2.461031e-31   0.000000e+00   0.000000e+00
     1072000   1.071999e-07   1.039810e-01   8.329723e+00   1.677159e+00   3.741163e+04  -3.907053e+04  -1.371480e+05   5.134634e+09   2.192676e+09   7.759938e+08   1.474304e+05   2.460849e-31   0.000000e+00   0.000000e+00
     1080000   1.079999e-07   1.040109e-01   8.329692e+00   1.677050e+00   3.741574e+04  -3.906877e+04  -1.371474e+05   5.134413e+09   2.192607e+09   7.761389e+08   1.474304e+05   2.460667e-31   0.000000e+00   0.000000e+00
     1088000   1.087999e-07   1.040408e-01   8.329661e+00   1.676940e+00   3.741985e+04  -3.906702e+04  -1.371468e+05   5.134193e+09   2.192537e+09   7.762839e+08   1.474304e+05   2.460486e-31   0.000000e+00   0.000000e+00
     1096000   1.095999e-07   1.040708e-01   8.329629e+00   1.676830e+00   3.742395e+04  -3.906527e+04  -1.371462e+05   5.133972e+09   2.192467e+09   7.764289e+08   1.474304e+05   2.460304e-31   0.000000e+00   0.000000e+00
     1104000   1.103999e-07   1.041007e-01   8.329598e+00   1.676720e+00   3.742806e+04  -3.906351e+04  -1.371455e+05   5.133752e+09   2.192397e+09   7.765740e+08   1.474304e+05   2.460122e-31   0.000000e+00   0.000000e+00
     1112000   1.111999e-07   1.041307e-01   8.329567e+00   1.676611e+00   3.743217e+04  -3.906176e+04  -1.371449e+05   5.133531e+09   2.192327e+09   7.767191e+08   1.474304e+05   2.459940e-31   0.000000e+00   0.000000e+00
     1120000   1.119999e-07   1.041606e-01   8.329536e+00   1.676501e+00   3.743628e+04  -3.906000e+04  -1.371443e+05   5.133311e+09   2.192257e+09   7.768642e+08   1.474304e+05   2.459759e-31   0.000000e+00   0.000000e+00
     1128000   1.127999e-07   1.041906e-01   8.329504e+00   1.676391e+00   3.744038e+04  -3.905825e+04  -1.371437e+05   5.133090e+09   2.192186e+09   7.770093e+08   1.474304e+05   2.459577e-31   0.000000e+00   0.000000e+00
     1136000   1.135999e-07   1.042205e-01   8.329473e+00   1.676282e+00   3.744449e+04  -3.905650e+04  -1.371430e+05   5.132870e+09   2.192116e+09   7.771544e+08   1.474304e+05   2.459396e-31   0.000000e+00   0.000000e+00
     1144000   1.143999e-07   1.042505e-01   8.329442e+00   1.676172e+00   3.744859e+04  -3.905474e+04  -1.371424e+05   5.132650e+09   2.192045e+09   7.772996e+08   1.474304e+05   2.459214e-31   0.000000e+00   0.000000e+00
     1152000   1.151999e-07   1.042804e-01   8.329411e+00   1.676062e+00   3.745270e+04  -3.905299e+04  -1.371418e+05   5.132430e+09   2.191975e+09   7.774448e+08   1.474304e+05   2.459032e-31   0.000000e+00   0.000000e+00
     1160000   1.159999e-07   1.043104e-01   8.329379e+00   1.675952e+00   3.745681e+04  -3.905124e+04  -1.371412e+05   5.132209e+09   2.191904e+09   7.775900e+08   1.474304e+05   2.458851e-31   0.000000e+00   0.000000e+00
     1168000   1.167999e-07   1.043404e-01   8.329348e+00   1.675843e+00   3.746091e+04  -3.904948e+04  -1.371406e+05   5.131989e+09   2.191834e+09   7.777352e+08   1.474304e+05   2.458669e-31   0.000000e+00   0.000000e+00
     1176000   1.175999e-07   1.043703e-01   8.329317e+00   1.675733e+00   3.746502e+04  -3.904773e+04  -1.371399e+05   5.131769e+09   2.191763e+09   7.778804e+08   1.474304e+05   2.458488e-31   0.000000e+00   0.000000e+00
     1184000   1.183999e-07   1.044003e-01   8.329286e+00   1.675623e+00   3.746912e+04  -3.904597e+04  -1.371393e+05   5.131549e+09   2.191692e+09   7.780256e+08   1.474304e+05   2.458306e-31   0.000000e+00   0.000000e+00
     1192000   1.191999e-07   1.044303e-01   8.329254e+00   1.675514e+00   3.747323e+04  -3.904422e+04  -1.371387e+05   5.131329e+09   2.191621e+09   7.781709e+08   1.474304e+05   2.458125e-31   0.000000e+00   0.000000e+00
     1200000   1.199999e-07   1.044603e-01   8.329223e+00   1.675404e+00   3.747733e+04  -3.904247e+04  -1.371381e+05   5.131109e+09   2.191550e+09   7.783162e+08   1.474304e+05   2.457944e-31   0.000000e+00   0.000000e+00
     1208000   1.207999e-07   1.044902e-01   8.329192e+00   1.675294e+00   3.748144e+04  -3.904072e+04  -1.371374e+05   5.130889e+09   2.191478e+09   7.784615e+08   1.474304e+05   2.457762e-31   0.000000e+00   0.000000e+00
     1216000   1.215999e-07   1.045202e-01   8.329161e+00   1.675184e+00   3.748554e+04  -3.903896e+04  -1.371368e+05   5.130670e+09   2.191407e+09   7.786068e+08   1.474304e+05   2.457581e-31   0.000000e+00   0.000000e+00
     1224000   1.223999e-07   1.045502e-01   8.329129e+00   1.675075e+00   3.748965e+04  -3.903721e+04  -1.371362e+05   5.130450e+09   2.191336e+09   7.787522e+08   1.474304e+05   2.457399e-31   0.000000e+00   0.000000e+00
     1232000   1.231999e-07   1.045802e-01   8.329098e+00   1.674965e+00   3.749375e+04  -3.903546e+04  -1.371356e+05   5.130230e+09   2.191264e+09   7.788975e+08   1.474304e+05   2.457218e-31   0.000000e+00   0.000000e+00
     1240000   1.239999e-07   1.046102e-01   8.329067e+00   1.674855e+00   3.749786e+04  -3.903370e+04  -1.371350e+05   5.130010e+09   2.191193e+09   7.790429e+08   1.474304e+05   2.457037e-31   0.000000e+00   0.000000e+00
     1248000   1.247999e-07   1.046402e-01   8.329036e+00   1.674746e+00   3.750196e+04  -3.903195e+04  -1.371343e+05   5.129791e+09   2.191121e+09   7.791883e+08   1.474304e+05   2.456855e-31   0.000000e+00   0.000000e+00
     1256000   1.255999e-07   1.046702e-01   8.329004e+00   1.674636e+00   3.750606e+04  -3.903020e+04  -1.371337e+05   5.129571e+09   2.191049e+09   7.793337e+08   1.474304e+05   2.456674e-31   0.000000e+00   0.000000e+00
     1264000   1.263999e-07   1.047002e-01   8.328973e+00   1.674526e+00   3.751017e+04  -3.902844e+04  -1.371331e+05   5.129351e+09   2.190978e+09   7.794791e+08   1.474304e+05   2.456493e-31   0.000000e+00   0.000000e+00
     1272000   1.271999e-07   1.047302e-01   8.328942e+00   1.674417e+00   3.751427e+04  -3.902669e+04  -1.371325e+05   5.129132e+09   2.190906e+09   7.796246e+08   1.474304e+05   2.456312e-31   0.000000e+00   0.000000e+00
     1280000   1.279999e-07   1.047602e-01   8.328911e+00   1.674307e+00   3.751837e+04  -3.902494e+04  -1.371318e+05   5.128912e+09   2.190834e+09   7.797700e+08   1.474304e+05   2.456130e-31   0.000000e+00   0.000000e+00
     1288000   1.287999e-07   1.047903e-01   8.328880e+00   1.674197e+00   3.752248e+04  -3.902319e+04  -1.371312e+05   5.128693e+09   2.190762e+09   7.799155e+08   1.474304e+05   2.455949e-31   0.000000e+00   0.000000e+00
     1296000   1.295999e-07   1.048203e-01   8.328848e+00   1.674087e+00   3.752658e+04  -3.902143e+04  -1.371306e+05   5.128474e+09   2.190689e+09   7.800610e+08   1.474304e+05   2.455768e-31   0.000000e+00   0.000000e+00
     1304000   1.303999e-07   1.048503e-01   8.328817e+00   1.673978e+00   3.753068e+04  -3.901968e+04  -1.371300e+05   5.128254e+09   2.190617e+09   7.802066e+08   1.474304e+05   2.455587e-31   0.000000e+00   0.000000e+00
     1312000   1.311999e-07   1.048803e-01   8.328786e+00   1.673868e+00   3.753478e+04  -3.901793e+04  -1.371293e+05   5.128035e+09   2.190545e+09   7.803521e+08   1.474304e+05   2.455406e-31   0.000000e+00   0.000000e+00
     1320000   1.319999e-07   1.049104e-01   8.328755e+00   1.673758e+00   3.753889e+04  -3.901618e+04  -1.371287e+05   5.127816e+09   2.190472e+09   7.804977e+08   1.474304e+05   2.455225e-31   0.000000e+00   0.000000e+00
     1328000   1.327999e-07   1.049404e-01   8.328724e+00   1.673649e+00   3.754299e+04  -3.901442e+04  -1.371281e+05   5.127597e+09   2.190400e+09   7.806432e+08   1.474304e+05   2.455044e-31   0.000000e+00   0.000000e+00
     1336000   1.335999e-07   1.049704e-01   8.328692e+00   1.673539e+00   3.754709e+04  -3.901267e+04  -1.371275e+05   5.127378e+09   2.190327e+09   7.807888e+08   1.474304e+05   2.454862e-31   0.000000e+00   0.000000e+00
     1344000   1.343999e-07   1.050005e-01   8.328661e+00   1.673429e+00   3.755119e+04  -3.901092e+04  -1.371268e+05   5.127159e+09   2.190255e+09   7.809344e+08   1.474304e+05   2.454681e-31   0.000000e+00   0.000000e+00
     1352000   1.351999e-07   1.050305e-01   8.328630e+00   1.673319e+00   3.755529e+04  -3.900917e+04  -1.371262e+05   5.126940e+09   2.190182e+09   7.810801e+08   1.474304e+05   2.454500e-31   0.000000e+00   0.000000e+00
     1360000   1.359999e-07   1.050606e-01   8.328599e+00   1.673210e+00   3.755940e+04  -3.900742e+04  -1.371256e+05   5.126721e+09   2.190109e+09   7.812257e+08   1.474304e+05   2.454319e-31   0.000000e+00   0.000000e+00
     1368000   1.367999e-07   1.050906e-01   8.328567e+00   1.673100e+00   3.756350e+04  -3.900566e+04  -1.371250e+05   5.126502e+09   2.190036e+09   7.813714e+08   1.474304e+05   2.454138e-31   0.000000e+00   0.000000e+00
     1376000   1.375999e-07   1.051207e-01   8.328536e+00   1.672990e+00   3.756760e+04  -3.900391e+04  -1.371243e+05   5.126283e+09   2.189963e+09   7.815171e+08   1.474304e+05   2.453958e-31   0.000000e+00   0.000000e+00
     1384000   1.383999e-07   1.051507e-01   8.328505e+00   1.672881e+00   3.757170e+04  -3.900216e+04  -1.371237e+05   5.126064e+09   2.189890e+09   7.816628e+08   1.474304e+05   2.453777e-31   0.000000e+00   0.000000e+00
     1392000   1.391999e-07   1.051808e-01   8.328474e+00   1.672771e+00   3.757580e+04  -3.900041e+04  -1.371231e+05   5.125845e+09   2.189816e+09   7.818085e+08   1.474304e+05   2.453596e-31   0.000000e+00   0.000000e+00
     1400000   1.399999e-07   1.052108e-01   8.328443e+00   1.672661e+00   3.757990e+04  -3.899866e+04  -1.371225e+05   5.125626e+09   2.189743e+09   7.819543e+08   1.474304e+05   2.453415e-31   0.000000e+00   0.000000e+00
     1408000   1.407999e-07   1.052409e-01   8.328411e+00   1.672552e+00   3.758400e+04  -3.899690e+04  -1.371218e+05   5.125408e+09   2.189670e+09   7.821000e+08   1.474304e+05   2.453234e-31   0.000000e+00   0.000000e+00
     1416000   1.415999e-07   1.052710e-01   8.328380e+00   1.672442e+00   3.758810e+04  -3.899515e+04  -1.371212e+05   5.125189e+09   2.189596e+09   7.822458e+08   1.474304e+05   2.453053e-31   0.000000e+00   0.000000e+00
     1424000   1.423999e-07   1.053010e-01   8.328349e+00   1.672332e+00   3.759220e+04  -3.899340e+04  -1.371206e+05   5.124971e+09   2.189522e+09   7.823916e+08   1.474304e+05   2.452872e-31   0.000000e+00   0.000000e+00
     1432000   1.431999e-07   1.053311e-01   8.328318e+00   1.672222e+00   3.759630e+04  -3.899165e+04  -1.371200e+05   5.124752e+09   2.189449e+09   7.825374e+08   1.474304e+05   2.452691e-31   0.000000e+00   0.000000e+00
     1440000   1.439999e-07   1.053612e-01   8.328287e+00   1.672113e+00   3.760040e+04  -3.898990e+04  -1.371193e+05   5.124534e+09   2.189375e+09   7.826832e+08   1.474304e+05   2.452511e-31   0.000000e+00   0.000000e+00
     1448000   1.447999e-07   1.053913e-01   8.328256e+00   1.672003e+00   3.760450e+04  -3.898815e+04  -1.371187e+05   5.124315e+09   2.189301e+09   7.828291e+08   1.474304e+05   2.452330e-31   0.000000e+00   0.000000e+00
     1456000   1.455999e-07   1.054214e-01   8.328224e+00   1.671893e+00   3.760860e+04  -3.898639e+04  -1.371181e+05   5.124097e+09   2.189227e+09   7.829750e+08   1.474304e+05   2.452149e-31   0.000000e+00   0.000000e+00
     1464000   1.463999e-07   1.054514e-01   8.328193e+00   1.671784e+00   3.761270e+04  -3.898464e+04  -1.371175e+05   5.123878e+09   2.189153e+09   7.831209e+08   1.474304e+05   2.451968e-31   0.000000e+00   0.000000e+00
     1472000   1.471999e-07   1.054815e-01   8.328162e+00   1.671674e+00   3.761680e+04  -3.898289e+04  -1.371168e+05   5.123660e+09   2.189079e+09   7.832668e+08   1.474304e+05   2.451788e-31   0.000000e+00   0.000000e+00
     1480000   1.479999e-07   1.055116e-01   8.328131e+00   1.671564e+00   3.762090e+04  -3.898114e+04  -1.371162e+05   5.123442e+09   2.189005e+09   7.834127e+08   1.474304e+05   2.451607e-31   0.000000e+00   0.000000e+00
     1488000   1.487999e-07   1.055417e-01   8.328100e+00   1.671455e+00   3.762500e+04  -3.897939e+04  -1.371156e+05   5.123224e+09   2.188930e+09   7.835586e+08   1.474304e+05   2.451426e-31   0.000000e+00   0.000000e+00
     1496000   1.495999e-07   1.055718e-01   8.328068e+00   1.671345e+00   3.762909e+04  -3.897764e+04  -1.371149e+05   5.123005e+09   2.188856e+09   7.837046e+08   1.474304e+05   2.451246e-31   0.000000e+00   0.000000e+00
     1504000   1.503999e-07   1.056019e-01   8.328037e+00   1.671235e+00   3.763319e+04  -3.897589e+04  -1.371143e+05   5.122787e+09   2.188781e+09   7.838506e+08   1.474304e+05   2.451065e-31   0.000000e+00   0.000000e+00
     1512000   1.511999e-07   1.056320e-01   8.328006e+00   1.671126e+00   3.763729e+04  -3.897414e+04  -1.371137e+05   5.122569e+09   2.188707e+09   7.839966e+08   1.474304e+05   2.450885e-31   0.000000e+00   0.000000e+00
     1520000   1.519999e-07   1.056622e-01   8.327975e+00   1.671016e+00   3.764139e+04  -3.897239e+04  -1.371131e+05   5.122351e+09   2.188632e+09   7.841426e+08   1.474304e+05   2.450704e-31   0.000000e+00   0.000000e+00
     1528000   1.527999e-07   1.056923e-01   8.327944e+00   1.670906e+00   3.764549e+04  -3.897063e+04  -1.371124e+05   5.122133e+09   2.188557e+09   7.842886e+08   1.474304e+05   2.450524e-31   0.000000e+00   0.000000e+00
     1536000   1.535999e-07   1.057224e-01   8.327913e+00   1.670796e+00   3.764958e+04  -3.896888e+04  -1.371118e+05   5.121915e+09   2.188482e+09   7.844347e+08   1.474304e+05   2.450343e-31   0.000000e+00   0.000000e+00
     1544000   1.543999e-07   1.057525e-01   8.327881e+00   1.670687e+00   3.765368e+04  -3.896713e+04  -1.371112e+05   5.121698e+09   2.188408e+09   7.845808e+08   1.474304e+05   2.450163e-31   0.000000e+00   0.000000e+00
     1552000   1.551999e-07   1.057826e-01   8.327850e+00   1.670577e+00   3.765778e+04  -3.896538e+04  -1.371106e+05   5.121480e+09   2.188332e+09   7.847269e+08   1.474304e+05   2.449982e-31   0.000000e+00   0.000000e+00
     1560000   1.559999e-07   1.058128e-01   8.327819e+00   1.670467e+00   3.766188e+04  -3.896363e+04  -1.371099e+05   5.121262e+09   2.188257e+09   7.848730e+08   1.474304e+05   2.449802e-31   0.000000e+00   0.000000e+00
     1568000   1.567999e-07   1.058429e-01   8.327788e+00   1.670358e+00   3.766597e+04  -3.896188e+04  -1.371093e+05   5.121044e+09   2.188182e+09   7.850191e+08   1.474304e+05   2.449621e-31   0.000000e+00   0.000000e+00
     1576000   1.575999e-07   1.058730e-01   8.327757e+00   1.670248e+00   3.767007e+04  -3.896013e+04  -1.371087e+05   5.120827e+09   2.188107e+09   7.851652e+08   1.474304e+05   2.449441e-31   0.000000e+00   0.000000e+00
     1584000   1.583999e-07   1.059032e-01   8.327725e+00   1.670138e+00   3.767417e+04  -3.895838e+04  -1.371080e+05   5.120609e+09   2.188031e+09   7.853114e+08   1.474304e+05   2.449260e-31   0.000000e+00   0.000000e+00
     1592000   1.591999e-07   1.059333e-01   8.327694e+00   1.670029e+00   3.767826e+04  -3.895663e+04  -1.371074e+05   5.120391e+09   2.187956e+09   7.854576e+08   1.474304e+05   2.449080e-31   0.000000e+00   0.000000e+00
     1600000   1.599999e-07   1.059635e-01   8.327663e+00   1.669919e+00   3.768236e+04  -3.895488e+04  -1.371068e+05   5.120174e+09   2.187880e+09   7.856038e+08   1.474304e+05   2.448900e-31   0.000000e+00   0.000000e+00
     1608000   1.607999e-07   1.059936e-01   8.327632e+00   1.669809e+00   3.768645e+04  -3.895313e+04  -1.371062e+05   5.119956e+09   2.187805e+09   7.857500e+08   1.474304e+05   2.448719e-31   0.000000e+00   0.000000e+00
     1616000   1.615999e-07   1.060237e-01   8.327601e+00   1.669700e+00   3.769055e+04  -3.895138e+04  -1.371055e+05   5.119739e+09   2.187729e+09   7.858963e+08   1.474304e+05   2.448539e-31   0.000000e+00   0.000000e+00
     1624000   1.623999e-07   1.060539e-01   8.327570e+00   1.669590e+00   3.769465e+04  -3.894963e+04  -1.371049e+05   5.119522e+09   2.187653e+09   7.860425e+08   1.474304e+05   2.448359e-31   0.000000e+00   0.000000e+00
     1632000   1.631999e-07   1.060841e-01   8.327539e+00   1.669480e+00   3.769874e+04  -3.894788e+04  -1.371043e+05   5.119304e+09   2.187577e+09   7.861888e+08   1.474304e+05   2.448179e-31   0.000000e+00   0.000000e+00
     1640000   1.639999e-07   1.061142e-01   8.327507e+00   1.669371e+00   3.770284e+04  -3.894613e+04  -1.371036e+05   5.119087e+09   2.187501e+09   7.863351e+08   1.474304e+05   2.447998e-31   0.000000e+00   0.000000e+00
     1648000   1.647999e-07   1.061444e-01   8.327476e+00   1.669261e+00   3.770693e+04  -3.894438e+04  -1.371030e+05   5.118870e+09   2.187425e+09   7.864814e+08   1.474304e+05   2.447818e-31   0.000000e+00   0.000000e+00
     1656000   1.655999e-07   1.061746e-01   8.327445e+00   1.669151e+00   3.771103e+04  -3.894263e+04  -1.371024e+05   5.118653e+09   2.187349e+09   7.866277e+08   1.474304e+05   2.447638e-31   0.000000e+00   0.000000e+00
     1664000   1.663999e-07   1.062047e-01   8.327414e+00   1.669042e+00   3.771512e+04  -3.894088e+04  -1.371018e+05   5.118436e+09   2.187272e+09   7.867741e+08   1.474304e+05   2.447458e-31   0.000000e+00   0.000000e+00
     1672000   1.671999e-07   1.062349e-01   8.327383e+00   1.668932e+00   3.771922e+04  -3.893913e+04  -1.371011e+05   5.118218e+09   2.187196e+09   7.869204e+08   1.474304e+05   2.447278e-31   0.000000e+00   0.000000e+00
     1680000   1.679999e-07   1.062651e-01   8.327352e+00   1.668822e+00   3.772331e+04  -3.893738e+04  -1.371005e+05   5.118001e+09   2.187120e+09   7.870668e+08   1.474304e+05   2.447098e-31   0.000000e+00   0.000000e+00
     1688000   1.687999e-07   1.062953e-01   8.327320e+00   1.668712e+00   3.772741e+04  -3.893563e+04  -1.370999e+05   5.117784e+09   2.187043e+09   7.872132e+08   1.474304e+05   2.446917e-31   0.000000e+00   0.000000e+00
     1696000   1.695999e-07   1.063254e-01   8.327289e+00   1.668603e+00   3.773150e+04  -3.893388e+04  -1.370992e+05   5.117568e+09   2.186966e+09   7.873596e+08   1.474304e+05   2.446737e-31   0.000000e+00   0.000000e+00
     1704000   1.703999e-07   1.063556e-01   8.327258e+00   1.668493e+00   3.773559e+04  -3.893213e+04  -1.370986e+05   5.117351e+09   2.186890e+09   7.875061e+08   1.474304e+05   2.446557e-31   0.000000e+00   0.000000e+00
     1712000   1.711999e-07   1.063858e-01   8.327227e+00   1.668383e+00   3.773969e+04  -3.893038e+04  -1.370980e+05   5.117134e+09   2.186813e+09   7.876525e+08   1.474304e+05   2.446377e-31   0.000000e+00   0.000000e+00
     1720000   1.719999e-07   1.064160e-01   8.327196e+00   1.668274e+00   3.774378e+04  -3.892863e+04  -1.370973e+05   5.116917e+09   2.186736e+09   7.877990e+08   1.474304e+05   2.446197e-31   0.000000e+00   0.000000e+00
     1728000   1.727999e-07   1.064462e-01   8.327165e+00   1.668164e+00   3.774787e+04  -3.892688e+04  -1.370967e+05   5.116700e+09   2.186659e+09   7.879455e+08   1.474304e+05   2.446017e-31   0.000000e+00   0.000000e+00
     1736000   1.735999e-07   1.064764e-01   8.327134e+00   1.668054e+00   3.775197e+04  -3.892513e+04  -1.370961e+05   5.116484e+09   2.186582e+09   7.880920e+08   1.474304e+05   2.445837e-31   0.000000e+00   0.000000e+00
     1744000   1.743999e-07   1.065066e-01   8.327102e+00   1.667945e+00   3.775606e+04  -3.892338e+04  -1.370955e+05   5.116267e+09   2.186505e+09   7.882386e+08   1.474304e+05   2.445657e-31   0.000000e+00   0.000000e+00
     1752000   1.751999e-07   1.065368e-01   8.327071e+00   1.667835e+00   3.776015e+04  -3.892163e+04  -1.370948e+05   5.116050e+09   2.186427e+09   7.883851e+08   1.474304e+05   2.445477e-31   0.000000e+00   0.000000e+00
     1760000   1.759999e-07   1.065670e-01   8.327040e+00   1.667725e+00   3.776425e+04  -3.891989e+04  -1.370942e+05   5.115834e+09   2.186350e+09   7.885317e+08   1.474304e+05   2.445298e-31   0.000000e+00   0.000000e+00
     1768000   1.767999e-07   1.065972e-01   8.327009e+00   1.667616e+00   3.776834e+04  -3.891814e+04  -1.370936e+05   5.115617e+09   2.186272e+09   7.886783e+08   1.474304e+05   2.445118e-31   0.000000e+00   0.000000e+00
     1776000   1.775999e-07   1.066275e-01   8.326978e+00   1.667506e+00   3.777243e+04  -3.891639e+04  -1.370929e+05   5.115401e+09   2.186195e+09   7.888249e+08   1.474304e+05   2.444938e-31   0.000000e+00   0.000000e+00
     1784000   1.783999e-07   1.066577e-01   8.326947e+00   1.667396e+00   3.777652e+04  -3.891464e+04  -1.370923e+05   5.115184e+09   2.186117e+09   7.889715e+08   1.474304e+05   2.444758e-31   0.000000e+00   0.000000e+00
     1792000   1.791999e-07   1.066879e-01   8.326916e+00   1.667287e+00   3.778062e+04  -3.891289e+04  -1.370917e+05   5.114968e+09   2.186040e+09   7.891182e+08   1.474304e+05   2.444578e-31   0.000000e+00   0.000000e+00
     1800000   1.799999e-07   1.067181e-01   8.326884e+00   1.667177e+00   3.778471e+04  -3.891114e+04  -1.370910e+05   5.114752e+09   2.185962e+09   7.892648e+08   1.474304e+05   2.444398e-31   0.000000e+00   0.000000e+00
     1808000   1.807999e-07   1.067484e-01   8.326853e+00   1.667067e+00   3.778880e+04  -3.890939e+04  -1.370904e+05   5.114536e+09   2.185884e+09   7.894115e+08   1.474304e+05   2.444219e-31   0.000000e+00   0.000000e+00
     1816000   1.815999e-07   1.067786e-01   8.326822e+00   1.666958e+00   3.779289e+04  -3.890764e+04  -1.370898e+05   5.114319e+09   2.185806e+09   7.895582e+08   1.474304e+05   2.444039e-31   0.000000e+00   0.000000e+00
     1824000   1.823999e-07   1.068088e-01   8.326791e+00   1.666848e+00   3.779698e+04  -3.890589e+04  -1.370891e+05   5.114103e+09   2.185728e+09   7.897049e+08   1.474304e+05   2.443859e-31   0.000000e+00   0.000000e+00
     1832000   1.831999e-07   1.068391e-01   8.326760e+00   1.666738e+00   3.780107e+04  -3.890415e+04  -1.370885e+05   5.113887e+09   2.185650e+09   7.898516e+08   1.474304e+05   2.443679e-31   0.000000e+00   0.000000e+00
     1840000   1.839999e-07   1.068693e-01   8.326729e+00   1.666629e+00   3.780516e+04  -3.890240e+04  -1.370879e+05   5.113671e+09   2.185571e+09   7.899984e+08   1.474304e+05   2.443500e-31   0.000000e+00   0.000000e+00
     1848000   1.847999e-07   1.068995e-01   8.326698e+00   1.666519e+00   3.780926e+04  -3.890065e+04  -1.370872e+05   5.113455e+09   2.185493e+09   7.901452e+08   1.474304e+05   2.443320e-31   0.000000e+00   0.000000e+00
     1856000   1.855999e-07   1.069298e-01   8.326667e+00   1.666409e+00   3.781335e+04  -3.889890e+04  -1.370866e+05   5.113239e+09   2.185415e+09   7.902920e+08   1.474304e+05   2.443141e-31   0.000000e+00   0.000000e+00
     1864000   1.863999e-07   1.069600e-01   8.326636e+00   1.666300e+00   3.781744e+04  -3.889715e+04  -1.370860e+05   5.113023e+09   2.185336e+09   7.904388e+08   1.474304e+05   2.442961e-31   0.000000e+00   0.000000e+00
     1872000   1.871999e-07   1.069903e-01   8.326604e+00   1.666190e+00   3.782153e+04  -3.889540e+04  -1.370854e+05   5.112807e+09   2.185257e+09   7.905856e+08   1.474304e+05   2.442781e-31   0.000000e+00   0.000000e+00
     1880000   1.879999e-07   1.070206e-01   8.326573e+00   1.666080e+00   3.782562e+04  -3.889366e+04  -1.370847e+05   5.112592e+09   2.185179e+09   7.907324e+08   1.474304e+05   2.442602e-31   0.000000e+00   0.000000e+00
     1888000   1.887999e-07   1.070508e-01   8.326542e+00   1.665971e+00   3.782971e+04  -3.889191e+04  -1.370841e+05   5.112376e+09   2.185100e+09   7.908793e+08   1.474304e+05   2.442422e-31   0.000000e+00   0.000000e+00
     1896000   1.895999e-07   1.070811e-01   8.326511e+00   1.665861e+00   3.783380e+04  -3.889016e+04  -1.370835e+05   5.112160e+09   2.185021e+09   7.910262e+08   1.474304e+05   2.442243e-31   0.000000e+00   0.000000e+00
     1904000   1.903999e-07   1.071114e-01   8.326480e+00   1.665751e+00   3.783789e+04  -3.888841e+04  -1.370828e+05   5.111944e+09   2.184942e+09   7.911731e+08   1.474304e+05   2.442063e-31   0.000000e+00   0.000000e+00
     1912000   1.911999e-07   1.071416e-01   8.326449e+00   1.665642e+00   3.784198e+04  -3.888666e+04  -1.370822e+05   5.111729e+09   2.184863e+09   7.913200e+08   1.474304e+05   2.441884e-31   0.000000e+00   0.000000e+00
     1920000   1.919999e-07   1.071719e-01   8.326418e+00   1.665532e+00   3.784607e+04  -3.888492e+04  -1.370816e+05   5.111513e+09   2.184784e+09   7.914670e+08   1.474304e+05   2.441704e-31   0.000000e+00   0.000000e+00
     1928000   1.927999e-07   1.072022e-01   8.326387e+00   1.665422e+00   3.785015e+04  -3.888317e+04  -1.370809e+05   5.111298e+09   2.184705e+09   7.916139e+08   1.474304e+05   2.441525e-31   0.000000e+00   0.000000e+00
     1936000   1.935999e-07   1.072325e-01   8.326356e+00   1.665313e+00   3.785424e+04  -3.888142e+04  -1.370803e+05   5.111082e+09   2.184625e+09   7.917609e+08   1.474304e+05   2.441345e-31   0.000000e+00   0.000000e+00
     1944000   1.943999e-07   1.072628e-01   8.326324e+00   1.665203e+00   3.785833e+04  -3.887967e+04  -1.370797e+05   5.110867e+09   2.184546e+09   7.919079e+08   1.474304e+05   2.441166e-31   0.000000e+00   0.000000e+00
     1952000   1.951999e-07   1.072930e-01   8.326293e+00   1.665093e+00   3.786242e+04  -3.887793e+04  -1.370790e+05   5.110651e+09   2.184466e+09   7.920549e+08   1.474304e+05   2.440987e-31   0.000000e+00   0.000000e+00
     1960000   1.959999e-07   1.073233e-01   8.326262e+00   1.664984e+00   3.786651e+04  -3.887618e+04  -1.370784e+05   5.110436e+09   2.184387e+09   7.922019e+08   1.474304e+05   2.440807e-31   0.000000e+00   0.000000e+00
     1968000   1.967999e-07   1.073536e-01   8.326231e+00   1.664874e+00   3.787060e+04  -3.887443e+04  -1.370778e+05   5.110221e+09   2.184307e+09   7.923490e+08   1.474304e+05   2.440628e-31   0.000000e+00   0.000000e+00
     1976000   1.975999e-07   1.073839e-01   8.326200e+00   1.664764e+00   3.787469e+04  -3.887268e+04  -1.370771e+05   5.110006e+09   2.184227e+09   7.924960e+08   1.474304e+05   2.440449e-31   0.000000e+00   0.000000e+00
     1984000   1.983999e-07   1.074142e-01   8.326169e+00   1.664655e+00   3.787877e+04  -3.887094e+04  -1.370765e+05   5.109790e+09   2.184147e+09   7.926431e+08   1.474304e+05   2.440269e-31   0.000000e+00   0.000000e+00
     1992000   1.991999e-07   1.074445e-01   8.326138e+00   1.664545e+00   3.788286e+04  -3.886919e+04  -1.370759e+05   5.109575e+09   2.184067e+09   7.927902e+08   1.474304e+05   2.440090e-31   0.000000e+00   0.000000e+00
     2000000   1.999999e-07   1.074748e-01   8.326107e+00   1.664435e+00   3.788695e+04  -3.886744e+04  -1.370752e+05   5.109360e+09   2.183987e+09   7.929373e+08   1.474304e+05   2.439911e-31   0.000000e+00   0.000000e+00
     2008000   2.007999e-07   1.075052e-01   8.326076e+00   1.664326e+00   3.789104e+04  -3.886569e+04  -1.370746e+05   5.109145e+09   2.183907e+09   7.930845e+08   1.474304e+05   2.439732e-31   0.000000e+00   0.000000e+00
     2016000   2.015999e-07   1.075355e-01   8.326045e+00   1.664216e+00   3.789512e+04  -3.886395e+04  -1.370739e+05   5.108930e+09   2.183827e+09   7.932316e+08   1.474304e+05   2.439553e-31   0.000000e+00   0.000000e+00
     2024000   2.023999e-07   1.075658e-01   8.326013e+00   1.664106e+00   3.789921e+04  -3.886220e+04  -1.370733e+05   5.108715e+09   2.183747e+09   7.933788e+08   1.474304e+05   2.439373e-31   0.000000e+00   0.000000e+00
     2032000   2.031999e-07   1.075961e-01   8.325982e+00   1.663997e+00   3.790330e+04  -3.886045e+04  -1.370727e+05   5.108500e+09   2.183666e+09   7.935260e+08   1.474304e+05   2.439194e-31   0.000000e+00   0.000000e+00
     2040000   2.039999e-07   1.076264e-01   8.325951e+00   1.663887e+00   3.790738e+04  -3.885871e+04  -1.370720e+05   5.108285e+09   2.183586e+09   7.936732e+08   1.474304e+05   2.439015e-31   0.000000e+00   0.000000e+00
     2048000   2.047999e-07   1.076568e-01   8.325920e+00   1.663777e+00   3.791147e+04  -3.885696e+04  -1.370714e+05   5.108071e+09   2.183505e+09   7.938205e+08   1.474304e+05   2.438836e-31   0.000000e+00   0.000000e+00
     2056000   2.055999e-07   1.076871e-01   8.325889e+00   1.663668e+00   3.791556e+04  -3.885521e+04  -1.370708e+05   5.107856e+09   2.183425e+09   7.939677e+08   1.474304e+05   2.438657e-31   0.000000e+00   0.000000e+00
     2064000   2.063999e-07   1.077174e-01   8.325858e+00   1.663558e+00   3.791964e+04  -3.885347e+04  -1.370701e+05   5.107641e+09   2.183344e+09   7.941150e+08   1.474304e+05   2.438478e-31   0.000000e+00   0.000000e+00
     2072000   2.071999e-07   1.077478e-01   8.325827e+00   1.663448e+00   3.792373e+04  -3.885172e+04  -1.370695e+05   5.107427e+09   2.183263e+09   7.942623e+08   1.474304e+05   2.438299e-31   0.000000e+00   0.000000e+00
     2080000   2.079999e-07   1.077781e-01   8.325796e+00   1.663339e+00   3.792781e+04  -3.884997e+04  -1.370689e+05   5.107212e+09   2.183182e+09   7.944096e+08   1.474304e+05   2.438120e-31   0.000000e+00   0.000000e+00
     2088000   2.087999e-07   1.078084e-01   8.325765e+00   1.663229e+00   3.793190e+04  -3.884823e+04  -1.370682e+05   5.106997e+09   2.183101e+09   7.945569e+08   1.474304e+05   2.437941e-31   0.000000e+00   0.000000e+00
     2096000   2.095999e-07   1.078388e-01   8.325734e+00   1.663119e+00   3.793599e+04  -3.884648e+04  -1.370676e+05   5.106783e+09   2.183020e+09   7.947042e+08   1.474304e+05   2.437762e-31   0.000000e+00   0.000000e+00
     2104000   2.103999e-07   1.078691e-01   8.325703e+00   1.663010e+00   3.794007e+04  -3.884473e+04  -1.370670e+05   5.106569e+09   2.182939e+09   7.948516e+08   1.474304e+05   2.437583e-31   0.000000e+00   0.000000e+00
     2112000   2.111999e-07   1.078995e-01   8.325672e+00   1.662900e+00   3.794416e+04  -3.884299e+04  -1.370663e+05   5.106354e+09   2.182858e+09   7.949990e+08   1.474304e+05   2.437404e-31   0.000000e+00   0.000000e+00
     2120000   2.119999e-07   1.079299e-01   8.325640e+00   1.662790e+00   3.794824e+04  -3.884124e+04  -1.370657e+05   5.106140e+09   2.182776e+09   7.951464e+08   1.474304e+05   2.437225e-31   0.000000e+00   0.000000e+00
     2128000   2.127999e-07   1.079602e-01   8.325609e+00   1.662681e+00   3.795233e+04  -3.883949e+04  -1.370651e+05   5.105925e+09   2.182695e+09   7.952938e+08   1.474304e+05   2.437046e-31   0.000000e+00   0.000000e+00
     2136000   2.135999e-07   1.079906e-01   8.325578e+00   1.662571e+00   3.795641e+04  -3.883775e+04  -1.370644e+05   5.105711e+09   2.182613e+09   7.954412e+08   1.474304e+05   2.436867e-31   0.000000e+00   0.000000e+00
     2144000   2.143999e-07   1.080209e-01   8.325547e+00   1.662462e+00   3.796050e+04  -3.883600e+04  -1.370638e+05   5.105497e+09   2.182532e+09   7.955887e+08   1.474304e+05   2.436689e-31   0.000000e+00   0.000000e+00
     2152000   2.151999e-07   1.080513e-01   8.325516e+00   1.662352e+00   3.796458e+04  -3.883426e+04  -1.370631e+05   5.105283e+09   2.182450e+09   7.957362e+08   1.474304e+05   2.436510e-31   0.000000e+00   0.000000e+00
     2160000   2.159999e-07   1.080817e-01   8.325485e+00   1.662242e+00   3.796866e+04  -3.883251e+04  -1.370625e+05   5.105069e+09   2.182368e+09   7.958837e+08   1.474304e+05   2.436331e-31   0.000000e+00   0.000000e+00
     2168000   2.167999e-07   1.081121e-01   8.325454e+00   1.662133e+00   3.797275e+04  -3.883076e+04  -1.370619e+05   5.104855e+09   2.182286e+09   7.960312e+08   1.474304e+05   2.436152e-31   0.000000e+00   0.000000e+00
     2176000   2.175999e-07   1.081424e-01   8.325423e+00   1.662023e+00   3.797683e+04  -3.882902e+04  -1.370612e+05   5.104641e+09   2.182204e+09   7.961787e+08   1.474304e+05   2.435974e-31   0.000000e+00   0.000000e+00
     2184000   2.183999e-07   1.081728e-01   8.325392e+00   1.661913e+00   3.798092e+04  -3.882727e+04  -1.370606e+05   5.104427e+09   2.182122e+09   7.963262e+08   1.474304e+05   2.435795e-31   0.000000e+00   0.000000e+00
     2192000   2.191999e-07   1.082032e-01   8.325361e+00   1.661804e+00   3.798500e+04  -3.882553e+04  -1.370600e+05   5.104213e+09   2.182040e+09   7.964738e+08   1.474304e+05   2.435616e-31   0.000000e+00   0.000000e+00
     2200000   2.199999e-07   1.082336e-01   8.325330e+00   1.661694e+00   3.798908e+04  -3.882378e+04  -1.370593e+05   5.103999e+09   2.181958e+09   7.966214e+08   1.474304e+05   2.435437e-31   0.000000e+00   0.000000e+00
     2208000   2.207999e-07   1.082640e-01   8.325299e+00   1.661584e+00   3.799317e+04  -3.882204e+04  -1.370587e+05   5.103785e+09   2.181875e+09   7.967690e+08   1.474304e+05   2.435259e-31   0.000000e+00   0.000000e+00
     2216000   2.215999e-07   1.082944e-01   8.325268e+00   1.661475e+00   3.799725e+04  -3.882029e+04  -1.370580e+05   5.103571e+09   2.181793e+09   7.969166e+08   1.474304e+05   2.435080e-31   0.000000e+00   0.000000e+00
     2224000   2.223999e-07   1.083248e-01   8.325237e+00   1.661365e+00   3.800133e+04  -3.881854e+04  -1.370574e+05   5.103358e+09   2.181710e+09   7.970642e+08   1.474304e+05   2.434902e-31   0.000000e+00   0.000000e+00
     2232000   2.231999e-07   1.083552e-01   8.325206e+00   1.661255e+00   3.800541e+04  -3.881680e+04  -1.370568e+05   5.103144e+09   2.181628e+09   7.972119e+08   1.474304e+05   2.434723e-31   0.000000e+00   0.000000e+00
     2240000   2.239999e-07   1.083856e-01   8.325175e+00   1.661146e+00   3.800950e+04  -3.881505e+04  -1.370561e+05   5.102930e+09   2.181545e+09   7.973596e+08   1.474304e+05   2.434544e-31   0.000000e+00   0.000000e+00
     2248000   2.247999e-07   1.084160e-01   8.325143e+00   1.661036e+00   3.801358e+04  -3.881331e+04  -1.370555e+05   5.102717e+09   2.181462e+09   7.975073e+08   1.474304e+05   2.434366e-31   0.000000e+00   0.000000e+00
     2256000   2.255999e-07   1.084464e-01   8.325112e+00   1.660926e+00   3.801766e+04  -3.881156e+04  -1.370549e+05   5.102503e+09   2.181379e+09   7.976550e+08   1.474304e+05   2.434187e-31   0.000000e+00   0.000000e+00
     2264000   2.263999e-07   1.084768e-01   8.325081e+00   1.660817e+00   3.802174e+04  -3.880982e+04  -1.370542e+05   5.102290e+09   2.181296e+09   7.978027e+08   1.474304e+05   2.434009e-31   0.000000e+00   0.000000e+00
     2272000   2.271999e-07   1.085073e-01   8.325050e+00   1.660707e+00   3.802582e+04  -3.880807e+04  -1.370536e+05   5.102076e+09   2.181213e+09   7.979505e+08   1.474304e+05   2.433830e-31   0.000000e+00   0.000000e+00
     2280000   2.279999e-07   1.085377e-01   8.325019e+00   1.660598e+00   3.802991e+04  -3.880633e+04  -1.370529e+05   5.101863e+09   2.181130e+09   7.980982e+08   1.474304e+05   2.433652e-31   0.000000e+00   0.000000e+00
     2288000   2.287999e-07   1.085681e-01   8.324988e+00   1.660488e+00   3.803399e+04  -3.880458e+04  -1.370523e+05   5.101650e+09   2.181047e+09   7.982460e+08   1.474304e+05   2.433474e-31   0.000000e+00   0.000000e+00
     2296000   2.295999e-07   1.085985e-01   8.324957e+00   1.660378e+00   3.803807e+04  -3.880284e+04  -1.370517e+05   5.101436e+09   2.180964e+09   7.983938e+08   1.474304e+05   2.433295e-31   0.000000e+00   0.000000e+00
     2304000   2.303999e-07   1.086290e-01   8.324926e+00   1.660269e+00   3.804215e+04  -3.880109e+04  -1.370510e+05   5.101223e+09   2.180880e+09   7.985417e+08   1.474304e+05   2.433117e-31   0.000000e+00   0.000000e+00
     2312000   2.311999e-07   1.086594e-01   8.324895e+00   1.660159e+00   3.804623e+04  -3.879935e+04  -1.370504e+05   5.101010e+09   2.180797e+09   7.986895e+08   1.474304e+05   2.432938e-31   0.000000e+00   0.000000e+00
     2320000   2.319999e-07   1.086898e-01   8.324864e+00   1.660049e+00   3.805031e+04  -3.879761e+04  -1.370497e+05   5.100797e+09   2.180713e+09   7.988374e+08   1.474304e+05   2.432760e-31   0.000000e+00   0.000000e+00
     2328000   2.327999e-07   1.087203e-01   8.324833e+00   1.659940e+00   3.805439e+04  -3.879586e+04  -1.370491e+05   5.100584e+09   2.180629e+09   7.989852e+08   1.474304e+05   2.432582e-31   0.000000e+00   0.000000e+00
     2336000   2.335999e-07   1.087507e-01   8.324802e+00   1.659830e+00   3.805847e+04  -3.879412e+04  -1.370485e+05   5.100371e+09   2.180546e+09   7.991331e+08   1.474304e+05   2.432403e-31   0.000000e+00   0.000000e+00
     2344000   2.343999e-07   1.087812e-01   8.324771e+00   1.659720e+00   3.806255e+04  -3.879237e+04  -1.370478e+05   5.100158e+09   2.180462e+09   7.992810e+08   1.474304e+05   2.432225e-31   0.000000e+00   0.000000e+00
     2352000   2.351999e-07   1.088116e-01   8.324740e+00   1.659611e+00   3.806663e+04  -3.879063e+04  -1.370472e+05   5.099945e+09   2.180378e+09   7.994290e+08   1.474304e+05   2.432047e-31   0.000000e+00   0.000000e+00
     2360000   2.359999e-07   1.088421e-01   8.324709e+00   1.659501e+00   3.807071e+04  -3.878888e+04  -1.370466e+05   5.099732e+09   2.180294e+09   7.995769e+08   1.474304e+05   2.431869e-31   0.000000e+00   0.000000e+00
     2368000   2.367999e-07   1.088725e-01   8.324678e+00   1.659392e+00   3.807479e+04  -3.878714e+04  -1.370459e+05   5.099519e+09   2.180210e+09   7.997249e+08   1.474304e+05   2.431691e-31   0.000000e+00   0.000000e+00
     2376000   2.375999e-07   1.089030e-01   8.324647e+00   1.659282e+00   3.807887e+04  -3.878539e+04  -1.370453e+05   5.099306e+09   2.180126e+09   7.998729e+08   1.474304e+05   2.431512e-31   0.000000e+00   0.000000e+00
     2384000   2.383999e-07   1.089335e-01   8.324616e+00   1.659172e+00   3.808295e+04  -3.878365e+04  -1.370446e+05   5.099094e+09   2.180041e+09   8.000209e+08   1.474304e+05   2.431334e-31   0.000000e+00   0.000000e+00
     2392000   2.391999e-07   1.089639e-01   8.324585e+00   1.659063e+00   3.808703e+04  -3.878191e+04  -1.370440e+05   5.098881e+09   2.179957e+09   8.001689e+08   1.474304e+05   2.431156e-31   0.000000e+00   0.000000e+00
     2400000   2.399999e-07   1.089944e-01   8.324554e+00   1.658953e+00   3.809111e+04  -3.878016e+04  -1.370434e+05   5.098668e+09   2.179872e+09   8.003170e+08   1.474304e+05   2.430978e-31   0.000000e+00   0.000000e+00
     2408000   2.407999e-07   1.090249e-01   8.324523e+00   1.658843e+00   3.809519e+04  -3.877842e+04  -1.370427e+05   5.098456e+09   2.179788e+09   8.004650e+08   1.474304e+05   2.430800e-31   0.000000e+00   0.000000e+00
     2416000   2.415999e-07   1.090554e-01   8.324492e+00   1.658734e+00   3.809927e+04  -3.877668e+04  -1.370421e+05   5.098243e+09   2.179703e+09   8.006131e+08   1.474304e+05   2.430622e-31   0.000000e+00   0.000000e+00
     2424000   2.423999e-07   1.090858e-01   8.324461e+00   1.658624e+00   3.810334e+04  -3.877493e+04  -1.370414e+05   5.098031e+09   2.179618e+09   8.007612e+08   1.474304e+05   2.430444e-31   0.000000e+00   0.000000e+00
     2432000   2.431999e-07   1.091163e-01   8.324430e+00   1.658514e+00   3.810742e+04  -3.877319e+04  -1.370408e+05   5.097818e+09   2.179534e+09   8.009093e+08   1.474304e+05   2.430266e-31   0.000000e+00   0.000000e+00
     2440000   2.439999e-07   1.091468e-01   8.324399e+00   1.658405e+00   3.811150e+04  -3.877144e+04  -1.370402e+05   5.097606e+09   2.179449e+09   8.010575e+08   1.474304e+05   2.430088e-31   0.000000e+00   0.000000e+00
     2448000   2.447999e-07   1.091773e-01   8.324368e+00   1.658295e+00   3.811558e+04  -3.876970e+04  -1.370395e+05   5.097394e+09   2.179364e+09   8.012056e+08   1.474304e+05   2.429910e-31   0.000000e+00   0.000000e+00
     2456000   2.455999e-07   1.092078e-01   8.324337e+00   1.658186e+00   3.811966e+04  -3.876796e+04  -1.370389e+05   5.097181e+09   2.179279e+09   8.013538e+08   1.474304e+05   2.429732e-31   0.000000e+00   0.000000e+00
     2464000   2.463999e-07   1.092383e-01   8.324306e+00   1.658076e+00   3.812373e+04  -3.876621e+04  -1.370382e+05   5.096969e+09   2.179193e+09   8.015020e+08   1.474304e+05   2.429554e-31   0.000000e+00   0.000000e+00
     2472000   2.471999e-07   1.092688e-01   8.324275e+00   1.657966e+00   3.812781e+04  -3.876447e+04  -1.370376e+05   5.096757e+09   2.179108e+09   8.016502e+08   1.474304e+05   2.429376e-31   0.000000e+00   0.000000e+00
     2480000   2.479999e-07   1.092993e-01   8.324244e+00   1.657857e+00   3.813189e+04  -3.876273e+04  -1.370369e+05   5.096545e+09   2.179023e+09   8.017984e+08   1.474304e+05   2.429198e-31   0.000000e+00   0.000000e+00
     2488000   2.487999e-07   1.093298e-01   8.324213e+00   1.657747e+00   3.813597e+04  -3.876098e+04  -1.370363e+05   5.096333e+09   2.178937e+09   8.019467e+08   1.474304e+05   2.429020e-31   0.000000e+00   0.000000e+00
     2496000   2.495999e-07   1.093603e-01   8.324182e+00   1.657637e+00   3.814004e+04  -3.875924e+04  -1.370357e+05   5.096121e+09   2.178852e+09   8.020949e+08   1.474304e+05   2.428842e-31   0.000000e+00   0.000000e+00
     2504000   2.503999e-07   1.093908e-01   8.324151e+00   1.657528e+00   3.814412e+04  -3.875750e+04  -1.370350e+05   5.095909e+09   2.178766e+09   8.022432e+08   1.474304e+05   2.428665e-31   0.000000e+00   0.000000e+00
     2512000   2.511999e-07   1.094213e-01   8.324120e+00   1.657418e+00   3.814820e+04  -3.875576e+04  -1.370344e+05   5.095697e+09   2.178681e+09   8.023915e+08   1.474304e+05   2.428487e-31   0.000000e+00   0.000000e+00
     2520000   2.519999e-07   1.094519e-01   8.324089e+00   1.657309e+00   3.815227e+04  -3.875401e+04  -1.370337e+05   5.095485e+09   2.178595e+09   8.025399e+08   1.474304e+05   2.428309e-31   0.000000e+00   0.000000e+00
     2528000   2.527999e-07   1.094824e-01   8.324058e+00   1.657199e+00   3.815635e+04  -3.875227e+04  -1.370331e+05   5.095273e+09   2.178509e+09   8.026882e+08   1.474304e+05   2.428131e-31   0.000000e+00   0.000000e+00
     2536000   2.535999e-07   1.095129e-01   8.324027e+00   1.657089e+00   3.816043e+04  -3.875053e+04  -1.370325e+05   5.095061e+09   2.178423e+09   8.028366e+08   1.474304e+05   2.427954e-31   0.000000e+00   0.000000e+00
     2544000   2.543999e-07   1.095434e-01   8.323996e+00   1.656980e+00   3.816450e+04  -3.874878e+04  -1.370318e+05   5.094849e+09   2.178337e+09   8.029849e+08   1.474304e+05   2.427776e-31   0.000000e+00   0.000000e+00
     2552000   2.551999e-07   1.095740e-01   8.323965e+00   1.656870e+00   3.816858e+04  -3.874704e+04  -1.370312e+05   5.094638e+09   2.178251e+09   8.031333e+08   1.474304e+05   2.427598e-31   0.000000e+00   0.000000e+00
     2560000   2.559999e-07   1.096045e-01   8.323934e+00   1.656760e+00   3.817265e+04  -3.874530e+04  -1.370305e+05   5.094426e+09   2.178164e+09   8.032817e+08   1.474304e+05   2.427421e-31   0.000000e+00   0.000000e+00
     2568000   2.567999e-07   1.096351e-01   8.323903e+00   1.656651e+00   3.817673e+04  -3.874356e+04  -1.370299e+05   5.094214e+09   2.178078e+09   8.034302e+08   1.474304e+05   2.427243e-31   0.000000e+00   0.000000e+00
     2576000   2.575999e-07   1.096656e-01   8.323872e+00   1.656541e+00   3.818080e+04  -3.874181e+04  -1.370292e+05   5.094003e+09   2.177992e+09   8.035786e+08   1.474304e+05   2.427065e-31   0.000000e+00   0.000000e+00
     2584000   2.583999e-07   1.096961e-01   8.323841e+00   1.656432e+00   3.818488e+04  -3.874007e+04  -1.370286e+05   5.093791e+09   2.177905e+09   8.037271e+08   1.474304e+05   2.426888e-31   0.000000e+00   0.000000e+00
     2592000   2.591999e-07   1.097267e-01   8.323810e+00   1.656322e+00   3.818895e+04  -3.873833e+04  -1.370280e+05   5.093580e+09   2.177819e+09   8.038756e+08   1.474304e+05   2.426710e-31   0.000000e+00   0.000000e+00
     2600000   2.599999e-07   1.097572e-01   8.323779e+00   1.656212e+00   3.819303e+04  -3.873659e+04  -1.370273e+05   5.093368e+09   2.177732e+09   8.040241e+08   1.474304e+05   2.426533e-31   0.000000e+00   0.000000e+00
     2608000   2.607999e-07   1.097878e-01   8.323748e+00   1.656103e+00   3.819710e+04  -3.873484e+04  -1.370267e+05   5.093157e+09   2.177645e+09   8.041726e+08   1.474304e+05   2.426355e-31   0.000000e+00   0.000000e+00
     2616000   2.615999e-07   1.098184e-01   8.323717e+00   1.655993e+00   3.820118e+04  -3.873310e+04  -1.370260e+05   5.092946e+09   2.177558e+09   8.043212e+08   1.474304e+05   2.426178e-31   0.000000e+00   0.000000e+00
     2624000   2.623999e-07   1.098489e-01   8.323686e+00   1.655883e+00   3.820525e+04  -3.873136e+04  -1.370254e+05   5.092734e+09   2.177471e+09   8.044697e+08   1.474304e+05   2.426000e-31   0.000000e+00   0.000000e+00
     2632000   2.631999e-07   1.098795e-01   8.323655e+00   1.655774e+00   3.820933e+04  -3.872962e+04  -1.370247e+05   5.092523e+09   2.177384e+09   8.046183e+08   1.474304e+05   2.425823e-31   0.000000e+00   0.000000e+00
     2640000   2.639999e-07   1.099101e-01   8.323624e+00   1.655664e+00   3.821340e+04  -3.872788e+04  -1.370241e+05   5.092312e+09   2.177297e+09   8.047669e+08   1.474304e+05   2.425645e-31   0.000000e+00   0.000000e+00
     2648000   2.647999e-07   1.099406e-01   8.323593e+00   1.655555e+00   3.821747e+04  -3.872613e+04  -1.370234e+05   5.092101e+09   2.177210e+09   8.049155e+08   1.474304e+05   2.425468e-31   0.000000e+00   0.000000e+00
     2656000   2.655999e-07   1.099712e-01   8.323562e+00   1.655445e+00   3.822155e+04  -3.872439e+04  -1.370228e+05   5.091890e+09   2.177123e+09   8.050642e+08   1.474304e+05   2.425291e-31   0.000000e+00   0.000000e+00
     2664000   2.663999e-07   1.100018e-01   8.323531e+00   1.655335e+00   3.822562e+04  -3.872265e+04  -1.370222e+05   5.091679e+09   2.177035e+09   8.052128e+08   1.474304e+05   2.425113e-31   0.000000e+00   0.000000e+00
     2672000   2.671999e-07   1.100324e-01   8.323500e+00   1.655226e+00   3.822969e+04  -3.872091e+04  -1.370215e+05   5.091468e+09   2.176948e+09   8.053615e+08   1.474304e+05   2.424936e-31   0.000000e+00   0.000000e+00
     2680000   2.679999e-07   1.100630e-01   8.323469e+00   1.655116e+00   3.823377e+04  -3.871917e+04  -1.370209e+05   5.091257e+09   2.176860e+09   8.055102e+08   1.474304e+05   2.424759e-31   0.000000e+00   0.000000e+00
     2688000   2.687999e-07   1.100935e-01   8.323438e+00   1.655006e+00   3.823784e+04  -3.871743e+04  -1.370202e+05   5.091046e+09   2.176773e+09   8.056589e+08   1.474304e+05   2.424581e-31   0.000000e+00   0.000000e+00
     2696000   2.695999e-07   1.101241e-01   8.323407e+00   1.654897e+00   3.824191e+04  -3.871569e+04  -1.370196e+05   5.090835e+09   2.176685e+09   8.058076e+08   1.474304e+05   2.424404e-31   0.000000e+00   0.000000e+00
     2704000   2.703999e-07   1.101547e-01   8.323376e+00   1.654787e+00   3.824599e+04  -3.871394e+04  -1.370189e+05   5.090624e+09   2.176597e+09   8.059564e+08   1.474304e+05   2.424227e-31   0.000000e+00   0.000000e+00
     2712000   2.711999e-07   1.101853e-01   8.323345e+00   1.654678e+00   3.825006e+04  -3.871220e+04  -1.370183e+05   5.090414e+09   2.176509e+09   8.061051e+08   1.474304e+05   2.424050e-31   0.000000e+00   0.000000e+00
     2720000   2.719999e-07   1.102159e-01   8.323314e+00   1.654568e+00   3.825413e+04  -3.871046e+04  -1.370176e+05   5.090203e+09   2.176421e+09   8.062539e+08   1.474304e+05   2.423872e-31   0.000000e+00   0.000000e+00
     2728000   2.727999e-07   1.102465e-01   8.323283e+00   1.654458e+00   3.825820e+04  -3.870872e+04  -1.370170e+05   5.089992e+09   2.176333e+09   8.064027e+08   1.474304e+05   2.423695e-31   0.000000e+00   0.000000e+00
     2736000   2.735999e-07   1.102771e-01   8.323252e+00   1.654349e+00   3.826227e+04  -3.870698e+04  -1.370164e+05   5.089782e+09   2.176245e+09   8.065516e+08   1.474304e+05   2.423518e-31   0.000000e+00   0.000000e+00
     2744000   2.743999e-07   1.103078e-01   8.323221e+00   1.654239e+00   3.826635e+04  -3.870524e+04  -1.370157e+05   5.089571e+09   2.176157e+09   8.067004e+08   1.474304e+05   2.423341e-31   0.000000e+00   0.000000e+00
     2752000   2.751999e-07   1.103384e-01   8.323190e+00   1.654130e+00   3.827042e+04  -3.870350e+04  -1.370151e+05   5.089361e+09   2.176068e+09   8.068493e+08   1.474304e+05   2.423164e-31   0.000000e+00   0.000000e+00
     2760000   2.759999e-07   1.103690e-01   8.323159e+00   1.654020e+00   3.827449e+04  -3.870176e+04  -1.370144e+05   5.089150e+09   2.175980e+09   8.069981e+08   1.474304e+05   2.422987e-31   0.000000e+00   0.000000e+00
     2768000   2.767999e-07   1.103996e-01   8.323128e+00   1.653910e+00   3.827856e+04  -3.870002e+04  -1.370138e+05   5.088940e+09   2.175891e+09   8.071470e+08   1.474304e+05   2.422810e-31   0.000000e+00   0.000000e+00
     2776000   2.775999e-07   1.104302e-01   8.323097e+00   1.653801e+00   3.828263e+04  -3.869828e+04  -1.370131e+05   5.088730e+09   2.175803e+09   8.072959e+08   1.474304e+05   2.422633e-31   0.000000e+00   0.000000e+00
     2784000   2.783999e-07   1.104609e-01   8.323066e+00   1.653691e+00   3.828670e+04  -3.869654e+04  -1.370125e+05   5.088519e+09   2.175714e+09   8.074449e+08   1.474304e+05   2.422456e-31   0.000000e+00   0.000000e+00
     2792000   2.791999e-07   1.104915e-01   8.323035e+00   1.653581e+00   3.829077e+04  -3.869479e+04  -1.370118e+05   5.088309e+09   2.175625e+09   8.075938e+08   1.474304e+05   2.422279e-31   0.000000e+00   0.000000e+00
     2800000   2.799999e-07   1.105221e-01   8.323004e+00   1.653472e+00   3.829484e+04  -3.869305e+04  -1.370112e+05   5.088099e+09   2.175536e+09   8.077428e+08   1.474304e+05   2.422102e-31   0.000000e+00   0.000000e+00
     2808000   2.807999e-07   1.105528e-01   8.322973e+00   1.653362e+00   3.829891e+04  -3.869131e+04  -1.370105e+05   5.087889e+09   2.175447e+09   8.078918e+08   1.474304e+05   2.421925e-31   0.000000e+00   0.000000e+00
     2816000   2.815999e-07   1.105834e-01   8.322942e+00   1.653253e+00   3.830298e+04  -3.868957e+04  -1.370099e+05   5.087679e+09   2.175358e+09   8.080408e+08   1.474304e+05   2.421748e-31   0.000000e+00   0.000000e+00
     2824000   2.823999e-07   1.106140e-01   8.322911e+00   1.653143e+00   3.830705e+04  -3.868783e+04  -1.370093e+05   5.087469e+09   2.175269e+09   8.081898e+08   1.474304e+05   2.421571e-31   0.000000e+00   0.000000e+00
     2832000   2.831999e-07   1.106447e-01   8.322880e+00   1.653033e+00   3.831112e+04  -3.868609e+04  -1.370086e+05   5.087259e+09   2.175180e+09   8.083389e+08   1.474304e+05   2.421394e-31   0.000000e+00   0.000000e+00
     2840000   2.839999e-07   1.106753e-01   8.322850e+00   1.652924e+00   3.831519e+04  -3.868435e+04  -1.370080e+05   5.087049e+09   2.175091e+09   8.084879e+08   1.474304e+05   2.421217e-31   0.000000e+00   0.000000e+00
     2848000   2.847999e-07   1.107060e-01   8.322819e+00   1.652814e+00   3.831926e+04  -3.868261e+04  -1.370073e+05   5.086839e+09   2.175001e+09   8.086370e+08   1.474304e+05   2.421040e-31   0.000000e+00   0.000000e+00
     2856000   2.855999e-07   1.107367e-01   8.322788e+00   1.652705e+00   3.832333e+04  -3.868087e+04  -1.370067e+05   5.086629e+09   2.174912e+09   8.087861e+08   1.474304e+05   2.420864e-31   0.000000e+00   0.000000e+00
     2864000   2.863999e-07   1.107673e-01   8.322757e+00   1.652595e+00   3.832740e+04  -3.867913e+04  -1.370060e+05   5.086419e+09   2.174822e+09   8.089352e+08   1.474304e+05   2.420687e-31   0.000000e+00   0.000000e+00
     2872000   2.871999e-07   1.107980e-01   8.322726e+00   1.652485e+00   3.833147e+04  -3.867739e+04  -1.370054e+05   5.086210e+09   2.174733e+09   8.090844e+08   1.474304e+05   2.420510e-31   0.000000e+00   0.000000e+00
     2880000   2.879999e-07   1.108286e-01   8.322695e+00   1.652376e+00   3.833554e+04  -3.867565e+04  -1.370047e+05   5.086000e+09   2.174643e+09   8.092335e+08   1.474304e+05   2.420333e-31   0.000000e+00   0.000000e+00
     2888000   2.887999e-07   1.108593e-01   8.322664e+00   1.652266e+00   3.833961e+04  -3.867391e+04  -1.370041e+05   5.085790e+09   2.174553e+09   8.093827e+08   1.474304e+05   2.420157e-31   0.000000e+00   0.000000e+00
     2896000   2.895999e-07   1.108900e-01   8.322633e+00   1.652157e+00   3.834368e+04  -3.867217e+04  -1.370034e+05   5.085581e+09   2.174463e+09   8.095319e+08   1.474304e+05   2.419980e-31   0.000000e+00   0.000000e+00
     2904000   2.903999e-07   1.109207e-01   8.322602e+00   1.652047e+00   3.834775e+04  -3.867043e+04  -1.370028e+05   5.085371e+09   2.174373e+09   8.096811e+08   1.474304e+05   2.419803e-31   0.000000e+00   0.000000e+00
     2912000   2.911999e-07   1.109513e-01   8.322571e+00   1.651937e+00   3.835181e+04  -3.866870e+04  -1.370021e+05   5.085162e+09   2.174283e+09   8.098303e+08   1.474304e+05   2.419627e-31   0.000000e+00   0.000000e+00
     2920000   2.919999e-07   1.109820e-01   8.322540e+00   1.651828e+00   3.835588e+04  -3.866696e+04  -1.370015e+05   5.084952e+09   2.174193e+09   8.099796e+08   1.474304e+05   2.419450e-31   0.000000e+00   0.000000e+00
     2928000   2.927999e-07   1.110127e-01   8.322509e+00   1.651718e+00   3.835995e+04  -3.866522e+04  -1.370008e+05   5.084743e+09   2.174102e+09   8.101288e+08   1.474304e+05   2.419273e-31   0.000000e+00   0.000000e+00
     2936000   2.935999e-07   1.110434e-01   8.322478e+00   1.651609e+00   3.836402e+04  -3.866348e+04  -1.370002e+05   5.084533e+09   2.174012e+09   8.102781e+08   1.474304e+05   2.419097e-31   0.000000e+00   0.000000e+00
     2944000   2.943999e-07   1.110741e-01   8.322447e+00   1.651499e+00   3.836809e+04  -3.866174e+04  -1.369995e+05   5.084324e+09   2.173922e+09   8.104274e+08   1.474304e+05   2.418920e-31   0.000000e+00   0.000000e+00
     2952000   2.951999e-07   1.111048e-01   8.322416e+00   1.651389e+00   3.837215e+04  -3.866000e+04  -1.369989e+05   5.084115e+09   2.173831e+09   8.105768e+08   1.474304e+05   2.418744e-31   0.000000e+00   0.000000e+00
     2960000   2.959999e-07   1.111355e-01   8.322385e+00   1.651280e+00   3.837622e+04  -3.865826e+04  -1.369982e+05   5.083906e+09   2.173740e+09   8.107261e+08   1.474304e+05   2.418567e-31   0.000000e+00   0.000000e+00
     2968000   2.967999e-07   1.111662e-01   8.322355e+00   1.651170e+00   3.838029e+04  -3.865652e+04  -1.369976e+05   5.083696e+09   2.173650e+09   8.108755e+08   1.474304e+05   2.418391e-31   0.000000e+00   0.000000e+00
     2976000   2.975999e-07   1.111969e-01   8.322324e+00   1.651061e+00   3.838435e+04  -3.865478e+04  -1.369969e+05   5.083487e+09   2.173559e+09   8.110248e+08   1.474304e+05   2.418214e-31   0.000000e+00   0.000000e+00
     2984000   2.983999e-07   1.112276e-01   8.322293e+00   1.650951e+00   3.838842e+04  -3.865304e+04  -1.369963e+05   5.083278e+09   2.173468e+09   8.111742e+08   1.474304e+05   2.418038e-31   0.000000e+00   0.000000e+00
     2992000   2.991999e-07   1.112583e-01   8.322262e+00   1.650841e+00   3.839249e+04  -3.865130e+04  -1.369956e+05   5.083069e+09   2.173377e+09   8.113236e+08   1.474304e+05   2.417861e-31   0.000000e+00   0.000000e+00
     3000000   2.999999e-07   1.112890e-01   8.322231e+00   1.650732e+00   3.839655e+04  -3.864957e+04  -1.369950e+05   5.082860e+09   2.173286e+09   8.114731e+08   1.474304e+05   2.417685e-31   0.000000e+00   0.000000e+00
     3008000   3.007999e-07   1.113198e-01   8.322200e+00   1.650622e+00   3.840062e+04  -3.864783e+04  -1.369944e+05   5.082651e+09   2.173195e+09   8.116225e+08   1.474304e+05   2.417509e-31   0.000000e+00   0.000000e+00
     3016000   3.015999e-07   1.113505e-01   8.322169e+00   1.650513e+00   3.840469e+04  -3.864609e+04  -1.369937e+05   5.082443e+09   2.173104e+09   8.117720e+08   1.474304e+05   2.417332e-31   0.000000e+00   0.000000e+00
     3024000   3.023999e-07   1.113812e-01   8.322138e+00   1.650403e+00   3.840875e+04  -3.864435e+04  -1.369931e+05   5.082234e+09   2.173012e+09   8.119215e+08   1.474304e+05   2.417156e-31   0.000000e+00   0.000000e+00
     3032000   3.031999e-07   1.114119e-01   8.322107e+00   1.650293e+00   3.841282e+04  -3.864261e+04  -1.369924e+05   5.082025e+09   2.172921e+09   8.120710e+08   1.474304e+05   2.416980e-31   0.000000e+00   0.000000e+00
     3040000   3.039999e-07   1.114427e-01   8.322076e+00   1.650184e+00   3.841688e+04  -3.864087e+04  -1.369918e+05   5.081816e+09   2.172829e+09   8.122205e+08   1.474304e+05   2.416803e-31   0.000000e+00   0.000000e+00
     3048000   3.047999e-07   1.114734e-01   8.322045e+00   1.650074e+00   3.842095e+04  -3.863914e+04  -1.369911e+05   5.081608e+09   2.172738e+09   8.123701e+08   1.474304e+05   2.416627e-31   0.000000e+00   0.000000e+00
     3056000   3.055999e-07   1.115041e-01   8.322014e+00   1.649965e+00   3.842501e+04  -3.863740e+04  -1.369905e+05   5.081399e+09   2.172646e+09   8.125196e+08   1.474304e+05   2.416451e-31   0.000000e+00   0.000000e+00
     3064000   3.063999e-07   1.115349e-01   8.321984e+00   1.649855e+00   3.842908e+04  -3.863566e+04  -1.369898e+05   5.081190e+09   2.172554e+09   8.126692e+08   1.474304e+05   2.416275e-31   0.000000e+00   0.000000e+00
     3072000   3.071999e-07   1.115656e-01   8.321953e+00   1.649745e+00   3.843314e+04  -3.863392e+04  -1.369892e+05   5.080982e+09   2.172462e+09   8.128188e+08   1.474304e+05   2.416098e-31   0.000000e+00   0.000000e+00
     3080000   3.079999e-07   1.115964e-01   8.321922e+00   1.649636e+00   3.843721e+04  -3.863218e+04  -1.369885e+05   5.080774e+09   2.172370e+09   8.129684e+08   1.474304e+05   2.415922e-31   0.000000e+00   0.000000e+00
     3088000   3.087999e-07   1.116271e-01   8.321891e+00   1.649526e+00   3.844127e+04  -3.863045e+04  -1.369879e+05   5.080565e+09   2.172278e+09   8.131181e+08   1.474304e+05   2.415746e-31   0.000000e+00   0.000000e+00
     3096000   3.095999e-07   1.116579e-01   8.321860e+00   1.649417e+00   3.844534e+04  -3.862871e+04  -1.369872e+05   5.080357e+09   2.172186e+09   8.132677e+08   1.474304e+05   2.415570e-31   0.000000e+00   0.000000e+00
     3104000   3.103999e-07   1.116886e-01   8.321829e+00   1.649307e+00   3.844940e+04  -3.862697e+04  -1.369866e+05   5.080148e+09   2.172094e+09   8.134174e+08   1.474304e+05   2.415394e-31   0.000000e+00   0.000000e+00
     3112000   3.111999e-07   1.117194e-01   8.321798e+00   1.649198e+00   3.845346e+04  -3.862523e+04  -1.369859e+05   5.079940e+09   2.172002e+09   8.135671e+08   1.474304e+05   2.415218e-31   0.000000e+00   0.000000e+00
     3120000   3.119999e-07   1.117502e-01   8.321767e+00   1.649088e+00   3.845753e+04  -3.862349e+04  -1.369852e+05   5.079732e+09   2.171909e+09   8.137168e+08   1.474304e+05   2.415042e-31   0.000000e+00   0.000000e+00
     3128000   3.127999e-07   1.117809e-01   8.321736e+00   1.648978e+00   3.846159e+04  -3.862176e+04  -1.369846e+05   5.079524e+09   2.171817e+09   8.138665e+08   1.474304e+05   2.414866e-31   0.000000e+00   0.000000e+00
     3136000   3.135999e-07   1.118117e-01   8.321705e+00   1.648869e+00   3.846566e+04  -3.862002e+04  -1.369839e+05   5.079316e+09   2.171724e+09   8.140163e+08   1.474304e+05   2.414690e-31   0.000000e+00   0.000000e+00
     3144000   3.143999e-07   1.118425e-01   8.321675e+00   1.648759e+00   3.846972e+04  -3.861828e+04  -1.369833e+05   5.079108e+09   2.171632e+09   8.141661e+08   1.474304e+05   2.414514e-31   0.000000e+00   0.000000e+00
     3152000   3.151999e-07   1.118733e-01   8.321644e+00   1.648650e+00   3.847378e+04  -3.861655e+04  -1.369826e+05   5.078900e+09   2.171539e+09   8.143159e+08   1.474304e+05   2.414338e-31   0.000000e+00   0.000000e+00
     3160000   3.159999e-07   1.119040e-01   8.321613e+00   1.648540e+00   3.847785e+04  -3.861481e+04  -1.369820e+05   5.078692e+09   2.171446e+09   8.144657e+08   1.474304e+05   2.414162e-31   0.000000e+00   0.000000e+00
     3168000   3.167999e-07   1.119348e-01   8.321582e+00   1.648430e+00   3.848191e+04  -3.861307e+04  -1.369813e+05   5.078484e+09   2.171353e+09   8.146155e+08   1.474304e+05   2.413986e-31   0.000000e+00   0.000000e+00
     3176000   3.175999e-07   1.119656e-01   8.321551e+00   1.648321e+00   3.848597e+04  -3.861133e+04  -1.369807e+05   5.078276e+09   2.171260e+09   8.147653e+08   1.474304e+05   2.413810e-31   0.000000e+00   0.000000e+00
     3184000   3.183999e-07   1.119964e-01   8.321520e+00   1.648211e+00   3.849003e+04  -3.860960e+04  -1.369800e+05   5.078068e+09   2.171167e+09   8.149152e+08   1.474304e+05   2.413634e-31   0.000000e+00   0.000000e+00
     3192000   3.191999e-07   1.120272e-01   8.321489e+00   1.648102e+00   3.849410e+04  -3.860786e+04  -1.369794e+05   5.077860e+09   2.171074e+09   8.150651e+08   1.474304e+05   2.413458e-31   0.000000e+00   0.000000e+00
     3200000   3.199999e-07   1.120580e-01   8.321458e+00   1.647992e+00   3.849816e+04  -3.860612e+04  -1.369787e+05   5.077652e+09   2.170981e+09   8.152150e+08   1.474304e+05   2.413283e-31   0.000000e+00   0.000000e+00
     3208000   3.207999e-07   1.120888e-01   8.321427e+00   1.647882e+00   3.850222e+04  -3.860439e+04  -1.369781e+05   5.077445e+09   2.170888e+09   8.153649e+08   1.474304e+05   2.413107e-31   0.000000e+00   0.000000e+00
     3216000   3.215999e-07   1.121196e-01   8.321397e+00   1.647773e+00   3.850628e+04  -3.860265e+04  -1.369774e+05   5.077237e+09   2.170794e+09   8.155148e+08   1.474304e+05   2.412931e-31   0.000000e+00   0.000000e+00
     3224000   3.223999e-07   1.121504e-01   8.321366e+00   1.647663e+00   3.851034e+04  -3.860091e+04  -1.369768e+05   5.077030e+09   2.170701e+09   8.156648e+08   1.474304e+05   2.412755e-31   0.000000e+00   0.000000e+00
     3232000   3.231999e-07   1.121812e-01   8.321335e+00   1.647554e+00   3.851441e+04  -3.859918e+04  -1.369761e+05   5.076822e+09   2.170607e+09   8.158147e+08   1.474304e+05   2.412580e-31   0.000000e+00   0.000000e+00
     3240000   3.239999e-07   1.122120e-01   8.321304e+00   1.647444e+00   3.851847e+04  -3.859744e+04  -1.369755e+05   5.076615e+09   2.170513e+09   8.159647e+08   1.474304e+05   2.412404e-31   0.000000e+00   0.000000e+00
     3248000   3.247999e-07   1.122428e-01   8.321273e+00   1.647335e+00   3.852253e+04  -3.859570e+04  -1.369748e+05   5.076407e+09   2.170419e+09   8.161147e+08   1.474304e+05   2.412228e-31   0.000000e+00   0.000000e+00
     3256000   3.255999e-07   1.122737e-01   8.321242e+00   1.647225e+00   3.852659e+04  -3.859397e+04  -1.369742e+05   5.076200e+09   2.170326e+09   8.162648e+08   1.474304e+05   2.412053e-31   0.000000e+00   0.000000e+00
     3264000   3.263999e-07   1.123045e-01   8.321211e+00   1.647115e+00   3.853065e+04  -3.859223e+04  -1.369735e+05   5.075992e+09   2.170232e+09   8.164148e+08   1.474304e+05   2.411877e-31   0.000000e+00   0.000000e+00
     3272000   3.271999e-07   1.123353e-01   8.321180e+00   1.647006e+00   3.853471e+04  -3.859049e+04  -1.369729e+05   5.075785e+09   2.170138e+09   8.165649e+08   1.474304e+05   2.411701e-31   0.000000e+00   0.000000e+00
     3280000   3.279999e-07   1.123661e-01   8.321150e+00   1.646896e+00   3.853877e+04  -3.858876e+04  -1.369722e+05   5.075578e+09   2.170043e+09   8.167150e+08   1.474304e+05   2.411526e-31   0.000000e+00   0.000000e+00
     3288000   3.287999e-07   1.123970e-01   8.321119e+00   1.646787e+00   3.854283e+04  -3.858702e+04  -1.369716e+05   5.075371e+09   2.169949e+09   8.168651e+08   1.474304e+05   2.411350e-31   0.000000e+00   0.000000e+00
     3296000   3.295999e-07   1.124278e-01   8.321088e+00   1.646677e+00   3.854689e+04  -3.858529e+04  -1.369709e+05   5.075164e+09   2.169855e+09   8.170152e+08   1.474304e+05   2.411175e-31   0.000000e+00   0.000000e+00
     3304000   3.303999e-07   1.124586e-01   8.321057e+00   1.646568e+00   3.855095e+04  -3.858355e+04  -1.369702e+05   5.074957e+09   2.169761e+09   8.171653e+08   1.474304e+05   2.410999e-31   0.000000e+00   0.000000e+00
     3312000   3.311999e-07   1.124895e-01   8.321026e+00   1.646458e+00   3.855501e+04  -3.858182e+04  -1.369696e+05   5.074750e+09   2.169666e+09   8.173155e+08   1.474304e+05   2.410824e-31   0.000000e+00   0.000000e+00
     3320000   3.319999e-07   1.125203e-01   8.320995e+00   1.646348e+00   3.855907e+04  -3.858008e+04  -1.369689e+05   5.074543e+09   2.169572e+09   8.174657e+08   1.474304e+05   2.410648e-31   0.000000e+00   0.000000e+00
     3328000   3.327999e-07   1.125512e-01   8.320964e+00   1.646239e+00   3.856313e+04  -3.857834e+04  -1.369683e+05   5.074336e+09   2.169477e+09   8.176159e+08   1.474304e+05   2.410473e-31   0.000000e+00   0.000000e+00
     3336000   3.335999e-07   1.125820e-01   8.320933e+00   1.646129e+00   3.856719e+04  -3.857661e+04  -1.369676e+05   5.074129e+09   2.169382e+09   8.177661e+08   1.474304e+05   2.410297e-31   0.000000e+00   0.000000e+00
     3344000   3.343999e-07   1.126129e-01   8.320903e+00   1.646020e+00   3.857125e+04  -3.857487e+04  -1.369670e+05   5.073922e+09   2.169287e+09   8.179163e+08   1.474304e+05   2.410122e-31   0.000000e+00   0.000000e+00
     3352000   3.351999e-07   1.126437e-01   8.320872e+00   1.645910e+00   3.857531e+04  -3.857314e+04  -1.369663e+05   5.073715e+09   2.169192e+09   8.180666e+08   1.474304e+05   2.409947e-31   0.000000e+00   0.000000e+00
     3360000   3.359999e-07   1.126746e-01   8.320841e+00   1.645801e+00   3.857937e+04  -3.857140e+04  -1.369657e+05   5.073508e+09   2.169097e+09   8.182168e+08   1.474304e+05   2.409771e-31   0.000000e+00   0.000000e+00
     3368000   3.367999e-07   1.127055e-01   8.320810e+00   1.645691e+00   3.858343e+04  -3.856967e+04  -1.369650e+05   5.073302e+09   2.169002e+09   8.183671e+08   1.474304e+05   2.409596e-31   0.000000e+00   0.000000e+00
     3376000   3.375999e-07   1.127363e-01   8.320779e+00   1.645581e+00   3.858748e+04  -3.856793e+04  -1.369644e+05   5.073095e+09   2.168907e+09   8.185174e+08   1.474304e+05   2.409421e-31   0.000000e+00   0.000000e+00
     3384000   3.383999e-07   1.127672e-01   8.320748e+00   1.645472e+00   3.859154e+04  -3.856620e+04  -1.369637e+05   5.072888e+09   2.168812e+09   8.186678e+08   1.474304e+05   2.409245e-31   0.000000e+00   0.000000e+00
     3392000   3.391999e-07   1.127981e-01   8.320717e+00   1.645362e+00   3.859560e+04  -3.856446e+04  -1.369630e+05   5.072682e+09   2.168717e+09   8.188181e+08   1.474304e+05   2.409070e-31   0.000000e+00   0.000000e+00
     3400000   3.399999e-07   1.128290e-01   8.320687e+00   1.645253e+00   3.859966e+04  -3.856273e+04  -1.369624e+05   5.072475e+09   2.168621e+09   8.189685e+08   1.474304e+05   2.408895e-31   0.000000e+00   0.000000e+00
     3408000   3.407999e-07   1.128598e-01   8.320656e+00   1.645143e+00   3.860372e+04  -3.856099e+04  -1.369617e+05   5.072269e+09   2.168526e+09   8.191188e+08   1.474304e+05   2.408720e-31   0.000000e+00   0.000000e+00
     3416000   3.415999e-07   1.128907e-01   8.320625e+00   1.645034e+00   3.860778e+04  -3.855926e+04  -1.369611e+05   5.072063e+09   2.168430e+09   8.192692e+08   1.474304e+05   2.408545e-31   0.000000e+00   0.000000e+00
     3424000   3.423999e-07   1.129216e-01   8.320594e+00   1.644924e+00   3.861183e+04  -3.855752e+04  -1.369604e+05   5.071856e+09   2.168334e+09   8.194197e+08   1.474304e+05   2.408369e-31   0.000000e+00   0.000000e+00
     3432000   3.431999e-07   1.129525e-01   8.320563e+00   1.644814e+00   3.861589e+04  -3.855579e+04  -1.369598e+05   5.071650e+09   2.168239e+09   8.195701e+08   1.474304e+05   2.408194e-31   0.000000e+00   0.000000e+00
     3440000   3.439999e-07   1.129834e-01   8.320532e+00   1.644705e+00   3.861995e+04  -3.855405e+04  -1.369591e+05   5.071444e+09   2.168143e+09   8.197206e+08   1.474304e+05   2.408019e-31   0.000000e+00   0.000000e+00
     3448000   3.447999e-07   1.130143e-01   8.320502e+00   1.644595e+00   3.862400e+04  -3.855232e+04  -1.369585e+05   5.071238e+09   2.168047e+09   8.198710e+08   1.474304e+05   2.407844e-31   0.000000e+00   0.000000e+00
     3456000   3.455999e-07   1.130452e-01   8.320471e+00   1.644486e+00   3.862806e+04  -3.855058e+04  -1.369578e+05   5.071031e+09   2.167951e+09   8.200215e+08   1.474304e+05   2.407669e-31   0.000000e+00   0.000000e+00
     3464000   3.463999e-07   1.130761e-01   8.320440e+00   1.644376e+00   3.863212e+04  -3.854885e+04  -1.369571e+05   5.070825e+09   2.167854e+09   8.201720e+08   1.474304e+05   2.407494e-31   0.000000e+00   0.000000e+00
     3472000   3.471999e-07   1.131070e-01   8.320409e+00   1.644267e+00   3.863617e+04  -3.854712e+04  -1.369565e+05   5.070619e+09   2.167758e+09   8.203226e+08   1.474304e+05   2.407319e-31   0.000000e+00   0.000000e+00
     3480000   3.479999e-07   1.131379e-01   8.320378e+00   1.644157e+00   3.864023e+04  -3.854538e+04  -1.369558e+05   5.070413e+09   2.167662e+09   8.204731e+08   1.474304e+05   2.407144e-31   0.000000e+00   0.000000e+00
     3488000   3.487999e-07   1.131688e-01   8.320347e+00   1.644047e+00   3.864429e+04  -3.854365e+04  -1.369552e+05   5.070207e+09   2.167566e+09   8.206237e+08   1.474304e+05   2.406969e-31   0.000000e+00   0.000000e+00
     3496000   3.495999e-07   1.131998e-01   8.320317e+00   1.643938e+00   3.864834e+04  -3.854191e+04  -1.369545e+05   5.070001e+09   2.167469e+09   8.207743e+08   1.474304e+05   2.406794e-31   0.000000e+00   0.000000e+00
     3504000   3.503999e-07   1.132307e-01   8.320286e+00   1.643828e+00   3.865240e+04  -3.854018e+04  -1.369539e+05   5.069796e+09   2.167373e+09   8.209249e+08   1.474304e+05   2.406619e-31   0.000000e+00   0.000000e+00
     3512000   3.511999e-07   1.132616e-01   8.320255e+00   1.643719e+00   3.865646e+04  -3.853845e+04  -1.369532e+05   5.069590e+09   2.167276e+09   8.210755e+08   1.474304e+05   2.406444e-31   0.000000e+00   0.000000e+00
     3520000   3.519999e-07   1.132925e-01   8.320224e+00   1.643609e+00   3.866051e+04  -3.853671e+04  -1.369525e+05   5.069384e+09   2.167179e+09   8.212261e+08   1.474304e+05   2.406269e-31   0.000000e+00   0.000000e+00
     3528000   3.527999e-07   1.133235e-01   8.320193e+00   1.643500e+00   3.866457e+04  -3.853498e+04  -1.369519e+05   5.069178e+09   2.167082e+09   8.213768e+08   1.474304e+05   2.406095e-31   0.000000e+00   0.000000e+00
     3536000   3.535999e-07   1.133544e-01   8.320162e+00   1.643390e+00   3.866862e+04  -3.853324e+04  -1.369512e+05   5.068973e+09   2.166985e+09   8.215275e+08   1.474304e+05   2.405920e-31   0.000000e+00   0.000000e+00
     3544000   3.543999e-07   1.133853e-01   8.320132e+00   1.643280e+00   3.867268e+04  -3.853151e+04  -1.369506e+05   5.068767e+09   2.166888e+09   8.216782e+08   1.474304e+05   2.405745e-31   0.000000e+00   0.000000e+00
     3552000   3.551999e-07   1.134163e-01   8.320101e+00   1.643171e+00   3.867673e+04  -3.852978e+04  -1.369499e+05   5.068562e+09   2.166791e+09   8.218289e+08   1.474304e+05   2.405570e-31   0.000000e+00   0.000000e+00
     3560000   3.559999e-07   1.134472e-01   8.320070e+00   1.643061e+00   3.868079e+04  -3.852804e+04  -1.369493e+05   5.068356e+09   2.166694e+09   8.219796e+08   1.474304e+05   2.405395e-31   0.000000e+00   0.000000e+00
     3568000   3.567999e-07   1.134782e-01   8.320039e+00   1.642952e+00   3.868484e+04  -3.852631e+04  -1.369486e+05   5.068151e+09   2.166597e+09   8.221304e+08   1.474304e+05   2.405221e-31   0.000000e+00   0.000000e+00
     3576000   3.575999e-07   1.135091e-01   8.320008e+00   1.642842e+00   3.868890e+04  -3.852458e+04  -1.369479e+05   5.067945e+09   2.166500e+09   8.222812e+08   1.474304e+05   2.405046e-31   0.000000e+00   0.000000e+00
     3584000   3.583999e-07   1.135401e-01   8.319977e+00   1.642733e+00   3.869295e+04  -3.852284e+04  -1.369473e+05   5.067740e+09   2.166402e+09   8.224320e+08   1.474304e+05   2.404871e-31   0.000000e+00   0.000000e+00
     3592000   3.591999e-07   1.135710e-01   8.319947e+00   1.642623e+00   3.869700e+04  -3.852111e+04  -1.369466e+05   5.067535e+09   2.166305e+09   8.225828e+08   1.474304e+05   2.404697e-31   0.000000e+00   0.000000e+00
     3600000   3.599999e-07   1.136020e-01   8.319916e+00   1.642514e+00   3.870106e+04  -3.851938e+04  -1.369460e+05   5.067329e+09   2.166207e+09   8.227336e+08   1.474304e+05   2.404522e-31   0.000000e+00   0.000000e+00
     3608000   3.607999e-07   1.136329e-01   8.319885e+00   1.642404e+00   3.870511e+04  -3.851765e+04  -1.369453e+05   5.067124e+09   2.166109e+09   8.228844e+08   1.474304e+05   2.404347e-31   0.000000e+00   0.000000e+00
     3616000   3.615999e-07   1.136639e-01   8.319854e+00   1.642294e+00   3.870916e+04  -3.851591e+04  -1.369447e+05   5.066919e+09   2.166011e+09   8.230353e+08   1.474304e+05   2.404173e-31   0.000000e+00   0.000000e+00
     3624000   3.623999e-07   1.136949e-01   8.319823e+00   1.642185e+00   3.871322e+04  -3.851418e+04  -1.369440e+05   5.066714e+09   2.165914e+09   8.231862e+08   1.474304e+05   2.403998e-31   0.000000e+00   0.000000e+00
     3632000   3.631999e-07   1.137258e-01   8.319793e+00   1.642075e+00   3.871727e+04  -3.851245e+04  -1.369433e+05   5.066509e+09   2.165816e+09   8.233371e+08   1.474304e+05   2.403824e-31   0.000000e+00   0.000000e+00
     3640000   3.639999e-07   1.137568e-01   8.319762e+00   1.641966e+00   3.872132e+04  -3.851071e+04  -1.369427e+05   5.066304e+09   2.165718e+09   8.234880e+08   1.474304e+05   2.403649e-31   0.000000e+00   0.000000e+00
     3648000   3.647999e-07   1.137878e-01   8.319731e+00   1.641856e+00   3.872538e+04  -3.850898e+04  -1.369420e+05   5.066099e+09   2.165619e+09   8.236390e+08   1.474304e+05   2.403475e-31   0.000000e+00   0.000000e+00
     3656000   3.655999e-07   1.138188e-01   8.319700e+00   1.641747e+00   3.872943e+04  -3.850725e+04  -1.369414e+05   5.065894e+09   2.165521e+09   8.237899e+08   1.474304e+05   2.403300e-31   0.000000e+00   0.000000e+00
     3664000   3.663999e-07   1.138498e-01   8.319669e+00   1.641637e+00   3.873348e+04  -3.850552e+04  -1.369407e+05   5.065689e+09   2.165423e+09   8.239409e+08   1.474304e+05   2.403126e-31   0.000000e+00   0.000000e+00
     3672000   3.671999e-07   1.138807e-01   8.319639e+00   1.641528e+00   3.873754e+04  -3.850378e+04  -1.369400e+05   5.065484e+09   2.165325e+09   8.240919e+08   1.474304e+05   2.402951e-31   0.000000e+00   0.000000e+00
     3680000   3.679999e-07   1.139117e-01   8.319608e+00   1.641418e+00   3.874159e+04  -3.850205e+04  -1.369394e+05   5.065279e+09   2.165226e+09   8.242429e+08   1.474304e+05   2.402777e-31   0.000000e+00   0.000000e+00
     3688000   3.687999e-07   1.139427e-01   8.319577e+00   1.641308e+00   3.874564e+04  -3.850032e+04  -1.369387e+05   5.065075e+09   2.165128e+09   8.243939e+08   1.474304e+05   2.402602e-31   0.000000e+00   0.000000e+00
     3696000   3.695999e-07   1.139737e-01   8.319546e+00   1.641199e+00   3.874969e+04  -3.849859e+04  -1.369381e+05   5.064870e+09   2.165029e+09   8.245450e+08   1.474304e+05   2.402428e-31   0.000000e+00   0.000000e+00
     3704000   3.703999e-07   1.140047e-01   8.319515e+00   1.641089e+00   3.875374e+04  -3.849686e+04  -1.369374e+05   5.064666e+09   2.164930e+09   8.246961e+08   1.474304e+05   2.402254e-31   0.000000e+00   0.000000e+00
     3712000   3.711999e-07   1.140357e-01   8.319485e+00   1.640980e+00   3.875780e+04  -3.849512e+04  -1.369367e+05   5.064461e+09   2.164831e+09   8.248472e+08   1.474304e+05   2.402079e-31   0.000000e+00   0.000000e+00
     3720000   3.719999e-07   1.140667e-01   8.319454e+00   1.640870e+00   3.876185e+04  -3.849339e+04  -1.369361e+05   5.064256e+09   2.164732e+09   8.249983e+08   1.474304e+05   2.401905e-31   0.000000e+00   0.000000e+00
     3728000   3.727999e-07   1.140978e-01   8.319423e+00   1.640761e+00   3.876590e+04  -3.849166e+04  -1.369354e+05   5.064052e+09   2.164633e+09   8.251494e+08   1.474304e+05   2.401731e-31   0.000000e+00   0.000000e+00
     3736000   3.735999e-07   1.141288e-01   8.319392e+00   1.640651e+00   3.876995e+04  -3.848993e+04  -1.369348e+05   5.063848e+09   2.164534e+09   8.253005e+08   1.474304e+05   2.401557e-31   0.000000e+00   0.000000e+00
     3744000   3.743999e-07   1.141598e-01   8.319361e+00   1.640542e+00   3.877400e+04  -3.848820e+04  -1.369341e+05   5.063643e+09   2.164435e+09   8.254517e+08   1.474304e+05   2.401382e-31   0.000000e+00   0.000000e+00
     3752000   3.751999e-07   1.141908e-01   8.319331e+00   1.640432e+00   3.877805e+04  -3.848647e+04  -1.369334e+05   5.063439e+09   2.164336e+09   8.256029e+08   1.474304e+05   2.401208e-31   0.000000e+00   0.000000e+00
     3760000   3.759999e-07   1.142218e-01   8.319300e+00   1.640323e+00   3.878210e+04  -3.848473e+04  -1.369328e+05   5.063235e+09   2.164237e+09   8.257541e+08   1.474304e+05   2.401034e-31   0.000000e+00   0.000000e+00
     3768000   3.767999e-07   1.142529e-01   8.319269e+00   1.640213e+00   3.878615e+04  -3.848300e+04  -1.369321e+05   5.063030e+09   2.164137e+09   8.259053e+08   1.474304e+05   2.400860e-31   0.000000e+00   0.000000e+00
     3776000   3.775999e-07   1.142839e-01   8.319238e+00   1.640103e+00   3.879020e+04  -3.848127e+04  -1.369315e+05   5.062826e+09   2.164038e+09   8.260566e+08   1.474304e+05   2.400686e-31   0.000000e+00   0.000000e+00
     3784000   3.783999e-07   1.143149e-01   8.319207e+00   1.639994e+00   3.879425e+04  -3.847954e+04  -1.369308e+05   5.062622e+09   2.163938e+09   8.262078e+08   1.474304e+05   2.400512e-31   0.000000e+00   0.000000e+00
     3792000   3.791999e-07   1.143460e-01   8.319177e+00   1.639884e+00   3.879830e+04  -3.847781e+04  -1.369301e+05   5.062418e+09   2.163838e+09   8.263591e+08   1.474304e+05   2.400338e-31   0.000000e+00   0.000000e+00
     3800000   3.799999e-07   1.143770e-01   8.319146e+00   1.639775e+00   3.880235e+04  -3.847608e+04  -1.369295e+05   5.062214e+09   2.163739e+09   8.265104e+08   1.474304e+05   2.400164e-31   0.000000e+00   0.000000e+00
     3808000   3.807999e-07   1.144080e-01   8.319115e+00   1.639665e+00   3.880640e+04  -3.847435e+04  -1.369288e+05   5.062010e+09   2.163639e+09   8.266617e+08   1.474304e+05   2.399990e-31   0.000000e+00   0.000000e+00
     3816000   3.815999e-07   1.144391e-01   8.319084e+00   1.639556e+00   3.881045e+04  -3.847262e+04  -1.369282e+05   5.061806e+09   2.163539e+09   8.268130e+08   1.474304e+05   2.399816e-31   0.000000e+00   0.000000e+00
     3824000   3.823999e-07   1.144701e-01   8.319054e+00   1.639446e+00   3.881450e+04  -3.847089e+04  -1.369275e+05   5.061602e+09   2.163439e+09   8.269644e+08   1.474304e+05   2.399642e-31   0.000000e+00   0.000000e+00
     3832000   3.831999e-07   1.145012e-01   8.319023e+00   1.639337e+00   3.881855e+04  -3.846916e+04  -1.369268e+05   5.061399e+09   2.163339e+09   8.271157e+08   1.474304e+05   2.399468e-31   0.000000e+00   0.000000e+00
     3840000   3.839999e-07   1.145323e-01   8.318992e+00   1.639227e+00   3.882260e+04  -3.846743e+04  -1.369262e+05   5.061195e+09   2.163238e+09   8.272671e+08   1.474304e+05   2.399294e-31   0.000000e+00   0.000000e+00
     3848000   3.847999e-07   1.145633e-01   8.318961e+00   1.639118e+00   3.882665e+04  -3.846569e+04  -1.369255e+05   5.060991e+09   2.163138e+09   8.274185e+08   1.474304e+05   2.399120e-31   0.000000e+00   0.000000e+00
     3856000   3.855999e-07   1.145944e-01   8.318930e+00   1.639008e+00   3.883070e+04  -3.846396e+04  -1.369249e+05   5.060787e+09   2.163038e+09   8.275700e+08   1.474304e+05   2.398946e-31   0.000000e+00   0.000000e+00
     3864000   3.863999e-07   1.146254e-01   8.318900e+00   1.638898e+00   3.883475e+04  -3.846223e+04  -1.369242e+05   5.060584e+09   2.162937e+09   8.277214e+08   1.474304e+05   2.398772e-31   0.000000e+00   0.000000e+00
     3872000   3.871999e-07   1.146565e-01   8.318869e+00   1.638789e+00   3.883879e+04  -3.846050e+04  -1.369235e+05   5.060380e+09   2.162837e+09   8.278729e+08   1.474304e+05   2.398598e-31   0.000000e+00   0.000000e+00
     3880000   3.879999e-07   1.146876e-01   8.318838e+00   1.638679e+00   3.884284e+04  -3.845877e+04  -1.369229e+05   5.060177e+09   2.162736e+09   8.280244e+08   1.474304e+05   2.398425e-31   0.000000e+00   0.000000e+00
     3888000   3.887999e-07   1.147187e-01   8.318807e+00   1.638570e+00   3.884689e+04  -3.845704e+04  -1.369222e+05   5.059973e+09   2.162635e+09   8.281759e+08   1.474304e+05   2.398251e-31   0.000000e+00   0.000000e+00
     3896000   3.895999e-07   1.147497e-01   8.318777e+00   1.638460e+00   3.885094e+04  -3.845531e+04  -1.369215e+05   5.059770e+09   2.162534e+09   8.283274e+08   1.474304e+05   2.398077e-31   0.000000e+00   0.000000e+00
     3904000   3.903999e-07   1.147808e-01   8.318746e+00   1.638351e+00   3.885499e+04  -3.845358e+04  -1.369209e+05   5.059566e+09   2.162434e+09   8.284789e+08   1.474304e+05   2.397903e-31   0.000000e+00   0.000000e+00
     3912000   3.911999e-07   1.148119e-01   8.318715e+00   1.638241e+00   3.885903e+04  -3.845185e+04  -1.369202e+05   5.059363e+09   2.162333e+09   8.286305e+08   1.474304e+05   2.397730e-31   0.000000e+00   0.000000e+00
     3920000   3.919999e-07   1.148430e-01   8.318684e+00   1.638132e+00   3.886308e+04  -3.845012e+04  -1.369195e+05   5.059160e+09   2.162232e+09   8.287821e+08   1.474304e+05   2.397556e-31   0.000000e+00   0.000000e+00
     3928000   3.927999e-07   1.148741e-01   8.318654e+00   1.638022e+00   3.886713e+04  -3.844839e+04  -1.369189e+05   5.058957e+09   2.162130e+09   8.289336e+08   1.474304e+05   2.397382e-31   0.000000e+00   0.000000e+00
     3936000   3.935999e-07   1.149052e-01   8.318623e+00   1.637913e+00   3.887118e+04  -3.844666e+04  -1.369182e+05   5.058753e+09   2.162029e+09   8.290853e+08   1.474304e+05   2.397209e-31   0.000000e+00   0.000000e+00
     3944000   3.943999e-07   1.149363e-01   8.318592e+00   1.637803e+00   3.887522e+04  -3.844493e+04  -1.369176e+05   5.058550e+09   2.161928e+09   8.292369e+08   1.474304e+05   2.397035e-31   0.000000e+00   0.000000e+00
     3952000   3.951999e-07   1.149674e-01   8.318561e+00   1.637694e+00   3.887927e+04  -3.844320e+04  -1.369169e+05   5.058347e+09   2.161826e+09   8.293885e+08   1.474304e+05   2.396861e-31   0.000000e+00   0.000000e+00
     3960000   3.959999e-07   1.149985e-01   8.318531e+00   1.637584e+00   3.888332e+04  -3.844148e+04  -1.369162e+05   5.058144e+09   2.161725e+09   8.295402e+08   1.474304e+05   2.396688e-31   0.000000e+00   0.000000e+00
     3968000   3.967999e-07   1.150296e-01   8.318500e+00   1.637475e+00   3.888736e+04  -3.843975e+04  -1.369156e+05   5.057941e+09   2.161623e+09   8.296919e+08   1.474304e+05   2.396514e-31   0.000000e+00   0.000000e+00
     3976000   3.975999e-07   1.150607e-01   8.318469e+00   1.637365e+00   3.889141e+04  -3.843802e+04  -1.369149e+05   5.057738e+09   2.161522e+09   8.298436e+08   1.474304e+05   2.396341e-31   0.000000e+00   0.000000e+00
     3984000   3.983999e-07   1.150918e-01   8.318438e+00   1.637255e+00   3.889545e+04  -3.843629e+04  -1.369142e+05   5.057535e+09   2.161420e+09   8.299953e+08   1.474304e+05   2.396167e-31   0.000000e+00   0.000000e+00
     3992000   3.991999e-07   1.151229e-01   8.318408e+00   1.637146e+00   3.889950e+04  -3.843456e+04  -1.369136e+05   5.057333e+09   2.161318e+09   8.301471e+08   1.474304e+05   2.395994e-31   0.000000e+00   0.000000e+00
     4000000   3.999999e-07   1.151541e-01   8.318377e+00   1.637036e+00   3.890355e+04  -3.843283e+04  -1.369129e+05   5.057130e+09   2.161216e+09   8.302988e+08   1.474304e+05   2.395820e-31   0.000000e+00   0.000000e+00
     4008000   4.007999e-07   1.151852e-01   8.318346e+00   1.636927e+00   3.890759e+04  -3.843110e+04  -1.369122e+05   5.056927e+09   2.161114e+09   8.304506e+08   1.474304e+05   2.395647e-31   0.000000e+00   0.000000e+00
     4016000   4.015999e-07   1.152163e-01   8.318315e+00   1.636817e+00   3.891164e+04  -3.842937e+04  -1.369116e+05   5.056724e+09   2.161012e+09   8.306024e+08   1.474304e+05   2.395473e-31   0.000000e+00   0.000000e+00
     4024000   4.023999e-07   1.152474e-01   8.318285e+00   1.636708e+00   3.891568e+04  -3.842764e+04  -1.369109e+05   5.056522e+09   2.160910e+09   8.307542e+08   1.474304e+05   2.395300e-31   0.000000e+00   0.000000e+00
     4032000   4.031999e-07   1.152786e-01   8.318254e+00   1.636598e+00   3.891973e+04  -3.842591e+04  -1.369103e+05   5.056319e+09   2.160807e+09   8.309061e+08   1.474304e+05   2.395127e-31   0.000000e+00   0.000000e+00
     4040000   4.039999e-07   1.153097e-01   8.318223e+00   1.636489e+00   3.892377e+04  -3.842419e+04  -1.369096e+05   5.056117e+09   2.160705e+09   8.310579e+08   1.474304e+05   2.394953e-31   0.000000e+00   0.000000e+00
     4048000   4.047999e-07   1.153409e-01   8.318192e+00   1.636379e+00   3.892782e+04  -3.842246e+04  -1.369089e+05   5.055914e+09   2.160603e+09   8.312098e+08   1.474304e+05   2.394780e-31   0.000000e+00   0.000000e+00
     4056000   4.055999e-07   1.153720e-01   8.318162e+00   1.636270e+00   3.893186e+04  -3.842073e+04  -1.369083e+05   5.055712e+09   2.160500e+09   8.313617e+08   1.474304e+05   2.394607e-31   0.000000e+00   0.000000e+00
     4064000   4.063999e-07   1.154031e-01   8.318131e+00   1.636160e+00   3.893591e+04  -3.841900e+04  -1.369076e+05   5.055509e+09   2.160397e+09   8.315136e+08   1.474304e+05   2.394434e-31   0.000000e+00   0.000000e+00
     4072000   4.071999e-07   1.154343e-01   8.318100e+00   1.636051e+00   3.893995e+04  -3.841727e+04  -1.369069e+05   5.055307e+09   2.160295e+09   8.316655e+08   1.474304e+05   2.394260e-31   0.000000e+00   0.000000e+00
     4080000   4.079999e-07   1.154655e-01   8.318069e+00   1.635941e+00   3.894400e+04  -3.841554e+04  -1.369063e+05   5.055105e+09   2.160192e+09   8.318175e+08   1.474304e+05   2.394087e-31   0.000000e+00   0.000000e+00
     4088000   4.087999e-07   1.154966e-01   8.318039e+00   1.635832e+00   3.894804e+04  -3.841382e+04  -1.369056e+05   5.054903e+09   2.160089e+09   8.319695e+08   1.474304e+05   2.393914e-31   0.000000e+00   0.000000e+00
     4096000   4.095999e-07   1.155278e-01   8.318008e+00   1.635722e+00   3.895208e+04  -3.841209e+04  -1.369049e+05   5.054700e+09   2.159986e+09   8.321214e+08   1.474304e+05   2.393741e-31   0.000000e+00   0.000000e+00
     4104000   4.103999e-07   1.155589e-01   8.317977e+00   1.635613e+00   3.895613e+04  -3.841036e+04  -1.369043e+05   5.054498e+09   2.159883e+09   8.322735e+08   1.474304e+05   2.393568e-31   0.000000e+00   0.000000e+00
     4112000   4.111999e-07   1.155901e-01   8.317946e+00   1.635503e+00   3.896017e+04  -3.840863e+04  -1.369036e+05   5.054296e+09   2.159780e+09   8.324255e+08   1.474304e+05   2.393394e-31   0.000000e+00   0.000000e+00
     4120000   4.119999e-07   1.156213e-01   8.317916e+00   1.635394e+00   3.896421e+04  -3.840690e+04  -1.369029e+05   5.054094e+09   2.159677e+09   8.325775e+08   1.474304e+05   2.393221e-31   0.000000e+00   0.000000e+00
     4128000   4.127999e-07   1.156524e-01   8.317885e+00   1.635284e+00   3.896826e+04  -3.840518e+04  -1.369023e+05   5.053892e+09   2.159573e+09   8.327296e+08   1.474304e+05   2.393048e-31   0.000000e+00   0.000000e+00
     4136000   4.135999e-07   1.156836e-01   8.317854e+00   1.635174e+00   3.897230e+04  -3.840345e+04  -1.369016e+05   5.053690e+09   2.159470e+09   8.328817e+08   1.474304e+05   2.392875e-31   0.000000e+00   0.000000e+00
     4144000   4.143999e-07   1.157148e-01   8.317824e+00   1.635065e+00   3.897634e+04  -3.840172e+04  -1.369009e+05   5.053488e+09   2.159366e+09   8.330338e+08   1.474304e+05   2.392702e-31   0.000000e+00   0.000000e+00
     4152000   4.151999e-07   1.157460e-01   8.317793e+00   1.634955e+00   3.898039e+04  -3.839999e+04  -1.369003e+05   5.053287e+09   2.159263e+09   8.331859e+08   1.474304e+05   2.392529e-31   0.000000e+00   0.000000e+00
     4160000   4.159999e-07   1.157772e-01   8.317762e+00   1.634846e+00   3.898443e+04  -3.839827e+04  -1.368996e+05   5.053085e+09   2.159159e+09   8.333380e+08   1.474304e+05   2.392356e-31   0.000000e+00   0.000000e+00
     4168000   4.167999e-07   1.158084e-01   8.317731e+00   1.634736e+00   3.898847e+04  -3.839654e+04  -1.368989e+05   5.052883e+09   2.159055e+09   8.334902e+08   1.474304e+05   2.392183e-31   0.000000e+00   0.000000e+00
     4176000   4.175999e-07   1.158395e-01   8.317701e+00   1.634627e+00   3.899251e+04  -3.839481e+04  -1.368983e+05   5.052681e+09   2.158952e+09   8.336424e+08   1.474304e+05   2.392010e-31   0.000000e+00   0.000000e+00
     4184000   4.183999e-07   1.158707e-01   8.317670e+00   1.634517e+00   3.899655e+04  -3.839308e+04  -1.368976e+05   5.052480e+09   2.158848e+09   8.337945e+08   1.474304e+05   2.391838e-31   0.000000e+00   0.000000e+00
     4192000   4.191999e-07   1.159019e-01   8.317639e+00   1.634408e+00   3.900060e+04  -3.839136e+04  -1.368969e+05   5.052278e+09   2.158744e+09   8.339468e+08   1.474304e+05   2.391665e-31   0.000000e+00   0.000000e+00
     4200000   4.199999e-07   1.159331e-01   8.317609e+00   1.634298e+00   3.900464e+04  -3.838963e+04  -1.368963e+05   5.052077e+09   2.158640e+09   8.340990e+08   1.474304e+05   2.391492e-31   0.000000e+00   0.000000e+00
     4208000   4.207999e-07   1.159643e-01   8.317578e+00   1.634189e+00   3.900868e+04  -3.838790e+04  -1.368956e+05   5.051875e+09   2.158535e+09   8.342512e+08   1.474304e+05   2.391319e-31   0.000000e+00   0.000000e+00
     4216000   4.215999e-07   1.159956e-01   8.317547e+00   1.634079e+00   3.901272e+04  -3.838618e+04  -1.368949e+05   5.051674e+09   2.158431e+09   8.344035e+08   1.474304e+05   2.391146e-31   0.000000e+00   0.000000e+00
     4224000   4.223999e-07   1.160268e-01   8.317516e+00   1.633970e+00   3.901676e+04  -3.838445e+04  -1.368943e+05   5.051472e+09   2.158327e+09   8.345558e+08   1.474304e+05   2.390973e-31   0.000000e+00   0.000000e+00
     4232000   4.231999e-07   1.160580e-01   8.317486e+00   1.633860e+00   3.902080e+04  -3.838272e+04  -1.368936e+05   5.051271e+09   2.158222e+09   8.347081e+08   1.474304e+05   2.390801e-31   0.000000e+00   0.000000e+00
     4240000   4.239999e-07   1.160892e-01   8.317455e+00   1.633751e+00   3.902484e+04  -3.838100e+04  -1.368929e+05   5.051070e+09   2.158118e+09   8.348604e+08   1.474304e+05   2.390628e-31   0.000000e+00   0.000000e+00
     4248000   4.247999e-07   1.161204e-01   8.317424e+00   1.633641e+00   3.902889e+04  -3.837927e+04  -1.368923e+05   5.050868e+09   2.158013e+09   8.350128e+08   1.474304e+05   2.390455e-31   0.000000e+00   0.000000e+00
     4256000   4.255999e-07   1.161516e-01   8.317394e+00   1.633532e+00   3.903293e+04  -3.837754e+04  -1.368916e+05   5.050667e+09   2.157909e+09   8.351651e+08   1.474304e+05   2.390283e-31   0.000000e+00   0.000000e+00
     4264000   4.263999e-07   1.161829e-01   8.317363e+00   1.633422e+00   3.903697e+04  -3.837582e+04  -1.368909e+05   5.050466e+09   2.157804e+09   8.353175e+08   1.474304e+05   2.390110e-31   0.000000e+00   0.000000e+00
     4272000   4.271999e-07   1.162141e-01   8.317332e+00   1.633313e+00   3.904101e+04  -3.837409e+04  -1.368903e+05   5.050265e+09   2.157699e+09   8.354699e+08   1.474304e+05   2.389937e-31   0.000000e+00   0.000000e+00
     4280000   4.279999e-07   1.162453e-01   8.317301e+00   1.633203e+00   3.904505e+04  -3.837237e+04  -1.368896e+05   5.050064e+09   2.157594e+09   8.356223e+08   1.474304e+05   2.389765e-31   0.000000e+00   0.000000e+00
     4288000   4.287999e-07   1.162766e-01   8.317271e+00   1.633094e+00   3.904909e+04  -3.837064e+04  -1.368889e+05   5.049863e+09   2.157489e+09   8.357748e+08   1.474304e+05   2.389592e-31   0.000000e+00   0.000000e+00
