     timestep     time              x             y              z              vx             vy             vz             ax             ay             az         v_magnitude      ELoss        Electronic      Nuclear
           0   0.000000e+00   1.383421e+01   3.744340e+01   1.000000e-01  -8.968037e+04   8.435520e+04   8.110083e+04   0.000000e+00   0.000000e+00   0.000000e+00   1.474304e+05   0.000000e+00   0.000000e+00   0.000000e+00
        8000   7.999000e-09   1.383349e+01   3.744407e+01   1.006494e-01  -8.890600e+04   8.504051e+04   8.123761e+04   9.686356e+10   8.573589e+10   1.625779e+10   1.474304e+05   1.316412e-26   0.000000e+00   0.000000e+00
       16000   1.599900e-08   1.383278e+01   3.744476e+01   1.012998e-01  -8.813060e+04   8.572694e+04   8.136095e+04   9.698285e+10   8.586859e+10   1.457606e+10   1.474304e+05   1.315951e-26   0.000000e+00   0.000000e+00
       24000   2.399900e-08   1.383208e+01   3.744545e+01   1.019511e-01  -8.735431e+04   8.641437e+04   8.147082e+04   9.708572e+10   8.598684e+10   1.289266e+10   1.474304e+05   1.315490e-26   0.000000e+00   0.000000e+00
       32000   3.199900e-08   1.383139e+01   3.744614e+01   1.026033e-01  -8.657727e+04   8.710269e+04   8.156723e+04   9.717216e+10   8.609061e+10   1.120785e+10   1.474304e+05   1.315029e-26   0.000000e+00   0.000000e+00
       40000   3.999900e-08   1.383070e+01   3.744684e+01   1.032561e-01  -8.579960e+04   8.779178e+04   8.165015e+04   9.724216e+10   8.617991e+10   9.521938e+09   1.474304e+05   1.314567e-26   0.000000e+00   0.000000e+00
       48000   4.799900e-08   1.383001e+01   3.744754e+01   1.039096e-01  -8.502144e+04   8.848153e+04   8.171957e+04   9.729573e+10   8.625473e+10   7.835199e+09   1.474304e+05   1.314106e-26   0.000000e+00   0.000000e+00
       56000   5.599900e-08   1.382934e+01   3.744825e+01   1.045636e-01  -8.424291e+04   8.917182e+04   8.177551e+04   9.733286e+10   8.631507e+10   6.147918e+09   1.474304e+05   1.313645e-26   0.000000e+00   0.000000e+00
       64000   6.399900e-08   1.382867e+01   3.744897e+01   1.052180e-01  -8.346416e+04   8.986253e+04   8.181794e+04   9.735356e+10   8.636092e+10   4.460380e+09   1.474304e+05   1.313184e-26   0.000000e+00   0.000000e+00
       72000   7.199900e-08   1.382800e+01   3.744969e+01   1.058727e-01  -8.268530e+04   9.055355e+04   8.184687e+04   9.735784e+10   8.639228e+10   2.772871e+09   1.474304e+05   1.312723e-26   0.000000e+00   0.000000e+00
       80000   7.999900e-08   1.382734e+01   3.745042e+01   1.065275e-01  -8.190648e+04   9.124477e+04   8.186230e+04   9.734571e+10   8.640917e+10   1.085672e+09   1.474304e+05   1.312262e-26   0.000000e+00   0.000000e+00
       88000   8.799900e-08   1.382669e+01   3.745115e+01   1.071824e-01  -8.112781e+04   9.193606e+04   8.186424e+04   9.731718e+10   8.641159e+10  -6.009307e+08   1.474304e+05   1.311801e-26   0.000000e+00   0.000000e+00
       96000   9.599900e-08   1.382605e+01   3.745189e+01   1.078373e-01  -8.034945e+04   9.262732e+04   8.185269e+04   9.727227e+10   8.639955e+10  -2.286655e+09   1.474304e+05   1.311340e-26   0.000000e+00   0.000000e+00
      104000   1.039990e-07   1.382541e+01   3.745263e+01   1.084920e-01  -7.957150e+04   9.331842e+04   8.182766e+04   9.721099e+10   8.637306e+10  -3.971218e+09   1.474304e+05   1.310879e-26   0.000000e+00   0.000000e+00
      112000   1.119990e-07   1.382477e+01   3.745338e+01   1.091465e-01  -7.879411e+04   9.400925e+04   8.178915e+04   9.713338e+10   8.633213e+10  -5.654336e+09   1.474304e+05   1.310418e-26   0.000000e+00   0.000000e+00
      120000   1.199990e-07   1.382414e+01   3.745414e+01   1.098006e-01  -7.801741e+04   9.469969e+04   8.173719e+04   9.703945e+10   8.627679e+10  -7.335729e+09   1.474304e+05   1.309957e-26   0.000000e+00   0.000000e+00
      128000   1.279990e-07   1.382352e+01   3.745490e+01   1.104543e-01  -7.724153e+04   9.538964e+04   8.167178e+04   9.692923e+10   8.620704e+10  -9.015114e+09   1.474304e+05   1.309496e-26   0.000000e+00   0.000000e+00
      136000   1.359990e-07   1.382291e+01   3.745566e+01   1.111073e-01  -7.646659e+04   9.607897e+04   8.159295e+04   9.680274e+10   8.612292e+10  -1.069221e+10   1.474304e+05   1.309035e-26   0.000000e+00   0.000000e+00
      144000   1.439990e-07   1.382230e+01   3.745644e+01   1.117597e-01  -7.569273e+04   9.676757e+04   8.150071e+04   9.666003e+10   8.602445e+10  -1.236674e+10   1.474304e+05   1.308575e-26   0.000000e+00   0.000000e+00
      152000   1.519990e-07   1.382170e+01   3.745721e+01   1.124113e-01  -7.492007e+04   9.745532e+04   8.139509e+04   9.650113e+10   8.591164e+10  -1.403842e+10   1.474304e+05   1.308114e-26   0.000000e+00   0.000000e+00
      160000   1.599990e-07   1.382110e+01   3.745800e+01   1.130620e-01  -7.414875e+04   9.814211e+04   8.127611e+04   9.632607e+10   8.578454e+10  -1.570697e+10   1.474304e+05   1.307653e-26   0.000000e+00   0.000000e+00
      168000   1.679990e-07   1.382051e+01   3.745878e+01   1.137117e-01  -7.337890e+04   9.882783e+04   8.114379e+04   9.613490e+10   8.564317e+10  -1.737212e+10   1.474304e+05   1.307193e-26   0.000000e+00   0.000000e+00
      176000   1.759990e-07   1.381993e+01   3.745958e+01   1.143603e-01  -7.261064e+04   9.951237e+04   8.099816e+04   9.592765e+10   8.548757e+10  -1.903359e+10   1.474304e+05   1.306732e-26   0.000000e+00   0.000000e+00
      184000   1.839990e-07   1.381935e+01   3.746038e+01   1.150076e-01  -7.184410e+04   1.001956e+05   8.083926e+04   9.570438e+10   8.531777e+10  -2.069110e+10   1.474304e+05   1.306272e-26   0.000000e+00   0.000000e+00
      192000   1.919990e-07   1.381878e+01   3.746118e+01   1.156537e-01  -7.107941e+04   1.008774e+05   8.066711e+04   9.546513e+10   8.513381e+10  -2.234437e+10   1.474304e+05   1.305812e-26   0.000000e+00   0.000000e+00
      200000   1.999990e-07   1.381821e+01   3.746199e+01   1.162983e-01  -7.031670e+04   1.015577e+05   8.048176e+04   9.520996e+10   8.493573e+10  -2.399314e+10   1.474304e+05   1.305351e-26   0.000000e+00   0.000000e+00
      208000   2.079990e-07   1.381765e+01   3.746280e+01   1.169413e-01  -6.955609e+04   1.022363e+05   8.028323e+04   9.493891e+10   8.472357e+10  -2.563713e+10   1.474304e+05   1.304891e-26   0.000000e+00   0.000000e+00
      216000   2.159990e-07   1.381710e+01   3.746363e+01   1.175828e-01  -6.879772e+04   1.029132e+05   8.007158e+04   9.465205e+10   8.449738e+10  -2.727606e+10   1.474304e+05   1.304431e-26   0.000000e+00   0.000000e+00
      224000   2.239990e-07   1.381655e+01   3.746445e+01   1.182225e-01  -6.804170e+04   1.035883e+05   7.984683e+04   9.434943e+10   8.425721e+10  -2.890967e+10   1.474304e+05   1.303971e-26   0.000000e+00   0.000000e+00
      232000   2.319990e-07   1.381601e+01   3.746528e+01   1.188603e-01  -6.728817e+04   1.042613e+05   7.960903e+04   9.403112e+10   8.400310e+10  -3.053768e+10   1.474304e+05   1.303511e-26   0.000000e+00   0.000000e+00
      240000   2.399990e-07   1.381548e+01   3.746612e+01   1.194962e-01  -6.653724e+04   1.049323e+05   7.935824e+04   9.369717e+10   8.373511e+10  -3.215983e+10   1.474304e+05   1.303051e-26   0.000000e+00   0.000000e+00
      248000   2.479990e-07   1.381495e+01   3.746696e+01   1.201300e-01  -6.578906e+04   1.056010e+05   7.909449e+04   9.334766e+10   8.345329e+10  -3.377585e+10   1.474304e+05   1.302591e-26   0.000000e+00   0.000000e+00
      256000   2.559990e-07   1.381442e+01   3.746781e+01   1.207616e-01  -6.504372e+04   1.062675e+05   7.881784e+04   9.298266e+10   8.315770e+10  -3.538546e+10   1.474304e+05   1.302132e-26   0.000000e+00   0.000000e+00
      264000   2.639990e-07   1.381391e+01   3.746866e+01   1.213910e-01  -6.430137e+04   1.069315e+05   7.852834e+04   9.260223e+10   8.284840e+10  -3.698842e+10   1.474304e+05   1.301672e-26   0.000000e+00   0.000000e+00
      272000   2.719990e-07   1.381339e+01   3.746952e+01   1.220181e-01  -6.356213e+04   1.075930e+05   7.822604e+04   9.220645e+10   8.252545e+10  -3.858445e+10   1.474304e+05   1.301212e-26   0.000000e+00   0.000000e+00
      280000   2.799990e-07   1.381289e+01   3.747038e+01   1.226426e-01  -6.282611e+04   1.082519e+05   7.791101e+04   9.179540e+10   8.218892e+10  -4.017329e+10   1.474304e+05   1.300753e-26   0.000000e+00   0.000000e+00
      288000   2.879990e-07   1.381239e+01   3.747125e+01   1.232646e-01  -6.209344e+04   1.089080e+05   7.758329e+04   9.136916e+10   8.183886e+10  -4.175468e+10   1.474304e+05   1.300293e-26   0.000000e+00   0.000000e+00
      296000   2.959990e-07   1.381189e+01   3.747213e+01   1.238839e-01  -6.136425e+04   1.095613e+05   7.724295e+04   9.092781e+10   8.147534e+10  -4.332836e+10   1.474304e+05   1.299834e-26   0.000000e+00   0.000000e+00
      304000   3.039990e-07   1.381141e+01   3.747300e+01   1.245005e-01  -6.063864e+04   1.102116e+05   7.689005e+04   9.047143e+10   8.109845e+10  -4.489407e+10   1.474304e+05   1.299375e-26   0.000000e+00   0.000000e+00
      312000   3.119990e-07   1.381092e+01   3.747389e+01   1.251141e-01  -5.991674e+04   1.108588e+05   7.652467e+04   9.000011e+10   8.070824e+10  -4.645156e+10   1.474304e+05   1.298916e-26   0.000000e+00   0.000000e+00
      320000   3.199990e-07   1.381045e+01   3.747478e+01   1.257248e-01  -5.919868e+04   1.115029e+05   7.614685e+04   8.951394e+10   8.030479e+10  -4.800057e+10   1.474304e+05   1.298457e-26   0.000000e+00   0.000000e+00
      328000   3.279990e-07   1.380998e+01   3.747567e+01   1.263324e-01  -5.848456e+04   1.121437e+05   7.575668e+04   8.901301e+10   7.988818e+10  -4.954084e+10   1.474304e+05   1.297998e-26   0.000000e+00   0.000000e+00
      336000   3.359990e-07   1.380951e+01   3.747657e+01   1.269369e-01  -5.777451e+04   1.127811e+05   7.535422e+04   8.849742e+10   7.945849e+10  -5.107214e+10   1.474304e+05   1.297539e-26   0.000000e+00   0.000000e+00
      344000   3.439990e-07   1.380905e+01   3.747748e+01   1.275381e-01  -5.706864e+04   1.134150e+05   7.493955e+04   8.796726e+10   7.901580e+10  -5.259420e+10   1.474304e+05   1.297080e-26   0.000000e+00   0.000000e+00
      352000   3.519990e-07   1.380860e+01   3.747839e+01   1.281359e-01  -5.636707e+04   1.140453e+05   7.451274e+04   8.742263e+10   7.856019e+10  -5.410679e+10   1.474304e+05   1.296622e-26   0.000000e+00   0.000000e+00
      360000   3.599990e-07   1.380815e+01   3.747930e+01   1.287302e-01  -5.566992e+04   1.146719e+05   7.407386e+04   8.686362e+10   7.809175e+10  -5.560965e+10   1.474304e+05   1.296163e-26   0.000000e+00   0.000000e+00
      368000   3.679990e-07   1.380771e+01   3.748022e+01   1.293210e-01  -5.497729e+04   1.152947e+05   7.362301e+04   8.629036e+10   7.761056e+10  -5.710253e+10   1.474304e+05   1.295705e-26   0.000000e+00   0.000000e+00
      376000   3.759990e-07   1.380727e+01   3.748115e+01   1.299082e-01  -5.428931e+04   1.159136e+05   7.316025e+04   8.570293e+10   7.711671e+10  -5.858521e+10   1.474304e+05   1.295246e-26   0.000000e+00   0.000000e+00
      384000   3.839990e-07   1.380684e+01   3.748208e+01   1.304916e-01  -5.360608e+04   1.165285e+05   7.268567e+04   8.510145e+10   7.661030e+10  -6.005743e+10   1.474304e+05   1.294788e-26   0.000000e+00   0.000000e+00
      392000   3.919990e-07   1.380641e+01   3.748301e+01   1.310711e-01  -5.292773e+04   1.171394e+05   7.219936e+04   8.448603e+10   7.609141e+10  -6.151896e+10   1.474304e+05   1.294330e-26   0.000000e+00   0.000000e+00
      400000   3.999990e-07   1.380599e+01   3.748395e+01   1.316467e-01  -5.225435e+04   1.177460e+05   7.170139e+04   8.385678e+10   7.556015e+10  -6.296957e+10   1.474304e+05   1.293872e-26   0.000000e+00   0.000000e+00
      408000   4.079990e-07   1.380558e+01   3.748490e+01   1.322183e-01  -5.158605e+04   1.183483e+05   7.119187e+04   8.321381e+10   7.501661e+10  -6.440901e+10   1.474304e+05   1.293414e-26   0.000000e+00   0.000000e+00
      416000   4.159990e-07   1.380517e+01   3.748584e+01   1.327858e-01  -5.092296e+04   1.189462e+05   7.067088e+04   8.255725e+10   7.446088e+10  -6.583706e+10   1.474304e+05   1.292957e-26   0.000000e+00   0.000000e+00
      424000   4.239990e-07   1.380476e+01   3.748680e+01   1.333490e-01  -5.026517e+04   1.195396e+05   7.013851e+04   8.188720e+10   7.389307e+10  -6.725348e+10   1.474304e+05   1.292499e-26   0.000000e+00   0.000000e+00
      432000   4.319990e-07   1.380436e+01   3.748776e+01   1.339080e-01  -4.961280e+04   1.201285e+05   6.959485e+04   8.120380e+10   7.331328e+10  -6.865806e+10   1.474304e+05   1.292041e-26   0.000000e+00   0.000000e+00
      440000   4.399990e-07   1.380397e+01   3.748872e+01   1.344625e-01  -4.896595e+04   1.207126e+05   6.904001e+04   8.050716e+10   7.272163e+10  -7.005055e+10   1.474304e+05   1.291584e-26   0.000000e+00   0.000000e+00
      448000   4.479990e-07   1.380358e+01   3.748969e+01   1.350126e-01  -4.832472e+04   1.212920e+05   6.847408e+04   7.979742e+10   7.211820e+10  -7.143075e+10   1.474304e+05   1.291127e-26   0.000000e+00   0.000000e+00
      456000   4.559990e-07   1.380320e+01   3.749066e+01   1.355581e-01  -4.768923e+04   1.218665e+05   6.789715e+04   7.907469e+10   7.150312e+10  -7.279842e+10   1.474304e+05   1.290670e-26   0.000000e+00   0.000000e+00
      464000   4.639990e-07   1.380282e+01   3.749164e+01   1.360989e-01  -4.705956e+04   1.224360e+05   6.730933e+04   7.833910e+10   7.087649e+10  -7.415335e+10   1.474304e+05   1.290213e-26   0.000000e+00   0.000000e+00
      472000   4.719990e-07   1.380244e+01   3.749262e+01   1.366350e-01  -4.643584e+04   1.230005e+05   6.671073e+04   7.759080e+10   7.023842e+10  -7.549532e+10   1.474304e+05   1.289756e-26   0.000000e+00   0.000000e+00
      480000   4.799990e-07   1.380207e+01   3.749361e+01   1.371662e-01  -4.581814e+04   1.235598e+05   6.610144e+04   7.682991e+10   6.958904e+10  -7.682412e+10   1.474304e+05   1.289299e-26   0.000000e+00   0.000000e+00
      488000   4.879990e-07   1.380171e+01   3.749460e+01   1.376926e-01  -4.520659e+04   1.241139e+05   6.548158e+04   7.605656e+10   6.892844e+10  -7.813954e+10   1.474304e+05   1.288843e-26   0.000000e+00   0.000000e+00
      496000   4.959990e-07   1.380135e+01   3.749559e+01   1.382139e-01  -4.460127e+04   1.246626e+05   6.485125e+04   7.527090e+10   6.825676e+10  -7.944136e+10   1.474304e+05   1.288386e-26   0.000000e+00   0.000000e+00
      504000   5.039990e-07   1.380100e+01   3.749659e+01   1.387302e-01  -4.400229e+04   1.252059e+05   6.421055e+04   7.447307e+10   6.757412e+10  -8.072939e+10   1.474304e+05   1.287930e-26   0.000000e+00   0.000000e+00
      512000   5.119990e-07   1.380065e+01   3.749760e+01   1.392413e-01  -4.340974e+04   1.257438e+05   6.355961e+04   7.366319e+10   6.688062e+10  -8.200340e+10   1.474304e+05   1.287474e-26   0.000000e+00   0.000000e+00
      520000   5.199990e-07   1.380030e+01   3.749860e+01   1.397471e-01  -4.282371e+04   1.262760e+05   6.289853e+04   7.284143e+10   6.617640e+10  -8.326322e+10   1.474304e+05   1.287018e-26   0.000000e+00   0.000000e+00
      528000   5.279990e-07   1.379996e+01   3.749962e+01   1.402476e-01  -4.224429e+04   1.268026e+05   6.222738e+04   7.202481e+10   6.549971e+10  -8.457498e+10   1.474304e+05   1.288006e-26   0.000000e+00   0.000000e+00
      536000   5.359990e-07   1.379963e+01   3.750063e+01   1.407427e-01  -4.167161e+04   1.273235e+05   6.154619e+04   7.115109e+10   6.473071e+10  -8.573629e+10   1.474304e+05   1.285879e-26   0.000000e+00   0.000000e+00
      544000   5.439990e-07   1.379929e+01   3.750165e+01   1.412323e-01  -4.110582e+04   1.278384e+05   6.085542e+04   7.029436e+10   6.399517e+10  -8.695224e+10   1.474304e+05   1.285423e-26   0.000000e+00   0.000000e+00
      552000   5.519990e-07   1.379897e+01   3.750268e+01   1.417164e-01  -4.054693e+04   1.283474e+05   6.015499e+04   6.942632e+10   6.324941e+10  -8.815320e+10   1.474304e+05   1.284968e-26   0.000000e+00   0.000000e+00
      560000   5.599990e-07   1.379865e+01   3.750371e+01   1.421948e-01  -3.999503e+04   1.288503e+05   5.944501e+04   6.854714e+10   6.249357e+10  -8.933899e+10   1.474304e+05   1.284513e-26   0.000000e+00   0.000000e+00
      568000   5.679990e-07   1.379833e+01   3.750474e+01   1.426675e-01  -3.945021e+04   1.293472e+05   5.872561e+04   6.765697e+10   6.172778e+10  -9.050941e+10   1.474304e+05   1.284058e-26   0.000000e+00   0.000000e+00
      576000   5.759990e-07   1.379801e+01   3.750578e+01   1.431344e-01  -3.891255e+04   1.298380e+05   5.799690e+04   6.675596e+10   6.095217e+10  -9.166430e+10   1.474304e+05   1.283603e-26   0.000000e+00   0.000000e+00
      584000   5.839990e-07   1.379771e+01   3.750682e+01   1.435954e-01  -3.838214e+04   1.303224e+05   5.725902e+04   6.584426e+10   6.016688e+10  -9.280345e+10   1.474304e+05   1.283149e-26   0.000000e+00   0.000000e+00
      592000   5.919990e-07   1.379740e+01   3.750786e+01   1.440505e-01  -3.785907e+04   1.308006e+05   5.651209e+04   6.492204e+10   5.937204e+10  -9.392671e+10   1.474304e+05   1.282695e-26   0.000000e+00   0.000000e+00
      600000   5.999990e-07   1.379710e+01   3.750891e+01   1.444996e-01  -3.734342e+04   1.312724e+05   5.575623e+04   6.398946e+10   5.856779e+10  -9.503389e+10   1.474304e+05   1.282241e-26   0.000000e+00   0.000000e+00
      608000   6.079990e-07   1.379680e+01   3.750996e+01   1.449426e-01  -3.683526e+04   1.317377e+05   5.499159e+04   6.304668e+10   5.775428e+10  -9.612481e+10   1.474304e+05   1.281787e-26   0.000000e+00   0.000000e+00
      616000   6.159990e-07   1.379651e+01   3.751102e+01   1.453794e-01  -3.633470e+04   1.321964e+05   5.421828e+04   6.209386e+10   5.693163e+10  -9.719932e+10   1.474304e+05   1.281334e-26   0.000000e+00   0.000000e+00
      624000   6.239990e-07   1.379622e+01   3.751208e+01   1.458100e-01  -3.584179e+04   1.326485e+05   5.343644e+04   6.113117e+10   5.610001e+10  -9.825725e+10   1.474304e+05   1.280881e-26   0.000000e+00   0.000000e+00
      632000   6.319990e-07   1.379594e+01   3.751314e+01   1.462344e-01  -3.535662e+04   1.330940e+05   5.264621e+04   6.015877e+10   5.525954e+10  -9.929842e+10   1.474304e+05   1.280428e-26   0.000000e+00   0.000000e+00
      640000   6.399990e-07   1.379566e+01   3.751421e+01   1.466523e-01  -3.487928e+04   1.335327e+05   5.184771e+04   5.917684e+10   5.441038e+10  -1.003227e+11   1.474304e+05   1.279976e-26   0.000000e+00   0.000000e+00
      648000   6.479990e-07   1.379538e+01   3.751528e+01   1.470639e-01  -3.440982e+04   1.339645e+05   5.104109e+04   5.818553e+10   5.355266e+10  -1.013299e+11   1.474304e+05   1.279523e-26   0.000000e+00   0.000000e+00
      656000   6.559990e-07   1.379511e+01   3.751635e+01   1.474690e-01  -3.394833e+04   1.343895e+05   5.022648e+04   5.718503e+10   5.268655e+10  -1.023198e+11   1.474304e+05   1.279071e-26   0.000000e+00   0.000000e+00
      664000   6.639990e-07   1.379484e+01   3.751743e+01   1.478675e-01  -3.349489e+04   1.348075e+05   4.940402e+04   5.617551e+10   5.181218e+10  -1.032924e+11   1.474304e+05   1.278620e-26   0.000000e+00   0.000000e+00
      672000   6.719990e-07   1.379457e+01   3.751851e+01   1.482594e-01  -3.304955e+04   1.352185e+05   4.857384e+04   5.515713e+10   5.092971e+10  -1.042475e+11   1.474304e+05   1.278168e-26   0.000000e+00   0.000000e+00
      680000   6.799990e-07   1.379431e+01   3.751959e+01   1.486447e-01  -3.261240e+04   1.356223e+05   4.773610e+04   5.413008e+10   5.003929e+10  -1.051849e+11   1.474304e+05   1.277717e-26   0.000000e+00   0.000000e+00
      688000   6.879990e-07   1.379405e+01   3.752068e+01   1.490232e-01  -3.218349e+04   1.360191e+05   4.689093e+04   5.309452e+10   4.914107e+10  -1.061045e+11   1.474304e+05   1.277266e-26   0.000000e+00   0.000000e+00
      696000   6.959990e-07   1.379379e+01   3.752177e+01   1.493949e-01  -3.176291e+04   1.364086e+05   4.603848e+04   5.205064e+10   4.823521e+10  -1.070062e+11   1.474304e+05   1.276816e-26   0.000000e+00   0.000000e+00
      704000   7.039990e-07   1.379354e+01   3.752286e+01   1.497598e-01  -3.135070e+04   1.367908e+05   4.517888e+04   5.099861e+10   4.732186e+10  -1.078897e+11   1.474304e+05   1.276365e-26   0.000000e+00   0.000000e+00
      712000   7.119990e-07   1.379329e+01   3.752396e+01   1.501177e-01  -3.094695e+04   1.371657e+05   4.431229e+04   4.993862e+10   4.640118e+10  -1.087551e+11   1.474304e+05   1.275915e-26   0.000000e+00   0.000000e+00
      720000   7.199990e-07   1.379304e+01   3.752505e+01   1.504688e-01  -3.055171e+04   1.375332e+05   4.343885e+04   4.887085e+10   4.547331e+10  -1.096021e+11   1.474304e+05   1.275466e-26   0.000000e+00   0.000000e+00
      728000   7.279990e-07   1.379280e+01   3.752616e+01   1.508127e-01  -3.016504e+04   1.378933e+05   4.255870e+04   4.779547e+10   4.453843e+10  -1.104306e+11   1.474304e+05   1.275016e-26   0.000000e+00   0.000000e+00
      736000   7.359990e-07   1.379256e+01   3.752726e+01   1.511497e-01  -2.978700e+04   1.382458e+05   4.167201e+04   4.671267e+10   4.359670e+10  -1.112405e+11   1.474304e+05   1.274567e-26   0.000000e+00   0.000000e+00
      744000   7.439990e-07   1.379232e+01   3.752837e+01   1.514795e-01  -2.941766e+04   1.385908e+05   4.077891e+04   4.562264e+10   4.264826e+10  -1.120317e+11   1.474304e+05   1.274118e-26   0.000000e+00   0.000000e+00
      752000   7.519990e-07   1.379209e+01   3.752948e+01   1.518021e-01  -2.905706e+04   1.389282e+05   3.987955e+04   4.452555e+10   4.169328e+10  -1.128040e+11   1.474304e+05   1.273669e-26   0.000000e+00   0.000000e+00
      760000   7.599990e-07   1.379186e+01   3.753059e+01   1.521175e-01  -2.870527e+04   1.392579e+05   3.897409e+04   4.342160e+10   4.073193e+10  -1.135574e+11   1.474304e+05   1.273221e-26   0.000000e+00   0.000000e+00
      768000   7.679990e-07   1.379163e+01   3.753171e+01   1.524257e-01  -2.836233e+04   1.395799e+05   3.806268e+04   4.231098e+10   3.976436e+10  -1.142917e+11   1.474304e+05   1.272773e-26   0.000000e+00   0.000000e+00
      776000   7.759990e-07   1.379141e+01   3.753282e+01   1.527265e-01  -2.802831e+04   1.398941e+05   3.714547e+04   4.119386e+10   3.879075e+10  -1.150069e+11   1.474304e+05   1.272325e-26   0.000000e+00   0.000000e+00
      784000   7.839990e-07   1.379118e+01   3.753394e+01   1.530200e-01  -2.770325e+04   1.402005e+05   3.622262e+04   4.007044e+10   3.781125e+10  -1.157028e+11   1.474304e+05   1.271878e-26   0.000000e+00   0.000000e+00
      792000   7.919990e-07   1.379096e+01   3.753507e+01   1.533061e-01  -2.738720e+04   1.404990e+05   3.529428e+04   3.894091e+10   3.682603e+10  -1.163793e+11   1.474304e+05   1.271430e-26   0.000000e+00   0.000000e+00
      800000   7.999990e-07   1.379074e+01   3.753619e+01   1.535847e-01  -2.708021e+04   1.407897e+05   3.436060e+04   3.780546e+10   3.583526e+10  -1.170363e+11   1.474304e+05   1.270983e-26   0.000000e+00   0.000000e+00
      808000   8.079990e-07   1.379053e+01   3.753732e+01   1.538558e-01  -2.678233e+04   1.410724e+05   3.342175e+04   3.666429e+10   3.483910e+10  -1.176738e+11   1.474304e+05   1.270537e-26   0.000000e+00   0.000000e+00
      816000   8.159990e-07   1.379032e+01   3.753845e+01   1.541194e-01  -2.649360e+04   1.413471e+05   3.247788e+04   3.551757e+10   3.383772e+10  -1.182916e+11   1.474304e+05   1.270090e-26   0.000000e+00   0.000000e+00
      824000   8.239990e-07   1.379011e+01   3.753958e+01   1.543755e-01  -2.621406e+04   1.416138e+05   3.152914e+04   3.436551e+10   3.283129e+10  -1.188896e+11   1.474304e+05   1.269644e-26   0.000000e+00   0.000000e+00
      832000   8.319990e-07   1.378990e+01   3.754071e+01   1.546239e-01  -2.594377e+04   1.418724e+05   3.057569e+04   3.320831e+10   3.181998e+10  -1.194678e+11   1.474304e+05   1.269198e-26   0.000000e+00   0.000000e+00
      840000   8.399990e-07   1.378969e+01   3.754185e+01   1.548647e-01  -2.568274e+04   1.421229e+05   2.961770e+04   3.204614e+10   3.080396e+10  -1.200261e+11   1.474304e+05   1.268753e-26   0.000000e+00   0.000000e+00
      848000   8.479990e-07   1.378949e+01   3.754299e+01   1.550978e-01  -2.543104e+04   1.423652e+05   2.865533e+04   3.087921e+10   2.978340e+10  -1.205645e+11   1.474304e+05   1.268307e-26   0.000000e+00   0.000000e+00
      856000   8.559990e-07   1.378928e+01   3.754413e+01   1.553231e-01  -2.518869e+04   1.425994e+05   2.768873e+04   2.970772e+10   2.875847e+10  -1.210827e+11   1.474304e+05   1.267862e-26   0.000000e+00   0.000000e+00
      864000   8.639990e-07   1.378908e+01   3.754527e+01   1.555408e-01  -2.495573e+04   1.428254e+05   2.671806e+04   2.853186e+10   2.772934e+10  -1.215808e+11   1.474304e+05   1.267418e-26   0.000000e+00   0.000000e+00
      872000   8.719990e-07   1.378888e+01   3.754641e+01   1.557506e-01  -2.473219e+04   1.430431e+05   2.574349e+04   2.735182e+10   2.669618e+10  -1.220587e+11   1.474304e+05   1.266973e-26   0.000000e+00   0.000000e+00
      880000   8.799990e-07   1.378869e+01   3.754756e+01   1.559527e-01  -2.451811e+04   1.432525e+05   2.476517e+04   2.616781e+10   2.565917e+10  -1.225163e+11   1.474304e+05   1.266529e-26   0.000000e+00   0.000000e+00
      888000   8.879990e-07   1.378849e+01   3.754871e+01   1.561468e-01  -2.431352e+04   1.434536e+05   2.378328e+04   2.498002e+10   2.461848e+10  -1.229536e+11   1.474304e+05   1.266085e-26   0.000000e+00   0.000000e+00
      896000   8.959990e-07   1.378830e+01   3.754985e+01   1.563332e-01  -2.411844e+04   1.436464e+05   2.279797e+04   2.378865e+10   2.357428e+10  -1.233706e+11   1.474304e+05   1.265641e-26   0.000000e+00   0.000000e+00
      904000   9.039990e-07   1.378811e+01   3.755100e+01   1.565116e-01  -2.393291e+04   1.438308e+05   2.180940e+04   2.259389e+10   2.252674e+10  -1.237670e+11   1.474304e+05   1.265198e-26   0.000000e+00   0.000000e+00
      912000   9.119990e-07   1.378792e+01   3.755216e+01   1.566821e-01  -2.375695e+04   1.440068e+05   2.081775e+04   2.139595e+10   2.147605e+10  -1.241430e+11   1.474304e+05   1.264755e-26   0.000000e+00   0.000000e+00
      920000   9.199990e-07   1.378773e+01   3.755331e+01   1.568447e-01  -2.359059e+04   1.441744e+05   1.982317e+04   2.019503e+10   2.042237e+10  -1.244985e+11   1.474304e+05   1.264312e-26   0.000000e+00   0.000000e+00
      928000   9.279990e-07   1.378754e+01   3.755446e+01   1.569993e-01  -2.343384e+04   1.443335e+05   1.882583e+04   1.899132e+10   1.936588e+10  -1.248333e+11   1.474304e+05   1.263870e-26   0.000000e+00   0.000000e+00
      936000   9.359990e-07   1.378735e+01   3.755562e+01   1.571459e-01  -2.328673e+04   1.444842e+05   1.782589e+04   1.778503e+10   1.830676e+10  -1.251475e+11   1.474304e+05   1.263427e-26   0.000000e+00   0.000000e+00
      944000   9.439990e-07   1.378717e+01   3.755677e+01   1.572845e-01  -2.314929e+04   1.446264e+05   1.682352e+04   1.657635e+10   1.724518e+10  -1.254411e+11   1.474304e+05   1.262985e-26   0.000000e+00   0.000000e+00
      952000   9.519990e-07   1.378698e+01   3.755793e+01   1.574151e-01  -2.302152e+04   1.447602e+05   1.581889e+04   1.536548e+10   1.618131e+10  -1.257140e+11   1.474304e+05   1.262543e-26   0.000000e+00   0.000000e+00
      960000   9.599990e-07   1.378680e+01   3.755909e+01   1.575376e-01  -2.290344e+04   1.448853e+05   1.481216e+04   1.415263e+10   1.511533e+10  -1.259661e+11   1.474304e+05   1.262102e-26   0.000000e+00   0.000000e+00
      968000   9.679990e-07   1.378661e+01   3.756025e+01   1.576520e-01  -2.279508e+04   1.450020e+05   1.380349e+04   1.293799e+10   1.404743e+10  -1.261975e+11   1.474304e+05   1.261661e-26   0.000000e+00   0.000000e+00
      976000   9.759990e-07   1.378643e+01   3.756141e+01   1.577584e-01  -2.269644e+04   1.451101e+05   1.279305e+04   1.172177e+10   1.297776e+10  -1.264082e+11   1.474304e+05   1.261220e-26   0.000000e+00   0.000000e+00
      984000   9.839990e-07   1.378625e+01   3.756257e+01   1.578567e-01  -2.260754e+04   1.452096e+05   1.178101e+04   1.050416e+10   1.190652e+10  -1.265980e+11   1.474304e+05   1.260779e-26   0.000000e+00   0.000000e+00
      992000   9.919990e-07   1.378607e+01   3.756373e+01   1.579469e-01  -2.252838e+04   1.453006e+05   1.076754e+04   9.285369e+09   1.083388e+10  -1.267670e+11   1.474304e+05   1.260339e-26   0.000000e+00   0.000000e+00
     1000000   9.999990e-07   1.378589e+01   3.756490e+01   1.580290e-01  -2.245898e+04   1.453830e+05   9.752794e+03   8.065594e+09   9.760010e+09  -1.269152e+11   1.474304e+05   1.259898e-26   0.000000e+00   0.000000e+00
     1008000   1.007999e-06   1.378571e+01   3.756606e+01   1.581030e-01  -2.239933e+04   1.454568e+05   8.736949e+03   6.845037e+09   8.685091e+09  -1.270426e+11   1.474304e+05   1.259458e-26   0.000000e+00   0.000000e+00
     1016000   1.015999e-06   1.378553e+01   3.756722e+01   1.581688e-01  -2.234946e+04   1.455219e+05   7.720168e+03   5.623897e+09   7.609299e+09  -1.271491e+11   1.474304e+05   1.259019e-26   0.000000e+00   0.000000e+00
     1024000   1.023999e-06   1.378535e+01   3.756839e+01   1.582265e-01  -2.230935e+04   1.455785e+05   6.702619e+03   4.402375e+09   6.532810e+09  -1.272348e+11   1.474304e+05   1.258579e-26   0.000000e+00   0.000000e+00
     1032000   1.031999e-06   1.378517e+01   3.756955e+01   1.582760e-01  -2.227902e+04   1.456265e+05   5.684467e+03   3.180671e+09   5.455802e+09  -1.272996e+11   1.474304e+05   1.258140e-26   0.000000e+00   0.000000e+00
     1040000   1.039999e-06   1.378500e+01   3.757072e+01   1.583174e-01  -2.225846e+04   1.456658e+05   4.665880e+03   1.958985e+09   4.378450e+09  -1.273437e+11   1.474304e+05   1.257701e-26   0.000000e+00   0.000000e+00
     1048000   1.047999e-06   1.378482e+01   3.757188e+01   1.583507e-01  -2.224768e+04   1.456965e+05   3.647024e+03   7.375177e+08   3.300931e+09  -1.273668e+11   1.474304e+05   1.257262e-26   0.000000e+00   0.000000e+00
     1056000   1.055999e-06   1.378464e+01   3.757305e+01   1.583758e-01  -2.224666e+04   1.457186e+05   2.628066e+03  -4.835323e+08   2.223422e+09  -1.273692e+11   1.474304e+05   1.256824e-26   0.000000e+00   0.000000e+00
     1064000   1.063999e-06   1.378446e+01   3.757421e+01   1.583927e-01  -2.225542e+04   1.457321e+05   1.609172e+03  -1.703965e+09   1.146097e+09  -1.273507e+11   1.474304e+05   1.256386e-26   0.000000e+00   0.000000e+00
     1072000   1.071999e-06   1.378428e+01   3.757538e+01   1.584015e-01  -2.227393e+04   1.457369e+05   5.905095e+02  -2.923582e+09   6.913293e+07  -1.273115e+11   1.474304e+05   1.255948e-26   0.000000e+00   0.000000e+00
     1080000   1.079999e-06   1.378411e+01   3.757655e+01   1.584022e-01  -2.230219e+04   1.457332e+05  -4.277565e+02  -4.142184e+09  -1.007294e+09  -1.272515e+11   1.474304e+05   1.255510e-26   0.000000e+00   0.000000e+00
     1088000   1.087999e-06   1.378393e+01   3.757771e+01   1.583947e-01  -2.234020e+04   1.457208e+05  -1.445460e+03  -5.359573e+09  -2.083010e+09  -1.271708e+11   1.474304e+05   1.255073e-26   0.000000e+00   0.000000e+00
     1096000   1.095999e-06   1.378375e+01   3.757888e+01   1.583791e-01  -2.238794e+04   1.456999e+05  -2.462434e+03  -6.575550e+09  -3.157839e+09  -1.270693e+11   1.474304e+05   1.254635e-26   0.000000e+00   0.000000e+00
     1104000   1.103999e-06   1.378357e+01   3.758004e+01   1.583553e-01  -2.244541e+04   1.456703e+05  -3.478514e+03  -7.789919e+09  -4.231606e+09  -1.269472e+11   1.474304e+05   1.254198e-26   0.000000e+00   0.000000e+00
     1112000   1.111999e-06   1.378339e+01   3.758121e+01   1.583234e-01  -2.251258e+04   1.456322e+05  -4.493534e+03  -9.002481e+09  -5.304137e+09  -1.268044e+11   1.474304e+05   1.253761e-26   0.000000e+00   0.000000e+00
     1120000   1.119999e-06   1.378321e+01   3.758237e+01   1.582834e-01  -2.258944e+04   1.455854e+05  -5.507330e+03  -1.021304e+10  -6.375258e+09  -1.266411e+11   1.474304e+05   1.253325e-26   0.000000e+00   0.000000e+00
     1128000   1.127999e-06   1.378303e+01   3.758354e+01   1.582353e-01  -2.267598e+04   1.455302e+05  -6.519736e+03  -1.142140e+10  -7.444796e+09  -1.264571e+11   1.474304e+05   1.252889e-26   0.000000e+00   0.000000e+00
     1136000   1.135999e-06   1.378285e+01   3.758470e+01   1.581791e-01  -2.277218e+04   1.454663e+05  -7.530588e+03  -1.262737e+10  -8.512576e+09  -1.262526e+11   1.474304e+05   1.252452e-26   0.000000e+00   0.000000e+00
     1144000   1.143999e-06   1.378266e+01   3.758587e+01   1.581148e-01  -2.287801e+04   1.453940e+05  -8.539723e+03  -1.383075e+10  -9.578427e+09  -1.260277e+11   1.474304e+05   1.252017e-26   0.000000e+00   0.000000e+00
     1152000   1.151999e-06   1.378248e+01   3.758703e+01   1.580425e-01  -2.299346e+04   1.453131e+05  -9.546977e+03  -1.503134e+10  -1.064218e+10  -1.257823e+11   1.474304e+05   1.251581e-26   0.000000e+00   0.000000e+00
     1160000   1.159999e-06   1.378230e+01   3.758819e+01   1.579621e-01  -2.311851e+04   1.452237e+05  -1.055219e+04  -1.622896e+10  -1.170365e+10  -1.255166e+11   1.474304e+05   1.251145e-26   0.000000e+00   0.000000e+00
     1168000   1.167999e-06   1.378211e+01   3.758935e+01   1.578736e-01  -2.325312e+04   1.451258e+05  -1.155519e+04  -1.742340e+10  -1.276268e+10  -1.252305e+11   1.474304e+05   1.250710e-26   0.000000e+00   0.000000e+00
     1176000   1.175999e-06   1.378192e+01   3.759051e+01   1.577772e-01  -2.339727e+04   1.450195e+05  -1.255582e+04  -1.861449e+10  -1.381910e+10  -1.249242e+11   1.474304e+05   1.250275e-26   0.000000e+00   0.000000e+00
     1184000   1.183999e-06   1.378174e+01   3.759167e+01   1.576728e-01  -2.355094e+04   1.449047e+05  -1.355392e+04  -1.980202e+10  -1.487272e+10  -1.245977e+11   1.474304e+05   1.249840e-26   0.000000e+00   0.000000e+00
     1192000   1.191999e-06   1.378155e+01   3.759283e+01   1.575603e-01  -2.371410e+04   1.447815e+05  -1.454933e+04  -2.098580e+10  -1.592340e+10  -1.242511e+11   1.474304e+05   1.249406e-26   0.000000e+00   0.000000e+00
     1200000   1.199999e-06   1.378136e+01   3.759399e+01   1.574400e-01  -2.388671e+04   1.446500e+05  -1.554189e+04  -2.216565e+10  -1.697095e+10  -1.238845e+11   1.474304e+05   1.248972e-26   0.000000e+00   0.000000e+00
     1208000   1.207999e-06   1.378116e+01   3.759515e+01   1.573117e-01  -2.406874e+04   1.445100e+05  -1.653143e+04  -2.334137e+10  -1.801520e+10  -1.234979e+11   1.474304e+05   1.248537e-26   0.000000e+00   0.000000e+00
     1216000   1.215999e-06   1.378097e+01   3.759630e+01   1.571755e-01  -2.426016e+04   1.443617e+05  -1.751780e+04  -2.451278e+10  -1.905600e+10  -1.230913e+11   1.474304e+05   1.248103e-26   0.000000e+00   0.000000e+00
     1224000   1.223999e-06   1.378078e+01   3.759746e+01   1.570314e-01  -2.446093e+04   1.442051e+05  -1.850084e+04  -2.567969e+10  -2.009317e+10  -1.226650e+11   1.474304e+05   1.247670e-26   0.000000e+00   0.000000e+00
     1232000   1.231999e-06   1.378058e+01   3.759861e+01   1.568795e-01  -2.467102e+04   1.440402e+05  -1.948039e+04  -2.684192e+10  -2.112655e+10  -1.222189e+11   1.474304e+05   1.247236e-26   0.000000e+00   0.000000e+00
     1240000   1.239999e-06   1.378038e+01   3.759976e+01   1.567197e-01  -2.489039e+04   1.438671e+05  -2.045629e+04  -2.799927e+10  -2.215597e+10  -1.217532e+11   1.474304e+05   1.246803e-26   0.000000e+00   0.000000e+00
     1248000   1.247999e-06   1.378018e+01   3.760091e+01   1.565522e-01  -2.511911e+04   1.436857e+05  -2.142887e+04  -2.916957e+10  -2.319635e+10  -1.213449e+11   1.474304e+05   1.247951e-26   0.000000e+00   0.000000e+00
     1256000   1.255999e-06   1.377998e+01   3.760206e+01   1.563769e-01  -2.535706e+04   1.434960e+05  -2.239762e+04  -3.031804e+10  -2.421877e+10  -1.208403e+11   1.474304e+05   1.247532e-26   0.000000e+00   0.000000e+00
     1264000   1.263999e-06   1.377978e+01   3.760321e+01   1.561938e-01  -2.560418e+04   1.432982e+05  -2.336226e+04  -3.146109e+10  -2.523675e+10  -1.203163e+11   1.474304e+05   1.247113e-26   0.000000e+00   0.000000e+00
     1272000   1.271999e-06   1.377957e+01   3.760435e+01   1.560031e-01  -2.586043e+04   1.430922e+05  -2.432263e+04  -3.259853e+10  -2.625013e+10  -1.197730e+11   1.474304e+05   1.246695e-26   0.000000e+00   0.000000e+00
     1280000   1.279999e-06   1.377936e+01   3.760550e+01   1.558047e-01  -2.612575e+04   1.428782e+05  -2.527858e+04  -3.373017e+10  -2.725874e+10  -1.192104e+11   1.474304e+05   1.246276e-26   0.000000e+00   0.000000e+00
     1288000   1.287999e-06   1.377915e+01   3.760664e+01   1.555986e-01  -2.640009e+04   1.426561e+05  -2.622995e+04  -3.485585e+10  -2.826243e+10  -1.186288e+11   1.474304e+05   1.245857e-26   0.000000e+00   0.000000e+00
     1296000   1.295999e-06   1.377894e+01   3.760778e+01   1.553850e-01  -2.668342e+04   1.424260e+05  -2.717659e+04  -3.597538e+10  -2.926103e+10  -1.180281e+11   1.474304e+05   1.245438e-26   0.000000e+00   0.000000e+00
     1304000   1.303999e-06   1.377873e+01   3.760892e+01   1.551638e-01  -2.697569e+04   1.421879e+05  -2.811835e+04  -3.708859e+10  -3.025439e+10  -1.174086e+11   1.474304e+05   1.245019e-26   0.000000e+00   0.000000e+00
     1312000   1.311999e-06   1.377851e+01   3.761005e+01   1.549351e-01  -2.727683e+04   1.419419e+05  -2.905507e+04  -3.819529e+10  -3.124234e+10  -1.167702e+11   1.474304e+05   1.244600e-26   0.000000e+00   0.000000e+00
     1320000   1.319999e-06   1.377829e+01   3.761119e+01   1.546990e-01  -2.758679e+04   1.416881e+05  -2.998662e+04  -3.929531e+10  -3.222473e+10  -1.161133e+11   1.474304e+05   1.244182e-26   0.000000e+00   0.000000e+00
     1328000   1.327999e-06   1.377807e+01   3.761232e+01   1.544554e-01  -2.790553e+04   1.414264e+05  -3.091284e+04  -4.038848e+10  -3.320141e+10  -1.154378e+11   1.474304e+05   1.243763e-26   0.000000e+00   0.000000e+00
     1336000   1.335999e-06   1.377784e+01   3.761345e+01   1.542044e-01  -2.823299e+04   1.411569e+05  -3.183357e+04  -4.147463e+10  -3.417222e+10  -1.147438e+11   1.474304e+05   1.243344e-26   0.000000e+00   0.000000e+00
     1344000   1.343999e-06   1.377762e+01   3.761458e+01   1.539460e-01  -2.856911e+04   1.408796e+05  -3.274869e+04  -4.255358e+10  -3.513700e+10  -1.140316e+11   1.474304e+05   1.242925e-26   0.000000e+00   0.000000e+00
     1352000   1.351999e-06   1.377739e+01   3.761570e+01   1.536804e-01  -2.891383e+04   1.405947e+05  -3.365803e+04  -4.362517e+10  -3.609561e+10  -1.133012e+11   1.474304e+05   1.242506e-26   0.000000e+00   0.000000e+00
     1360000   1.359999e-06   1.377715e+01   3.761683e+01   1.534075e-01  -2.926709e+04   1.403021e+05  -3.456146e+04  -4.468922e+10  -3.704789e+10  -1.125528e+11   1.474304e+05   1.242088e-26   0.000000e+00   0.000000e+00
     1368000   1.367999e-06   1.377692e+01   3.761795e+01   1.531274e-01  -2.962884e+04   1.400019e+05  -3.545883e+04  -4.574557e+10  -3.799369e+10  -1.117865e+11   1.474304e+05   1.241669e-26   0.000000e+00   0.000000e+00
     1376000   1.375999e-06   1.377668e+01   3.761907e+01   1.528402e-01  -2.999900e+04   1.396942e+05  -3.634999e+04  -4.679405e+10  -3.893287e+10  -1.110024e+11   1.474304e+05   1.241250e-26   0.000000e+00   0.000000e+00
     1384000   1.383999e-06   1.377644e+01   3.762018e+01   1.525459e-01  -3.037752e+04   1.393790e+05  -3.723482e+04  -4.783449e+10  -3.986527e+10  -1.102008e+11   1.474304e+05   1.240831e-26   0.000000e+00   0.000000e+00
     1392000   1.391999e-06   1.377619e+01   3.762130e+01   1.522445e-01  -3.076433e+04   1.390564e+05  -3.811316e+04  -4.886674e+10  -4.079075e+10  -1.093816e+11   1.474304e+05   1.240412e-26   0.000000e+00   0.000000e+00
     1400000   1.399999e-06   1.377594e+01   3.762241e+01   1.519361e-01  -3.115937e+04   1.387264e+05  -3.898488e+04  -4.989063e+10  -4.170916e+10  -1.085451e+11   1.474304e+05   1.239993e-26   0.000000e+00   0.000000e+00
     1408000   1.407999e-06   1.377569e+01   3.762352e+01   1.516207e-01  -3.156256e+04   1.383891e+05  -3.984983e+04  -5.090601e+10  -4.262037e+10  -1.076914e+11   1.474304e+05   1.239574e-26   0.000000e+00   0.000000e+00
     1416000   1.415999e-06   1.377544e+01   3.762462e+01   1.512985e-01  -3.197384e+04   1.380445e+05  -4.070789e+04  -5.191271e+10  -4.352422e+10  -1.068207e+11   1.474304e+05   1.239155e-26   0.000000e+00   0.000000e+00
     1424000   1.423999e-06   1.377518e+01   3.762573e+01   1.509694e-01  -3.239314e+04   1.376927e+05  -4.155892e+04  -5.291057e+10  -4.442057e+10  -1.059331e+11   1.474305e+05   1.238736e-26   0.000000e+00   0.000000e+00
     1432000   1.431999e-06   1.377492e+01   3.762683e+01   1.506336e-01  -3.282039e+04   1.373338e+05  -4.240278e+04  -5.389945e+10  -4.530929e+10  -1.050288e+11   1.474305e+05   1.238317e-26   0.000000e+00   0.000000e+00
     1440000   1.439999e-06   1.377466e+01   3.762792e+01   1.502910e-01  -3.325551e+04   1.369678e+05  -4.323933e+04  -5.487918e+10  -4.619024e+10  -1.041079e+11   1.474305e+05   1.237898e-26   0.000000e+00   0.000000e+00
     1448000   1.447999e-06   1.377439e+01   3.762902e+01   1.499418e-01  -3.369843e+04   1.365947e+05  -4.406846e+04  -5.584962e+10  -4.706328e+10  -1.031706e+11   1.474305e+05   1.237479e-26   0.000000e+00   0.000000e+00
     1456000   1.455999e-06   1.377412e+01   3.763011e+01   1.495859e-01  -3.414908e+04   1.362148e+05  -4.489002e+04  -5.681062e+10  -4.792827e+10  -1.022170e+11   1.474305e+05   1.237060e-26   0.000000e+00   0.000000e+00
     1464000   1.463999e-06   1.377384e+01   3.763120e+01   1.492235e-01  -3.460738e+04   1.358279e+05  -4.570389e+04  -5.776202e+10  -4.878508e+10  -1.012474e+11   1.474305e+05   1.236640e-26   0.000000e+00   0.000000e+00
     1472000   1.471999e-06   1.377356e+01   3.763228e+01   1.488547e-01  -3.507325e+04   1.354342e+05  -4.650993e+04  -5.870368e+10  -4.963358e+10  -1.002619e+11   1.474305e+05   1.236221e-26   0.000000e+00   0.000000e+00
     1480000   1.479999e-06   1.377328e+01   3.763336e+01   1.484794e-01  -3.554661e+04   1.350338e+05  -4.730803e+04  -5.963545e+10  -5.047364e+10  -9.926061e+10   1.474305e+05   1.235802e-26   0.000000e+00   0.000000e+00
     1488000   1.487999e-06   1.377300e+01   3.763444e+01   1.480978e-01  -3.602739e+04   1.346267e+05  -4.809806e+04  -6.055719e+10  -5.130511e+10  -9.824378e+10   1.474305e+05   1.235382e-26   0.000000e+00   0.000000e+00
     1496000   1.495999e-06   1.377271e+01   3.763552e+01   1.477098e-01  -3.651550e+04   1.342129e+05  -4.887989e+04  -6.146877e+10  -5.212789e+10  -9.721155e+10   1.474305e+05   1.234963e-26   0.000000e+00   0.000000e+00
     1504000   1.503999e-06   1.377241e+01   3.763659e+01   1.473157e-01  -3.701086e+04   1.337927e+05  -4.965341e+04  -6.237002e+10  -5.294183e+10  -9.616411e+10   1.474305e+05   1.234543e-26   0.000000e+00   0.000000e+00
     1512000   1.511999e-06   1.377211e+01   3.763766e+01   1.469154e-01  -3.751339e+04   1.333659e+05  -5.041848e+04  -6.326083e+10  -5.374682e+10  -9.510164e+10   1.474305e+05   1.234124e-26   0.000000e+00   0.000000e+00
     1520000   1.519999e-06   1.377181e+01   3.763872e+01   1.465090e-01  -3.802301e+04   1.329327e+05  -5.117499e+04  -6.414105e+10  -5.454273e+10  -9.402432e+10   1.474305e+05   1.233704e-26   0.000000e+00   0.000000e+00
     1528000   1.527999e-06   1.377150e+01   3.763979e+01   1.460966e-01  -3.853962e+04   1.324932e+05  -5.192283e+04  -6.501055e+10  -5.532943e+10  -9.293233e+10   1.474305e+05   1.233284e-26   0.000000e+00   0.000000e+00
     1536000   1.535999e-06   1.377119e+01   3.764084e+01   1.456783e-01  -3.906315e+04   1.320475e+05  -5.266187e+04  -6.586920e+10  -5.610682e+10  -9.182586e+10   1.474305e+05   1.232864e-26   0.000000e+00   0.000000e+00
     1544000   1.543999e-06   1.377088e+01   3.764190e+01   1.452541e-01  -3.959350e+04   1.315955e+05  -5.339200e+04  -6.671686e+10  -5.687476e+10  -9.070510e+10   1.474305e+05   1.232444e-26   0.000000e+00   0.000000e+00
     1552000   1.551999e-06   1.377056e+01   3.764295e+01   1.448240e-01  -4.013059e+04   1.311375e+05  -5.411311e+04  -6.755341e+10  -5.763314e+10  -8.957024e+10   1.474305e+05   1.232024e-26   0.000000e+00   0.000000e+00
     1560000   1.559999e-06   1.377024e+01   3.764400e+01   1.443883e-01  -4.067433e+04   1.306734e+05  -5.482509e+04  -6.837871e+10  -5.838185e+10  -8.842147e+10   1.474305e+05   1.231604e-26   0.000000e+00   0.000000e+00
     1568000   1.567999e-06   1.376991e+01   3.764504e+01   1.439469e-01  -4.122462e+04   1.302034e+05  -5.552782e+04  -6.919265e+10  -5.912077e+10  -8.725900e+10   1.474305e+05   1.231184e-26   0.000000e+00   0.000000e+00
     1576000   1.575999e-06   1.376958e+01   3.764608e+01   1.434999e-01  -4.178138e+04   1.297275e+05  -5.622119e+04  -6.999510e+10  -5.984978e+10  -8.608300e+10   1.474305e+05   1.230764e-26   0.000000e+00   0.000000e+00
     1584000   1.583999e-06   1.376924e+01   3.764712e+01   1.430474e-01  -4.234451e+04   1.292459e+05  -5.690511e+04  -7.078594e+10  -6.056879e+10  -8.489370e+10   1.474305e+05   1.230344e-26   0.000000e+00   0.000000e+00
     1592000   1.591999e-06   1.376890e+01   3.764815e+01   1.425894e-01  -4.291392e+04   1.287585e+05  -5.757946e+04  -7.156505e+10  -6.127768e+10  -8.369128e+10   1.474305e+05   1.229923e-26   0.000000e+00   0.000000e+00
     1600000   1.599999e-06   1.376855e+01   3.764918e+01   1.421261e-01  -4.348952e+04   1.282654e+05  -5.824413e+04  -7.233231e+10  -6.197633e+10  -8.247595e+10   1.474305e+05   1.229503e-26   0.000000e+00   0.000000e+00
     1608000   1.607999e-06   1.376820e+01   3.765020e+01   1.416575e-01  -4.407121e+04   1.277669e+05  -5.889904e+04  -7.308761e+10  -6.266466e+10  -8.124791e+10   1.474305e+05   1.229082e-26   0.000000e+00   0.000000e+00
     1616000   1.615999e-06   1.376785e+01   3.765122e+01   1.411838e-01  -4.465889e+04   1.272628e+05  -5.954407e+04  -7.383083e+10  -6.334254e+10  -8.000737e+10   1.474305e+05   1.228662e-26   0.000000e+00   0.000000e+00
     1624000   1.623999e-06   1.376749e+01   3.765224e+01   1.407049e-01  -4.525247e+04   1.267534e+05  -6.017912e+04  -7.456187e+10  -6.400989e+10  -7.875454e+10   1.474305e+05   1.228241e-26   0.000000e+00   0.000000e+00
     1632000   1.631999e-06   1.376713e+01   3.765325e+01   1.402209e-01  -4.585185e+04   1.262387e+05  -6.080410e+04  -7.528061e+10  -6.466660e+10  -7.748964e+10   1.474305e+05   1.227820e-26   0.000000e+00   0.000000e+00
     1640000   1.639999e-06   1.376676e+01   3.765426e+01   1.397320e-01  -4.645693e+04   1.257188e+05  -6.141892e+04  -7.598695e+10  -6.531257e+10  -7.621286e+10   1.474305e+05   1.227399e-26   0.000000e+00   0.000000e+00
     1648000   1.647999e-06   1.376638e+01   3.765526e+01   1.392382e-01  -4.706761e+04   1.251937e+05  -6.202348e+04  -7.668078e+10  -6.594770e+10  -7.492443e+10   1.474305e+05   1.226978e-26   0.000000e+00   0.000000e+00
     1656000   1.655999e-06   1.376600e+01   3.765626e+01   1.387397e-01  -4.768379e+04   1.246636e+05  -6.261768e+04  -7.736200e+10  -6.657191e+10  -7.362457e+10   1.474305e+05   1.226557e-26   0.000000e+00   0.000000e+00
     1664000   1.663999e-06   1.376562e+01   3.765725e+01   1.382364e-01  -4.830537e+04   1.241286e+05  -6.320144e+04  -7.803051e+10  -6.718510e+10  -7.231348e+10   1.474305e+05   1.226136e-26   0.000000e+00   0.000000e+00
     1672000   1.671999e-06   1.376523e+01   3.765825e+01   1.377285e-01  -4.893224e+04   1.235887e+05  -6.377467e+04  -7.868622e+10  -6.778717e+10  -7.099139e+10   1.474305e+05   1.225715e-26   0.000000e+00   0.000000e+00
     1680000   1.679999e-06   1.376484e+01   3.765923e+01   1.372160e-01  -4.956431e+04   1.230440e+05  -6.433727e+04  -7.932902e+10  -6.837805e+10  -6.965852e+10   1.474305e+05   1.225293e-26   0.000000e+00   0.000000e+00
     1688000   1.687999e-06   1.376444e+01   3.766021e+01   1.366991e-01  -5.020147e+04   1.224947e+05  -6.488917e+04  -7.995882e+10  -6.895763e+10  -6.831508e+10   1.474305e+05   1.224872e-26   0.000000e+00   0.000000e+00
     1696000   1.695999e-06   1.376403e+01   3.766119e+01   1.361778e-01  -5.084362e+04   1.219407e+05  -6.543028e+04  -8.057552e+10  -6.952584e+10  -6.696132e+10   1.474305e+05   1.224451e-26   0.000000e+00   0.000000e+00
     1704000   1.703999e-06   1.376362e+01   3.766216e+01   1.356522e-01  -5.149065e+04   1.213823e+05  -6.596053e+04  -8.117905e+10  -7.008260e+10  -6.559744e+10   1.474305e+05   1.224029e-26   0.000000e+00   0.000000e+00
     1712000   1.711999e-06   1.376321e+01   3.766313e+01   1.351225e-01  -5.214245e+04   1.208195e+05  -6.647982e+04  -8.176931e+10  -7.062781e+10  -6.422367e+10   1.474305e+05   1.223607e-26   0.000000e+00   0.000000e+00
     1720000   1.719999e-06   1.376279e+01   3.766410e+01   1.345886e-01  -5.279892e+04   1.202523e+05  -6.698808e+04  -8.234622e+10  -7.116141e+10  -6.284025e+10   1.474305e+05   1.223186e-26   0.000000e+00   0.000000e+00
     1728000   1.727999e-06   1.376236e+01   3.766506e+01   1.340507e-01  -5.345995e+04   1.196809e+05  -6.748523e+04  -8.290969e+10  -7.168332e+10  -6.144740e+10   1.474305e+05   1.222764e-26   0.000000e+00   0.000000e+00
     1736000   1.735999e-06   1.376193e+01   3.766601e+01   1.335089e-01  -5.412544e+04   1.191054e+05  -6.797121e+04  -8.345964e+10  -7.219345e+10  -6.004535e+10   1.474305e+05   1.222342e-26   0.000000e+00   0.000000e+00
     1744000   1.743999e-06   1.376150e+01   3.766696e+01   1.329632e-01  -5.479527e+04   1.185258e+05  -6.844593e+04  -8.399600e+10  -7.269174e+10  -5.863433e+10   1.474305e+05   1.221920e-26   0.000000e+00   0.000000e+00
     1752000   1.751999e-06   1.376106e+01   3.766791e+01   1.324138e-01  -5.546934e+04   1.179424e+05  -6.890933e+04  -8.451868e+10  -7.317811e+10  -5.721458e+10   1.474305e+05   1.221498e-26   0.000000e+00   0.000000e+00
     1760000   1.759999e-06   1.376061e+01   3.766885e+01   1.318607e-01  -5.614754e+04   1.173550e+05  -6.936134e+04  -8.502762e+10  -7.365250e+10  -5.578633e+10   1.474305e+05   1.221076e-26   0.000000e+00   0.000000e+00
     1768000   1.767999e-06   1.376016e+01   3.766979e+01   1.313040e-01  -5.682975e+04   1.167639e+05  -6.980189e+04  -8.552275e+10  -7.411483e+10  -5.434981e+10   1.474305e+05   1.220654e-26   0.000000e+00   0.000000e+00
     1776000   1.775999e-06   1.375970e+01   3.767072e+01   1.307439e-01  -5.751586e+04   1.161692e+05  -7.023092e+04  -8.600398e+10  -7.456504e+10  -5.290527e+10   1.474305e+05   1.220231e-26   0.000000e+00   0.000000e+00
     1784000   1.783999e-06   1.375924e+01   3.767165e+01   1.301803e-01  -5.820577e+04   1.155709e+05  -7.064835e+04  -8.647126e+10  -7.500308e+10  -5.145293e+10   1.474305e+05   1.219809e-26   0.000000e+00   0.000000e+00
     1792000   1.791999e-06   1.375877e+01   3.767257e+01   1.296135e-01  -5.889937e+04   1.149692e+05  -7.105414e+04  -8.692452e+10  -7.542886e+10  -4.999304e+10   1.474305e+05   1.219387e-26   0.000000e+00   0.000000e+00
     1800000   1.799999e-06   1.375830e+01   3.767349e+01   1.290435e-01  -5.959653e+04   1.143641e+05  -7.144822e+04  -8.736370e+10  -7.584235e+10  -4.852584e+10   1.474305e+05   1.218964e-26   0.000000e+00   0.000000e+00
     1808000   1.807999e-06   1.375782e+01   3.767440e+01   1.284704e-01  -6.029715e+04   1.137558e+05  -7.183053e+04  -8.778874e+10  -7.624347e+10  -4.705156e+10   1.474305e+05   1.218542e-26   0.000000e+00   0.000000e+00
     1816000   1.815999e-06   1.375733e+01   3.767531e+01   1.278943e-01  -6.100111e+04   1.131442e+05  -7.220103e+04  -8.819958e+10  -7.663218e+10  -4.557045e+10   1.474305e+05   1.218119e-26   0.000000e+00   0.000000e+00
     1824000   1.823999e-06   1.375684e+01   3.767621e+01   1.273152e-01  -6.170830e+04   1.125297e+05  -7.255964e+04  -8.859617e+10  -7.700842e+10  -4.408275e+10   1.474305e+05   1.217696e-26   0.000000e+00   0.000000e+00
     1832000   1.831999e-06   1.375634e+01   3.767711e+01   1.267333e-01  -6.241861e+04   1.119121e+05  -7.290633e+04  -8.897844e+10  -7.737213e+10  -4.258870e+10   1.474305e+05   1.217274e-26   0.000000e+00   0.000000e+00
     1840000   1.839999e-06   1.375584e+01   3.767800e+01   1.261487e-01  -6.313192e+04   1.112918e+05  -7.324104e+04  -8.934636e+10  -7.772328e+10  -4.108855e+10   1.474305e+05   1.216851e-26   0.000000e+00   0.000000e+00
     1848000   1.847999e-06   1.375533e+01   3.767889e+01   1.255615e-01  -6.384812e+04   1.106686e+05  -7.356373e+04  -8.969987e+10  -7.806180e+10  -3.958254e+10   1.474305e+05   1.216428e-26   0.000000e+00   0.000000e+00
     1856000   1.855999e-06   1.375482e+01   3.767977e+01   1.249717e-01  -6.456708e+04   1.100428e+05  -7.387435e+04  -9.003892e+10  -7.838767e+10  -3.807091e+10   1.474305e+05   1.216005e-26   0.000000e+00   0.000000e+00
     1864000   1.863999e-06   1.375430e+01   3.768065e+01   1.243795e-01  -6.528870e+04   1.094144e+05  -7.417285e+04  -9.036348e+10  -7.870083e+10  -3.655391e+10   1.474305e+05   1.215582e-26   0.000000e+00   0.000000e+00
     1872000   1.871999e-06   1.375378e+01   3.768152e+01   1.237850e-01  -6.601286e+04   1.087836e+05  -7.445920e+04  -9.067350e+10  -7.900124e+10  -3.503179e+10   1.474305e+05   1.215159e-26   0.000000e+00   0.000000e+00
     1880000   1.879999e-06   1.375324e+01   3.768239e+01   1.231882e-01  -6.673944e+04   1.081504e+05  -7.473334e+04  -9.096894e+10  -7.928886e+10  -3.350480e+10   1.474305e+05   1.214736e-26   0.000000e+00   0.000000e+00
     1888000   1.887999e-06   1.375271e+01   3.768325e+01   1.225893e-01  -6.746832e+04   1.075150e+05  -7.499526e+04  -9.124977e+10  -7.956366e+10  -3.197317e+10   1.474305e+05   1.214313e-26   0.000000e+00   0.000000e+00
     1896000   1.895999e-06   1.375217e+01   3.768411e+01   1.219883e-01  -6.819939e+04   1.068775e+05  -7.524490e+04  -9.151595e+10  -7.982561e+10  -3.043717e+10   1.474305e+05   1.213890e-26   0.000000e+00   0.000000e+00
     1904000   1.903999e-06   1.375162e+01   3.768496e+01   1.213854e-01  -6.893254e+04   1.062379e+05  -7.548224e+04  -9.176744e+10  -8.007466e+10  -2.889703e+10   1.474305e+05   1.213467e-26   0.000000e+00   0.000000e+00
     1912000   1.911999e-06   1.375106e+01   3.768581e+01   1.207807e-01  -6.966763e+04   1.055963e+05  -7.570724e+04  -9.200423e+10  -8.031079e+10  -2.735301e+10   1.474305e+05   1.213044e-26   0.000000e+00   0.000000e+00
     1920000   1.919999e-06   1.375050e+01   3.768665e+01   1.201741e-01  -7.040457e+04   1.049529e+05  -7.591988e+04  -9.222628e+10  -8.053397e+10  -2.580536e+10   1.474305e+05   1.212620e-26   0.000000e+00   0.000000e+00
     1928000   1.927999e-06   1.374994e+01   3.768749e+01   1.195660e-01  -7.114322e+04   1.043078e+05  -7.612012e+04  -9.243356e+10  -8.074418e+10  -2.425432e+10   1.474305e+05   1.212197e-26   0.000000e+00   0.000000e+00
     1936000   1.935999e-06   1.374936e+01   3.768832e+01   1.189563e-01  -7.188346e+04   1.036610e+05  -7.630794e+04  -9.262607e+10  -8.094138e+10  -2.270015e+10   1.474305e+05   1.211774e-26   0.000000e+00   0.000000e+00
     1944000   1.943999e-06   1.374879e+01   3.768915e+01   1.183451e-01  -7.262519e+04   1.030128e+05  -7.648331e+04  -9.280376e+10  -8.112557e+10  -2.114309e+10   1.474305e+05   1.211351e-26   0.000000e+00   0.000000e+00
     1952000   1.951999e-06   1.374820e+01   3.768997e+01   1.177326e-01  -7.336829e+04   1.023631e+05  -7.664622e+04  -9.296664e+10  -8.129671e+10  -1.958340e+10   1.474305e+05   1.210927e-26   0.000000e+00   0.000000e+00
     1960000   1.959999e-06   1.374761e+01   3.769078e+01   1.171188e-01  -7.411262e+04   1.017121e+05  -7.679664e+04  -9.311467e+10  -8.145479e+10  -1.802132e+10   1.474305e+05   1.210504e-26   0.000000e+00   0.000000e+00
     1968000   1.967999e-06   1.374702e+01   3.769159e+01   1.165038e-01  -7.485808e+04   1.010598e+05  -7.693455e+04  -9.324786e+10  -8.159979e+10  -1.645711e+10   1.474305e+05   1.210080e-26   0.000000e+00   0.000000e+00
     1976000   1.975999e-06   1.374641e+01   3.769240e+01   1.158879e-01  -7.560455e+04   1.004065e+05  -7.705994e+04  -9.336619e+10  -8.173171e+10  -1.489102e+10   1.474305e+05   1.209657e-26   0.000000e+00   0.000000e+00
     1984000   1.983999e-06   1.374581e+01   3.769320e+01   1.152709e-01  -7.635190e+04   9.975215e+04  -7.717280e+04  -9.346964e+10  -8.185052e+10  -1.332330e+10   1.474305e+05   1.209234e-26   0.000000e+00   0.000000e+00
     1992000   1.991999e-06   1.374519e+01   3.769400e+01   1.146531e-01  -7.710002e+04   9.909692e+04  -7.727311e+04  -9.355822e+10  -8.195622e+10  -1.175420e+10   1.474305e+05   1.208810e-26   0.000000e+00   0.000000e+00
     2000000   1.999999e-06   1.374457e+01   3.769479e+01   1.140346e-01  -7.784879e+04   9.844089e+04  -7.736086e+04  -9.363193e+10  -8.204880e+10  -1.018396e+10   1.474305e+05   1.208387e-26   0.000000e+00   0.000000e+00
     2008000   2.007999e-06   1.374395e+01   3.769557e+01   1.134154e-01  -7.859809e+04   9.778417e+04  -7.743605e+04  -9.369075e+10  -8.212826e+10  -8.612853e+09   1.474305e+05   1.207963e-26   0.000000e+00   0.000000e+00
     2016000   2.015999e-06   1.374332e+01   3.769635e+01   1.127956e-01  -7.934780e+04   9.712687e+04  -7.749867e+04  -9.373470e+10  -8.219459e+10  -7.041112e+09   1.474305e+05   1.207540e-26   0.000000e+00   0.000000e+00
     2024000   2.023999e-06   1.374268e+01   3.769713e+01   1.121754e-01  -8.009781e+04   9.646909e+04  -7.754871e+04  -9.376377e+10  -8.224779e+10  -5.468994e+09   1.474305e+05   1.207116e-26   0.000000e+00   0.000000e+00
     2032000   2.031999e-06   1.374203e+01   3.769789e+01   1.115549e-01  -8.084799e+04   9.581094e+04  -7.758617e+04  -9.377797e+10  -8.228787e+10  -3.896748e+09   1.474305e+05   1.206693e-26   0.000000e+00   0.000000e+00
     2040000   2.039999e-06   1.374138e+01   3.769866e+01   1.109341e-01  -8.159822e+04   9.515252e+04  -7.761105e+04  -9.377732e+10  -8.231482e+10  -2.324625e+09   1.474305e+05   1.206270e-26   0.000000e+00   0.000000e+00
     2048000   2.047999e-06   1.374073e+01   3.769942e+01   1.103131e-01  -8.234838e+04   9.449394e+04  -7.762336e+04  -9.376182e+10  -8.232865e+10  -7.528737e+08   1.474305e+05   1.205846e-26   0.000000e+00   0.000000e+00
     2056000   2.055999e-06   1.374007e+01   3.770017e+01   1.096922e-01  -8.309834e+04   9.383533e+04  -7.762309e+04  -9.371466e+10  -8.231091e+10   8.225083e+08   1.474305e+05   1.204944e-26   0.000000e+00   0.000000e+00
     2064000   2.063999e-06   1.373940e+01   3.770092e+01   1.090712e-01  -8.384788e+04   9.317689e+04  -7.761023e+04  -9.366955e+10  -8.229880e+10   2.391849e+09   1.474305e+05   1.204525e-26   0.000000e+00   0.000000e+00
     2072000   2.071999e-06   1.373872e+01   3.770166e+01   1.084504e-01  -8.459701e+04   9.251859e+04  -7.758482e+04  -9.360965e+10  -8.227361e+10   3.960082e+09   1.474305e+05   1.204107e-26   0.000000e+00   0.000000e+00
     2080000   2.079999e-06   1.373804e+01   3.770240e+01   1.078299e-01  -8.534560e+04   9.186054e+04  -7.754687e+04  -9.353498e+10  -8.223536e+10   5.526961e+09   1.474305e+05   1.203689e-26   0.000000e+00   0.000000e+00
     2088000   2.087999e-06   1.373736e+01   3.770313e+01   1.072097e-01  -8.609353e+04   9.120286e+04  -7.749639e+04  -9.344557e+10  -8.218406e+10   7.092237e+09   1.474305e+05   1.203270e-26   0.000000e+00   0.000000e+00
     2096000   2.095999e-06   1.373667e+01   3.770386e+01   1.065900e-01  -8.684069e+04   9.054563e+04  -7.743340e+04  -9.334145e+10  -8.211972e+10   8.655664e+09   1.474305e+05   1.202852e-26   0.000000e+00   0.000000e+00
     2104000   2.103999e-06   1.373597e+01   3.770458e+01   1.059708e-01  -8.758695e+04   8.988898e+04  -7.735791e+04  -9.322263e+10  -8.204238e+10   1.021700e+10   1.474305e+05   1.202434e-26   0.000000e+00   0.000000e+00
     2112000   2.111999e-06   1.373527e+01   3.770530e+01   1.053523e-01  -8.833221e+04   8.923299e+04  -7.726993e+04  -9.308915e+10  -8.195204e+10   1.177599e+10   1.474305e+05   1.202016e-26   0.000000e+00   0.000000e+00
     2120000   2.119999e-06   1.373456e+01   3.770601e+01   1.047345e-01  -8.907634e+04   8.857778e+04  -7.716950e+04  -9.294104e+10  -8.184873e+10   1.333239e+10   1.474305e+05   1.201598e-26   0.000000e+00   0.000000e+00
     2128000   2.127999e-06   1.373384e+01   3.770671e+01   1.041176e-01  -8.981923e+04   8.792344e+04  -7.705662e+04  -9.277834e+10  -8.173248e+10   1.488596e+10   1.474305e+05   1.201181e-26   0.000000e+00   0.000000e+00
     2136000   2.135999e-06   1.373312e+01   3.770741e+01   1.035016e-01  -9.056075e+04   8.727009e+04  -7.693133e+04  -9.260108e+10  -8.160332e+10   1.643646e+10   1.474305e+05   1.200763e-26   0.000000e+00   0.000000e+00
     2144000   2.143999e-06   1.373239e+01   3.770811e+01   1.028867e-01  -9.130081e+04   8.661783e+04  -7.679365e+04  -9.240929e+10  -8.146127e+10   1.798364e+10   1.474305e+05   1.200346e-26   0.000000e+00   0.000000e+00
     2152000   2.151999e-06   1.373166e+01   3.770880e+01   1.022730e-01  -9.203926e+04   8.596675e+04  -7.664360e+04  -9.220303e+10  -8.130636e+10   1.952726e+10   1.474305e+05   1.199928e-26   0.000000e+00   0.000000e+00
     2160000   2.159999e-06   1.373092e+01   3.770948e+01   1.016605e-01  -9.277602e+04   8.531696e+04  -7.648122e+04  -9.198232e+10  -8.113864e+10   2.106708e+10   1.474305e+05   1.199511e-26   0.000000e+00   0.000000e+00
     2168000   2.167999e-06   1.373017e+01   3.771016e+01   1.010493e-01  -9.351094e+04   8.466856e+04  -7.630653e+04  -9.174722e+10  -8.095813e+10   2.260286e+10   1.474305e+05   1.199093e-26   0.000000e+00   0.000000e+00
     2176000   2.175999e-06   1.372942e+01   3.771084e+01   1.004396e-01  -9.424393e+04   8.402166e+04  -7.611958e+04  -9.149778e+10  -8.076487e+10   2.413435e+10   1.474305e+05   1.198676e-26   0.000000e+00   0.000000e+00
     2184000   2.183999e-06   1.372867e+01   3.771151e+01   9.983143e-02  -9.497488e+04   8.337634e+04  -7.592041e+04  -9.123950e+10  -8.056962e+10   2.565642e+10   1.474305e+05   1.198451e-26   0.000000e+00   0.000000e+00
     2192000   2.191999e-06   1.372790e+01   3.771217e+01   9.922491e-02  -9.570369e+04   8.273265e+04  -7.570906e+04  -9.096137e+10  -8.035080e+10   2.717891e+10   1.474305e+05   1.198029e-26   0.000000e+00   0.000000e+00
     2200000   2.199999e-06   1.372713e+01   3.771283e+01   9.862012e-02  -9.643023e+04   8.209076e+04  -7.548556e+04  -9.066905e+10  -8.011934e+10   2.869640e+10   1.474305e+05   1.197607e-26   0.000000e+00   0.000000e+00
     2208000   2.207999e-06   1.372636e+01   3.771349e+01   9.801717e-02  -9.715436e+04   8.145077e+04  -7.524993e+04  -9.036260e+10  -7.987531e+10   3.020866e+10   1.474305e+05   1.197186e-26   0.000000e+00   0.000000e+00
     2216000   2.215999e-06   1.372558e+01   3.771414e+01   9.741615e-02  -9.787599e+04   8.081279e+04  -7.500223e+04  -9.004206e+10  -7.961873e+10   3.171544e+10   1.474305e+05   1.196764e-26   0.000000e+00   0.000000e+00
     2224000   2.223999e-06   1.372479e+01   3.771478e+01   9.681717e-02  -9.859500e+04   8.017690e+04  -7.474250e+04  -8.970751e+10  -7.934967e+10   3.321651e+10   1.474305e+05   1.196343e-26   0.000000e+00   0.000000e+00
     2232000   2.231999e-06   1.372400e+01   3.771542e+01   9.622031e-02  -9.931127e+04   7.954322e+04  -7.447078e+04  -8.935900e+10  -7.906817e+10   3.471165e+10   1.474305e+05   1.195922e-26   0.000000e+00   0.000000e+00
     2240000   2.239999e-06   1.372321e+01   3.771605e+01   9.562567e-02  -1.000247e+05   7.891185e+04  -7.418713e+04  -8.899660e+10  -7.877428e+10   3.620061e+10   1.474305e+05   1.195500e-26   0.000000e+00   0.000000e+00
     2248000   2.247999e-06   1.372240e+01   3.771668e+01   9.503334e-02  -1.007352e+05   7.828287e+04  -7.389159e+04  -8.862038e+10  -7.846807e+10   3.768317e+10   1.474305e+05   1.195079e-26   0.000000e+00   0.000000e+00
     2256000   2.255999e-06   1.372159e+01   3.771731e+01   9.444343e-02  -1.014426e+05   7.765639e+04  -7.358421e+04  -8.823040e+10  -7.814958e+10   3.915909e+10   1.474305e+05   1.194659e-26   0.000000e+00   0.000000e+00
     2264000   2.263999e-06   1.372078e+01   3.771792e+01   9.385603e-02  -1.021468e+05   7.703251e+04  -7.326506e+04  -8.782674e+10  -7.781888e+10   4.062816e+10   1.474305e+05   1.194238e-26   0.000000e+00   0.000000e+00
     2272000   2.271999e-06   1.371996e+01   3.771854e+01   9.327122e-02  -1.028478e+05   7.641132e+04  -7.293418e+04  -8.740948e+10  -7.747603e+10   4.209013e+10   1.474305e+05   1.193817e-26   0.000000e+00   0.000000e+00
     2280000   2.279999e-06   1.371913e+01   3.771915e+01   9.268911e-02  -1.035453e+05   7.579292e+04  -7.259163e+04  -8.697867e+10  -7.712109e+10   4.354480e+10   1.474305e+05   1.193397e-26   0.000000e+00   0.000000e+00
     2288000   2.287999e-06   1.371830e+01   3.771975e+01   9.210979e-02  -1.042394e+05   7.517742e+04  -7.223748e+04  -8.653441e+10  -7.675413e+10   4.499192e+10   1.474305e+05   1.192976e-26   0.000000e+00   0.000000e+00
     2296000   2.295999e-06   1.371747e+01   3.772035e+01   9.153334e-02  -1.049299e+05   7.456489e+04  -7.187178e+04  -8.607678e+10  -7.637521e+10   4.643129e+10   1.474305e+05   1.192556e-26   0.000000e+00   0.000000e+00
     2304000   2.303999e-06   1.371662e+01   3.772094e+01   9.095987e-02  -1.056166e+05   7.395544e+04  -7.149460e+04  -8.560585e+10  -7.598440e+10   4.786268e+10   1.474305e+05   1.192136e-26   0.000000e+00   0.000000e+00
     2312000   2.311999e-06   1.371578e+01   3.772153e+01   9.038946e-02  -1.062995e+05   7.334917e+04  -7.110600e+04  -8.512170e+10  -7.558176e+10   4.928586e+10   1.474305e+05   1.191716e-26   0.000000e+00   0.000000e+00
     2320000   2.319999e-06   1.371492e+01   3.772212e+01   8.982220e-02  -1.069785e+05   7.274617e+04  -7.070605e+04  -8.462443e+10  -7.516738e+10   5.070063e+10   1.474305e+05   1.191296e-26   0.000000e+00   0.000000e+00
     2328000   2.327999e-06   1.371406e+01   3.772270e+01   8.925819e-02  -1.076535e+05   7.214653e+04  -7.029481e+04  -8.411412e+10  -7.474132e+10   5.210676e+10   1.474305e+05   1.190877e-26   0.000000e+00   0.000000e+00
     2336000   2.335999e-06   1.371320e+01   3.772327e+01   8.869752e-02  -1.083243e+05   7.155034e+04  -6.987236e+04  -8.359086e+10  -7.430367e+10   5.350404e+10   1.474305e+05   1.190457e-26   0.000000e+00   0.000000e+00
     2344000   2.343999e-06   1.371233e+01   3.772384e+01   8.814027e-02  -1.089909e+05   7.095770e+04  -6.943877e+04  -8.305474e+10  -7.385449e+10   5.489225e+10   1.474305e+05   1.190038e-26   0.000000e+00   0.000000e+00
     2352000   2.351999e-06   1.371146e+01   3.772441e+01   8.758653e-02  -1.096531e+05   7.036870e+04  -6.899411e+04  -8.250586e+10  -7.339387e+10   5.627118e+10   1.474305e+05   1.189619e-26   0.000000e+00   0.000000e+00
     2360000   2.359999e-06   1.371058e+01   3.772497e+01   8.703639e-02  -1.103110e+05   6.978343e+04  -6.853845e+04  -8.194431e+10  -7.292188e+10   5.764063e+10   1.474305e+05   1.189200e-26   0.000000e+00   0.000000e+00
     2368000   2.367999e-06   1.370969e+01   3.772552e+01   8.648994e-02  -1.109642e+05   6.920198e+04  -6.807188e+04  -8.137018e+10  -7.243862e+10   5.900038e+10   1.474305e+05   1.188781e-26   0.000000e+00   0.000000e+00
     2376000   2.375999e-06   1.370880e+01   3.772607e+01   8.594727e-02  -1.116128e+05   6.862444e+04  -6.759447e+04  -8.078358e+10  -7.194416e+10   6.035023e+10   1.474305e+05   1.188362e-26   0.000000e+00   0.000000e+00
     2384000   2.383999e-06   1.370791e+01   3.772662e+01   8.540846e-02  -1.122567e+05   6.805090e+04  -6.710631e+04  -8.018461e+10  -7.143859e+10   6.168997e+10   1.474305e+05   1.187944e-26   0.000000e+00   0.000000e+00
     2392000   2.391999e-06   1.370701e+01   3.772716e+01   8.487360e-02  -1.128958e+05   6.748145e+04  -6.660746e+04  -7.957337e+10  -7.092199e+10   6.301940e+10   1.474305e+05   1.187526e-26   0.000000e+00   0.000000e+00
     2400000   2.399999e-06   1.370610e+01   3.772770e+01   8.434277e-02  -1.135299e+05   6.691618e+04  -6.609802e+04  -7.894997e+10  -7.039446e+10   6.433832e+10   1.474305e+05   1.187108e-26   0.000000e+00   0.000000e+00
     2408000   2.407999e-06   1.370519e+01   3.772823e+01   8.381605e-02  -1.141589e+05   6.635517e+04  -6.557807e+04  -7.831451e+10  -6.985609e+10   6.564652e+10   1.474305e+05   1.186690e-26   0.000000e+00   0.000000e+00
     2416000   2.415999e-06   1.370427e+01   3.772876e+01   8.329354e-02  -1.147829e+05   6.579851e+04  -6.504770e+04  -7.766710e+10  -6.930696e+10   6.694381e+10   1.474305e+05   1.186272e-26   0.000000e+00   0.000000e+00
     2424000   2.423999e-06   1.370335e+01   3.772929e+01   8.277532e-02  -1.154016e+05   6.524629e+04  -6.450700e+04  -7.700784e+10  -6.874718e+10   6.823000e+10   1.474305e+05   1.185854e-26   0.000000e+00   0.000000e+00
     2432000   2.431999e-06   1.370243e+01   3.772981e+01   8.226146e-02  -1.160150e+05   6.469859e+04  -6.395605e+04  -7.633686e+10  -6.817683e+10   6.950488e+10   1.474305e+05   1.185437e-26   0.000000e+00   0.000000e+00
     2440000   2.439999e-06   1.370150e+01   3.773032e+01   8.175205e-02  -1.166229e+05   6.415549e+04  -6.339495e+04  -7.565427e+10  -6.759602e+10   7.076827e+10   1.474305e+05   1.185020e-26   0.000000e+00   0.000000e+00
     2448000   2.447999e-06   1.370056e+01   3.773083e+01   8.124717e-02  -1.172254e+05   6.361708e+04  -6.282379e+04  -7.496017e+10  -6.700484e+10   7.201998e+10   1.474305e+05   1.184603e-26   0.000000e+00   0.000000e+00
     2456000   2.455999e-06   1.369962e+01   3.773134e+01   8.074690e-02  -1.178222e+05   6.308348e+04  -6.224265e+04  -7.424988e+10  -6.638928e+10   7.326495e+10   1.474305e+05   1.184044e-26   0.000000e+00   0.000000e+00
     2464000   2.463999e-06   1.369868e+01   3.773184e+01   8.025131e-02  -1.184134e+05   6.255481e+04  -6.165161e+04  -7.353328e+10  -6.577788e+10   7.449257e+10   1.474305e+05   1.183632e-26   0.000000e+00   0.000000e+00
     2472000   2.471999e-06   1.369773e+01   3.773234e+01   7.976050e-02  -1.189987e+05   6.203106e+04  -6.105080e+04  -7.280554e+10  -6.515643e+10   7.570795e+10   1.474305e+05   1.183220e-26   0.000000e+00   0.000000e+00
     2480000   2.479999e-06   1.369677e+01   3.773284e+01   7.927452e-02  -1.195782e+05   6.151233e+04  -6.044031e+04  -7.206678e+10  -6.452502e+10   7.691091e+10   1.474305e+05   1.182809e-26   0.000000e+00   0.000000e+00
     2488000   2.487999e-06   1.369581e+01   3.773333e+01   7.879348e-02  -1.201518e+05   6.099869e+04  -5.982025e+04  -7.131712e+10  -6.388376e+10   7.810128e+10   1.474305e+05   1.182397e-26   0.000000e+00   0.000000e+00
     2496000   2.495999e-06   1.369485e+01   3.773381e+01   7.831743e-02  -1.207193e+05   6.049022e+04  -5.919073e+04  -7.055669e+10  -6.323276e+10   7.927887e+10   1.474305e+05   1.181986e-26   0.000000e+00   0.000000e+00
     2504000   2.503999e-06   1.369388e+01   3.773429e+01   7.784645e-02  -1.212807e+05   5.998699e+04  -5.855183e+04  -6.978560e+10  -6.257214e+10   8.044351e+10   1.474305e+05   1.181575e-26   0.000000e+00   0.000000e+00
     2512000   2.511999e-06   1.369291e+01   3.773477e+01   7.738062e-02  -1.218358e+05   5.948909e+04  -5.790366e+04  -6.900400e+10  -6.190199e+10   8.159503e+10   1.474305e+05   1.181164e-26   0.000000e+00   0.000000e+00
     2520000   2.519999e-06   1.369193e+01   3.773524e+01   7.692002e-02  -1.223847e+05   5.899659e+04  -5.724634e+04  -6.821201e+10  -6.122243e+10   8.273326e+10   1.474305e+05   1.180754e-26   0.000000e+00   0.000000e+00
     2528000   2.527999e-06   1.369095e+01   3.773571e+01   7.646470e-02  -1.229272e+05   5.850956e+04  -5.657997e+04  -6.740975e+10  -6.053357e+10   8.385802e+10   1.474305e+05   1.180343e-26   0.000000e+00   0.000000e+00
     2536000   2.535999e-06   1.368997e+01   3.773618e+01   7.601476e-02  -1.234632e+05   5.802808e+04  -5.590465e+04  -6.659738e+10  -5.983554e+10   8.496915e+10   1.474305e+05   1.179933e-26   0.000000e+00   0.000000e+00
     2544000   2.543999e-06   1.368898e+01   3.773664e+01   7.557025e-02  -1.239927e+05   5.755221e+04  -5.522049e+04  -6.577500e+10  -5.912844e+10   8.606649e+10   1.474305e+05   1.179523e-26   0.000000e+00   0.000000e+00
     2552000   2.551999e-06   1.368798e+01   3.773710e+01   7.513126e-02  -1.245156e+05   5.708204e+04  -5.452762e+04  -6.494278e+10  -5.841239e+10   8.714987e+10   1.474305e+05   1.179113e-26   0.000000e+00   0.000000e+00
     2560000   2.559999e-06   1.368698e+01   3.773756e+01   7.469783e-02  -1.250318e+05   5.661764e+04  -5.382613e+04  -6.410083e+10  -5.768751e+10   8.821914e+10   1.474305e+05   1.178703e-26   0.000000e+00   0.000000e+00
     2568000   2.567999e-06   1.368598e+01   3.773801e+01   7.427006e-02  -1.255412e+05   5.615907e+04  -5.311615e+04  -6.324930e+10  -5.695391e+10   8.927413e+10   1.474305e+05   1.178294e-26   0.000000e+00   0.000000e+00
     2576000   2.575999e-06   1.368497e+01   3.773846e+01   7.384800e-02  -1.260437e+05   5.570640e+04  -5.239778e+04  -6.238833e+10  -5.621173e+10   9.031469e+10   1.474305e+05   1.177885e-26   0.000000e+00   0.000000e+00
     2584000   2.583999e-06   1.368396e+01   3.773890e+01   7.343172e-02  -1.265394e+05   5.525970e+04  -5.167115e+04  -6.151806e+10  -5.546108e+10   9.134068e+10   1.474305e+05   1.177475e-26   0.000000e+00   0.000000e+00
     2592000   2.591999e-06   1.368295e+01   3.773934e+01   7.302128e-02  -1.270280e+05   5.481905e+04  -5.093637e+04  -6.063863e+10  -5.470209e+10   9.235193e+10   1.474305e+05   1.177066e-26   0.000000e+00   0.000000e+00
     2600000   2.599999e-06   1.368193e+01   3.773978e+01   7.261676e-02  -1.275096e+05   5.438449e+04  -5.019356e+04  -5.975019e+10  -5.393488e+10   9.334831e+10   1.474305e+05   1.176657e-26   0.000000e+00   0.000000e+00
     2608000   2.607999e-06   1.368091e+01   3.774021e+01   7.221821e-02  -1.279840e+05   5.395611e+04  -4.944284e+04  -5.885287e+10  -5.315957e+10   9.432966e+10   1.474305e+05   1.176249e-26   0.000000e+00   0.000000e+00
     2616000   2.615999e-06   1.367988e+01   3.774064e+01   7.182569e-02  -1.284512e+05   5.353396e+04  -4.868433e+04  -5.794683e+10  -5.237629e+10   9.529585e+10   1.474305e+05   1.175840e-26   0.000000e+00   0.000000e+00
     2624000   2.623999e-06   1.367885e+01   3.774107e+01   7.143928e-02  -1.289111e+05   5.311811e+04  -4.791814e+04  -5.703222e+10  -5.158518e+10   9.624672e+10   1.474305e+05   1.175432e-26   0.000000e+00   0.000000e+00
     2632000   2.631999e-06   1.367782e+01   3.774149e+01   7.105902e-02  -1.293637e+05   5.270862e+04  -4.714442e+04  -5.610918e+10  -5.078635e+10   9.718216e+10   1.474305e+05   1.175024e-26   0.000000e+00   0.000000e+00
     2640000   2.639999e-06   1.367678e+01   3.774191e+01   7.068499e-02  -1.298088e+05   5.230555e+04  -4.636327e+04  -5.517786e+10  -4.997995e+10   9.810201e+10   1.474305e+05   1.174616e-26   0.000000e+00   0.000000e+00
     2648000   2.647999e-06   1.367574e+01   3.774233e+01   7.031723e-02  -1.302465e+05   5.190896e+04  -4.557483e+04  -5.423842e+10  -4.916609e+10   9.900616e+10   1.474305e+05   1.174208e-26   0.000000e+00   0.000000e+00
     2656000   2.655999e-06   1.367470e+01   3.774274e+01   6.995581e-02  -1.306766e+05   5.151891e+04  -4.477921e+04  -5.329100e+10  -4.834492e+10   9.989446e+10   1.474305e+05   1.173800e-26   0.000000e+00   0.000000e+00
     2664000   2.663999e-06   1.367365e+01   3.774315e+01   6.960078e-02  -1.310991e+05   5.113546e+04  -4.397656e+04  -5.233576e+10  -4.751657e+10   1.007668e+11   1.474305e+05   1.173392e-26   0.000000e+00   0.000000e+00
     2672000   2.671999e-06   1.367260e+01   3.774356e+01   6.925220e-02  -1.315140e+05   5.075867e+04  -4.316699e+04  -5.137286e+10  -4.668116e+10   1.016230e+11   1.474305e+05   1.172985e-26   0.000000e+00   0.000000e+00
     2680000   2.679999e-06   1.367155e+01   3.774396e+01   6.891013e-02  -1.319211e+05   5.038858e+04  -4.235063e+04  -5.040244e+10  -4.583885e+10   1.024630e+11   1.474305e+05   1.172578e-26   0.000000e+00   0.000000e+00
     2688000   2.687999e-06   1.367049e+01   3.774436e+01   6.857461e-02  -1.323204e+05   5.002527e+04  -4.152762e+04  -4.942467e+10  -4.498975e+10   1.032867e+11   1.474305e+05   1.172170e-26   0.000000e+00   0.000000e+00
     2696000   2.695999e-06   1.366943e+01   3.774476e+01   6.824570e-02  -1.327119e+05   4.966877e+04  -4.069809e+04  -4.843970e+10  -4.413401e+10   1.040940e+11   1.474305e+05   1.171763e-26   0.000000e+00   0.000000e+00
     2704000   2.703999e-06   1.366837e+01   3.774516e+01   6.792346e-02  -1.330954e+05   4.931914e+04  -3.986216e+04  -4.744769e+10  -4.327177e+10   1.048846e+11   1.474305e+05   1.171356e-26   0.000000e+00   0.000000e+00
     2712000   2.711999e-06   1.366730e+01   3.774555e+01   6.760792e-02  -1.334710e+05   4.897644e+04  -3.901998e+04  -4.644880e+10  -4.240317e+10   1.056586e+11   1.474305e+05   1.170950e-26   0.000000e+00   0.000000e+00
     2720000   2.719999e-06   1.366623e+01   3.774594e+01   6.729915e-02  -1.338386e+05   4.864071e+04  -3.817167e+04  -4.544319e+10  -4.152834e+10   1.064158e+11   1.474305e+05   1.170543e-26   0.000000e+00   0.000000e+00
     2728000   2.727999e-06   1.366516e+01   3.774633e+01   6.699719e-02  -1.341981e+05   4.831200e+04  -3.731737e+04  -4.443103e+10  -4.064743e+10   1.071561e+11   1.474305e+05   1.170137e-26   0.000000e+00   0.000000e+00
     2736000   2.735999e-06   1.366409e+01   3.774672e+01   6.670209e-02  -1.345495e+05   4.799036e+04  -3.645721e+04  -4.341246e+10  -3.976058e+10   1.078794e+11   1.474305e+05   1.169730e-26   0.000000e+00   0.000000e+00
     2744000   2.743999e-06   1.366301e+01   3.774710e+01   6.641389e-02  -1.348927e+05   4.767585e+04  -3.559134e+04  -4.238767e+10  -3.886793e+10   1.085856e+11   1.474305e+05   1.169324e-26   0.000000e+00   0.000000e+00
     2752000   2.751999e-06   1.366193e+01   3.774748e+01   6.613264e-02  -1.352276e+05   4.736849e+04  -3.471989e+04  -4.135680e+10  -3.796962e+10   1.092747e+11   1.474305e+05   1.168918e-26   0.000000e+00   0.000000e+00
     2760000   2.759999e-06   1.366084e+01   3.774786e+01   6.585839e-02  -1.355543e+05   4.706835e+04  -3.384299e+04  -4.032003e+10  -3.706580e+10   1.099464e+11   1.474305e+05   1.168512e-26   0.000000e+00   0.000000e+00
     2768000   2.767999e-06   1.365976e+01   3.774823e+01   6.559117e-02  -1.358727e+05   4.677546e+04  -3.296079e+04  -3.927752e+10  -3.615661e+10   1.106007e+11   1.474305e+05   1.168106e-26   0.000000e+00   0.000000e+00
     2776000   2.775999e-06   1.365867e+01   3.774860e+01   6.533103e-02  -1.361828e+05   4.648986e+04  -3.207343e+04  -3.822943e+10  -3.524219e+10   1.112376e+11   1.474305e+05   1.167700e-26   0.000000e+00   0.000000e+00
     2784000   2.783999e-06   1.365758e+01   3.774898e+01   6.507801e-02  -1.364844e+05   4.621160e+04  -3.118104e+04  -3.717594e+10  -3.432270e+10   1.118569e+11   1.474305e+05   1.167294e-26   0.000000e+00   0.000000e+00
     2792000   2.791999e-06   1.365649e+01   3.774934e+01   6.483215e-02  -1.367776e+05   4.594071e+04  -3.028376e+04  -3.611721e+10  -3.339828e+10   1.124586e+11   1.474305e+05   1.166889e-26   0.000000e+00   0.000000e+00
     2800000   2.799999e-06   1.365539e+01   3.774971e+01   6.459348e-02  -1.370623e+05   4.567724e+04  -2.938175e+04  -3.505341e+10  -3.246907e+10   1.130425e+11   1.474305e+05   1.166483e-26   0.000000e+00   0.000000e+00
     2808000   2.807999e-06   1.365429e+01   3.775008e+01   6.436205e-02  -1.373384e+05   4.542122e+04  -2.847513e+04  -3.398470e+10  -3.153523e+10   1.136087e+11   1.474305e+05   1.166078e-26   0.000000e+00   0.000000e+00
     2816000   2.815999e-06   1.365319e+01   3.775044e+01   6.413789e-02  -1.376060e+05   4.517269e+04  -2.756406e+04  -3.291126e+10  -3.059690e+10   1.141569e+11   1.474305e+05   1.165672e-26   0.000000e+00   0.000000e+00
     2824000   2.823999e-06   1.365209e+01   3.775080e+01   6.392104e-02  -1.378650e+05   4.493168e+04  -2.664867e+04  -3.183325e+10  -2.965423e+10   1.146872e+11   1.474305e+05   1.165267e-26   0.000000e+00   0.000000e+00
     2832000   2.831999e-06   1.365099e+01   3.775116e+01   6.371152e-02  -1.381153e+05   4.469823e+04  -2.572911e+04  -3.075086e+10  -2.870737e+10   1.151995e+11   1.474305e+05   1.164862e-26   0.000000e+00   0.000000e+00
     2840000   2.839999e-06   1.364988e+01   3.775151e+01   6.350938e-02  -1.383570e+05   4.447237e+04  -2.480552e+04  -2.966424e+10  -2.775647e+10   1.156937e+11   1.474305e+05   1.164457e-26   0.000000e+00   0.000000e+00
     2848000   2.847999e-06   1.364878e+01   3.775187e+01   6.331465e-02  -1.385899e+05   4.425414e+04  -2.387806e+04  -2.857357e+10  -2.680168e+10   1.161698e+11   1.474305e+05   1.164052e-26   0.000000e+00   0.000000e+00
     2856000   2.855999e-06   1.364767e+01   3.775222e+01   6.312734e-02  -1.388141e+05   4.404356e+04  -2.294685e+04  -2.747902e+10  -2.584315e+10   1.166276e+11   1.474305e+05   1.163647e-26   0.000000e+00   0.000000e+00
     2864000   2.863999e-06   1.364655e+01   3.775257e+01   6.294751e-02  -1.390296e+05   4.384066e+04  -2.201206e+04  -2.638076e+10  -2.488104e+10   1.170672e+11   1.474305e+05   1.163242e-26   0.000000e+00   0.000000e+00
     2872000   2.871999e-06   1.364544e+01   3.775292e+01   6.277516e-02  -1.392362e+05   4.364547e+04  -2.107383e+04  -2.527897e+10  -2.391549e+10   1.174884e+11   1.474305e+05   1.162837e-26   0.000000e+00   0.000000e+00
     2880000   2.879999e-06   1.364433e+01   3.775327e+01   6.261033e-02  -1.394340e+05   4.345802e+04  -2.013230e+04  -2.417382e+10  -2.294665e+10   1.178913e+11   1.474305e+05   1.162432e-26   0.000000e+00   0.000000e+00
     2888000   2.887999e-06   1.364321e+01   3.775362e+01   6.245305e-02  -1.396230e+05   4.327833e+04  -1.918761e+04  -2.306549e+10  -2.197469e+10   1.182757e+11   1.474305e+05   1.162027e-26   0.000000e+00   0.000000e+00
     2896000   2.895999e-06   1.364209e+01   3.775396e+01   6.230334e-02  -1.398031e+05   4.310643e+04  -1.823993e+04  -2.195414e+10  -2.099974e+10   1.186417e+11   1.474305e+05   1.161623e-26   0.000000e+00   0.000000e+00
     2904000   2.903999e-06   1.364097e+01   3.775431e+01   6.216122e-02  -1.399743e+05   4.294235e+04  -1.728940e+04  -2.083995e+10  -2.002197e+10   1.189892e+11   1.474305e+05   1.161218e-26   0.000000e+00   0.000000e+00
     2912000   2.911999e-06   1.363985e+01   3.775465e+01   6.202672e-02  -1.401365e+05   4.278609e+04  -1.633615e+04  -1.972310e+10  -1.904153e+10   1.193181e+11   1.474305e+05   1.160813e-26   0.000000e+00   0.000000e+00
     2920000   2.919999e-06   1.363873e+01   3.775499e+01   6.189985e-02  -1.402898e+05   4.263769e+04  -1.538036e+04  -1.860376e+10  -1.805857e+10   1.196283e+11   1.474305e+05   1.160409e-26   0.000000e+00   0.000000e+00
     2928000   2.927999e-06   1.363761e+01   3.775533e+01   6.178064e-02  -1.404342e+05   4.249716e+04  -1.442215e+04  -1.748210e+10  -1.707325e+10   1.199200e+11   1.474305e+05   1.160004e-26   0.000000e+00   0.000000e+00
     2936000   2.935999e-06   1.363648e+01   3.775567e+01   6.166910e-02  -1.405695e+05   4.236452e+04  -1.346169e+04  -1.635831e+10  -1.608571e+10   1.201930e+11   1.474305e+05   1.159599e-26   0.000000e+00   0.000000e+00
     2944000   2.943999e-06   1.363536e+01   3.775601e+01   6.156526e-02  -1.406959e+05   4.223980e+04  -1.249911e+04  -1.523255e+10  -1.509613e+10   1.204473e+11   1.474305e+05   1.159195e-26   0.000000e+00   0.000000e+00
     2952000   2.951999e-06   1.363423e+01   3.775635e+01   6.146912e-02  -1.408132e+05   4.212299e+04  -1.153458e+04  -1.410500e+10  -1.410463e+10   1.206829e+11   1.474305e+05   1.158790e-26   0.000000e+00   0.000000e+00
     2960000   2.959999e-06   1.363311e+01   3.775668e+01   6.138071e-02  -1.409216e+05   4.201413e+04  -1.056824e+04  -1.297584e+10  -1.311140e+10   1.208998e+11   1.474305e+05   1.158385e-26   0.000000e+00   0.000000e+00
     2968000   2.967999e-06   1.363198e+01   3.775702e+01   6.130003e-02  -1.410208e+05   4.191322e+04  -9.600232e+03  -1.184525e+10  -1.211657e+10   1.210978e+11   1.474305e+05   1.157981e-26   0.000000e+00   0.000000e+00
     2976000   2.975999e-06   1.363085e+01   3.775736e+01   6.122711e-02  -1.411111e+05   4.182027e+04  -8.630720e+03  -1.071339e+10  -1.112030e+10   1.212771e+11   1.474305e+05   1.157576e-26   0.000000e+00   0.000000e+00
     2984000   2.983999e-06   1.362972e+01   3.775769e+01   6.116195e-02  -1.411923e+05   4.173529e+04  -7.659848e+03  -9.580446e+09  -1.012275e+10   1.214376e+11   1.474305e+05   1.157172e-26   0.000000e+00   0.000000e+00
     2992000   2.991999e-06   1.362859e+01   3.775802e+01   6.110455e-02  -1.412644e+05   4.165831e+04  -6.687767e+03  -8.446594e+09  -9.124072e+09   1.215794e+11   1.474305e+05   1.156767e-26   0.000000e+00   0.000000e+00
     3000000   2.999999e-06   1.362746e+01   3.775836e+01   6.105494e-02  -1.413274e+05   4.158931e+04  -5.714628e+03  -7.312009e+09  -8.124423e+09   1.217022e+11   1.474305e+05   1.156362e-26   0.000000e+00   0.000000e+00
     3008000   3.007999e-06   1.362633e+01   3.775869e+01   6.101312e-02  -1.413814e+05   4.152832e+04  -4.740581e+03  -6.176866e+09  -7.123957e+09   1.218063e+11   1.474305e+05   1.155958e-26   0.000000e+00   0.000000e+00
     3016000   3.015999e-06   1.362520e+01   3.775902e+01   6.097910e-02  -1.414262e+05   4.147533e+04  -3.765777e+03  -5.041340e+09  -6.122829e+09   1.218916e+11   1.474305e+05   1.155553e-26   0.000000e+00   0.000000e+00
     3024000   3.023999e-06   1.362407e+01   3.775935e+01   6.095287e-02  -1.414620e+05   4.143036e+04  -2.790367e+03  -3.905608e+09  -5.121193e+09   1.219580e+11   1.474305e+05   1.155148e-26   0.000000e+00   0.000000e+00
     3032000   3.031999e-06   1.362293e+01   3.775968e+01   6.093445e-02  -1.414887e+05   4.139340e+04  -1.814500e+03  -2.769845e+09  -4.119204e+09   1.220056e+11   1.474305e+05   1.154743e-26   0.000000e+00   0.000000e+00
     3040000   3.039999e-06   1.362180e+01   3.776001e+01   6.092384e-02  -1.415063e+05   4.136445e+04  -8.383276e+02  -1.634227e+09  -3.117018e+09   1.220344e+11   1.474305e+05   1.154338e-26   0.000000e+00   0.000000e+00
     3048000   3.047999e-06   1.362067e+01   3.776035e+01   6.092104e-02  -1.415149e+05   4.134352e+04   1.379998e+02  -4.989273e+08  -2.114789e+09   1.220444e+11   1.474305e+05   1.153933e-26   0.000000e+00   0.000000e+00
     3056000   3.055999e-06   1.361954e+01   3.776068e+01   6.092605e-02  -1.415143e+05   4.133062e+04   1.114332e+03   6.358778e+08  -1.112671e+09   1.220355e+11   1.474305e+05   1.153528e-26   0.000000e+00   0.000000e+00
     3064000   3.063999e-06   1.361841e+01   3.776101e+01   6.093887e-02  -1.415047e+05   4.132572e+04   2.090518e+03   1.770014e+09  -1.108194e+08   1.220080e+11   1.474305e+05   1.153123e-26   0.000000e+00   0.000000e+00
     3072000   3.071999e-06   1.361727e+01   3.776134e+01   6.095950e-02  -1.414860e+05   4.132884e+04   3.066409e+03   2.903307e+09   8.906126e+08   1.219616e+11   1.474305e+05   1.152718e-26   0.000000e+00   0.000000e+00
     3080000   3.079999e-06   1.361614e+01   3.776167e+01   6.098793e-02  -1.414582e+05   4.133997e+04   4.041854e+03   4.035582e+09   1.891471e+09   1.218965e+11   1.474305e+05   1.152313e-26   0.000000e+00   0.000000e+00
     3088000   3.087999e-06   1.361501e+01   3.776200e+01   6.102416e-02  -1.414214e+05   4.135910e+04   5.016703e+03   5.166666e+09   2.891601e+09   1.218127e+11   1.474305e+05   1.151908e-26   0.000000e+00   0.000000e+00
     3096000   3.095999e-06   1.361388e+01   3.776233e+01   6.106819e-02  -1.413756e+05   4.138624e+04   5.990807e+03   6.296385e+09   3.890851e+09   1.217102e+11   1.474305e+05   1.151502e-26   0.000000e+00   0.000000e+00
     3104000   3.103999e-06   1.361275e+01   3.776266e+01   6.112001e-02  -1.413207e+05   4.142136e+04   6.964016e+03   7.424567e+09   4.889066e+09   1.215890e+11   1.474305e+05   1.151097e-26   0.000000e+00   0.000000e+00
     3112000   3.111999e-06   1.361162e+01   3.776299e+01   6.117962e-02  -1.412568e+05   4.146446e+04   7.936182e+03   8.551037e+09   5.886094e+09   1.214492e+11   1.474305e+05   1.150691e-26   0.000000e+00   0.000000e+00
     3120000   3.119999e-06   1.361049e+01   3.776332e+01   6.124699e-02  -1.411839e+05   4.151553e+04   8.907154e+03   9.675625e+09   6.881783e+09   1.212908e+11   1.474305e+05   1.150286e-26   0.000000e+00   0.000000e+00
     3128000   3.127999e-06   1.360936e+01   3.776366e+01   6.132213e-02  -1.411020e+05   4.157456e+04   9.876786e+03   1.079816e+10   7.875980e+09   1.211139e+11   1.474305e+05   1.149880e-26   0.000000e+00   0.000000e+00
     3136000   3.135999e-06   1.360823e+01   3.776399e+01   6.140501e-02  -1.410111e+05   4.164154e+04   1.084493e+04   1.191847e+10   8.868533e+09   1.209184e+11   1.474305e+05   1.149474e-26   0.000000e+00   0.000000e+00
     3144000   3.143999e-06   1.360710e+01   3.776432e+01   6.149564e-02  -1.409113e+05   4.171646e+04   1.181143e+04   1.303638e+10   9.859291e+09   1.207045e+11   1.474305e+05   1.149068e-26   0.000000e+00   0.000000e+00
     3152000   3.151999e-06   1.360598e+01   3.776466e+01   6.159399e-02  -1.408025e+05   4.179929e+04   1.277615e+04   1.415172e+10   1.084810e+10   1.204721e+11   1.474305e+05   1.148662e-26   0.000000e+00   0.000000e+00
     3160000   3.159999e-06   1.360485e+01   3.776499e+01   6.170005e-02  -1.406849e+05   4.189002e+04   1.373894e+04   1.526432e+10   1.183482e+10   1.202213e+11   1.474305e+05   1.148256e-26   0.000000e+00   0.000000e+00
     3168000   3.167999e-06   1.360373e+01   3.776533e+01   6.181381e-02  -1.405583e+05   4.198864e+04   1.469964e+04   1.637402e+10   1.281929e+10   1.199523e+11   1.474305e+05   1.147849e-26   0.000000e+00   0.000000e+00
     3176000   3.175999e-06   1.360260e+01   3.776566e+01   6.193524e-02  -1.404229e+05   4.209512e+04   1.565812e+04   1.748065e+10   1.380136e+10   1.196649e+11   1.474305e+05   1.147443e-26   0.000000e+00   0.000000e+00
     3184000   3.183999e-06   1.360148e+01   3.776600e+01   6.206433e-02  -1.402786e+05   4.220946e+04   1.661423e+04   1.858403e+10   1.478089e+10   1.193593e+11   1.474305e+05   1.147036e-26   0.000000e+00   0.000000e+00
     3192000   3.191999e-06   1.360036e+01   3.776634e+01   6.220106e-02  -1.401256e+05   4.233161e+04   1.756782e+04   1.968400e+10   1.575773e+10   1.190356e+11   1.474305e+05   1.146630e-26   0.000000e+00   0.000000e+00
     3200000   3.199999e-06   1.359924e+01   3.776668e+01   6.234541e-02  -1.399637e+05   4.246154e+04   1.851874e+04   2.077829e+10   1.672560e+10   1.186920e+11   1.474305e+05   1.146167e-26   0.000000e+00   0.000000e+00
     3208000   3.207999e-06   1.359812e+01   3.776702e+01   6.249736e-02  -1.397931e+05   4.259923e+04   1.946685e+04   2.187103e+10   1.769686e+10   1.183325e+11   1.474305e+05   1.145768e-26   0.000000e+00   0.000000e+00
     3216000   3.215999e-06   1.359700e+01   3.776736e+01   6.265687e-02  -1.396138e+05   4.274468e+04   2.041201e+04   2.295988e+10   1.866498e+10   1.179551e+11   1.474305e+05   1.145368e-26   0.000000e+00   0.000000e+00
     3224000   3.223999e-06   1.359588e+01   3.776770e+01   6.282394e-02  -1.394258e+05   4.289786e+04   2.135409e+04   2.404466e+10   1.962981e+10   1.175598e+11   1.474305e+05   1.144968e-26   0.000000e+00   0.000000e+00
     3232000   3.231999e-06   1.359477e+01   3.776805e+01   6.299853e-02  -1.392291e+05   4.305875e+04   2.229292e+04   2.512521e+10   2.059121e+10   1.171467e+11   1.474305e+05   1.144568e-26   0.000000e+00   0.000000e+00
     3240000   3.239999e-06   1.359366e+01   3.776839e+01   6.318062e-02  -1.390238e+05   4.322731e+04   2.322839e+04   2.620137e+10   2.154904e+10   1.167158e+11   1.474305e+05   1.144168e-26   0.000000e+00   0.000000e+00
     3248000   3.247999e-06   1.359255e+01   3.776874e+01   6.337018e-02  -1.388099e+05   4.340353e+04   2.416033e+04   2.727297e+10   2.250315e+10   1.162673e+11   1.474305e+05   1.143768e-26   0.000000e+00   0.000000e+00
     3256000   3.255999e-06   1.359144e+01   3.776909e+01   6.356717e-02  -1.385874e+05   4.358736e+04   2.508861e+04   2.833985e+10   2.345339e+10   1.158011e+11   1.474305e+05   1.143367e-26   0.000000e+00   0.000000e+00
     3264000   3.263999e-06   1.359033e+01   3.776944e+01   6.377158e-02  -1.383564e+05   4.377877e+04   2.601310e+04   2.940186e+10   2.439964e+10   1.153175e+11   1.474305e+05   1.142966e-26   0.000000e+00   0.000000e+00
     3272000   3.271999e-06   1.358922e+01   3.776979e+01   6.398337e-02  -1.381170e+05   4.397774e+04   2.693365e+04   3.045884e+10   2.534173e+10   1.148164e+11   1.474305e+05   1.142565e-26   0.000000e+00   0.000000e+00
     3280000   3.279999e-06   1.358812e+01   3.777014e+01   6.420251e-02  -1.378691e+05   4.418423e+04   2.785012e+04   3.151061e+10   2.627953e+10   1.142981e+11   1.474305e+05   1.142164e-26   0.000000e+00   0.000000e+00
     3288000   3.287999e-06   1.358702e+01   3.777049e+01   6.442896e-02  -1.376128e+05   4.439820e+04   2.876237e+04   3.255704e+10   2.721291e+10   1.137624e+11   1.474305e+05   1.141763e-26   0.000000e+00   0.000000e+00
     3296000   3.295999e-06   1.358592e+01   3.777085e+01   6.466270e-02  -1.373482e+05   4.461962e+04   2.967027e+04   3.359796e+10   2.814172e+10   1.132097e+11   1.474305e+05   1.141361e-26   0.000000e+00   0.000000e+00
     3304000   3.303999e-06   1.358482e+01   3.777121e+01   6.490368e-02  -1.370753e+05   4.484846e+04   3.057368e+04   3.463321e+10   2.906582e+10   1.126398e+11   1.474305e+05   1.140959e-26   0.000000e+00   0.000000e+00
     3312000   3.311999e-06   1.358372e+01   3.777157e+01   6.515186e-02  -1.367941e+05   4.508466e+04   3.147246e+04   3.566264e+10   2.998508e+10   1.120531e+11   1.474305e+05   1.140557e-26   0.000000e+00   0.000000e+00
     3320000   3.319999e-06   1.358263e+01   3.777193e+01   6.540722e-02  -1.365047e+05   4.532821e+04   3.236648e+04   3.668610e+10   3.089935e+10   1.114495e+11   1.474305e+05   1.140154e-26   0.000000e+00   0.000000e+00
     3328000   3.327999e-06   1.358154e+01   3.777229e+01   6.566971e-02  -1.362071e+05   4.557904e+04   3.325561e+04   3.770343e+10   3.180851e+10   1.108291e+11   1.474305e+05   1.139751e-26   0.000000e+00   0.000000e+00
     3336000   3.335999e-06   1.358045e+01   3.777266e+01   6.593930e-02  -1.359015e+05   4.583713e+04   3.413970e+04   3.871449e+10   3.271242e+10   1.101921e+11   1.474305e+05   1.139348e-26   0.000000e+00   0.000000e+00
     3344000   3.343999e-06   1.357936e+01   3.777303e+01   6.621594e-02  -1.355877e+05   4.610243e+04   3.501864e+04   3.971912e+10   3.361093e+10   1.095386e+11   1.474306e+05   1.138945e-26   0.000000e+00   0.000000e+00
     3352000   3.351999e-06   1.357828e+01   3.777340e+01   6.649958e-02  -1.352660e+05   4.637489e+04   3.589228e+04   4.071717e+10   3.450393e+10   1.088687e+11   1.474306e+05   1.138542e-26   0.000000e+00   0.000000e+00
     3360000   3.359999e-06   1.357720e+01   3.777377e+01   6.679020e-02  -1.349363e+05   4.665448e+04   3.676049e+04   4.170849e+10   3.539127e+10   1.081825e+11   1.474306e+05   1.138138e-26   0.000000e+00   0.000000e+00
     3368000   3.367999e-06   1.357612e+01   3.777414e+01   6.708774e-02  -1.345986e+05   4.694114e+04   3.762315e+04   4.269295e+10   3.627283e+10   1.074801e+11   1.474306e+05   1.137734e-26   0.000000e+00   0.000000e+00
     3376000   3.375999e-06   1.357505e+01   3.777452e+01   6.739215e-02  -1.342532e+05   4.723483e+04   3.848013e+04   4.367038e+10   3.714848e+10   1.067616e+11   1.474306e+05   1.137329e-26   0.000000e+00   0.000000e+00
     3384000   3.383999e-06   1.357397e+01   3.777490e+01   6.770340e-02  -1.338999e+05   4.753550e+04   3.933130e+04   4.464065e+10   3.801808e+10   1.060272e+11   1.474306e+05   1.136925e-26   0.000000e+00   0.000000e+00
     3392000   3.391999e-06   1.357290e+01   3.777528e+01   6.802144e-02  -1.335390e+05   4.784310e+04   4.017652e+04   4.560362e+10   3.888151e+10   1.052770e+11   1.474306e+05   1.136520e-26   0.000000e+00   0.000000e+00
     3400000   3.399999e-06   1.357184e+01   3.777566e+01   6.834621e-02  -1.331703e+05   4.815758e+04   4.101568e+04   4.655914e+10   3.973864e+10   1.045110e+11   1.474306e+05   1.136115e-26   0.000000e+00   0.000000e+00
     3408000   3.407999e-06   1.357077e+01   3.777605e+01   6.867767e-02  -1.327940e+05   4.847890e+04   4.184866e+04   4.750706e+10   4.058935e+10   1.037295e+11   1.474306e+05   1.135709e-26   0.000000e+00   0.000000e+00
     3416000   3.415999e-06   1.356971e+01   3.777644e+01   6.901577e-02  -1.324102e+05   4.880700e+04   4.267531e+04   4.844726e+10   4.143351e+10   1.029326e+11   1.474306e+05   1.135304e-26   0.000000e+00   0.000000e+00
     3424000   3.423999e-06   1.356866e+01   3.777683e+01   6.936046e-02  -1.320189e+05   4.914182e+04   4.349554e+04   4.937960e+10   4.227099e+10   1.021204e+11   1.474306e+05   1.134898e-26   0.000000e+00   0.000000e+00
     3432000   3.431999e-06   1.356760e+01   3.777723e+01   6.971168e-02  -1.316202e+05   4.948332e+04   4.430920e+04   5.030392e+10   4.310167e+10   1.012930e+11   1.474306e+05   1.134491e-26   0.000000e+00   0.000000e+00
     3440000   3.439999e-06   1.356655e+01   3.777762e+01   7.006939e-02  -1.312141e+05   4.983143e+04   4.511618e+04   5.122011e+10   4.392544e+10   1.004506e+11   1.474306e+05   1.134085e-26   0.000000e+00   0.000000e+00
     3448000   3.447999e-06   1.356550e+01   3.777802e+01   7.043352e-02  -1.308007e+05   5.018611e+04   4.591637e+04   5.212803e+10   4.474217e+10   9.959323e+10   1.474306e+05   1.133678e-26   0.000000e+00   0.000000e+00
     3456000   3.455999e-06   1.356446e+01   3.777843e+01   7.080403e-02  -1.303800e+05   5.054729e+04   4.670963e+04   5.302753e+10   4.555174e+10   9.872115e+10   1.474306e+05   1.133271e-26   0.000000e+00   0.000000e+00
     3464000   3.463999e-06   1.356342e+01   3.777883e+01   7.118086e-02  -1.299522e+05   5.091491e+04   4.749587e+04   5.391850e+10   4.635404e+10   9.783447e+10   1.474306e+05   1.132863e-26   0.000000e+00   0.000000e+00
     3472000   3.471999e-06   1.356238e+01   3.777924e+01   7.156395e-02  -1.295173e+05   5.128893e+04   4.827495e+04   5.480081e+10   4.714894e+10   9.693332e+10   1.474306e+05   1.132456e-26   0.000000e+00   0.000000e+00
     3480000   3.479999e-06   1.356134e+01   3.777965e+01   7.195324e-02  -1.290754e+05   5.166928e+04   4.904676e+04   5.567431e+10   4.793633e+10   9.601786e+10   1.474306e+05   1.132047e-26   0.000000e+00   0.000000e+00
     3488000   3.487999e-06   1.356031e+01   3.778007e+01   7.234868e-02  -1.286266e+05   5.205589e+04   4.981119e+04   5.653889e+10   4.871611e+10   9.508824e+10   1.474306e+05   1.131639e-26   0.000000e+00   0.000000e+00
     3496000   3.495999e-06   1.355929e+01   3.778048e+01   7.275020e-02  -1.281708e+05   5.244872e+04   5.056813e+04   5.739442e+10   4.948814e+10   9.414460e+10   1.474306e+05   1.131230e-26   0.000000e+00   0.000000e+00
     3504000   3.503999e-06   1.355826e+01   3.778091e+01   7.315775e-02  -1.277083e+05   5.284768e+04   5.131747e+04   5.824078e+10   5.025233e+10   9.318710e+10   1.474306e+05   1.130821e-26   0.000000e+00   0.000000e+00
     3512000   3.511999e-06   1.355724e+01   3.778133e+01   7.357126e-02  -1.272390e+05   5.325273e+04   5.205909e+04   5.907784e+10   5.100857e+10   9.221589e+10   1.474306e+05   1.130412e-26   0.000000e+00   0.000000e+00
     3520000   3.519999e-06   1.355623e+01   3.778176e+01   7.399067e-02  -1.267631e+05   5.366380e+04   5.279289e+04   5.990549e+10   5.175673e+10   9.123114e+10   1.474306e+05   1.130003e-26   0.000000e+00   0.000000e+00
     3528000   3.527999e-06   1.355521e+01   3.778219e+01   7.441592e-02  -1.262806e+05   5.408082e+04   5.351875e+04   6.072360e+10   5.249673e+10   9.023301e+10   1.474306e+05   1.129593e-26   0.000000e+00   0.000000e+00
     3536000   3.535999e-06   1.355421e+01   3.778262e+01   7.484695e-02  -1.257915e+05   5.450373e+04   5.423658e+04   6.153205e+10   5.322844e+10   8.922164e+10   1.474306e+05   1.129183e-26   0.000000e+00   0.000000e+00
     3544000   3.543999e-06   1.355320e+01   3.778306e+01   7.528369e-02  -1.252961e+05   5.493245e+04   5.494626e+04   6.233073e+10   5.395176e+10   8.819721e+10   1.474306e+05   1.128772e-26   0.000000e+00   0.000000e+00
     3552000   3.551999e-06   1.355220e+01   3.778350e+01   7.572607e-02  -1.247943e+05   5.536693e+04   5.564770e+04   6.311953e+10   5.466660e+10   8.715989e+10   1.474306e+05   1.128362e-26   0.000000e+00   0.000000e+00
     3560000   3.559999e-06   1.355120e+01   3.778395e+01   7.617403e-02  -1.242862e+05   5.580710e+04   5.634079e+04   6.389833e+10   5.537284e+10   8.610983e+10   1.474306e+05   1.127951e-26   0.000000e+00   0.000000e+00
     3568000   3.567999e-06   1.355021e+01   3.778440e+01   7.662750e-02  -1.237719e+05   5.625288e+04   5.702542e+04   6.466701e+10   5.607039e+10   8.504721e+10   1.474306e+05   1.127539e-26   0.000000e+00   0.000000e+00
     3576000   3.575999e-06   1.354922e+01   3.778485e+01   7.708641e-02  -1.232515e+05   5.670420e+04   5.770151e+04   6.542548e+10   5.675915e+10   8.397220e+10   1.474306e+05   1.127128e-26   0.000000e+00   0.000000e+00
     3584000   3.583999e-06   1.354824e+01   3.778530e+01   7.755070e-02  -1.227251e+05   5.716100e+04   5.836894e+04   6.617362e+10   5.743902e+10   8.288497e+10   1.474306e+05   1.126716e-26   0.000000e+00   0.000000e+00
     3592000   3.591999e-06   1.354726e+01   3.778576e+01   7.802029e-02  -1.221928e+05   5.762320e+04   5.902763e+04   6.691132e+10   5.810991e+10   8.178569e+10   1.474306e+05   1.126304e-26   0.000000e+00   0.000000e+00
     3600000   3.599999e-06   1.354629e+01   3.778622e+01   7.849512e-02  -1.216546e+05   5.809073e+04   5.967748e+04   6.763848e+10   5.877171e+10   8.067454e+10   1.474306e+05   1.125891e-26   0.000000e+00   0.000000e+00
     3608000   3.607999e-06   1.354531e+01   3.778669e+01   7.897511e-02  -1.211106e+05   5.856352e+04   6.031839e+04   6.835500e+10   5.942433e+10   7.955170e+10   1.474306e+05   1.125478e-26   0.000000e+00   0.000000e+00
     3616000   3.615999e-06   1.354435e+01   3.778716e+01   7.946019e-02  -1.205609e+05   5.904150e+04   6.095028e+04   6.906077e+10   6.006769e+10   7.841734e+10   1.474306e+05   1.125065e-26   0.000000e+00   0.000000e+00
     3624000   3.623999e-06   1.354339e+01   3.778764e+01   7.995029e-02  -1.200056e+05   5.952458e+04   6.157304e+04   6.975570e+10   6.070169e+10   7.727165e+10   1.474306e+05   1.124652e-26   0.000000e+00   0.000000e+00
     3632000   3.631999e-06   1.354243e+01   3.778811e+01   8.044533e-02  -1.194449e+05   6.001270e+04   6.218659e+04   7.043969e+10   6.132624e+10   7.611480e+10   1.474306e+05   1.124239e-26   0.000000e+00   0.000000e+00
     3640000   3.639999e-06   1.354147e+01   3.778860e+01   8.094525e-02  -1.188786e+05   6.050578e+04   6.279085e+04   7.111264e+10   6.194126e+10   7.494699e+10   1.474306e+05   1.123825e-26   0.000000e+00   0.000000e+00
     3648000   3.647999e-06   1.354053e+01   3.778908e+01   8.144996e-02  -1.183071e+05   6.100374e+04   6.338571e+04   7.177446e+10   6.254665e+10   7.376838e+10   1.474306e+05   1.123411e-26   0.000000e+00   0.000000e+00
     3656000   3.655999e-06   1.353958e+01   3.778957e+01   8.195939e-02  -1.177303e+05   6.150650e+04   6.397111e+04   7.242505e+10   6.314234e+10   7.257918e+10   1.474306e+05   1.122996e-26   0.000000e+00   0.000000e+00
     3664000   3.663999e-06   1.353864e+01   3.779007e+01   8.247347e-02  -1.171483e+05   6.201399e+04   6.454695e+04   7.306432e+10   6.372824e+10   7.137957e+10   1.474306e+05   1.122582e-26   0.000000e+00   0.000000e+00
     3672000   3.671999e-06   1.353771e+01   3.779056e+01   8.299212e-02  -1.165613e+05   6.252613e+04   6.511316e+04   7.369219e+10   6.430427e+10   7.016974e+10   1.474306e+05   1.122167e-26   0.000000e+00   0.000000e+00
     3680000   3.679999e-06   1.353678e+01   3.779107e+01   8.351526e-02  -1.159693e+05   6.304283e+04   6.566964e+04   7.430856e+10   6.487035e+10   6.894988e+10   1.474306e+05   1.121752e-26   0.000000e+00   0.000000e+00
     3688000   3.687999e-06   1.353585e+01   3.779157e+01   8.404281e-02  -1.153724e+05   6.356403e+04   6.621633e+04   7.491336e+10   6.542640e+10   6.772017e+10   1.474306e+05   1.121336e-26   0.000000e+00   0.000000e+00
     3696000   3.695999e-06   1.353493e+01   3.779208e+01   8.457469e-02  -1.147707e+05   6.408963e+04   6.675314e+04   7.550649e+10   6.597234e+10   6.648082e+10   1.474306e+05   1.120921e-26   0.000000e+00   0.000000e+00
     3704000   3.703999e-06   1.353401e+01   3.779260e+01   8.511083e-02  -1.141643e+05   6.461956e+04   6.727999e+04   7.608788e+10   6.650811e+10   6.523202e+10   1.474306e+05   1.120505e-26   0.000000e+00   0.000000e+00
     3712000   3.711999e-06   1.353310e+01   3.779312e+01   8.565114e-02  -1.135533e+05   6.515373e+04   6.779682e+04   7.665745e+10   6.703361e+10   6.397397e+10   1.474306e+05   1.120089e-26   0.000000e+00   0.000000e+00
     3720000   3.719999e-06   1.353220e+01   3.779364e+01   8.619555e-02  -1.129378e+05   6.569207e+04   6.830355e+04   7.721511e+10   6.754880e+10   6.270685e+10   1.474306e+05   1.119672e-26   0.000000e+00   0.000000e+00
     3728000   3.727999e-06   1.353130e+01   3.779417e+01   8.674397e-02  -1.123179e+05   6.623448e+04   6.880011e+04   7.776080e+10   6.805358e+10   6.143087e+10   1.474306e+05   1.119256e-26   0.000000e+00   0.000000e+00
     3736000   3.735999e-06   1.353040e+01   3.779470e+01   8.729633e-02  -1.116937e+05   6.678090e+04   6.928642e+04   7.829444e+10   6.854790e+10   6.014623e+10   1.474306e+05   1.118839e-26   0.000000e+00   0.000000e+00
     3744000   3.743999e-06   1.352951e+01   3.779524e+01   8.785253e-02  -1.110652e+05   6.733122e+04   6.976242e+04   7.881595e+10   6.903169e+10   5.885313e+10   1.474306e+05   1.118422e-26   0.000000e+00   0.000000e+00
     3752000   3.751999e-06   1.352862e+01   3.779578e+01   8.841250e-02  -1.104326e+05   6.788538e+04   7.022805e+04   7.932526e+10   6.950488e+10   5.755177e+10   1.474306e+05   1.118005e-26   0.000000e+00   0.000000e+00
     3760000   3.759999e-06   1.352774e+01   3.779632e+01   8.897615e-02  -1.097961e+05   6.844327e+04   7.068323e+04   7.982232e+10   6.996741e+10   5.624235e+10   1.474306e+05   1.117588e-26   0.000000e+00   0.000000e+00
     3768000   3.767999e-06   1.352687e+01   3.779687e+01   8.954340e-02  -1.091555e+05   6.900483e+04   7.112790e+04   8.030704e+10   7.041921e+10   5.492508e+10   1.474306e+05   1.117170e-26   0.000000e+00   0.000000e+00
     3776000   3.775999e-06   1.352600e+01   3.779743e+01   9.011417e-02  -1.085112e+05   6.956995e+04   7.156201e+04   8.077937e+10   7.086024e+10   5.360016e+10   1.474306e+05   1.116752e-26   0.000000e+00   0.000000e+00
     3784000   3.783999e-06   1.352513e+01   3.779799e+01   9.068837e-02  -1.078631e+05   7.013856e+04   7.198548e+04   8.123924e+10   7.129042e+10   5.226779e+10   1.474306e+05   1.116334e-26   0.000000e+00   0.000000e+00
     3792000   3.791999e-06   1.352427e+01   3.779855e+01   9.126591e-02  -1.072114e+05   7.071057e+04   7.239827e+04   8.168659e+10   7.170970e+10   5.092819e+10   1.474306e+05   1.115916e-26   0.000000e+00   0.000000e+00
     3800000   3.799999e-06   1.352342e+01   3.779912e+01   9.184671e-02  -1.065561e+05   7.128589e+04   7.280031e+04   8.212137e+10   7.211802e+10   4.958156e+10   1.474306e+05   1.115498e-26   0.000000e+00   0.000000e+00
     3808000   3.807999e-06   1.352257e+01   3.779969e+01   9.243068e-02  -1.058975e+05   7.186443e+04   7.319156e+04   8.254351e+10   7.251534e+10   4.822811e+10   1.474306e+05   1.115079e-26   0.000000e+00   0.000000e+00
     3816000   3.815999e-06   1.352172e+01   3.780027e+01   9.301775e-02  -1.052355e+05   7.244602e+04   7.357201e+04   8.294991e+10   7.287990e+10   4.688507e+10   1.474306e+05   1.114500e-26   0.000000e+00   0.000000e+00
     3824000   3.823999e-06   1.352088e+01   3.780085e+01   9.360781e-02  -1.045703e+05   7.303057e+04   7.394163e+04   8.334677e+10   7.325515e+10   4.551895e+10   1.474306e+05   1.114082e-26   0.000000e+00   0.000000e+00
     3832000   3.831999e-06   1.352005e+01   3.780144e+01   9.420078e-02  -1.039020e+05   7.361808e+04   7.430029e+04   8.373085e+10   7.361924e+10   4.414663e+10   1.474306e+05   1.113663e-26   0.000000e+00   0.000000e+00
     3840000   3.839999e-06   1.351922e+01   3.780203e+01   9.479658e-02  -1.032306e+05   7.420845e+04   7.464796e+04   8.410209e+10   7.397213e+10   4.276834e+10   1.474306e+05   1.113245e-26   0.000000e+00   0.000000e+00
     3848000   3.847999e-06   1.351840e+01   3.780262e+01   9.539512e-02  -1.025564e+05   7.480160e+04   7.498457e+04   8.446045e+10   7.431378e+10   4.138427e+10   1.474306e+05   1.112826e-26   0.000000e+00   0.000000e+00
     3856000   3.855999e-06   1.351758e+01   3.780322e+01   9.599631e-02  -1.018793e+05   7.539744e+04   7.531009e+04   8.480588e+10   7.464414e+10   3.999465e+10   1.474306e+05   1.112407e-26   0.000000e+00   0.000000e+00
     3864000   3.863999e-06   1.351677e+01   3.780383e+01   9.660005e-02  -1.011995e+05   7.599588e+04   7.562447e+04   8.513833e+10   7.496317e+10   3.859968e+10   1.474306e+05   1.111989e-26   0.000000e+00   0.000000e+00
     3872000   3.871999e-06   1.351596e+01   3.780444e+01   9.720627e-02  -1.005171e+05   7.659682e+04   7.592767e+04   8.545778e+10   7.527083e+10   3.719958e+10   1.474306e+05   1.111570e-26   0.000000e+00   0.000000e+00
     3880000   3.879999e-06   1.351516e+01   3.780506e+01   9.781486e-02  -9.983222e+04   7.720018e+04   7.621965e+04   8.576417e+10   7.556708e+10   3.579457e+10   1.474306e+05   1.111151e-26   0.000000e+00   0.000000e+00
     3888000   3.887999e-06   1.351436e+01   3.780568e+01   9.842575e-02  -9.914492e+04   7.780586e+04   7.650037e+04   8.605747e+10   7.585188e+10   3.438486e+10   1.474306e+05   1.110731e-26   0.000000e+00   0.000000e+00
     3896000   3.895999e-06   1.351357e+01   3.780630e+01   9.903884e-02  -9.845534e+04   7.841378e+04   7.676979e+04   8.633765e+10   7.612521e+10   3.297066e+10   1.474306e+05   1.110312e-26   0.000000e+00   0.000000e+00
     3904000   3.903999e-06   1.351279e+01   3.780693e+01   9.965404e-02  -9.776356e+04   7.902384e+04   7.702789e+04   8.660467e+10   7.638703e+10   3.155220e+10   1.474306e+05   1.109893e-26   0.000000e+00   0.000000e+00
     3912000   3.911999e-06   1.351201e+01   3.780756e+01   1.002713e-01  -9.706969e+04   7.963595e+04   7.727462e+04   8.686088e+10   7.664009e+10   3.012976e+10   1.474306e+05   1.109539e-26   0.000000e+00   0.000000e+00
     3920000   3.919999e-06   1.351123e+01   3.780820e+01   1.008904e-01  -9.637383e+04   8.025004e+04   7.750995e+04   8.710175e+10   7.687905e+10   2.870337e+10   1.474306e+05   1.109126e-26   0.000000e+00   0.000000e+00
     3928000   3.927999e-06   1.351047e+01   3.780885e+01   1.015114e-01  -9.567609e+04   8.086599e+04   7.773386e+04   8.732938e+10   7.710641e+10   2.727335e+10   1.474306e+05   1.108713e-26   0.000000e+00   0.000000e+00
     3936000   3.935999e-06   1.350970e+01   3.780950e+01   1.021341e-01  -9.497659e+04   8.148371e+04   7.794631e+04   8.754375e+10   7.732215e+10   2.583991e+10   1.474306e+05   1.108300e-26   0.000000e+00   0.000000e+00
     3944000   3.943999e-06   1.350895e+01   3.781015e+01   1.027585e-01  -9.427543e+04   8.210311e+04   7.814729e+04   8.774483e+10   7.752625e+10   2.440328e+10   1.474306e+05   1.107888e-26   0.000000e+00   0.000000e+00
     3952000   3.951999e-06   1.350819e+01   3.781081e+01   1.033844e-01  -9.357271e+04   8.272410e+04   7.833676e+04   8.793260e+10   7.771867e+10   2.296367e+10   1.474306e+05   1.107475e-26   0.000000e+00   0.000000e+00
     3960000   3.959999e-06   1.350745e+01   3.781148e+01   1.040119e-01  -9.286854e+04   8.334658e+04   7.851470e+04   8.810705e+10   7.789941e+10   2.152130e+10   1.474306e+05   1.107062e-26   0.000000e+00   0.000000e+00
     3968000   3.967999e-06   1.350671e+01   3.781215e+01   1.046406e-01  -9.216303e+04   8.397046e+04   7.868109e+04   8.826814e+10   7.806844e+10   2.007638e+10   1.474306e+05   1.106649e-26   0.000000e+00   0.000000e+00
     3976000   3.975999e-06   1.350597e+01   3.781282e+01   1.052707e-01  -9.145629e+04   8.459564e+04   7.883591e+04   8.841588e+10   7.822574e+10   1.862914e+10   1.474306e+05   1.106237e-26   0.000000e+00   0.000000e+00
     3984000   3.983999e-06   1.350525e+01   3.781350e+01   1.059020e-01  -9.074842e+04   8.522204e+04   7.897915e+04   8.855024e+10   7.837131e+10   1.717980e+10   1.474306e+05   1.105824e-26   0.000000e+00   0.000000e+00
     3992000   3.991999e-06   1.350452e+01   3.781418e+01   1.065344e-01  -9.003952e+04   8.584955e+04   7.911078e+04   8.867122e+10   7.850511e+10   1.572857e+10   1.474306e+05   1.105412e-26   0.000000e+00   0.000000e+00
     4000000   3.999999e-06   1.350380e+01   3.781487e+01   1.071677e-01  -8.932971e+04   8.647809e+04   7.923080e+04   8.877880e+10   7.862716e+10   1.427567e+10   1.474306e+05   1.104999e-26   0.000000e+00   0.000000e+00
     4008000   4.007999e-06   1.350309e+01   3.781557e+01   1.078020e-01  -8.861910e+04   8.710755e+04   7.933919e+04   8.887299e+10   7.873743e+10   1.282133e+10   1.474306e+05   1.104587e-26   0.000000e+00   0.000000e+00
     4016000   4.015999e-06   1.350239e+01   3.781627e+01   1.084371e-01  -8.790778e+04   8.773786e+04   7.943594e+04   8.895377e+10   7.883591e+10   1.136575e+10   1.474306e+05   1.104175e-26   0.000000e+00   0.000000e+00
     4024000   4.023999e-06   1.350169e+01   3.781697e+01   1.090730e-01  -8.719587e+04   8.836890e+04   7.952103e+04   8.902114e+10   7.892260e+10   9.909165e+09   1.474306e+05   1.103763e-26   0.000000e+00   0.000000e+00
     4032000   4.031999e-06   1.350099e+01   3.781768e+01   1.097094e-01  -8.648348e+04   8.900059e+04   7.959448e+04   8.907511e+10   7.899750e+10   8.451787e+09   1.474306e+05   1.103351e-26   0.000000e+00   0.000000e+00
     4040000   4.039999e-06   1.350030e+01   3.781839e+01   1.103464e-01  -8.577070e+04   8.963283e+04   7.965626e+04   8.911567e+10   7.906060e+10   6.993837e+09   1.474306e+05   1.102939e-26   0.000000e+00   0.000000e+00
     4048000   4.047999e-06   1.349962e+01   3.781911e+01   1.109839e-01  -8.505769e+04   9.026549e+04   7.970639e+04   8.913738e+10   7.910515e+10   5.537430e+09   1.474306e+05   1.102371e-26   0.000000e+00   0.000000e+00
     4056000   4.055999e-06   1.349894e+01   3.781984e+01   1.116217e-01  -8.434452e+04   9.089850e+04   7.974485e+04   8.915118e+10   7.914452e+10   4.079376e+09   1.474306e+05   1.101958e-26   0.000000e+00   0.000000e+00
     4064000   4.063999e-06   1.349827e+01   3.782057e+01   1.122598e-01  -8.363130e+04   9.153178e+04   7.977165e+04   8.915158e+10   7.917210e+10   2.621412e+09   1.474306e+05   1.101545e-26   0.000000e+00   0.000000e+00
     4072000   4.071999e-06   1.349760e+01   3.782130e+01   1.128980e-01  -8.291813e+04   9.216522e+04   7.978679e+04   8.913861e+10   7.918789e+10   1.163755e+09   1.474306e+05   1.101132e-26   0.000000e+00   0.000000e+00
     4080000   4.079999e-06   1.349694e+01   3.782204e+01   1.135363e-01  -8.220512e+04   9.279875e+04   7.979027e+04   8.911227e+10   7.919188e+10  -2.933758e+08   1.474306e+05   1.100719e-26   0.000000e+00   0.000000e+00
     4088000   4.087999e-06   1.349629e+01   3.782279e+01   1.141746e-01  -8.149237e+04   9.343226e+04   7.978210e+04   8.907258e+10   7.918410e+10  -1.749764e+09   1.474306e+05   1.100307e-26   0.000000e+00   0.000000e+00
     4096000   4.095999e-06   1.349564e+01   3.782354e+01   1.148128e-01  -8.077999e+04   9.406566e+04   7.976228e+04   8.901955e+10   7.916455e+10  -3.205191e+09   1.474306e+05   1.099894e-26   0.000000e+00   0.000000e+00
     4104000   4.103999e-06   1.349500e+01   3.782429e+01   1.154508e-01  -8.006810e+04   9.469886e+04   7.973082e+04   8.895320e+10   7.913324e+10  -4.659440e+09   1.474306e+05   1.099481e-26   0.000000e+00   0.000000e+00
     4112000   4.111999e-06   1.349436e+01   3.782505e+01   1.160885e-01  -7.935678e+04   9.533176e+04   7.968773e+04   8.887354e+10   7.909019e+10  -6.112294e+09   1.474306e+05   1.099069e-26   0.000000e+00   0.000000e+00
     4120000   4.119999e-06   1.349373e+01   3.782582e+01   1.167258e-01  -7.864615e+04   9.596428e+04   7.963303e+04   8.878061e+10   7.903540e+10  -7.563538e+09   1.474306e+05   1.098656e-26   0.000000e+00   0.000000e+00
     4128000   4.127999e-06   1.349310e+01   3.782659e+01   1.173626e-01  -7.793633e+04   9.659630e+04   7.956672e+04   8.867442e+10   7.896890e+10  -9.012956e+09   1.474306e+05   1.098244e-26   0.000000e+00   0.000000e+00
     4136000   4.135999e-06   1.349248e+01   3.782736e+01   1.179988e-01  -7.722740e+04   9.722775e+04   7.948882e+04   8.855500e+10   7.889071e+10  -1.046033e+10   1.474306e+05   1.097832e-26   0.000000e+00   0.000000e+00
     4144000   4.143999e-06   1.349186e+01   3.782814e+01   1.186344e-01  -7.651948e+04   9.785852e+04   7.939936e+04   8.842237e+10   7.880084e+10  -1.190545e+10   1.474306e+05   1.097419e-26   0.000000e+00   0.000000e+00
     4152000   4.151999e-06   1.349126e+01   3.782893e+01   1.192692e-01  -7.581268e+04   9.848853e+04   7.929834e+04   8.827657e+10   7.869931e+10  -1.334810e+10   1.474306e+05   1.097007e-26   0.000000e+00   0.000000e+00
     4160000   4.159999e-06   1.349065e+01   3.782972e+01   1.199031e-01  -7.510709e+04   9.911768e+04   7.918579e+04   8.811763e+10   7.858616e+10  -1.478806e+10   1.474306e+05   1.096595e-26   0.000000e+00   0.000000e+00
     4168000   4.167999e-06   1.349005e+01   3.783052e+01   1.205361e-01  -7.440283e+04   9.974588e+04   7.906174e+04   8.794558e+10   7.846139e+10  -1.622512e+10   1.474306e+05   1.096183e-26   0.000000e+00   0.000000e+00
     4176000   4.175999e-06   1.348946e+01   3.783132e+01   1.211681e-01  -7.370000e+04   1.003730e+05   7.892620e+04   8.776045e+10   7.832505e+10  -1.765908e+10   1.474306e+05   1.095772e-26   0.000000e+00   0.000000e+00
     4184000   4.183999e-06   1.348887e+01   3.783212e+01   1.217989e-01  -7.299870e+04   1.009990e+05   7.877920e+04   8.756228e+10   7.817716e+10  -1.908971e+10   1.474306e+05   1.095360e-26   0.000000e+00   0.000000e+00
     4192000   4.191999e-06   1.348829e+01   3.783293e+01   1.224285e-01  -7.229903e+04   1.016238e+05   7.862077e+04   8.735111e+10   7.801775e+10  -2.051681e+10   1.474306e+05   1.094949e-26   0.000000e+00   0.000000e+00
     4200000   4.199999e-06   1.348772e+01   3.783375e+01   1.230568e-01  -7.160111e+04   1.022473e+05   7.845094e+04   8.712699e+10   7.784685e+10  -2.194016e+10   1.474306e+05   1.094537e-26   0.000000e+00   0.000000e+00
     4208000   4.207999e-06   1.348715e+01   3.783457e+01   1.236837e-01  -7.090504e+04   1.028694e+05   7.826974e+04   8.688995e+10   7.766449e+10  -2.335957e+10   1.474306e+05   1.094126e-26   0.000000e+00   0.000000e+00
     4216000   4.215999e-06   1.348658e+01   3.783539e+01   1.243091e-01  -7.021091e+04   1.034899e+05   7.807720e+04   8.664003e+10   7.747072e+10  -2.477481e+10   1.474306e+05   1.093715e-26   0.000000e+00   0.000000e+00
     4224000   4.223999e-06   1.348602e+01   3.783622e+01   1.249329e-01  -6.951883e+04   1.041089e+05   7.787335e+04   8.637730e+10   7.726556e+10  -2.618567e+10   1.474306e+05   1.093304e-26   0.000000e+00   0.000000e+00
     4232000   4.231999e-06   1.348547e+01   3.783706e+01   1.255550e-01  -6.882891e+04   1.047261e+05   7.765824e+04   8.610179e+10   7.704906e+10  -2.759197e+10   1.474306e+05   1.092894e-26   0.000000e+00   0.000000e+00
     4240000   4.239999e-06   1.348492e+01   3.783790e+01   1.261754e-01  -6.814124e+04   1.053416e+05   7.743189e+04   8.581355e+10   7.682126e+10  -2.899347e+10   1.474306e+05   1.092483e-26   0.000000e+00   0.000000e+00
     4248000   4.247999e-06   1.348438e+01   3.783874e+01   1.267939e-01  -6.745592e+04   1.059552e+05   7.719435e+04   8.551263e+10   7.658219e+10  -3.038999e+10   1.474306e+05   1.092073e-26   0.000000e+00   0.000000e+00
     4256000   4.255999e-06   1.348384e+01   3.783959e+01   1.274105e-01  -6.677307e+04   1.065669e+05   7.694566e+04   8.519910e+10   7.633191e+10  -3.178132e+10   1.474306e+05   1.091663e-26   0.000000e+00   0.000000e+00
     4264000   4.263999e-06   1.348331e+01   3.784045e+01   1.280250e-01  -6.609277e+04   1.071765e+05   7.668586e+04   8.487301e+10   7.607045e+10  -3.316725e+10   1.474306e+05   1.091253e-26   0.000000e+00   0.000000e+00
     4272000   4.271999e-06   1.348279e+01   3.784131e+01   1.286374e-01  -6.541513e+04   1.077840e+05   7.641500e+04   8.453441e+10   7.579787e+10  -3.454758e+10   1.474306e+05   1.090843e-26   0.000000e+00   0.000000e+00
     4280000   4.279999e-06   1.348227e+01   3.784217e+01   1.292476e-01  -6.474026e+04   1.083892e+05   7.613312e+04   8.418336e+10   7.551421e+10  -3.592210e+10   1.474306e+05   1.090434e-26   0.000000e+00   0.000000e+00
     4288000   4.287999e-06   1.348175e+01   3.784304e+01   1.298555e-01  -6.406823e+04   1.089922e+05   7.584026e+04   8.381992e+10   7.521952e+10  -3.729063e+10   1.474306e+05   1.090025e-26   0.000000e+00   0.000000e+00
