     timestep     time              x             y              z              vx             vy             vz             ax             ay             az         v_magnitude      ELoss        Electronic      Nuclear
           0   0.000000e+00   2.718726e+01   2.698202e+01   1.000000e-01   8.751893e+03   7.239005e+03  -1.469922e+05   0.000000e+00   0.000000e+00   0.000000e+00   1.474304e+05   0.000000e+00   0.000000e+00   0.000000e+00
        8000   7.999000e-09   2.718732e+01   2.698209e+01   9.882407e-02   7.472677e+03   8.644936e+03  -1.469869e+05  -1.597641e+11   1.758640e+11   2.220685e+09   1.474304e+05   4.372496e-26   0.000000e+00   0.000000e+00
       16000   1.599900e-08   2.718738e+01   2.698216e+01   9.764828e-02   6.195731e+03   1.005274e+04  -1.469567e+05  -1.594685e+11   1.760807e+11   5.321380e+09   1.474304e+05   4.372907e-26   0.000000e+00   0.000000e+00
       24000   2.399900e-08   2.718742e+01   2.698225e+01   9.647283e-02   4.921243e+03   1.146214e+04  -1.469017e+05  -1.591496e+11   1.762632e+11   8.421160e+09   1.474304e+05   4.373317e-26   0.000000e+00   0.000000e+00
       32000   3.199900e-08   2.718746e+01   2.698235e+01   9.529791e-02   3.649400e+03   1.287286e+04  -1.468220e+05  -1.588073e+11   1.764116e+11   1.151949e+10   1.474304e+05   4.373726e-26   0.000000e+00   0.000000e+00
       40000   3.999900e-08   2.718748e+01   2.698245e+01   9.412374e-02   2.380389e+03   1.428463e+04  -1.467174e+05  -1.584417e+11   1.765259e+11   1.461584e+10   1.474304e+05   4.374134e-26   0.000000e+00   0.000000e+00
       48000   4.799900e-08   2.718749e+01   2.698257e+01   9.295050e-02   1.114396e+03   1.569718e+04  -1.465881e+05  -1.580529e+11   1.766060e+11   1.770967e+10   1.474304e+05   4.374540e-26   0.000000e+00   0.000000e+00
       56000   5.599900e-08   2.718750e+01   2.698271e+01   9.177840e-02  -1.483948e+02   1.711024e+04  -1.464341e+05  -1.576409e+11   1.766520e+11   2.080045e+10   1.474304e+05   4.374944e-26   0.000000e+00   0.000000e+00
       64000   6.399900e-08   2.718749e+01   2.698285e+01   9.060762e-02  -1.407797e+03   1.852352e+04  -1.462553e+05  -1.572059e+11   1.766639e+11   2.388764e+10   1.474304e+05   4.375346e-26   0.000000e+00   0.000000e+00
       72000   7.199900e-08   2.718748e+01   2.698300e+01   8.943838e-02  -2.663627e+03   1.993677e+04  -1.460519e+05  -1.567478e+11   1.766417e+11   2.697073e+10   1.474304e+05   4.375745e-26   0.000000e+00   0.000000e+00
       80000   7.999900e-08   2.718745e+01   2.698317e+01   8.827086e-02  -3.915700e+03   2.134970e+04  -1.458238e+05  -1.562668e+11   1.765854e+11   3.004917e+10   1.474304e+05   4.376140e-26   0.000000e+00   0.000000e+00
       88000   8.799900e-08   2.718741e+01   2.698334e+01   8.710526e-02  -5.163834e+03   2.276204e+04  -1.455711e+05  -1.557629e+11   1.764952e+11   3.312243e+10   1.474304e+05   4.376532e-26   0.000000e+00   0.000000e+00
       96000   9.599900e-08   2.718737e+01   2.698353e+01   8.594179e-02  -6.407845e+03   2.417353e+04  -1.452938e+05  -1.552362e+11   1.763710e+11   3.619000e+10   1.474304e+05   4.376920e-26   0.000000e+00   0.000000e+00
      104000   1.039990e-07   2.718731e+01   2.698373e+01   8.478063e-02  -7.647553e+03   2.558389e+04  -1.449921e+05  -1.546869e+11   1.762130e+11   3.925134e+10   1.474304e+05   4.377304e-26   0.000000e+00   0.000000e+00
      112000   1.119990e-07   2.718724e+01   2.698394e+01   8.362198e-02  -8.882774e+03   2.699285e+04  -1.446658e+05  -1.541148e+11   1.760211e+11   4.230593e+10   1.474304e+05   4.377684e-26   0.000000e+00   0.000000e+00
      120000   1.199990e-07   2.718717e+01   2.698416e+01   8.246604e-02  -1.011333e+04   2.840014e+04  -1.443152e+05  -1.535202e+11   1.757955e+11   4.535324e+10   1.474304e+05   4.378059e-26   0.000000e+00   0.000000e+00
      128000   1.279990e-07   2.718708e+01   2.698439e+01   8.131300e-02  -1.133904e+04   2.980549e+04  -1.439402e+05  -1.529032e+11   1.755363e+11   4.839276e+10   1.474304e+05   4.378429e-26   0.000000e+00   0.000000e+00
      136000   1.359990e-07   2.718699e+01   2.698464e+01   8.016306e-02  -1.255972e+04   3.120863e+04  -1.435409e+05  -1.522637e+11   1.752435e+11   5.142395e+10   1.474304e+05   4.378793e-26   0.000000e+00   0.000000e+00
      144000   1.439990e-07   2.718688e+01   2.698489e+01   7.901641e-02  -1.377520e+04   3.260929e+04  -1.431174e+05  -1.516019e+11   1.749172e+11   5.444631e+10   1.474304e+05   4.379152e-26   0.000000e+00   0.000000e+00
      152000   1.519990e-07   2.718677e+01   2.698516e+01   7.787325e-02  -1.498529e+04   3.400722e+04  -1.426698e+05  -1.509178e+11   1.745576e+11   5.745931e+10   1.474304e+05   4.379506e-26   0.000000e+00   0.000000e+00
      160000   1.599990e-07   2.718664e+01   2.698544e+01   7.673376e-02  -1.618982e+04   3.540213e+04  -1.421981e+05  -1.502116e+11   1.741648e+11   6.046245e+10   1.474304e+05   4.379853e-26   0.000000e+00   0.000000e+00
      168000   1.679990e-07   2.718651e+01   2.698573e+01   7.559814e-02  -1.738862e+04   3.679376e+04  -1.417024e+05  -1.494834e+11   1.737388e+11   6.345520e+10   1.474304e+05   4.380193e-26   0.000000e+00   0.000000e+00
      176000   1.759990e-07   2.718636e+01   2.698603e+01   7.446658e-02  -1.858150e+04   3.818186e+04  -1.411829e+05  -1.487331e+11   1.732798e+11   6.643705e+10   1.474304e+05   4.380528e-26   0.000000e+00   0.000000e+00
      184000   1.839990e-07   2.718621e+01   2.698634e+01   7.333928e-02  -1.976829e+04   3.956615e+04  -1.406395e+05  -1.479610e+11   1.727880e+11   6.940751e+10   1.474304e+05   4.380855e-26   0.000000e+00   0.000000e+00
      192000   1.919990e-07   2.718605e+01   2.698666e+01   7.221641e-02  -2.094881e+04   4.094638e+04  -1.400724e+05  -1.471670e+11   1.722635e+11   7.236605e+10   1.474304e+05   4.381176e-26   0.000000e+00   0.000000e+00
      200000   1.999990e-07   2.718588e+01   2.698699e+01   7.109818e-02  -2.212290e+04   4.232228e+04  -1.394816e+05  -1.463513e+11   1.717064e+11   7.531218e+10   1.474304e+05   4.381489e-26   0.000000e+00   0.000000e+00
      208000   2.079990e-07   2.718569e+01   2.698734e+01   6.998477e-02  -2.329037e+04   4.369359e+04  -1.388674e+05  -1.455140e+11   1.711169e+11   7.824539e+10   1.474304e+05   4.381795e-26   0.000000e+00   0.000000e+00
      216000   2.159990e-07   2.718550e+01   2.698769e+01   6.887637e-02  -2.445107e+04   4.506006e+04  -1.382297e+05  -1.446552e+11   1.704952e+11   8.116518e+10   1.474304e+05   4.382093e-26   0.000000e+00   0.000000e+00
      224000   2.239990e-07   2.718530e+01   2.698806e+01   6.777316e-02  -2.560480e+04   4.642143e+04  -1.375688e+05  -1.437749e+11   1.698414e+11   8.407106e+10   1.474304e+05   4.382384e-26   0.000000e+00   0.000000e+00
      232000   2.319990e-07   2.718509e+01   2.698844e+01   6.667533e-02  -2.675141e+04   4.777744e+04  -1.368846e+05  -1.428733e+11   1.691558e+11   8.696252e+10   1.474304e+05   4.382667e-26   0.000000e+00   0.000000e+00
      240000   2.399990e-07   2.718487e+01   2.698882e+01   6.558306e-02  -2.789071e+04   4.912784e+04  -1.361774e+05  -1.419504e+11   1.684384e+11   8.983909e+10   1.474304e+05   4.382941e-26   0.000000e+00   0.000000e+00
      248000   2.479990e-07   2.718465e+01   2.698922e+01   6.449655e-02  -2.902255e+04   5.047237e+04  -1.354473e+05  -1.410064e+11   1.676895e+11   9.270026e+10   1.474304e+05   4.383208e-26   0.000000e+00   0.000000e+00
      256000   2.559990e-07   2.718441e+01   2.698963e+01   6.341597e-02  -3.014676e+04   5.181079e+04  -1.346943e+05  -1.400413e+11   1.669093e+11   9.554556e+10   1.474304e+05   4.383466e-26   0.000000e+00   0.000000e+00
      264000   2.639990e-07   2.718416e+01   2.699005e+01   6.234150e-02  -3.126316e+04   5.314284e+04  -1.339186e+05  -1.390553e+11   1.660980e+11   9.837450e+10   1.474304e+05   4.383716e-26   0.000000e+00   0.000000e+00
      272000   2.719990e-07   2.718391e+01   2.699048e+01   6.127333e-02  -3.237159e+04   5.446827e+04  -1.331203e+05  -1.380484e+11   1.652558e+11   1.011866e+11   1.474304e+05   4.383958e-26   0.000000e+00   0.000000e+00
      280000   2.799990e-07   2.718365e+01   2.699092e+01   6.021164e-02  -3.347188e+04   5.578685e+04  -1.322996e+05  -1.370208e+11   1.643830e+11   1.039814e+11   1.474304e+05   4.384190e-26   0.000000e+00   0.000000e+00
      288000   2.879990e-07   2.718337e+01   2.699137e+01   5.915660e-02  -3.456386e+04   5.709832e+04  -1.314567e+05  -1.359726e+11   1.634797e+11   1.067583e+11   1.474304e+05   4.384415e-26   0.000000e+00   0.000000e+00
      296000   2.959990e-07   2.718309e+01   2.699184e+01   5.810839e-02  -3.564738e+04   5.840244e+04  -1.305915e+05  -1.349038e+11   1.625461e+11   1.095171e+11   1.474304e+05   4.384630e-26   0.000000e+00   0.000000e+00
      304000   3.039990e-07   2.718280e+01   2.699231e+01   5.706719e-02  -3.672227e+04   5.969897e+04  -1.297044e+05  -1.338146e+11   1.615826e+11   1.122570e+11   1.474304e+05   4.384836e-26   0.000000e+00   0.000000e+00
      312000   3.119990e-07   2.718251e+01   2.699279e+01   5.603318e-02  -3.778836e+04   6.098768e+04  -1.287955e+05  -1.327051e+11   1.605893e+11   1.149778e+11   1.474304e+05   4.385034e-26   0.000000e+00   0.000000e+00
      320000   3.199990e-07   2.718220e+01   2.699328e+01   5.500652e-02  -3.884550e+04   6.226832e+04  -1.278648e+05  -1.315754e+11   1.595666e+11   1.176789e+11   1.474304e+05   4.385222e-26   0.000000e+00   0.000000e+00
      328000   3.279990e-07   2.718188e+01   2.699379e+01   5.398740e-02  -3.989351e+04   6.354067e+04  -1.269127e+05  -1.304256e+11   1.585146e+11   1.203599e+11   1.474304e+05   4.385402e-26   0.000000e+00   0.000000e+00
      336000   3.359990e-07   2.718156e+01   2.699430e+01   5.297598e-02  -4.093225e+04   6.480448e+04  -1.259391e+05  -1.292559e+11   1.574336e+11   1.230204e+11   1.474304e+05   4.385572e-26   0.000000e+00   0.000000e+00
      344000   3.439990e-07   2.718123e+01   2.699482e+01   5.197243e-02  -4.196155e+04   6.605953e+04  -1.249444e+05  -1.280663e+11   1.563239e+11   1.256598e+11   1.474304e+05   4.385733e-26   0.000000e+00   0.000000e+00
      352000   3.519990e-07   2.718089e+01   2.699536e+01   5.097692e-02  -4.298126e+04   6.730558e+04  -1.239286e+05  -1.268569e+11   1.551857e+11   1.282777e+11   1.474304e+05   4.385885e-26   0.000000e+00   0.000000e+00
      360000   3.599990e-07   2.718054e+01   2.699590e+01   4.998963e-02  -4.399121e+04   6.854242e+04  -1.228920e+05  -1.256280e+11   1.540194e+11   1.308737e+11   1.474304e+05   4.386028e-26   0.000000e+00   0.000000e+00
      368000   3.679990e-07   2.718019e+01   2.699645e+01   4.901071e-02  -4.499125e+04   6.976982e+04  -1.218347e+05  -1.243795e+11   1.528252e+11   1.334474e+11   1.474304e+05   4.386162e-26   0.000000e+00   0.000000e+00
      376000   3.759990e-07   2.717982e+01   2.699702e+01   4.804033e-02  -4.598123e+04   7.098755e+04  -1.207569e+05  -1.231117e+11   1.516035e+11   1.359983e+11   1.474304e+05   4.386286e-26   0.000000e+00   0.000000e+00
      384000   3.839990e-07   2.717945e+01   2.699759e+01   4.707865e-02  -4.696099e+04   7.219540e+04  -1.196588e+05  -1.218247e+11   1.503544e+11   1.385259e+11   1.474304e+05   4.386401e-26   0.000000e+00   0.000000e+00
      392000   3.919990e-07   2.717907e+01   2.699817e+01   4.612584e-02  -4.793037e+04   7.339315e+04  -1.185405e+05  -1.205185e+11   1.490783e+11   1.410299e+11   1.474304e+05   4.386508e-26   0.000000e+00   0.000000e+00
      400000   3.999990e-07   2.717868e+01   2.699876e+01   4.518205e-02  -4.888923e+04   7.458058e+04  -1.174024e+05  -1.191934e+11   1.477755e+11   1.435099e+11   1.474304e+05   4.386605e-26   0.000000e+00   0.000000e+00
      408000   4.079990e-07   2.717829e+01   2.699936e+01   4.424745e-02  -4.983742e+04   7.575748e+04  -1.162445e+05  -1.178495e+11   1.464463e+11   1.459653e+11   1.474304e+05   4.386693e-26   0.000000e+00   0.000000e+00
      416000   4.159990e-07   2.717789e+01   2.699998e+01   4.332219e-02  -5.077477e+04   7.692365e+04  -1.150670e+05  -1.164868e+11   1.450910e+11   1.483959e+11   1.474305e+05   4.386772e-26   0.000000e+00   0.000000e+00
      424000   4.239990e-07   2.717748e+01   2.700060e+01   4.240643e-02  -5.170030e+04   7.807755e+04  -1.138715e+05  -1.149958e+11   1.435397e+11   1.506302e+11   1.474305e+05   4.377109e-26   0.000000e+00   0.000000e+00
      432000   4.319990e-07   2.717706e+01   2.700122e+01   4.150030e-02  -5.261469e+04   7.922027e+04  -1.126569e+05  -1.135987e+11   1.421358e+11   1.530038e+11   1.474305e+05   4.377130e-26   0.000000e+00   0.000000e+00
      440000   4.399990e-07   2.717663e+01   2.700186e+01   4.060397e-02  -5.351783e+04   8.035166e+04  -1.114235e+05  -1.121833e+11   1.407069e+11   1.553513e+11   1.474305e+05   4.377141e-26   0.000000e+00   0.000000e+00
      448000   4.479990e-07   2.717620e+01   2.700251e+01   3.971758e-02  -5.440958e+04   8.147151e+04  -1.101714e+05  -1.107499e+11   1.392533e+11   1.576723e+11   1.474305e+05   4.377143e-26   0.000000e+00   0.000000e+00
      456000   4.559990e-07   2.717576e+01   2.700317e+01   3.884128e-02  -5.528978e+04   8.257964e+04  -1.089008e+05  -1.092986e+11   1.377753e+11   1.599665e+11   1.474305e+05   4.377137e-26   0.000000e+00   0.000000e+00
      464000   4.639990e-07   2.717532e+01   2.700383e+01   3.797521e-02  -5.615830e+04   8.367585e+04  -1.076120e+05  -1.078295e+11   1.362733e+11   1.622334e+11   1.474305e+05   4.377121e-26   0.000000e+00   0.000000e+00
      472000   4.719990e-07   2.717487e+01   2.700451e+01   3.711953e-02  -5.701500e+04   8.475995e+04  -1.063051e+05  -1.063428e+11   1.347477e+11   1.644726e+11   1.474305e+05   4.377097e-26   0.000000e+00   0.000000e+00
      480000   4.799990e-07   2.717441e+01   2.700519e+01   3.627438e-02  -5.785974e+04   8.583175e+04  -1.049805e+05  -1.048386e+11   1.331987e+11   1.666839e+11   1.474305e+05   4.377064e-26   0.000000e+00   0.000000e+00
      488000   4.879990e-07   2.717394e+01   2.700588e+01   3.543989e-02  -5.869237e+04   8.689107e+04  -1.036383e+05  -1.033171e+11   1.316267e+11   1.688668e+11   1.474305e+05   4.377022e-26   0.000000e+00   0.000000e+00
      496000   4.959990e-07   2.717347e+01   2.700658e+01   3.461621e-02  -5.951277e+04   8.793772e+04  -1.022787e+05  -1.017785e+11   1.300321e+11   1.710209e+11   1.474305e+05   4.376971e-26   0.000000e+00   0.000000e+00
      504000   5.039990e-07   2.717299e+01   2.700729e+01   3.380348e-02  -6.032078e+04   8.897152e+04  -1.009020e+05  -1.002229e+11   1.284152e+11   1.731459e+11   1.474305e+05   4.376913e-26   0.000000e+00   0.000000e+00
      512000   5.119990e-07   2.717250e+01   2.700800e+01   3.300182e-02  -6.111629e+04   8.999230e+04  -9.950843e+04  -9.865048e+10   1.267764e+11   1.752414e+11   1.474305e+05   4.376845e-26   0.000000e+00   0.000000e+00
      520000   5.199990e-07   2.717201e+01   2.700873e+01   3.221139e-02  -6.189915e+04   9.099988e+04  -9.809822e+04  -9.706142e+10   1.251161e+11   1.773071e+11   1.474305e+05   4.376770e-26   0.000000e+00   0.000000e+00
      528000   5.279990e-07   2.717151e+01   2.700946e+01   3.143230e-02  -6.266922e+04   9.199410e+04  -9.667160e+04  -9.545587e+10   1.234345e+11   1.793426e+11   1.474305e+05   4.376687e-26   0.000000e+00   0.000000e+00
      536000   5.359990e-07   2.717101e+01   2.701020e+01   3.066468e-02  -6.342639e+04   9.297478e+04  -9.522882e+04  -9.383403e+10   1.217321e+11   1.813476e+11   1.474305e+05   4.376596e-26   0.000000e+00   0.000000e+00
      544000   5.439990e-07   2.717050e+01   2.701094e+01   2.990868e-02  -6.417052e+04   9.394176e+04  -9.377012e+04  -9.219605e+10   1.200093e+11   1.833217e+11   1.474305e+05   4.376497e-26   0.000000e+00   0.000000e+00
      552000   5.519990e-07   2.716998e+01   2.701170e+01   2.916440e-02  -6.490149e+04   9.489487e+04  -9.229575e+04  -9.054213e+10   1.182665e+11   1.852647e+11   1.474305e+05   4.376390e-26   0.000000e+00   0.000000e+00
      560000   5.599990e-07   2.716946e+01   2.701246e+01   2.843199e-02  -6.561915e+04   9.583397e+04  -9.080596e+04  -8.887245e+10   1.165039e+11   1.871761e+11   1.474305e+05   4.376276e-26   0.000000e+00   0.000000e+00
      568000   5.679990e-07   2.716893e+01   2.701323e+01   2.771155e-02  -6.632340e+04   9.675888e+04  -8.930101e+04  -8.718719e+10   1.147220e+11   1.890557e+11   1.474305e+05   4.376154e-26   0.000000e+00   0.000000e+00
      576000   5.759990e-07   2.716840e+01   2.701401e+01   2.700321e-02  -6.701411e+04   9.766947e+04  -8.778116e+04  -8.548654e+10   1.129211e+11   1.909031e+11   1.474305e+05   4.376026e-26   0.000000e+00   0.000000e+00
      584000   5.839990e-07   2.716786e+01   2.701480e+01   2.630709e-02  -6.769115e+04   9.856557e+04  -8.624665e+04  -8.377069e+10   1.111018e+11   1.927180e+11   1.474305e+05   4.375890e-26   0.000000e+00   0.000000e+00
      592000   5.919990e-07   2.716731e+01   2.701559e+01   2.562330e-02  -6.835440e+04   9.944704e+04  -8.469775e+04  -8.203984e+10   1.092642e+11   1.945002e+11   1.474305e+05   4.375748e-26   0.000000e+00   0.000000e+00
      600000   5.999990e-07   2.716676e+01   2.701639e+01   2.495196e-02  -6.900374e+04   1.003137e+05  -8.313473e+04  -8.029419e+10   1.074089e+11   1.962493e+11   1.474305e+05   4.375599e-26   0.000000e+00   0.000000e+00
      608000   6.079990e-07   2.716621e+01   2.701719e+01   2.429318e-02  -6.963906e+04   1.011655e+05  -8.155785e+04  -7.853393e+10   1.055362e+11   1.979650e+11   1.474305e+05   4.375444e-26   0.000000e+00   0.000000e+00
      616000   6.159990e-07   2.716565e+01   2.701801e+01   2.364707e-02  -7.026024e+04   1.020023e+05  -7.996738e+04  -7.675927e+10   1.036465e+11   1.996470e+11   1.474305e+05   4.375282e-26   0.000000e+00   0.000000e+00
      624000   6.239990e-07   2.716509e+01   2.701883e+01   2.301374e-02  -7.086717e+04   1.028238e+05  -7.836359e+04  -7.497042e+10   1.017402e+11   2.012951e+11   1.474305e+05   4.375115e-26   0.000000e+00   0.000000e+00
      632000   6.319990e-07   2.716452e+01   2.701965e+01   2.239329e-02  -7.145973e+04   1.036301e+05  -7.674675e+04  -7.316758e+10   9.981776e+10   2.029089e+11   1.474305e+05   4.374941e-26   0.000000e+00   0.000000e+00
      640000   6.399990e-07   2.716394e+01   2.702048e+01   2.178583e-02  -7.203781e+04   1.044209e+05  -7.511714e+04  -7.135098e+10   9.787948e+10   2.044883e+11   1.474305e+05   4.374763e-26   0.000000e+00   0.000000e+00
      648000   6.479990e-07   2.716336e+01   2.702132e+01   2.119145e-02  -7.260131e+04   1.051961e+05  -7.347503e+04  -6.952083e+10   9.592580e+10   2.060328e+11   1.474305e+05   4.374579e-26   0.000000e+00   0.000000e+00
      656000   6.559990e-07   2.716278e+01   2.702217e+01   2.061026e-02  -7.315011e+04   1.059556e+05  -7.182070e+04  -6.767735e+10   9.395712e+10   2.075423e+11   1.474305e+05   4.374389e-26   0.000000e+00   0.000000e+00
      664000   6.639990e-07   2.716219e+01   2.702302e+01   2.004235e-02  -7.368411e+04   1.066994e+05  -7.015444e+04  -6.582076e+10   9.197384e+10   2.090166e+11   1.474305e+05   4.374195e-26   0.000000e+00   0.000000e+00
      672000   6.719990e-07   2.716160e+01   2.702387e+01   1.948782e-02  -7.420321e+04   1.074272e+05  -6.847653e+04  -6.395130e+10   8.997637e+10   2.104552e+11   1.474305e+05   4.373997e-26   0.000000e+00   0.000000e+00
      680000   6.799990e-07   2.716101e+01   2.702474e+01   1.894676e-02  -7.470730e+04   1.081390e+05  -6.678725e+04  -6.206919e+10   8.796510e+10   2.118581e+11   1.474305e+05   4.373794e-26   0.000000e+00   0.000000e+00
      688000   6.879990e-07   2.716041e+01   2.702560e+01   1.841925e-02  -7.519628e+04   1.088346e+05  -6.508690e+04  -6.017467e+10   8.594045e+10   2.132249e+11   1.474305e+05   4.373587e-26   0.000000e+00   0.000000e+00
      696000   6.959990e-07   2.715980e+01   2.702648e+01   1.790540e-02  -7.567006e+04   1.095140e+05  -6.337575e+04  -5.826797e+10   8.390282e+10   2.145555e+11   1.474305e+05   4.373376e-26   0.000000e+00   0.000000e+00
      704000   7.039990e-07   2.715920e+01   2.702736e+01   1.740527e-02  -7.612853e+04   1.101770e+05  -6.165411e+04  -5.634934e+10   8.185262e+10   2.158496e+11   1.474305e+05   4.373162e-26   0.000000e+00   0.000000e+00
      712000   7.119990e-07   2.715859e+01   2.702824e+01   1.691896e-02  -7.657161e+04   1.108236e+05  -5.992225e+04  -5.441902e+10   7.979024e+10   2.171069e+11   1.474305e+05   4.372945e-26   0.000000e+00   0.000000e+00
      720000   7.199990e-07   2.715797e+01   2.702913e+01   1.644654e-02  -7.699920e+04   1.114536e+05  -5.818049e+04  -5.247726e+10   7.771611e+10   2.183273e+11   1.474305e+05   4.372724e-26   0.000000e+00   0.000000e+00
      728000   7.279990e-07   2.715735e+01   2.703002e+01   1.598809e-02  -7.741122e+04   1.120670e+05  -5.642911e+04  -5.052431e+10   7.563062e+10   2.195106e+11   1.474305e+05   4.372502e-26   0.000000e+00   0.000000e+00
      736000   7.359990e-07   2.715673e+01   2.703092e+01   1.554370e-02  -7.780756e+04   1.126637e+05  -5.466842e+04  -4.856043e+10   7.353419e+10   2.206565e+11   1.474305e+05   4.372277e-26   0.000000e+00   0.000000e+00
      744000   7.439990e-07   2.715611e+01   2.703183e+01   1.511342e-02  -7.818815e+04   1.132435e+05  -5.289871e+04  -4.658588e+10   7.142722e+10   2.217649e+11   1.474305e+05   4.372050e-26   0.000000e+00   0.000000e+00
      752000   7.519990e-07   2.715548e+01   2.703273e+01   1.469734e-02  -7.855291e+04   1.138065e+05  -5.112028e+04  -4.460091e+10   6.931012e+10   2.228355e+11   1.474305e+05   4.371821e-26   0.000000e+00   0.000000e+00
      760000   7.599990e-07   2.715485e+01   2.703365e+01   1.429552e-02  -7.890174e+04   1.143525e+05  -4.933344e+04  -4.260580e+10   6.718330e+10   2.238682e+11   1.474305e+05   4.371591e-26   0.000000e+00   0.000000e+00
      768000   7.679990e-07   2.715422e+01   2.703456e+01   1.390803e-02  -7.923457e+04   1.148814e+05  -4.753849e+04  -4.060081e+10   6.504717e+10   2.248629e+11   1.474305e+05   4.371361e-26   0.000000e+00   0.000000e+00
      776000   7.759990e-07   2.715358e+01   2.703548e+01   1.353493e-02  -7.955132e+04   1.153932e+05  -4.573574e+04  -3.858622e+10   6.290213e+10   2.258192e+11   1.474305e+05   4.371130e-26   0.000000e+00   0.000000e+00
      784000   7.839990e-07   2.715295e+01   2.703641e+01   1.317628e-02  -7.985192e+04   1.158878e+05  -4.392548e+04  -3.656231e+10   6.074860e+10   2.267371e+11   1.474305e+05   4.370898e-26   0.000000e+00   0.000000e+00
      792000   7.919990e-07   2.715231e+01   2.703734e+01   1.283214e-02  -8.013629e+04   1.163651e+05  -4.210805e+04  -3.452935e+10   5.858697e+10   2.276163e+11   1.474305e+05   4.370667e-26   0.000000e+00   0.000000e+00
      800000   7.999990e-07   2.715166e+01   2.703827e+01   1.250257e-02  -8.040437e+04   1.168252e+05  -4.028373e+04  -3.248763e+10   5.641766e+10   2.284568e+11   1.474305e+05   4.370437e-26   0.000000e+00   0.000000e+00
      808000   8.079990e-07   2.715102e+01   2.703921e+01   1.218762e-02  -8.065607e+04   1.172678e+05  -3.845284e+04  -3.043744e+10   5.424106e+10   2.292584e+11   1.474305e+05   4.370207e-26   0.000000e+00   0.000000e+00
      816000   8.159990e-07   2.715037e+01   2.704015e+01   1.188734e-02  -8.089134e+04   1.176930e+05  -3.661569e+04  -2.837906e+10   5.205759e+10   2.300210e+11   1.474305e+05   4.369979e-26   0.000000e+00   0.000000e+00
      824000   8.239990e-07   2.714973e+01   2.704109e+01   1.160178e-02  -8.111011e+04   1.181007e+05  -3.477261e+04  -2.631280e+10   4.986765e+10   2.307443e+11   1.474305e+05   4.369753e-26   0.000000e+00   0.000000e+00
      832000   8.319990e-07   2.714908e+01   2.704204e+01   1.133099e-02  -8.131232e+04   1.184909e+05  -3.292389e+04  -2.423895e+10   4.767164e+10   2.314284e+11   1.474305e+05   4.369529e-26   0.000000e+00   0.000000e+00
      840000   8.399990e-07   2.714842e+01   2.704299e+01   1.107501e-02  -8.149792e+04   1.188634e+05  -3.106986e+04  -2.215780e+10   4.546996e+10   2.320730e+11   1.474305e+05   4.369308e-26   0.000000e+00   0.000000e+00
      848000   8.479990e-07   2.714777e+01   2.704394e+01   1.083389e-02  -8.166683e+04   1.192184e+05  -2.921083e+04  -2.006968e+10   4.326301e+10   2.326780e+11   1.474305e+05   4.369090e-26   0.000000e+00   0.000000e+00
      856000   8.559990e-07   2.714712e+01   2.704489e+01   1.060765e-02  -8.181901e+04   1.195556e+05  -2.734711e+04  -1.797488e+10   4.105120e+10   2.332434e+11   1.474305e+05   4.368875e-26   0.000000e+00   0.000000e+00
      864000   8.639990e-07   2.714646e+01   2.704585e+01   1.039634e-02  -8.195441e+04   1.198752e+05  -2.547904e+04  -1.587372e+10   3.883492e+10   2.337689e+11   1.474305e+05   4.368665e-26   0.000000e+00   0.000000e+00
      872000   8.719990e-07   2.714581e+01   2.704681e+01   1.020000e-02  -8.207297e+04   1.201770e+05  -2.360692e+04  -1.376652e+10   3.661456e+10   2.342546e+11   1.474305e+05   4.368459e-26   0.000000e+00   0.000000e+00
      880000   8.799990e-07   2.714515e+01   2.704777e+01   1.001864e-02  -8.217465e+04   1.204610e+05  -2.173107e+04  -1.165358e+10   3.439053e+10   2.347004e+11   1.474305e+05   4.368258e-26   0.000000e+00   0.000000e+00
      888000   8.879990e-07   2.714449e+01   2.704874e+01   9.852310e-03  -8.225941e+04   1.207272e+05  -1.985182e+04  -9.535247e+09   3.216322e+10   2.351061e+11   1.474305e+05   4.368063e-26   0.000000e+00   0.000000e+00
      896000   8.959990e-07   2.714383e+01   2.704971e+01   9.701023e-03  -8.232720e+04   1.209756e+05  -1.796948e+04  -7.411830e+09   2.993301e+10   2.354716e+11   1.474305e+05   4.367873e-26   0.000000e+00   0.000000e+00
      904000   9.039990e-07   2.714317e+01   2.705068e+01   9.564806e-03  -8.237799e+04   1.212061e+05  -1.608438e+04  -5.283663e+09   2.770031e+10   2.357970e+11   1.474305e+05   4.367690e-26   0.000000e+00   0.000000e+00
      912000   9.119990e-07   2.714252e+01   2.705165e+01   9.443680e-03  -8.241173e+04   1.214188e+05  -1.419683e+04  -3.151078e+09   2.546549e+10   2.360821e+11   1.474305e+05   4.367514e-26   0.000000e+00   0.000000e+00
      920000   9.199990e-07   2.714186e+01   2.705262e+01   9.337662e-03  -8.242839e+04   1.216136e+05  -1.230717e+04  -1.014412e+09   2.322895e+10   2.363269e+11   1.474305e+05   4.367346e-26   0.000000e+00   0.000000e+00
      928000   9.279990e-07   2.714120e+01   2.705359e+01   9.246770e-03  -8.242795e+04   1.217904e+05  -1.041571e+04   1.125998e+09   2.099107e+10   2.365313e+11   1.474305e+05   4.367185e-26   0.000000e+00   0.000000e+00
      936000   9.359990e-07   2.714054e+01   2.705457e+01   9.171015e-03  -8.241036e+04   1.219494e+05  -8.522779e+03   3.269808e+09   1.875223e+10   2.366952e+11   1.474305e+05   4.367033e-26   0.000000e+00   0.000000e+00
      944000   9.439990e-07   2.713988e+01   2.705554e+01   9.110408e-03  -8.237562e+04   1.220905e+05  -6.628696e+03   5.416674e+09   1.651282e+10   2.368187e+11   1.474306e+05   4.366890e-26   0.000000e+00   0.000000e+00
      952000   9.519990e-07   2.713922e+01   2.705652e+01   9.064958e-03  -8.232369e+04   1.222136e+05  -4.733788e+03   7.566247e+09   1.427321e+10   2.369017e+11   1.474306e+05   4.366757e-26   0.000000e+00   0.000000e+00
      960000   9.599990e-07   2.713856e+01   2.705750e+01   9.034669e-03  -8.225455e+04   1.223188e+05  -2.838377e+03   9.718177e+09   1.203378e+10   2.369442e+11   1.474306e+05   4.366634e-26   0.000000e+00   0.000000e+00
      968000   9.679990e-07   2.713790e+01   2.705848e+01   9.019544e-03  -8.216819e+04   1.224062e+05  -9.427889e+02   1.187211e+10   9.794900e+09   2.369461e+11   1.474306e+05   4.366521e-26   0.000000e+00   0.000000e+00
      976000   9.759990e-07   2.713725e+01   2.705946e+01   9.019584e-03  -8.206459e+04   1.224756e+05   9.526525e+02   1.402768e+10   7.556952e+09   2.369075e+11   1.474306e+05   4.366420e-26   0.000000e+00   0.000000e+00
      984000   9.839990e-07   2.713659e+01   2.706044e+01   9.034786e-03  -8.194374e+04   1.225271e+05   2.847623e+03   1.618454e+10   5.320300e+09   2.368283e+11   1.474306e+05   4.366330e-26   0.000000e+00   0.000000e+00
      992000   9.919990e-07   2.713594e+01   2.706142e+01   9.065144e-03  -8.180563e+04   1.225607e+05   4.741797e+03   1.834232e+10   3.085313e+09   2.367085e+11   1.474306e+05   4.366253e-26   0.000000e+00   0.000000e+00
     1000000   9.999990e-07   2.713528e+01   2.706240e+01   9.110651e-03  -8.165026e+04   1.225764e+05   6.634851e+03   2.050066e+10   8.523540e+08   2.365482e+11   1.474306e+05   4.366189e-26   0.000000e+00   0.000000e+00
     1008000   1.007999e-06   2.713463e+01   2.706338e+01   9.171298e-03  -8.147762e+04   1.225743e+05   8.526460e+03   2.265918e+10  -1.378213e+09   2.363473e+11   1.474306e+05   4.366139e-26   0.000000e+00   0.000000e+00
     1016000   1.015999e-06   2.713398e+01   2.706436e+01   9.247070e-03  -8.128771e+04   1.225544e+05   1.041630e+04   2.481752e+10  -3.606028e+09   2.361060e+11   1.474306e+05   4.366102e-26   0.000000e+00   0.000000e+00
     1024000   1.023999e-06   2.713333e+01   2.706534e+01   9.337953e-03  -8.108054e+04   1.225166e+05   1.230405e+04   2.697530e+10  -5.830735e+09   2.358241e+11   1.474306e+05   4.366081e-26   0.000000e+00   0.000000e+00
     1032000   1.031999e-06   2.713268e+01   2.706632e+01   9.443928e-03  -8.085611e+04   1.224611e+05   1.418938e+04   2.913214e+10  -8.051978e+09   2.355017e+11   1.474306e+05   4.366074e-26   0.000000e+00   0.000000e+00
     1040000   1.039999e-06   2.713204e+01   2.706730e+01   9.564976e-03  -8.061443e+04   1.223878e+05   1.607197e+04   3.128767e+10  -1.026941e+10   2.351389e+11   1.474306e+05   4.366084e-26   0.000000e+00   0.000000e+00
     1048000   1.047999e-06   2.713139e+01   2.706828e+01   9.701072e-03  -8.035551e+04   1.222968e+05   1.795149e+04   3.344151e+10  -1.248267e+10   2.347357e+11   1.474306e+05   4.366109e-26   0.000000e+00   0.000000e+00
     1056000   1.055999e-06   2.713075e+01   2.706925e+01   9.852190e-03  -8.007937e+04   1.221881e+05   1.982763e+04   3.559327e+10  -1.469142e+10   2.342922e+11   1.474306e+05   4.366152e-26   0.000000e+00   0.000000e+00
     1064000   1.063999e-06   2.713011e+01   2.707023e+01   1.001830e-02  -7.978602e+04   1.220618e+05   2.170006e+04   3.774256e+10  -1.689532e+10   2.338085e+11   1.474306e+05   4.366213e-26   0.000000e+00   0.000000e+00
     1072000   1.071999e-06   2.712947e+01   2.707121e+01   1.019938e-02  -7.947549e+04   1.219178e+05   2.356846e+04   3.988900e+10  -1.909402e+10   2.332845e+11   1.474306e+05   4.366291e-26   0.000000e+00   0.000000e+00
     1080000   1.079999e-06   2.712884e+01   2.707218e+01   1.039539e-02  -7.914780e+04   1.217563e+05   2.543250e+04   4.203220e+10  -2.128719e+10   2.327204e+11   1.474306e+05   4.366389e-26   0.000000e+00   0.000000e+00
     1088000   1.087999e-06   2.712821e+01   2.707316e+01   1.060629e-02  -7.880298e+04   1.215772e+05   2.729188e+04   4.417177e+10  -2.347449e+10   2.321162e+11   1.474306e+05   4.366506e-26   0.000000e+00   0.000000e+00
     1096000   1.095999e-06   2.712758e+01   2.707413e+01   1.083204e-02  -7.844106e+04   1.213807e+05   2.914626e+04   4.630730e+10  -2.565559e+10   2.314721e+11   1.474306e+05   4.366642e-26   0.000000e+00   0.000000e+00
     1104000   1.103999e-06   2.712695e+01   2.707510e+01   1.107261e-02  -7.806207e+04   1.211667e+05   3.099532e+04   4.843842e+10  -2.783016e+10   2.307880e+11   1.474306e+05   4.366800e-26   0.000000e+00   0.000000e+00
     1112000   1.111999e-06   2.712633e+01   2.707607e+01   1.132795e-02  -7.766606e+04   1.209354e+05   3.283876e+04   5.056471e+10  -2.999788e+10   2.300643e+11   1.474306e+05   4.366978e-26   0.000000e+00   0.000000e+00
     1120000   1.119999e-06   2.712571e+01   2.707703e+01   1.159802e-02  -7.725305e+04   1.206868e+05   3.467624e+04   5.268578e+10  -3.215842e+10   2.293008e+11   1.474306e+05   4.367178e-26   0.000000e+00   0.000000e+00
     1128000   1.127999e-06   2.712509e+01   2.707800e+01   1.188276e-02  -7.682310e+04   1.204209e+05   3.650746e+04   5.480122e+10  -3.431146e+10   2.284978e+11   1.474306e+05   4.367400e-26   0.000000e+00   0.000000e+00
     1136000   1.135999e-06   2.712448e+01   2.707896e+01   1.218212e-02  -7.637625e+04   1.201378e+05   3.833210e+04   5.691065e+10  -3.645669e+10   2.276553e+11   1.474306e+05   4.367645e-26   0.000000e+00   0.000000e+00
     1144000   1.143999e-06   2.712387e+01   2.707992e+01   1.249605e-02  -7.591254e+04   1.198376e+05   4.014984e+04   5.901364e+10  -3.859378e+10   2.267735e+11   1.474306e+05   4.367913e-26   0.000000e+00   0.000000e+00
     1152000   1.151999e-06   2.712327e+01   2.708088e+01   1.282450e-02  -7.543204e+04   1.195203e+05   4.196037e+04   6.110981e+10  -4.072244e+10   2.258525e+11   1.474306e+05   4.368206e-26   0.000000e+00   0.000000e+00
     1160000   1.159999e-06   2.712266e+01   2.708183e+01   1.316740e-02  -7.493480e+04   1.191861e+05   4.376338e+04   6.319873e+10  -4.284235e+10   2.248924e+11   1.474306e+05   4.368522e-26   0.000000e+00   0.000000e+00
     1168000   1.167999e-06   2.712207e+01   2.708278e+01   1.352469e-02  -7.442088e+04   1.188349e+05   4.555855e+04   6.528001e+10  -4.495322e+10   2.238935e+11   1.474306e+05   4.368864e-26   0.000000e+00   0.000000e+00
     1176000   1.175999e-06   2.712147e+01   2.708373e+01   1.389631e-02  -7.389034e+04   1.184669e+05   4.734557e+04   6.735323e+10  -4.705472e+10   2.228558e+11   1.474306e+05   4.369231e-26   0.000000e+00   0.000000e+00
     1184000   1.183999e-06   2.712088e+01   2.708468e+01   1.428220e-02  -7.334325e+04   1.180820e+05   4.912413e+04   6.941798e+10  -4.914658e+10   2.217795e+11   1.474306e+05   4.369625e-26   0.000000e+00   0.000000e+00
     1192000   1.191999e-06   2.712030e+01   2.708562e+01   1.468228e-02  -7.277968e+04   1.176805e+05   5.089394e+04   7.147387e+10  -5.122850e+10   2.206648e+11   1.474306e+05   4.370044e-26   0.000000e+00   0.000000e+00
     1200000   1.199999e-06   2.711972e+01   2.708656e+01   1.509648e-02  -7.219969e+04   1.172624e+05   5.265467e+04   7.352047e+10  -5.330017e+10   2.195117e+11   1.474306e+05   4.370491e-26   0.000000e+00   0.000000e+00
     1208000   1.207999e-06   2.711914e+01   2.708750e+01   1.552473e-02  -7.160337e+04   1.168278e+05   5.440602e+04   7.555737e+10  -5.536132e+10   2.183206e+11   1.474306e+05   4.370965e-26   0.000000e+00   0.000000e+00
     1216000   1.215999e-06   2.711857e+01   2.708843e+01   1.596695e-02  -7.099080e+04   1.163767e+05   5.614770e+04   7.758416e+10  -5.741166e+10   2.170916e+11   1.474306e+05   4.371468e-26   0.000000e+00   0.000000e+00
     1224000   1.223999e-06   2.711801e+01   2.708936e+01   1.642306e-02  -7.036205e+04   1.159092e+05   5.787939e+04   7.960043e+10  -5.945091e+10   2.158249e+11   1.474306e+05   4.371998e-26   0.000000e+00   0.000000e+00
     1232000   1.231999e-06   2.711745e+01   2.709029e+01   1.689299e-02  -6.971722e+04   1.154255e+05   5.960079e+04   8.160577e+10  -6.147878e+10   2.145207e+11   1.474306e+05   4.372558e-26   0.000000e+00   0.000000e+00
     1240000   1.239999e-06   2.711689e+01   2.709121e+01   1.737665e-02  -6.905639e+04   1.149256e+05   6.131162e+04   8.359977e+10  -6.349501e+10   2.131791e+11   1.474306e+05   4.373147e-26   0.000000e+00   0.000000e+00
     1248000   1.247999e-06   2.711634e+01   2.709212e+01   1.787395e-02  -6.837965e+04   1.144096e+05   6.301156e+04   8.558200e+10  -6.549931e+10   2.118004e+11   1.474306e+05   4.373766e-26   0.000000e+00   0.000000e+00
     1256000   1.255999e-06   2.711580e+01   2.709304e+01   1.838480e-02  -6.768711e+04   1.138776e+05   6.470032e+04   8.755207e+10  -6.749143e+10   2.103848e+11   1.474306e+05   4.374414e-26   0.000000e+00   0.000000e+00
     1264000   1.263999e-06   2.711526e+01   2.709395e+01   1.890912e-02  -6.697885e+04   1.133297e+05   6.637762e+04   8.950955e+10  -6.947108e+10   2.089325e+11   1.474306e+05   4.375094e-26   0.000000e+00   0.000000e+00
     1272000   1.271999e-06   2.711473e+01   2.709485e+01   1.944681e-02  -6.625499e+04   1.127661e+05   6.804314e+04   9.145404e+10  -7.143802e+10   2.074438e+11   1.474306e+05   4.375804e-26   0.000000e+00   0.000000e+00
     1280000   1.279999e-06   2.711420e+01   2.709575e+01   1.999778e-02  -6.551562e+04   1.121868e+05   6.969662e+04   9.338512e+10  -7.339197e+10   2.059189e+11   1.474306e+05   4.376546e-26   0.000000e+00   0.000000e+00
     1288000   1.287999e-06   2.711368e+01   2.709665e+01   2.056193e-02  -6.476086e+04   1.115919e+05   7.133775e+04   9.530238e+10  -7.533269e+10   2.043579e+11   1.474306e+05   4.377319e-26   0.000000e+00   0.000000e+00
     1296000   1.295999e-06   2.711316e+01   2.709754e+01   2.113915e-02  -6.399082e+04   1.109815e+05   7.296625e+04   9.720541e+10  -7.725992e+10   2.027613e+11   1.474306e+05   4.378125e-26   0.000000e+00   0.000000e+00
     1304000   1.303999e-06   2.711266e+01   2.709842e+01   2.172935e-02  -6.320561e+04   1.103557e+05   7.458183e+04   9.909380e+10  -7.917340e+10   2.011291e+11   1.474306e+05   4.378962e-26   0.000000e+00   0.000000e+00
     1312000   1.311999e-06   2.711215e+01   2.709930e+01   2.233242e-02  -6.240536e+04   1.097147e+05   7.618422e+04   1.009671e+11  -8.107289e+10   1.994618e+11   1.474306e+05   4.379832e-26   0.000000e+00   0.000000e+00
     1320000   1.319999e-06   2.711166e+01   2.710018e+01   2.294826e-02  -6.159017e+04   1.090586e+05   7.777317e+04   1.028280e+11  -8.297653e+10   1.977874e+11   1.474306e+05   4.381876e-26   0.000000e+00   0.000000e+00
     1328000   1.327999e-06   2.711117e+01   2.710105e+01   2.357676e-02  -6.076016e+04   1.083873e+05   7.934855e+04   1.046707e+11  -8.484823e+10   1.960506e+11   1.474306e+05   4.382841e-26   0.000000e+00   0.000000e+00
     1336000   1.335999e-06   2.711068e+01   2.710191e+01   2.421780e-02  -5.991548e+04   1.077010e+05   8.090989e+04   1.064971e+11  -8.670522e+10   1.942794e+11   1.474306e+05   4.383839e-26   0.000000e+00   0.000000e+00
     1344000   1.343999e-06   2.711021e+01   2.710277e+01   2.487128e-02  -5.905625e+04   1.070000e+05   8.245692e+04   1.083068e+11  -8.854729e+10   1.924740e+11   1.474306e+05   4.384871e-26   0.000000e+00   0.000000e+00
     1352000   1.351999e-06   2.710974e+01   2.710362e+01   2.553707e-02  -5.818262e+04   1.062843e+05   8.398938e+04   1.100995e+11  -9.037418e+10   1.906347e+11   1.474306e+05   4.385936e-26   0.000000e+00   0.000000e+00
     1360000   1.359999e-06   2.710928e+01   2.710447e+01   2.621507e-02  -5.729471e+04   1.055541e+05   8.550699e+04   1.118747e+11  -9.218566e+10   1.887618e+11   1.474306e+05   4.387036e-26   0.000000e+00   0.000000e+00
     1368000   1.367999e-06   2.710882e+01   2.710531e+01   2.690515e-02  -5.639267e+04   1.048094e+05   8.700948e+04   1.136320e+11  -9.398152e+10   1.868557e+11   1.474306e+05   4.388170e-26   0.000000e+00   0.000000e+00
     1376000   1.375999e-06   2.710838e+01   2.710615e+01   2.760718e-02  -5.547664e+04   1.040504e+05   8.849659e+04   1.153711e+11  -9.576153e+10   1.849166e+11   1.474306e+05   4.389338e-26   0.000000e+00   0.000000e+00
     1384000   1.383999e-06   2.710794e+01   2.710698e+01   2.832105e-02  -5.454678e+04   1.032773e+05   8.996805e+04   1.170916e+11  -9.752545e+10   1.829448e+11   1.474306e+05   4.390541e-26   0.000000e+00   0.000000e+00
     1392000   1.391999e-06   2.710750e+01   2.710780e+01   2.904663e-02  -5.360323e+04   1.024900e+05   9.142362e+04   1.187929e+11  -9.927308e+10   1.809406e+11   1.474306e+05   4.391778e-26   0.000000e+00   0.000000e+00
     1400000   1.399999e-06   2.710708e+01   2.710862e+01   2.978378e-02  -5.264614e+04   1.016889e+05   9.286302e+04   1.204749e+11  -1.010042e+11   1.789044e+11   1.474306e+05   4.393050e-26   0.000000e+00   0.000000e+00
     1408000   1.407999e-06   2.710666e+01   2.710943e+01   3.053239e-02  -5.167568e+04   1.008740e+05   9.428600e+04   1.221370e+11  -1.027186e+11   1.768365e+11   1.474306e+05   4.394357e-26   0.000000e+00   0.000000e+00
     1416000   1.415999e-06   2.710625e+01   2.711023e+01   3.129232e-02  -5.069200e+04   1.000455e+05   9.569231e+04   1.237789e+11  -1.044160e+11   1.747372e+11   1.474306e+05   4.395698e-26   0.000000e+00   0.000000e+00
     1424000   1.423999e-06   2.710585e+01   2.711103e+01   3.206342e-02  -4.969527e+04   9.920341e+04   9.708171e+04   1.254002e+11  -1.060964e+11   1.726069e+11   1.474306e+05   4.397074e-26   0.000000e+00   0.000000e+00
     1432000   1.431999e-06   2.710546e+01   2.711182e+01   3.284558e-02  -4.868565e+04   9.834797e+04   9.845394e+04   1.270005e+11  -1.077593e+11   1.704459e+11   1.474306e+05   4.398485e-26   0.000000e+00   0.000000e+00
     1440000   1.439999e-06   2.710507e+01   2.711260e+01   3.363864e-02  -4.766332e+04   9.747930e+04   9.980876e+04   1.285795e+11  -1.094047e+11   1.682545e+11   1.474306e+05   4.399930e-26   0.000000e+00   0.000000e+00
     1448000   1.447999e-06   2.710469e+01   2.711338e+01   3.444247e-02  -4.662844e+04   9.659754e+04   1.011459e+05   1.301367e+11  -1.110324e+11   1.660332e+11   1.474306e+05   4.401409e-26   0.000000e+00   0.000000e+00
     1456000   1.455999e-06   2.710432e+01   2.711415e+01   3.525693e-02  -4.558119e+04   9.570283e+04   1.024652e+05   1.316718e+11  -1.126420e+11   1.637822e+11   1.474306e+05   4.402923e-26   0.000000e+00   0.000000e+00
     1464000   1.463999e-06   2.710396e+01   2.711491e+01   3.608187e-02  -4.452175e+04   9.479532e+04   1.037664e+05   1.331845e+11  -1.142336e+11   1.615020e+11   1.474307e+05   4.404472e-26   0.000000e+00   0.000000e+00
     1472000   1.471999e-06   2.710361e+01   2.711566e+01   3.691714e-02  -4.345030e+04   9.387514e+04   1.050492e+05   1.346743e+11  -1.158068e+11   1.591928e+11   1.474307e+05   4.406055e-26   0.000000e+00   0.000000e+00
     1480000   1.479999e-06   2.710327e+01   2.711641e+01   3.776260e-02  -4.236702e+04   9.294246e+04   1.063134e+05   1.361409e+11  -1.173614e+11   1.568552e+11   1.474307e+05   4.407671e-26   0.000000e+00   0.000000e+00
     1488000   1.487999e-06   2.710293e+01   2.711715e+01   3.861810e-02  -4.127210e+04   9.199741e+04   1.075588e+05   1.375840e+11  -1.188974e+11   1.544894e+11   1.474307e+05   4.409322e-26   0.000000e+00   0.000000e+00
     1496000   1.495999e-06   2.710261e+01   2.711788e+01   3.948349e-02  -4.016574e+04   9.104015e+04   1.087851e+05   1.390031e+11  -1.204144e+11   1.520959e+11   1.474307e+05   4.411006e-26   0.000000e+00   0.000000e+00
     1504000   1.503999e-06   2.710229e+01   2.711861e+01   4.035861e-02  -3.904812e+04   9.007083e+04   1.099922e+05   1.403980e+11  -1.219124e+11   1.496750e+11   1.474307e+05   4.412724e-26   0.000000e+00   0.000000e+00
     1512000   1.511999e-06   2.710198e+01   2.711932e+01   4.124332e-02  -3.791943e+04   8.908960e+04   1.111799e+05   1.417683e+11  -1.233911e+11   1.472271e+11   1.474307e+05   4.414475e-26   0.000000e+00   0.000000e+00
     1520000   1.519999e-06   2.710169e+01   2.712003e+01   4.213744e-02  -3.677989e+04   8.809662e+04   1.123478e+05   1.431137e+11  -1.248503e+11   1.447527e+11   1.474307e+05   4.416258e-26   0.000000e+00   0.000000e+00
     1528000   1.527999e-06   2.710140e+01   2.712073e+01   4.304083e-02  -3.562968e+04   8.709205e+04   1.134958e+05   1.444337e+11  -1.262899e+11   1.422522e+11   1.474307e+05   4.418075e-26   0.000000e+00   0.000000e+00
     1536000   1.535999e-06   2.710112e+01   2.712143e+01   4.395332e-02  -3.446901e+04   8.607603e+04   1.146238e+05   1.457281e+11  -1.277097e+11   1.397259e+11   1.474307e+05   4.419923e-26   0.000000e+00   0.000000e+00
     1544000   1.543999e-06   2.710084e+01   2.712211e+01   4.487475e-02  -3.329810e+04   8.504874e+04   1.157314e+05   1.469966e+11  -1.291095e+11   1.371743e+11   1.474307e+05   4.421804e-26   0.000000e+00   0.000000e+00
     1552000   1.551999e-06   2.710058e+01   2.712279e+01   4.580497e-02  -3.211714e+04   8.401033e+04   1.168185e+05   1.482388e+11  -1.304892e+11   1.345978e+11   1.474307e+05   4.423716e-26   0.000000e+00   0.000000e+00
     1560000   1.559999e-06   2.710033e+01   2.712345e+01   4.674379e-02  -3.092635e+04   8.296097e+04   1.178849e+05   1.494545e+11  -1.318486e+11   1.319968e+11   1.474307e+05   4.425660e-26   0.000000e+00   0.000000e+00
     1568000   1.567999e-06   2.710009e+01   2.712411e+01   4.769107e-02  -2.972594e+04   8.190081e+04   1.189304e+05   1.506432e+11  -1.331875e+11   1.293718e+11   1.474307e+05   4.427634e-26   0.000000e+00   0.000000e+00
     1576000   1.575999e-06   2.709985e+01   2.712476e+01   4.864662e-02  -2.851621e+04   8.083031e+04   1.199545e+05   1.517883e+11  -1.344485e+11   1.266813e+11   1.474307e+05   4.427237e-26   0.000000e+00   0.000000e+00
     1584000   1.583999e-06   2.709963e+01   2.712541e+01   4.961028e-02  -2.729735e+04   7.974952e+04   1.209573e+05   1.529212e+11  -1.357443e+11   1.240102e+11   1.474307e+05   4.429229e-26   0.000000e+00   0.000000e+00
     1592000   1.591999e-06   2.709942e+01   2.712604e+01   5.058188e-02  -2.606954e+04   7.865845e+04   1.219386e+05   1.540262e+11  -1.370192e+11   1.213165e+11   1.474307e+05   4.431249e-26   0.000000e+00   0.000000e+00
     1600000   1.599999e-06   2.709921e+01   2.712667e+01   5.156124e-02  -2.483300e+04   7.755727e+04   1.228983e+05   1.551032e+11  -1.382730e+11   1.186006e+11   1.474307e+05   4.433299e-26   0.000000e+00   0.000000e+00
     1608000   1.607999e-06   2.709902e+01   2.712728e+01   5.254820e-02  -2.358797e+04   7.644614e+04   1.238362e+05   1.561517e+11  -1.395055e+11   1.158629e+11   1.474307e+05   4.435378e-26   0.000000e+00   0.000000e+00
     1616000   1.615999e-06   2.709884e+01   2.712789e+01   5.354256e-02  -2.233465e+04   7.532524e+04   1.247521e+05   1.571715e+11  -1.407166e+11   1.131039e+11   1.474307e+05   4.437485e-26   0.000000e+00   0.000000e+00
     1624000   1.623999e-06   2.709866e+01   2.712849e+01   5.454417e-02  -2.107330e+04   7.419473e+04   1.256458e+05   1.581624e+11  -1.419061e+11   1.103240e+11   1.474307e+05   4.439619e-26   0.000000e+00   0.000000e+00
     1632000   1.631999e-06   2.709850e+01   2.712908e+01   5.555284e-02  -1.980413e+04   7.305479e+04   1.265172e+05   1.591240e+11  -1.430740e+11   1.075238e+11   1.474307e+05   4.441781e-26   0.000000e+00   0.000000e+00
     1640000   1.639999e-06   2.709835e+01   2.712966e+01   5.656839e-02  -1.852739e+04   7.190560e+04   1.273661e+05   1.600562e+11  -1.442200e+11   1.047037e+11   1.474307e+05   4.443968e-26   0.000000e+00   0.000000e+00
     1648000   1.647999e-06   2.709820e+01   2.713023e+01   5.759064e-02  -1.724331e+04   7.074733e+04   1.281924e+05   1.609585e+11  -1.453440e+11   1.018642e+11   1.474307e+05   4.446182e-26   0.000000e+00   0.000000e+00
     1656000   1.655999e-06   2.709807e+01   2.713079e+01   5.861940e-02  -1.595213e+04   6.958016e+04   1.289959e+05   1.618309e+11  -1.464458e+11   9.900570e+10   1.474307e+05   4.448421e-26   0.000000e+00   0.000000e+00
     1664000   1.663999e-06   2.709795e+01   2.713134e+01   5.965451e-02  -1.465410e+04   6.840426e+04   1.297764e+05   1.626729e+11  -1.475254e+11   9.612876e+10   1.474307e+05   4.450685e-26   0.000000e+00   0.000000e+00
     1672000   1.671999e-06   2.709784e+01   2.713188e+01   6.069576e-02  -1.334945e+04   6.721981e+04   1.305339e+05   1.634845e+11  -1.485825e+11   9.323383e+10   1.474307e+05   4.452972e-26   0.000000e+00   0.000000e+00
     1680000   1.679999e-06   2.709773e+01   2.713241e+01   6.174299e-02  -1.203843e+04   6.602700e+04   1.312681e+05   1.642653e+11  -1.496171e+11   9.032142e+10   1.474307e+05   4.455284e-26   0.000000e+00   0.000000e+00
     1688000   1.687999e-06   2.709764e+01   2.713294e+01   6.279599e-02  -1.072128e+04   6.482599e+04   1.319790e+05   1.650152e+11  -1.506290e+11   8.739200e+10   1.474307e+05   4.457617e-26   0.000000e+00   0.000000e+00
     1696000   1.695999e-06   2.709756e+01   2.713345e+01   6.385459e-02  -9.398267e+03   6.361699e+04   1.326664e+05   1.657338e+11  -1.516181e+11   8.444609e+10   1.474307e+05   4.459973e-26   0.000000e+00   0.000000e+00
     1704000   1.703999e-06   2.709749e+01   2.713396e+01   6.491859e-02  -8.069626e+03   6.240017e+04   1.333301e+05   1.664211e+11  -1.525842e+11   8.148418e+10   1.474307e+05   4.462351e-26   0.000000e+00   0.000000e+00
     1712000   1.711999e-06   2.709743e+01   2.713445e+01   6.598781e-02  -6.735613e+03   6.117570e+04   1.339701e+05   1.670768e+11  -1.535272e+11   7.850677e+10   1.474307e+05   4.464749e-26   0.000000e+00   0.000000e+00
     1720000   1.719999e-06   2.709739e+01   2.713493e+01   6.706205e-02  -5.396482e+03   5.994379e+04   1.345861e+05   1.677006e+11  -1.544470e+11   7.551437e+10   1.474307e+05   4.467167e-26   0.000000e+00   0.000000e+00
     1728000   1.727999e-06   2.709735e+01   2.713541e+01   6.814112e-02  -4.052488e+03   5.870461e+04   1.351782e+05   1.682924e+11  -1.553434e+11   7.250749e+10   1.474307e+05   4.469605e-26   0.000000e+00   0.000000e+00
     1736000   1.735999e-06   2.709732e+01   2.713587e+01   6.922484e-02  -2.703888e+03   5.745836e+04   1.357462e+05   1.688521e+11  -1.562164e+11   6.948665e+10   1.474307e+05   4.472061e-26   0.000000e+00   0.000000e+00
     1744000   1.743999e-06   2.709730e+01   2.713633e+01   7.031300e-02  -1.350941e+03   5.620521e+04   1.362900e+05   1.693793e+11  -1.570657e+11   6.645236e+10   1.474307e+05   4.474535e-26   0.000000e+00   0.000000e+00
     1752000   1.751999e-06   2.709730e+01   2.713677e+01   7.140541e-02   6.094689e+00   5.494537e+04   1.368094e+05   1.698740e+11  -1.578913e+11   6.340513e+10   1.474307e+05   4.477026e-26   0.000000e+00   0.000000e+00
     1760000   1.759999e-06   2.709730e+01   2.713721e+01   7.250188e-02   1.366957e+03   5.367902e+04   1.373044e+05   1.703360e+11  -1.586931e+11   6.034551e+10   1.474307e+05   4.479534e-26   0.000000e+00   0.000000e+00
     1768000   1.767999e-06   2.709732e+01   2.713763e+01   7.360222e-02   2.731384e+03   5.240634e+04   1.377749e+05   1.707652e+11  -1.594709e+11   5.727400e+10   1.474307e+05   4.482057e-26   0.000000e+00   0.000000e+00
     1776000   1.775999e-06   2.709735e+01   2.713805e+01   7.470622e-02   4.099112e+03   5.112754e+04   1.382208e+05   1.711613e+11  -1.602247e+11   5.419114e+10   1.474307e+05   4.484595e-26   0.000000e+00   0.000000e+00
     1784000   1.783999e-06   2.709739e+01   2.713845e+01   7.581368e-02   5.469876e+03   4.984281e+04   1.386419e+05   1.715242e+11  -1.609542e+11   5.109746e+10   1.474307e+05   4.487148e-26   0.000000e+00   0.000000e+00
     1792000   1.791999e-06   2.709744e+01   2.713884e+01   7.692442e-02   6.843411e+03   4.855234e+04   1.390383e+05   1.718539e+11  -1.616594e+11   4.799349e+10   1.474307e+05   4.489713e-26   0.000000e+00   0.000000e+00
     1800000   1.799999e-06   2.709750e+01   2.713923e+01   7.803823e-02   8.219449e+03   4.725633e+04   1.394098e+05   1.721501e+11  -1.623402e+11   4.487976e+10   1.474307e+05   4.492292e-26   0.000000e+00   0.000000e+00
     1808000   1.807999e-06   2.709757e+01   2.713960e+01   7.915491e-02   9.597723e+03   4.595496e+04   1.397564e+05   1.724127e+11  -1.629964e+11   4.175683e+10   1.474307e+05   4.494882e-26   0.000000e+00   0.000000e+00
     1816000   1.815999e-06   2.709765e+01   2.713996e+01   8.027427e-02   1.097796e+04   4.464845e+04   1.400779e+05   1.726417e+11  -1.636280e+11   3.862522e+10   1.474307e+05   4.497483e-26   0.000000e+00   0.000000e+00
     1824000   1.823999e-06   2.709774e+01   2.714031e+01   8.139609e-02   1.235990e+04   4.333698e+04   1.403743e+05   1.728370e+11  -1.642348e+11   3.548549e+10   1.474307e+05   4.500095e-26   0.000000e+00   0.000000e+00
     1832000   1.831999e-06   2.709785e+01   2.714066e+01   8.252019e-02   1.374326e+04   4.202076e+04   1.406456e+05   1.729984e+11  -1.648168e+11   3.233817e+10   1.474307e+05   4.502716e-26   0.000000e+00   0.000000e+00
     1840000   1.839999e-06   2.709796e+01   2.714099e+01   8.364635e-02   1.512778e+04   4.069998e+04   1.408917e+05   1.731258e+11  -1.653738e+11   2.918381e+10   1.474307e+05   4.505346e-26   0.000000e+00   0.000000e+00
     1848000   1.847999e-06   2.709809e+01   2.714131e+01   8.477439e-02   1.651319e+04   3.937484e+04   1.411126e+05   1.732192e+11  -1.659057e+11   2.602296e+10   1.474307e+05   4.507983e-26   0.000000e+00   0.000000e+00
     1856000   1.855999e-06   2.709823e+01   2.714162e+01   8.590409e-02   1.789920e+04   3.804555e+04   1.413081e+05   1.732785e+11  -1.664124e+11   2.285618e+10   1.474307e+05   4.510628e-26   0.000000e+00   0.000000e+00
     1864000   1.863999e-06   2.709838e+01   2.714192e+01   8.703525e-02   1.928555e+04   3.671231e+04   1.414782e+05   1.733036e+11  -1.668938e+11   1.968402e+10   1.474307e+05   4.513280e-26   0.000000e+00   0.000000e+00
     1872000   1.871999e-06   2.709854e+01   2.714220e+01   8.816767e-02   2.067197e+04   3.537532e+04   1.416230e+05   1.732945e+11  -1.673499e+11   1.650703e+10   1.474307e+05   4.515937e-26   0.000000e+00   0.000000e+00
     1880000   1.879999e-06   2.709871e+01   2.714248e+01   8.930115e-02   2.205817e+04   3.403478e+04   1.417423e+05   1.732512e+11  -1.677805e+11   1.332577e+10   1.474307e+05   4.518598e-26   0.000000e+00   0.000000e+00
     1888000   1.887999e-06   2.709889e+01   2.714275e+01   9.043548e-02   2.344389e+04   3.269090e+04   1.418362e+05   1.731735e+11  -1.681855e+11   1.014080e+10   1.474307e+05   4.521264e-26   0.000000e+00   0.000000e+00
     1896000   1.895999e-06   2.709908e+01   2.714300e+01   9.157046e-02   2.482886e+04   3.134388e+04   1.419046e+05   1.730615e+11  -1.685648e+11   6.952671e+09   1.474307e+05   4.523933e-26   0.000000e+00   0.000000e+00
     1904000   1.903999e-06   2.709929e+01   2.714325e+01   9.270589e-02   2.621279e+04   2.999393e+04   1.419474e+05   1.729151e+11  -1.689184e+11   3.761951e+09   1.474307e+05   4.526605e-26   0.000000e+00   0.000000e+00
     1912000   1.911999e-06   2.709950e+01   2.714348e+01   9.384155e-02   2.759541e+04   2.864126e+04   1.419648e+05   1.727343e+11  -1.692461e+11   5.692008e+08   1.474307e+05   4.529278e-26   0.000000e+00   0.000000e+00
     1920000   1.919999e-06   2.709973e+01   2.714371e+01   9.497725e-02   2.897644e+04   2.728606e+04   1.419565e+05   1.725192e+11  -1.695479e+11  -2.625017e+09   1.474307e+05   4.531953e-26   0.000000e+00   0.000000e+00
     1928000   1.927999e-06   2.709996e+01   2.714392e+01   9.611279e-02   3.035562e+04   2.592856e+04   1.419228e+05   1.722696e+11  -1.698237e+11  -5.820139e+09   1.474307e+05   4.534627e-26   0.000000e+00   0.000000e+00
     1936000   1.935999e-06   2.710021e+01   2.714412e+01   9.724795e-02   3.173310e+04   2.456832e+04   1.418634e+05   1.720495e+11  -1.701666e+11  -9.014988e+09   1.474307e+05   4.541458e-26   0.000000e+00   0.000000e+00
     1944000   1.943999e-06   2.710047e+01   2.714431e+01   9.838254e-02   3.310825e+04   2.320607e+04   1.417785e+05   1.717323e+11  -1.703903e+11  -1.221349e+10   1.474307e+05   4.544171e-26   0.000000e+00   0.000000e+00
     1952000   1.951999e-06   2.710074e+01   2.714449e+01   9.951634e-02   3.448072e+04   2.184214e+04   1.416680e+05   1.713808e+11  -1.705875e+11  -1.541124e+10   1.474307e+05   4.546881e-26   0.000000e+00   0.000000e+00
     1960000   1.959999e-06   2.710102e+01   2.714466e+01   1.006492e-01   3.585031e+04   2.047676e+04   1.415319e+05   1.710095e+11  -1.707539e+11  -1.861205e+10   1.474307e+05   4.549868e-26   0.000000e+00   0.000000e+00
     1968000   1.967999e-06   2.710132e+01   2.714482e+01   1.017808e-01   3.721674e+04   1.911013e+04   1.413702e+05   1.705908e+11  -1.708990e+11  -2.180707e+10   1.474307e+05   4.552631e-26   0.000000e+00   0.000000e+00
     1976000   1.975999e-06   2.710162e+01   2.714497e+01   1.029110e-01   3.857968e+04   1.774245e+04   1.411830e+05   1.701378e+11  -1.710176e+11  -2.499969e+10   1.474308e+05   4.555390e-26   0.000000e+00   0.000000e+00
     1984000   1.983999e-06   2.710193e+01   2.714511e+01   1.040396e-01   3.993885e+04   1.637392e+04   1.409702e+05   1.696506e+11  -1.711095e+11  -2.818933e+10   1.474308e+05   4.558144e-26   0.000000e+00   0.000000e+00
     1992000   1.991999e-06   2.710226e+01   2.714523e+01   1.051665e-01   4.129399e+04   1.500477e+04   1.407320e+05   1.691292e+11  -1.711747e+11  -3.137543e+10   1.474308e+05   4.560892e-26   0.000000e+00   0.000000e+00
     2000000   1.999999e-06   2.710259e+01   2.714535e+01   1.062913e-01   4.264483e+04   1.363520e+04   1.404682e+05   1.685739e+11  -1.712131e+11  -3.455741e+10   1.474308e+05   4.563634e-26   0.000000e+00   0.000000e+00
     2008000   2.007999e-06   2.710294e+01   2.714545e+01   1.074139e-01   4.399108e+04   1.226543e+04   1.401791e+05   1.679845e+11  -1.712247e+11  -3.773471e+10   1.474308e+05   4.566368e-26   0.000000e+00   0.000000e+00
     2016000   2.015999e-06   2.710330e+01   2.714554e+01   1.085341e-01   4.533249e+04   1.089567e+04   1.398645e+05   1.673613e+11  -1.712094e+11  -4.090675e+10   1.474308e+05   4.569094e-26   0.000000e+00   0.000000e+00
     2024000   2.023999e-06   2.710367e+01   2.714562e+01   1.096517e-01   4.666877e+04   9.526150e+03   1.395246e+05   1.667043e+11  -1.711670e+11  -4.407297e+10   1.474308e+05   4.571812e-26   0.000000e+00   0.000000e+00
     2032000   2.031999e-06   2.710404e+01   2.714569e+01   1.107664e-01   4.799967e+04   8.157074e+03   1.391593e+05   1.660136e+11  -1.710976e+11  -4.723278e+10   1.474308e+05   4.574520e-26   0.000000e+00   0.000000e+00
     2040000   2.039999e-06   2.710443e+01   2.714575e+01   1.118781e-01   4.932490e+04   6.788660e+03   1.387689e+05   1.652894e+11  -1.710012e+11  -5.038562e+10   1.474308e+05   4.577218e-26   0.000000e+00   0.000000e+00
     2048000   2.047999e-06   2.710483e+01   2.714580e+01   1.129866e-01   5.064421e+04   5.421128e+03   1.383532e+05   1.645318e+11  -1.708775e+11  -5.353092e+10   1.474308e+05   4.579906e-26   0.000000e+00   0.000000e+00
     2056000   2.055999e-06   2.710524e+01   2.714584e+01   1.140917e-01   5.195732e+04   4.054693e+03   1.379124e+05   1.637409e+11  -1.707267e+11  -5.666811e+10   1.474308e+05   4.582582e-26   0.000000e+00   0.000000e+00
     2064000   2.063999e-06   2.710567e+01   2.714587e+01   1.151932e-01   5.326397e+04   2.689573e+03   1.374465e+05   1.629169e+11  -1.705486e+11  -5.979661e+10   1.474308e+05   4.585246e-26   0.000000e+00   0.000000e+00
     2072000   2.071999e-06   2.710610e+01   2.714588e+01   1.162908e-01   5.456390e+04   1.325989e+03   1.369557e+05   1.620598e+11  -1.703431e+11  -6.291587e+10   1.474308e+05   4.587898e-26   0.000000e+00   0.000000e+00
     2080000   2.079999e-06   2.710654e+01   2.714589e+01   1.173844e-01   5.585684e+04  -3.584357e+01   1.364399e+05   1.611700e+11  -1.701104e+11  -6.602531e+10   1.474308e+05   4.590536e-26   0.000000e+00   0.000000e+00
     2088000   2.087999e-06   2.710699e+01   2.714588e+01   1.184738e-01   5.714253e+04  -1.395704e+03   1.358993e+05   1.602476e+11  -1.698502e+11  -6.912437e+10   1.474308e+05   4.593161e-26   0.000000e+00   0.000000e+00
     2096000   2.095999e-06   2.710745e+01   2.714587e+01   1.195587e-01   5.842072e+04  -2.753373e+03   1.353339e+05   1.592926e+11  -1.695625e+11  -7.221248e+10   1.474308e+05   4.595771e-26   0.000000e+00   0.000000e+00
     2104000   2.103999e-06   2.710793e+01   2.714584e+01   1.206390e-01   5.969113e+04  -4.108631e+03   1.347439e+05   1.583054e+11  -1.692474e+11  -7.528907e+10   1.474308e+05   4.598366e-26   0.000000e+00   0.000000e+00
     2112000   2.111999e-06   2.710841e+01   2.714580e+01   1.217146e-01   6.095352e+04  -5.461258e+03   1.341293e+05   1.572861e+11  -1.689048e+11  -7.835359e+10   1.474308e+05   4.600945e-26   0.000000e+00   0.000000e+00
     2120000   2.119999e-06   2.710890e+01   2.714575e+01   1.227851e-01   6.220762e+04  -6.811034e+03   1.334903e+05   1.562349e+11  -1.685346e+11  -8.140547e+10   1.474308e+05   4.603508e-26   0.000000e+00   0.000000e+00
     2128000   2.127999e-06   2.710940e+01   2.714569e+01   1.238503e-01   6.345319e+04  -8.157738e+03   1.328269e+05   1.551521e+11  -1.681369e+11  -8.444415e+10   1.474308e+05   4.606054e-26   0.000000e+00   0.000000e+00
     2136000   2.135999e-06   2.710992e+01   2.714562e+01   1.249102e-01   6.468997e+04  -9.501150e+03   1.321392e+05   1.540378e+11  -1.677116e+11  -8.746907e+10   1.474308e+05   4.608582e-26   0.000000e+00   0.000000e+00
     2144000   2.143999e-06   2.711044e+01   2.714554e+01   1.259645e-01   6.591771e+04  -1.084105e+04   1.314274e+05   1.528923e+11  -1.672586e+11  -9.047967e+10   1.474308e+05   4.611093e-26   0.000000e+00   0.000000e+00
     2152000   2.151999e-06   2.711097e+01   2.714545e+01   1.270130e-01   6.713616e+04  -1.217721e+04   1.306916e+05   1.517158e+11  -1.667780e+11  -9.347540e+10   1.474308e+05   4.613585e-26   0.000000e+00   0.000000e+00
     2160000   2.159999e-06   2.711151e+01   2.714535e+01   1.280555e-01   6.834508e+04  -1.350942e+04   1.299318e+05   1.505086e+11  -1.662698e+11  -9.645571e+10   1.474308e+05   4.616058e-26   0.000000e+00   0.000000e+00
     2168000   2.167999e-06   2.711206e+01   2.714523e+01   1.290918e-01   6.954422e+04  -1.483746e+04   1.291483e+05   1.492708e+11  -1.657339e+11  -9.942005e+10   1.474308e+05   4.618512e-26   0.000000e+00   0.000000e+00
     2176000   2.175999e-06   2.711262e+01   2.714511e+01   1.301218e-01   7.073333e+04  -1.616109e+04   1.283412e+05   1.480029e+11  -1.651703e+11  -1.023679e+11   1.474308e+05   4.620945e-26   0.000000e+00   0.000000e+00
     2184000   2.183999e-06   2.711320e+01   2.714497e+01   1.311452e-01   7.191218e+04  -1.748011e+04   1.275105e+05   1.467050e+11  -1.645791e+11  -1.052986e+11   1.474308e+05   4.623358e-26   0.000000e+00   0.000000e+00
     2192000   2.191999e-06   2.711378e+01   2.714483e+01   1.321619e-01   7.308053e+04  -1.879428e+04   1.266564e+05   1.453774e+11  -1.639602e+11  -1.082117e+11   1.474308e+05   4.625749e-26   0.000000e+00   0.000000e+00
     2200000   2.199999e-06   2.711436e+01   2.714467e+01   1.331717e-01   7.423814e+04  -2.010340e+04   1.257791e+05   1.440204e+11  -1.633136e+11  -1.111067e+11   1.474308e+05   4.628119e-26   0.000000e+00   0.000000e+00
     2208000   2.207999e-06   2.711496e+01   2.714451e+01   1.341743e-01   7.538478e+04  -2.140723e+04   1.248788e+05   1.426343e+11  -1.626394e+11  -1.139829e+11   1.474308e+05   4.630467e-26   0.000000e+00   0.000000e+00
     2216000   2.215999e-06   2.711557e+01   2.714433e+01   1.351697e-01   7.652021e+04  -2.270555e+04   1.239555e+05   1.412193e+11  -1.619375e+11  -1.168400e+11   1.474308e+05   4.632793e-26   0.000000e+00   0.000000e+00
     2224000   2.223999e-06   2.711619e+01   2.714414e+01   1.361575e-01   7.764421e+04  -2.399815e+04   1.230094e+05   1.397759e+11  -1.612080e+11  -1.196772e+11   1.474308e+05   4.635095e-26   0.000000e+00   0.000000e+00
     2232000   2.231999e-06   2.711681e+01   2.714395e+01   1.371378e-01   7.875655e+04  -2.528481e+04   1.220407e+05   1.383043e+11  -1.604509e+11  -1.224942e+11   1.474308e+05   4.637374e-26   0.000000e+00   0.000000e+00
     2240000   2.239999e-06   2.711745e+01   2.714374e+01   1.381101e-01   7.985700e+04  -2.656529e+04   1.210495e+05   1.368048e+11  -1.596662e+11  -1.252904e+11   1.474308e+05   4.639629e-26   0.000000e+00   0.000000e+00
     2248000   2.247999e-06   2.711809e+01   2.714352e+01   1.390745e-01   8.094535e+04  -2.783939e+04   1.200361e+05   1.352777e+11  -1.588539e+11  -1.280651e+11   1.474308e+05   4.641860e-26   0.000000e+00   0.000000e+00
     2256000   2.255999e-06   2.711874e+01   2.714329e+01   1.400307e-01   8.202137e+04  -2.910688e+04   1.190005e+05   1.337234e+11  -1.580141e+11  -1.308181e+11   1.474308e+05   4.644066e-26   0.000000e+00   0.000000e+00
     2264000   2.263999e-06   2.711940e+01   2.714306e+01   1.409784e-01   8.308485e+04  -3.036754e+04   1.179431e+05   1.321423e+11  -1.571469e+11  -1.335486e+11   1.474308e+05   4.646247e-26   0.000000e+00   0.000000e+00
     2272000   2.271999e-06   2.712007e+01   2.714281e+01   1.419177e-01   8.413557e+04  -3.162116e+04   1.168638e+05   1.305346e+11  -1.562522e+11  -1.362562e+11   1.474308e+05   4.648402e-26   0.000000e+00   0.000000e+00
     2280000   2.279999e-06   2.712075e+01   2.714255e+01   1.428482e-01   8.517333e+04  -3.286750e+04   1.157630e+05   1.289008e+11  -1.553300e+11  -1.389404e+11   1.474308e+05   4.650531e-26   0.000000e+00   0.000000e+00
     2288000   2.287999e-06   2.712143e+01   2.714228e+01   1.437698e-01   8.619792e+04  -3.410636e+04   1.146408e+05   1.272411e+11  -1.543806e+11  -1.416007e+11   1.474308e+05   4.652634e-26   0.000000e+00   0.000000e+00
     2296000   2.295999e-06   2.712213e+01   2.714200e+01   1.446824e-01   8.720912e+04  -3.533752e+04   1.134975e+05   1.255560e+11  -1.534038e+11  -1.442365e+11   1.474308e+05   4.654711e-26   0.000000e+00   0.000000e+00
     2304000   2.303999e-06   2.712283e+01   2.714172e+01   1.455857e-01   8.820674e+04  -3.656075e+04   1.123331e+05   1.238459e+11  -1.523998e+11  -1.468475e+11   1.474308e+05   4.656760e-26   0.000000e+00   0.000000e+00
     2312000   2.311999e-06   2.712354e+01   2.714142e+01   1.464797e-01   8.919059e+04  -3.777584e+04   1.111480e+05   1.221110e+11  -1.513687e+11  -1.494330e+11   1.474308e+05   4.658781e-26   0.000000e+00   0.000000e+00
     2320000   2.319999e-06   2.712426e+01   2.714111e+01   1.473641e-01   9.016045e+04  -3.898258e+04   1.099422e+05   1.203519e+11  -1.503104e+11  -1.519926e+11   1.474308e+05   4.660775e-26   0.000000e+00   0.000000e+00
     2328000   2.327999e-06   2.712498e+01   2.714080e+01   1.482387e-01   9.111615e+04  -4.018074e+04   1.087162e+05   1.185688e+11  -1.492251e+11  -1.545258e+11   1.474308e+05   4.662741e-26   0.000000e+00   0.000000e+00
     2336000   2.335999e-06   2.712571e+01   2.714047e+01   1.491035e-01   9.205749e+04  -4.137011e+04   1.074699e+05   1.167622e+11  -1.481129e+11  -1.570321e+11   1.474308e+05   4.664678e-26   0.000000e+00   0.000000e+00
     2344000   2.343999e-06   2.712646e+01   2.714013e+01   1.499582e-01   9.298428e+04  -4.255047e+04   1.062037e+05   1.149325e+11  -1.469739e+11  -1.595110e+11   1.474308e+05   4.666587e-26   0.000000e+00   0.000000e+00
     2352000   2.351999e-06   2.712720e+01   2.713979e+01   1.508027e-01   9.389635e+04  -4.372162e+04   1.049178e+05   1.130801e+11  -1.458081e+11  -1.619621e+11   1.474308e+05   4.668466e-26   0.000000e+00   0.000000e+00
     2360000   2.359999e-06   2.712796e+01   2.713943e+01   1.516368e-01   9.479350e+04  -4.488333e+04   1.036124e+05   1.112054e+11  -1.446156e+11  -1.643849e+11   1.474308e+05   4.670316e-26   0.000000e+00   0.000000e+00
     2368000   2.367999e-06   2.712872e+01   2.713907e+01   1.524604e-01   9.567557e+04  -4.603539e+04   1.022877e+05   1.093088e+11  -1.433965e+11  -1.667790e+11   1.474308e+05   4.672136e-26   0.000000e+00   0.000000e+00
     2376000   2.375999e-06   2.712949e+01   2.713870e+01   1.532734e-01   9.654239e+04  -4.717760e+04   1.009440e+05   1.073909e+11  -1.421510e+11  -1.691438e+11   1.474308e+05   4.673927e-26   0.000000e+00   0.000000e+00
     2384000   2.383999e-06   2.713026e+01   2.713832e+01   1.540755e-01   9.739377e+04  -4.830974e+04   9.958149e+04   1.054518e+11  -1.408792e+11  -1.714789e+11   1.474308e+05   4.675687e-26   0.000000e+00   0.000000e+00
     2392000   2.391999e-06   2.713105e+01   2.713792e+01   1.548666e-01   9.822956e+04  -4.943160e+04   9.820042e+04   1.034923e+11  -1.395811e+11  -1.737839e+11   1.474308e+05   4.677416e-26   0.000000e+00   0.000000e+00
     2400000   2.399999e-06   2.713184e+01   2.713752e+01   1.556466e-01   9.904959e+04  -5.054296e+04   9.680103e+04   1.015125e+11  -1.382569e+11  -1.760584e+11   1.474308e+05   4.679115e-26   0.000000e+00   0.000000e+00
     2408000   2.407999e-06   2.713263e+01   2.713712e+01   1.564154e-01   9.985370e+04  -5.164364e+04   9.538357e+04   9.951313e+10  -1.369068e+11  -1.783018e+11   1.474308e+05   4.680783e-26   0.000000e+00   0.000000e+00
     2416000   2.415999e-06   2.713343e+01   2.713670e+01   1.571727e-01   1.006417e+05  -5.273340e+04   9.394828e+04   9.749448e+10  -1.355308e+11  -1.805137e+11   1.474308e+05   4.682419e-26   0.000000e+00   0.000000e+00
     2424000   2.423999e-06   2.713424e+01   2.713627e+01   1.579185e-01   1.014136e+05  -5.381206e+04   9.249543e+04   9.545703e+10  -1.341291e+11  -1.826938e+11   1.474308e+05   4.684024e-26   0.000000e+00   0.000000e+00
     2432000   2.431999e-06   2.713506e+01   2.713584e+01   1.586526e-01   1.021690e+05  -5.487940e+04   9.102527e+04   9.340126e+10  -1.327019e+11  -1.848416e+11   1.474308e+05   4.685598e-26   0.000000e+00   0.000000e+00
     2440000   2.439999e-06   2.713588e+01   2.713539e+01   1.593749e-01   1.029079e+05  -5.593522e+04   8.953805e+04   9.132762e+10  -1.312493e+11  -1.869567e+11   1.474308e+05   4.687139e-26   0.000000e+00   0.000000e+00
     2448000   2.447999e-06   2.713670e+01   2.713494e+01   1.600852e-01   1.036302e+05  -5.697932e+04   8.803405e+04   8.923658e+10  -1.297715e+11  -1.890386e+11   1.474308e+05   4.688648e-26   0.000000e+00   0.000000e+00
     2456000   2.455999e-06   2.713753e+01   2.713448e+01   1.607834e-01   1.043357e+05  -5.801150e+04   8.651352e+04   8.712861e+10  -1.282686e+11  -1.910870e+11   1.474308e+05   4.690126e-26   0.000000e+00   0.000000e+00
     2464000   2.463999e-06   2.713837e+01   2.713401e+01   1.614693e-01   1.050242e+05  -5.903155e+04   8.497674e+04   8.500417e+10  -1.267407e+11  -1.931015e+11   1.474309e+05   4.691570e-26   0.000000e+00   0.000000e+00
     2472000   2.471999e-06   2.713921e+01   2.713354e+01   1.621429e-01   1.056957e+05  -6.003928e+04   8.342398e+04   8.286376e+10  -1.251882e+11  -1.950817e+11   1.474309e+05   4.692982e-26   0.000000e+00   0.000000e+00
     2480000   2.479999e-06   2.714006e+01   2.713305e+01   1.628041e-01   1.063500e+05  -6.103449e+04   8.185552e+04   8.070784e+10  -1.236111e+11  -1.970271e+11   1.474309e+05   4.694361e-26   0.000000e+00   0.000000e+00
     2488000   2.487999e-06   2.714092e+01   2.713256e+01   1.634526e-01   1.069870e+05  -6.201699e+04   8.027164e+04   7.853690e+10  -1.220097e+11  -1.989375e+11   1.474309e+05   4.695708e-26   0.000000e+00   0.000000e+00
     2496000   2.495999e-06   2.714177e+01   2.713206e+01   1.640884e-01   1.076065e+05  -6.298658e+04   7.867262e+04   7.635142e+10  -1.203841e+11  -2.008124e+11   1.474309e+05   4.697021e-26   0.000000e+00   0.000000e+00
     2504000   2.503999e-06   2.714264e+01   2.713155e+01   1.647113e-01   1.082086e+05  -6.394307e+04   7.705874e+04   7.415190e+10  -1.187346e+11  -2.026515e+11   1.474309e+05   4.698301e-26   0.000000e+00   0.000000e+00
     2512000   2.511999e-06   2.714351e+01   2.713104e+01   1.653213e-01   1.087929e+05  -6.488627e+04   7.543029e+04   7.193883e+10  -1.170613e+11  -2.044543e+11   1.474309e+05   4.699548e-26   0.000000e+00   0.000000e+00
     2520000   2.519999e-06   2.714438e+01   2.713052e+01   1.659182e-01   1.093595e+05  -6.581599e+04   7.378756e+04   6.971270e+10  -1.153645e+11  -2.062207e+11   1.474309e+05   4.700762e-26   0.000000e+00   0.000000e+00
     2528000   2.527999e-06   2.714526e+01   2.712999e+01   1.665018e-01   1.099083e+05  -6.673204e+04   7.213085e+04   6.747400e+10  -1.136444e+11  -2.079501e+11   1.474309e+05   4.701942e-26   0.000000e+00   0.000000e+00
     2536000   2.535999e-06   2.714614e+01   2.712945e+01   1.670722e-01   1.104391e+05  -6.763424e+04   7.046046e+04   6.522324e+10  -1.119012e+11  -2.096423e+11   1.474309e+05   4.703088e-26   0.000000e+00   0.000000e+00
     2544000   2.543999e-06   2.714702e+01   2.712890e+01   1.676292e-01   1.109518e+05  -6.852240e+04   6.877668e+04   6.296091e+10  -1.101352e+11  -2.112969e+11   1.474309e+05   4.704201e-26   0.000000e+00   0.000000e+00
     2552000   2.551999e-06   2.714791e+01   2.712835e+01   1.681726e-01   1.114464e+05  -6.939634e+04   6.707981e+04   6.068753e+10  -1.083466e+11  -2.129136e+11   1.474309e+05   4.705281e-26   0.000000e+00   0.000000e+00
     2560000   2.559999e-06   2.714881e+01   2.712779e+01   1.687024e-01   1.119228e+05  -7.025588e+04   6.537016e+04   5.840358e+10  -1.065355e+11  -2.144921e+11   1.474309e+05   4.706327e-26   0.000000e+00   0.000000e+00
     2568000   2.567999e-06   2.714970e+01   2.712723e+01   1.692185e-01   1.123809e+05  -7.110085e+04   6.364804e+04   5.610958e+10  -1.047024e+11  -2.160320e+11   1.474309e+05   4.707339e-26   0.000000e+00   0.000000e+00
     2576000   2.575999e-06   2.715060e+01   2.712666e+01   1.697208e-01   1.128205e+05  -7.193106e+04   6.191375e+04   5.380604e+10  -1.028474e+11  -2.175331e+11   1.474309e+05   4.708317e-26   0.000000e+00   0.000000e+00
     2584000   2.583999e-06   2.715151e+01   2.712608e+01   1.702091e-01   1.132417e+05  -7.274635e+04   6.016761e+04   5.149346e+10  -1.009709e+11  -2.189951e+11   1.474309e+05   4.709262e-26   0.000000e+00   0.000000e+00
     2592000   2.591999e-06   2.715242e+01   2.712549e+01   1.706834e-01   1.136444e+05  -7.354654e+04   5.840993e+04   4.917235e+10  -9.907301e+10  -2.204176e+11   1.474309e+05   4.710173e-26   0.000000e+00   0.000000e+00
     2600000   2.599999e-06   2.715333e+01   2.712490e+01   1.711436e-01   1.140285e+05  -7.433146e+04   5.664103e+04   4.684322e+10  -9.715410e+10  -2.218004e+11   1.474309e+05   4.711051e-26   0.000000e+00   0.000000e+00
     2608000   2.607999e-06   2.715424e+01   2.712430e+01   1.715896e-01   1.143939e+05  -7.510094e+04   5.486123e+04   4.450658e+10  -9.521443e+10  -2.231432e+11   1.474309e+05   4.711895e-26   0.000000e+00   0.000000e+00
     2616000   2.615999e-06   2.715516e+01   2.712370e+01   1.720214e-01   1.147406e+05  -7.585483e+04   5.307085e+04   4.216294e+10  -9.325431e+10  -2.244458e+11   1.474309e+05   4.712705e-26   0.000000e+00   0.000000e+00
     2624000   2.623999e-06   2.715608e+01   2.712309e+01   1.724387e-01   1.150685e+05  -7.659296e+04   5.127020e+04   3.981282e+10  -9.127402e+10  -2.257078e+11   1.474309e+05   4.713482e-26   0.000000e+00   0.000000e+00
     2632000   2.631999e-06   2.715700e+01   2.712247e+01   1.728417e-01   1.153775e+05  -7.731516e+04   4.945963e+04   3.745672e+10  -8.927387e+10  -2.269291e+11   1.474309e+05   4.714226e-26   0.000000e+00   0.000000e+00
     2640000   2.639999e-06   2.715792e+01   2.712185e+01   1.732301e-01   1.156678e+05  -7.802128e+04   4.763945e+04   3.509516e+10  -8.725417e+10  -2.281093e+11   1.474309e+05   4.714936e-26   0.000000e+00   0.000000e+00
     2648000   2.647999e-06   2.715885e+01   2.712122e+01   1.736039e-01   1.159390e+05  -7.871117e+04   4.580999e+04   3.272864e+10  -8.521524e+10  -2.292482e+11   1.474309e+05   4.715614e-26   0.000000e+00   0.000000e+00
     2656000   2.655999e-06   2.715978e+01   2.712059e+01   1.739630e-01   1.161914e+05  -7.938468e+04   4.397159e+04   3.035769e+10  -8.315739e+10  -2.303457e+11   1.474309e+05   4.716258e-26   0.000000e+00   0.000000e+00
     2664000   2.663999e-06   2.716071e+01   2.711995e+01   1.743074e-01   1.164248e+05  -8.004164e+04   4.212457e+04   2.798281e+10  -8.108096e+10  -2.314014e+11   1.474309e+05   4.716870e-26   0.000000e+00   0.000000e+00
     2672000   2.671999e-06   2.716164e+01   2.711931e+01   1.746370e-01   1.166391e+05  -8.068192e+04   4.026927e+04   2.560450e+10  -7.898628e+10  -2.324152e+11   1.474309e+05   4.717449e-26   0.000000e+00   0.000000e+00
     2680000   2.679999e-06   2.716257e+01   2.711866e+01   1.749517e-01   1.168344e+05  -8.130537e+04   3.840604e+04   2.322328e+10  -7.687370e+10  -2.333868e+11   1.474309e+05   4.717995e-26   0.000000e+00   0.000000e+00
     2688000   2.687999e-06   2.716351e+01   2.711801e+01   1.752515e-01   1.170107e+05  -8.191185e+04   3.653520e+04   2.083967e+10  -7.474355e+10  -2.343161e+11   1.474309e+05   4.718509e-26   0.000000e+00   0.000000e+00
     2696000   2.695999e-06   2.716445e+01   2.711735e+01   1.755362e-01   1.171678e+05  -8.250122e+04   3.465709e+04   1.845415e+10  -7.259620e+10  -2.352029e+11   1.474309e+05   4.718991e-26   0.000000e+00   0.000000e+00
     2704000   2.703999e-06   2.716538e+01   2.711669e+01   1.758059e-01   1.173059e+05  -8.307334e+04   3.277207e+04   1.606724e+10  -7.043201e+10  -2.360469e+11   1.474309e+05   4.719442e-26   0.000000e+00   0.000000e+00
     2712000   2.711999e-06   2.716632e+01   2.711602e+01   1.760606e-01   1.174249e+05  -8.362809e+04   3.088046e+04   1.367945e+10  -6.825133e+10  -2.368480e+11   1.474309e+05   4.719860e-26   0.000000e+00   0.000000e+00
     2720000   2.719999e-06   2.716726e+01   2.711535e+01   1.763000e-01   1.175248e+05  -8.416532e+04   2.898261e+04   1.129128e+10  -6.605454e+10  -2.376061e+11   1.474309e+05   4.720248e-26   0.000000e+00   0.000000e+00
     2728000   2.727999e-06   2.716820e+01   2.711468e+01   1.765243e-01   1.176056e+05  -8.468491e+04   2.707887e+04   8.903220e+09  -6.384202e+10  -2.383210e+11   1.474309e+05   4.720604e-26   0.000000e+00   0.000000e+00
     2736000   2.735999e-06   2.716914e+01   2.711400e+01   1.767333e-01   1.176673e+05  -8.518675e+04   2.516959e+04   6.515780e+09  -6.161416e+10  -2.389925e+11   1.474309e+05   4.720929e-26   0.000000e+00   0.000000e+00
     2744000   2.743999e-06   2.717009e+01   2.711331e+01   1.769270e-01   1.177098e+05  -8.567070e+04   2.325511e+04   4.129454e+09  -5.937133e+10  -2.396205e+11   1.474309e+05   4.721224e-26   0.000000e+00   0.000000e+00
     2752000   2.751999e-06   2.717103e+01   2.711263e+01   1.771053e-01   1.177333e+05  -8.613665e+04   2.133578e+04   1.744738e+09  -5.711394e+10  -2.402048e+11   1.474309e+05   4.721489e-26   0.000000e+00   0.000000e+00
     2760000   2.759999e-06   2.717197e+01   2.711194e+01   1.772683e-01   1.177377e+05  -8.658448e+04   1.941195e+04  -6.378772e+08  -5.484239e+10  -2.407454e+11   1.474309e+05   4.721724e-26   0.000000e+00   0.000000e+00
     2768000   2.767999e-06   2.717291e+01   2.711124e+01   1.774159e-01   1.177231e+05  -8.701409e+04   1.748397e+04  -3.017900e+09  -5.255707e+10  -2.412420e+11   1.474309e+05   4.721929e-26   0.000000e+00   0.000000e+00
     2776000   2.775999e-06   2.717385e+01   2.711054e+01   1.775481e-01   1.176895e+05  -8.742536e+04   1.555219e+04  -5.394843e+09  -5.025842e+10  -2.416947e+11   1.474309e+05   4.722106e-26   0.000000e+00   0.000000e+00
     2784000   2.783999e-06   2.717479e+01   2.710984e+01   1.776647e-01   1.176368e+05  -8.781819e+04   1.361697e+04  -7.768223e+09  -4.794683e+10  -2.421033e+11   1.474309e+05   4.722253e-26   0.000000e+00   0.000000e+00
     2792000   2.791999e-06   2.717573e+01   2.710914e+01   1.777659e-01   1.175652e+05  -8.819247e+04   1.167866e+04  -1.013756e+10  -4.562274e+10  -2.424677e+11   1.474309e+05   4.722373e-26   0.000000e+00   0.000000e+00
     2800000   2.799999e-06   2.717667e+01   2.710843e+01   1.778516e-01   1.174746e+05  -8.854811e+04   9.737606e+03  -1.250236e+10  -4.328656e+10  -2.427878e+11   1.474309e+05   4.722464e-26   0.000000e+00   0.000000e+00
     2808000   2.807999e-06   2.717761e+01   2.710772e+01   1.779217e-01   1.173652e+05  -8.888502e+04   7.794171e+03  -1.486217e+10  -4.093874e+10  -2.430636e+11   1.474309e+05   4.722527e-26   0.000000e+00   0.000000e+00
     2816000   2.815999e-06   2.717855e+01   2.710701e+01   1.779763e-01   1.172368e+05  -8.920310e+04   5.848707e+03  -1.721650e+10  -3.857972e+10  -2.432950e+11   1.474309e+05   4.722564e-26   0.000000e+00   0.000000e+00
     2824000   2.823999e-06   2.717949e+01   2.710630e+01   1.780153e-01   1.170897e+05  -8.950227e+04   3.901569e+03  -1.956490e+10  -3.620993e+10  -2.434819e+11   1.474309e+05   4.722574e-26   0.000000e+00   0.000000e+00
     2832000   2.831999e-06   2.718043e+01   2.710558e+01   1.780387e-01   1.169238e+05  -8.978243e+04   1.953115e+03  -2.190688e+10  -3.382982e+10  -2.436243e+11   1.474309e+05   4.722558e-26   0.000000e+00   0.000000e+00
     2840000   2.839999e-06   2.718136e+01   2.710486e+01   1.780465e-01   1.167392e+05  -9.004352e+04   3.698952e+00  -2.424200e+10  -3.143984e+10  -2.437222e+11   1.474309e+05   4.722516e-26   0.000000e+00   0.000000e+00
     2848000   2.847999e-06   2.718229e+01   2.710414e+01   1.780388e-01   1.165360e+05  -9.028544e+04  -1.946321e+03  -2.656978e+10  -2.904046e+10  -2.437754e+11   1.474309e+05   4.722449e-26   0.000000e+00   0.000000e+00
     2856000   2.855999e-06   2.718322e+01   2.710341e+01   1.780154e-01   1.163141e+05  -9.050814e+04  -3.896589e+03  -2.888979e+10  -2.663213e+10  -2.437841e+11   1.474309e+05   4.722357e-26   0.000000e+00   0.000000e+00
     2864000   2.863999e-06   2.718415e+01   2.710269e+01   1.779764e-01   1.160737e+05  -9.071153e+04  -5.846748e+03  -3.120156e+10  -2.421533e+10  -2.437481e+11   1.474309e+05   4.722241e-26   0.000000e+00   0.000000e+00
     2872000   2.871999e-06   2.718508e+01   2.710196e+01   1.779219e-01   1.158149e+05  -9.089556e+04  -7.796440e+03  -3.350466e+10  -2.179051e+10  -2.436676e+11   1.474309e+05   4.722101e-26   0.000000e+00   0.000000e+00
     2880000   2.879999e-06   2.718601e+01   2.710124e+01   1.778517e-01   1.155377e+05  -9.106016e+04  -9.745309e+03  -3.579864e+10  -1.935816e+10  -2.435424e+11   1.474309e+05   4.721938e-26   0.000000e+00   0.000000e+00
     2888000   2.887999e-06   2.718693e+01   2.710051e+01   1.777659e-01   1.152422e+05  -9.120527e+04  -1.169300e+04  -3.808306e+10  -1.691876e+10  -2.433725e+11   1.474309e+05   4.721752e-26   0.000000e+00   0.000000e+00
     2896000   2.895999e-06   2.718785e+01   2.709978e+01   1.776646e-01   1.149284e+05  -9.133100e+04  -1.363759e+04  -4.033362e+10  -1.454209e+10  -2.425207e+11   1.474309e+05   4.697572e-26   0.000000e+00   0.000000e+00
     2904000   2.903999e-06   2.718877e+01   2.709904e+01   1.775477e-01   1.145968e+05  -9.143758e+04  -1.557675e+04  -4.258589e+10  -1.210215e+10  -2.422632e+11   1.474309e+05   4.697336e-26   0.000000e+00   0.000000e+00
     2912000   2.911999e-06   2.718968e+01   2.709831e+01   1.774154e-01   1.142471e+05  -9.152462e+04  -1.751368e+04  -4.482737e+10  -9.656599e+09  -2.419617e+11   1.474309e+05   4.697082e-26   0.000000e+00   0.000000e+00
     2920000   2.919999e-06   2.719060e+01   2.709758e+01   1.772675e-01   1.138795e+05  -9.159207e+04  -1.944802e+04  -4.705764e+10  -7.205937e+09  -2.416161e+11   1.474309e+05   4.696810e-26   0.000000e+00   0.000000e+00
     2928000   2.927999e-06   2.719151e+01   2.709685e+01   1.771042e-01   1.134942e+05  -9.163990e+04  -2.137942e+04  -4.927629e+10  -4.750651e+09  -2.412266e+11   1.474309e+05   4.696523e-26   0.000000e+00   0.000000e+00
     2936000   2.935999e-06   2.719241e+01   2.709611e+01   1.769255e-01   1.130912e+05  -9.166807e+04  -2.330753e+04  -5.148294e+10  -2.291233e+09  -2.407931e+11   1.474309e+05   4.696219e-26   0.000000e+00   0.000000e+00
     2944000   2.943999e-06   2.719332e+01   2.709538e+01   1.767313e-01   1.126705e+05  -9.167655e+04  -2.523199e+04  -5.367718e+10   1.718198e+08  -2.403158e+11   1.474309e+05   4.695900e-26   0.000000e+00   0.000000e+00
     2952000   2.951999e-06   2.719422e+01   2.709465e+01   1.765218e-01   1.122323e+05  -9.166531e+04  -2.715246e+04  -5.585861e+10   2.638008e+09  -2.397947e+11   1.474310e+05   4.695567e-26   0.000000e+00   0.000000e+00
     2960000   2.959999e-06   2.719511e+01   2.709391e+01   1.762969e-01   1.117768e+05  -9.163433e+04  -2.906859e+04  -5.802685e+10   5.106829e+09  -2.392299e+11   1.474310e+05   4.695219e-26   0.000000e+00   0.000000e+00
     2968000   2.967999e-06   2.719600e+01   2.709318e+01   1.760567e-01   1.113040e+05  -9.158359e+04  -3.098003e+04  -6.018153e+10   7.577777e+09  -2.386216e+11   1.474310e+05   4.694858e-26   0.000000e+00   0.000000e+00
     2976000   2.975999e-06   2.719689e+01   2.709245e+01   1.758012e-01   1.108139e+05  -9.151308e+04  -3.288642e+04  -6.232226e+10   1.005035e+10  -2.379697e+11   1.474310e+05   4.694484e-26   0.000000e+00   0.000000e+00
     2984000   2.983999e-06   2.719778e+01   2.709172e+01   1.755305e-01   1.103068e+05  -9.142278e+04  -3.478743e+04  -6.444867e+10   1.252402e+10  -2.372745e+11   1.474310e+05   4.694098e-26   0.000000e+00   0.000000e+00
     2992000   2.991999e-06   2.719866e+01   2.709099e+01   1.752446e-01   1.097828e+05  -9.131269e+04  -3.668270e+04  -6.656039e+10   1.499830e+10  -2.365361e+11   1.474310e+05   4.693701e-26   0.000000e+00   0.000000e+00
     3000000   2.999999e-06   2.719953e+01   2.709026e+01   1.749436e-01   1.092419e+05  -9.118280e+04  -3.857189e+04  -6.865708e+10   1.747265e+10  -2.357545e+11   1.474310e+05   4.693292e-26   0.000000e+00   0.000000e+00
     3008000   3.007999e-06   2.720041e+01   2.708953e+01   1.746275e-01   1.086840e+05  -9.103253e+04  -4.045687e+04  -7.082901e+10   2.010827e+10  -2.355236e+11   1.474310e+05   4.715998e-26   0.000000e+00   0.000000e+00
     3016000   3.015999e-06   2.720127e+01   2.708880e+01   1.742963e-01   1.081090e+05  -9.086173e+04  -4.233759e+04  -7.290477e+10   2.259248e+10  -2.346500e+11   1.474310e+05   4.715511e-26   0.000000e+00   0.000000e+00
     3024000   3.023999e-06   2.720214e+01   2.708807e+01   1.739501e-01   1.075175e+05  -9.067105e+04  -4.421116e+04  -7.496430e+10   2.507509e+10  -2.337334e+11   1.474310e+05   4.715011e-26   0.000000e+00   0.000000e+00
     3032000   3.031999e-06   2.720299e+01   2.708735e+01   1.735890e-01   1.069097e+05  -9.046053e+04  -4.607721e+04  -7.700726e+10   2.755557e+10  -2.327739e+11   1.474310e+05   4.714501e-26   0.000000e+00   0.000000e+00
     3040000   3.039999e-06   2.720385e+01   2.708663e+01   1.732129e-01   1.062855e+05  -9.023017e+04  -4.793542e+04  -7.903331e+10   3.003339e+10  -2.317717e+11   1.474310e+05   4.713979e-26   0.000000e+00   0.000000e+00
     3048000   3.047999e-06   2.720469e+01   2.708591e+01   1.728220e-01   1.056452e+05  -8.998000e+04  -4.978544e+04  -8.104213e+10   3.250803e+10  -2.307269e+11   1.474310e+05   4.713448e-26   0.000000e+00   0.000000e+00
     3056000   3.055999e-06   2.720554e+01   2.708519e+01   1.724164e-01   1.049888e+05  -8.971005e+04  -5.162694e+04  -8.303338e+10   3.497894e+10  -2.296398e+11   1.474310e+05   4.712907e-26   0.000000e+00   0.000000e+00
     3064000   3.063999e-06   2.720637e+01   2.708447e+01   1.719960e-01   1.043167e+05  -8.942035e+04  -5.345957e+04  -8.500674e+10   3.744560e+10  -2.285106e+11   1.474310e+05   4.712357e-26   0.000000e+00   0.000000e+00
     3072000   3.071999e-06   2.720720e+01   2.708376e+01   1.715610e-01   1.036288e+05  -8.911093e+04  -5.528300e+04  -8.696190e+10   3.990746e+10  -2.273395e+11   1.474310e+05   4.711799e-26   0.000000e+00   0.000000e+00
     3080000   3.079999e-06   2.720803e+01   2.708304e+01   1.711115e-01   1.029253e+05  -8.878184e+04  -5.709689e+04  -8.889855e+10   4.236400e+10  -2.261266e+11   1.474310e+05   4.711234e-26   0.000000e+00   0.000000e+00
     3088000   3.087999e-06   2.720885e+01   2.708234e+01   1.706475e-01   1.022065e+05  -8.843312e+04  -5.890091e+04  -9.081639e+10   4.481468e+10  -2.248723e+11   1.474310e+05   4.710662e-26   0.000000e+00   0.000000e+00
     3096000   3.095999e-06   2.720967e+01   2.708163e+01   1.701691e-01   1.014723e+05  -8.806482e+04  -6.069473e+04  -9.271512e+10   4.725896e+10  -2.235767e+11   1.474310e+05   4.710083e-26   0.000000e+00   0.000000e+00
     3104000   3.103999e-06   2.721048e+01   2.708093e+01   1.696764e-01   1.007231e+05  -8.767699e+04  -6.247803e+04  -9.459445e+10   4.969630e+10  -2.222402e+11   1.474310e+05   4.709500e-26   0.000000e+00   0.000000e+00
     3112000   3.111999e-06   2.721128e+01   2.708023e+01   1.691695e-01   9.995886e+04  -8.726970e+04  -6.425047e+04  -9.645410e+10   5.212618e+10  -2.208628e+11   1.474310e+05   4.708911e-26   0.000000e+00   0.000000e+00
     3120000   3.119999e-06   2.721207e+01   2.707953e+01   1.686484e-01   9.917985e+04  -8.684299e+04  -6.601172e+04  -9.829379e+10   5.454805e+10  -2.194450e+11   1.474310e+05   4.708317e-26   0.000000e+00   0.000000e+00
     3128000   3.127999e-06   2.721286e+01   2.707884e+01   1.681133e-01   9.838621e+04  -8.639695e+04  -6.776148e+04  -1.001132e+11   5.696138e+10  -2.179869e+11   1.474310e+05   4.707720e-26   0.000000e+00   0.000000e+00
     3136000   3.135999e-06   2.721365e+01   2.707815e+01   1.675643e-01   9.757809e+04  -8.593163e+04  -6.949940e+04  -1.019122e+11   5.936563e+10  -2.164888e+11   1.474310e+05   4.707120e-26   0.000000e+00   0.000000e+00
     3144000   3.143999e-06   2.721443e+01   2.707746e+01   1.670014e-01   9.675567e+04  -8.544712e+04  -7.122519e+04  -1.036904e+11   6.176028e+10  -2.149511e+11   1.474310e+05   4.706517e-26   0.000000e+00   0.000000e+00
     3152000   3.151999e-06   2.721520e+01   2.707678e+01   1.664247e-01   9.591910e+04  -8.494349e+04  -7.293852e+04  -1.054476e+11   6.414479e+10  -2.133739e+11   1.474310e+05   4.705911e-26   0.000000e+00   0.000000e+00
     3160000   3.159999e-06   2.721596e+01   2.707610e+01   1.658344e-01   9.506856e+04  -8.442083e+04  -7.463907e+04  -1.071835e+11   6.651862e+10  -2.117577e+11   1.474310e+05   4.705305e-26   0.000000e+00   0.000000e+00
     3168000   3.167999e-06   2.721672e+01   2.707543e+01   1.652305e-01   9.420422e+04  -8.387922e+04  -7.632653e+04  -1.088979e+11   6.888125e+10  -2.101027e+11   1.474310e+05   4.704697e-26   0.000000e+00   0.000000e+00
     3176000   3.175999e-06   2.721747e+01   2.707476e+01   1.646132e-01   9.332625e+04  -8.331876e+04  -7.800061e+04  -1.105906e+11   7.123215e+10  -2.084091e+11   1.474310e+05   4.704089e-26   0.000000e+00   0.000000e+00
     3184000   3.183999e-06   2.721821e+01   2.707410e+01   1.639826e-01   9.243483e+04  -8.273954e+04  -7.966098e+04  -1.122613e+11   7.357079e+10  -2.066774e+11   1.474310e+05   4.703481e-26   0.000000e+00   0.000000e+00
     3192000   3.191999e-06   2.721895e+01   2.707344e+01   1.633387e-01   9.153013e+04  -8.214166e+04  -8.130734e+04  -1.139098e+11   7.589664e+10  -2.049078e+11   1.474310e+05   4.702874e-26   0.000000e+00   0.000000e+00
     3200000   3.199999e-06   2.721968e+01   2.707278e+01   1.626817e-01   9.061233e+04  -8.152522e+04  -8.293940e+04  -1.155358e+11   7.820919e+10  -2.031008e+11   1.474310e+05   4.702268e-26   0.000000e+00   0.000000e+00
     3208000   3.207999e-06   2.722040e+01   2.707213e+01   1.620117e-01   8.968161e+04  -8.089035e+04  -8.455685e+04  -1.171393e+11   8.050791e+10  -2.012565e+11   1.474310e+05   4.701663e-26   0.000000e+00   0.000000e+00
     3216000   3.215999e-06   2.722111e+01   2.707149e+01   1.613288e-01   8.873816e+04  -8.023713e+04  -8.615940e+04  -1.187199e+11   8.279228e+10  -1.993754e+11   1.474310e+05   4.701061e-26   0.000000e+00   0.000000e+00
     3224000   3.223999e-06   2.722182e+01   2.707085e+01   1.606332e-01   8.778215e+04  -7.956571e+04  -8.774676e+04  -1.202776e+11   8.506178e+10  -1.974578e+11   1.474310e+05   4.700461e-26   0.000000e+00   0.000000e+00
     3232000   3.231999e-06   2.722251e+01   2.707022e+01   1.599249e-01   8.681378e+04  -7.887618e+04  -8.931863e+04  -1.218119e+11   8.731591e+10  -1.955041e+11   1.474310e+05   4.699863e-26   0.000000e+00   0.000000e+00
     3240000   3.239999e-06   2.722321e+01   2.706959e+01   1.592041e-01   8.583322e+04  -7.816869e+04  -9.087473e+04  -1.233229e+11   8.955415e+10  -1.935147e+11   1.474310e+05   4.699270e-26   0.000000e+00   0.000000e+00
     3248000   3.247999e-06   2.722389e+01   2.706897e+01   1.584709e-01   8.484067e+04  -7.744336e+04  -9.241477e+04  -1.248103e+11   9.177599e+10  -1.914898e+11   1.474310e+05   4.698680e-26   0.000000e+00   0.000000e+00
     3256000   3.255999e-06   2.722456e+01   2.706835e+01   1.577255e-01   8.383632e+04  -7.670032e+04  -9.393847e+04  -1.262739e+11   9.398093e+10  -1.894300e+11   1.474310e+05   4.698094e-26   0.000000e+00   0.000000e+00
     3264000   3.263999e-06   2.722523e+01   2.706774e+01   1.569680e-01   8.282035e+04  -7.593971e+04  -9.544555e+04  -1.277135e+11   9.616847e+10  -1.873355e+11   1.474310e+05   4.697513e-26   0.000000e+00   0.000000e+00
     3272000   3.271999e-06   2.722589e+01   2.706713e+01   1.561984e-01   8.179297e+04  -7.516167e+04  -9.693574e+04  -1.291290e+11   9.833811e+10  -1.852069e+11   1.474310e+05   4.696936e-26   0.000000e+00   0.000000e+00
     3280000   3.279999e-06   2.722654e+01   2.706654e+01   1.554170e-01   8.075435e+04  -7.436635e+04  -9.840877e+04  -1.305203e+11   1.004894e+11  -1.830444e+11   1.474310e+05   4.696365e-26   0.000000e+00   0.000000e+00
     3288000   3.287999e-06   2.722718e+01   2.706594e+01   1.546239e-01   7.970471e+04  -7.355389e+04  -9.986436e+04  -1.318872e+11   1.026217e+11  -1.808484e+11   1.474310e+05   4.695799e-26   0.000000e+00   0.000000e+00
     3296000   3.295999e-06   2.722781e+01   2.706536e+01   1.538193e-01   7.864422e+04  -7.272445e+04  -1.013023e+05  -1.332294e+11   1.047347e+11  -1.786195e+11   1.474310e+05   4.695240e-26   0.000000e+00   0.000000e+00
     3304000   3.303999e-06   2.722844e+01   2.706478e+01   1.530032e-01   7.757310e+04  -7.187818e+04  -1.027222e+05  -1.345470e+11   1.068278e+11  -1.763580e+11   1.474310e+05   4.694686e-26   0.000000e+00   0.000000e+00
     3312000   3.311999e-06   2.722905e+01   2.706421e+01   1.521758e-01   7.649154e+04  -7.101525e+04  -1.041239e+05  -1.358397e+11   1.089006e+11  -1.740643e+11   1.474310e+05   4.694139e-26   0.000000e+00   0.000000e+00
     3320000   3.319999e-06   2.722966e+01   2.706364e+01   1.513372e-01   7.539973e+04  -7.013583e+04  -1.055071e+05  -1.371074e+11   1.109526e+11  -1.717389e+11   1.474310e+05   4.693598e-26   0.000000e+00   0.000000e+00
     3328000   3.327999e-06   2.723026e+01   2.706309e+01   1.504877e-01   7.429788e+04  -6.924007e+04  -1.068716e+05  -1.383500e+11   1.129833e+11  -1.693822e+11   1.474310e+05   4.693065e-26   0.000000e+00   0.000000e+00
     3336000   3.335999e-06   2.723085e+01   2.706254e+01   1.496273e-01   7.318620e+04  -6.832815e+04  -1.082172e+05  -1.395674e+11   1.149923e+11  -1.669946e+11   1.474310e+05   4.692538e-26   0.000000e+00   0.000000e+00
     3344000   3.343999e-06   2.723143e+01   2.706199e+01   1.487563e-01   7.206487e+04  -6.740025e+04  -1.095435e+05  -1.407594e+11   1.169791e+11  -1.645766e+11   1.474310e+05   4.692019e-26   0.000000e+00   0.000000e+00
     3352000   3.351999e-06   2.723200e+01   2.706146e+01   1.478747e-01   7.093411e+04  -6.645654e+04  -1.108503e+05  -1.419260e+11   1.189432e+11  -1.621286e+11   1.474310e+05   4.691508e-26   0.000000e+00   0.000000e+00
     3360000   3.359999e-06   2.723257e+01   2.706093e+01   1.469827e-01   6.979412e+04  -6.549722e+04  -1.121374e+05  -1.430670e+11   1.208842e+11  -1.596512e+11   1.474310e+05   4.691004e-26   0.000000e+00   0.000000e+00
     3368000   3.367999e-06   2.723312e+01   2.706041e+01   1.460805e-01   6.864511e+04  -6.452246e+04  -1.134046e+05  -1.441823e+11   1.228017e+11  -1.571447e+11   1.474310e+05   4.690508e-26   0.000000e+00   0.000000e+00
     3376000   3.375999e-06   2.723367e+01   2.705990e+01   1.451683e-01   6.748727e+04  -6.353245e+04  -1.146517e+05  -1.452719e+11   1.246952e+11  -1.546096e+11   1.474310e+05   4.690019e-26   0.000000e+00   0.000000e+00
     3384000   3.383999e-06   2.723420e+01   2.705939e+01   1.442462e-01   6.632083e+04  -6.252740e+04  -1.158783e+05  -1.463356e+11   1.265643e+11  -1.520465e+11   1.474310e+05   4.689539e-26   0.000000e+00   0.000000e+00
     3392000   3.391999e-06   2.723473e+01   2.705890e+01   1.433143e-01   6.514597e+04  -6.150749e+04  -1.170843e+05  -1.473733e+11   1.284085e+11  -1.494557e+11   1.474310e+05   4.689067e-26   0.000000e+00   0.000000e+00
     3400000   3.399999e-06   2.723524e+01   2.705841e+01   1.423729e-01   6.396292e+04  -6.047293e+04  -1.182695e+05  -1.483851e+11   1.302274e+11  -1.468378e+11   1.474310e+05   4.688604e-26   0.000000e+00   0.000000e+00
     3408000   3.407999e-06   2.723575e+01   2.705793e+01   1.414220e-01   6.277188e+04  -5.942391e+04  -1.194337e+05  -1.493707e+11   1.320207e+11  -1.441933e+11   1.474310e+05   4.688148e-26   0.000000e+00   0.000000e+00
     3416000   3.415999e-06   2.723625e+01   2.705746e+01   1.404620e-01   6.157306e+04  -5.836066e+04  -1.205766e+05  -1.503302e+11   1.337879e+11  -1.415226e+11   1.474310e+05   4.687701e-26   0.000000e+00   0.000000e+00
     3424000   3.423999e-06   2.723673e+01   2.705700e+01   1.394929e-01   6.036667e+04  -5.728338e+04  -1.216980e+05  -1.512634e+11   1.355286e+11  -1.388262e+11   1.474310e+05   4.687263e-26   0.000000e+00   0.000000e+00
     3432000   3.431999e-06   2.723721e+01   2.705654e+01   1.385149e-01   5.915291e+04  -5.619227e+04  -1.227977e+05  -1.521704e+11   1.372424e+11  -1.361047e+11   1.474310e+05   4.686832e-26   0.000000e+00   0.000000e+00
     3440000   3.439999e-06   2.723768e+01   2.705610e+01   1.375282e-01   5.793201e+04  -5.508757e+04  -1.238756e+05  -1.530509e+11   1.389289e+11  -1.333585e+11   1.474311e+05   4.686410e-26   0.000000e+00   0.000000e+00
     3448000   3.447999e-06   2.723814e+01   2.705566e+01   1.365329e-01   5.670417e+04  -5.396948e+04  -1.249314e+05  -1.539051e+11   1.405878e+11  -1.305883e+11   1.474311e+05   4.685997e-26   0.000000e+00   0.000000e+00
     3456000   3.455999e-06   2.723859e+01   2.705523e+01   1.355293e-01   5.546960e+04  -5.283824e+04  -1.259649e+05  -1.547327e+11   1.422186e+11  -1.277944e+11   1.474311e+05   4.685591e-26   0.000000e+00   0.000000e+00
     3464000   3.463999e-06   2.723903e+01   2.705482e+01   1.345175e-01   5.422851e+04  -5.169406e+04  -1.269760e+05  -1.555339e+11   1.438210e+11  -1.249774e+11   1.474311e+05   4.685194e-26   0.000000e+00   0.000000e+00
     3472000   3.471999e-06   2.723946e+01   2.705441e+01   1.334978e-01   5.298113e+04  -5.053718e+04  -1.279645e+05  -1.563085e+11   1.453947e+11  -1.221378e+11   1.474311e+05   4.684806e-26   0.000000e+00   0.000000e+00
     3480000   3.479999e-06   2.723987e+01   2.705401e+01   1.324702e-01   5.172765e+04  -4.936782e+04  -1.289302e+05  -1.570565e+11   1.469392e+11  -1.192762e+11   1.474311e+05   4.684425e-26   0.000000e+00   0.000000e+00
     3488000   3.487999e-06   2.724028e+01   2.705362e+01   1.314349e-01   5.046829e+04  -4.818623e+04  -1.298728e+05  -1.577779e+11   1.484543e+11  -1.163930e+11   1.474311e+05   4.684052e-26   0.000000e+00   0.000000e+00
     3496000   3.495999e-06   2.724068e+01   2.705324e+01   1.303923e-01   4.920327e+04  -4.699263e+04  -1.307924e+05  -1.584727e+11   1.499395e+11  -1.134889e+11   1.474311e+05   4.683688e-26   0.000000e+00   0.000000e+00
     3504000   3.503999e-06   2.724107e+01   2.705286e+01   1.293423e-01   4.793280e+04  -4.578727e+04  -1.316886e+05  -1.591407e+11   1.513946e+11  -1.105643e+11   1.474311e+05   4.683331e-26   0.000000e+00   0.000000e+00
     3512000   3.511999e-06   2.724145e+01   2.705250e+01   1.282853e-01   4.665709e+04  -4.457040e+04  -1.325614e+05  -1.597821e+11   1.528192e+11  -1.076199e+11   1.474311e+05   4.682981e-26   0.000000e+00   0.000000e+00
     3520000   3.519999e-06   2.724182e+01   2.705215e+01   1.272214e-01   4.537636e+04  -4.334225e+04  -1.334105e+05  -1.603967e+11   1.542130e+11  -1.046561e+11   1.474311e+05   4.682640e-26   0.000000e+00   0.000000e+00
     3528000   3.527999e-06   2.724218e+01   2.705181e+01   1.261508e-01   4.409081e+04  -4.210307e+04  -1.342358e+05  -1.609846e+11   1.555757e+11  -1.016734e+11   1.474311e+05   4.682305e-26   0.000000e+00   0.000000e+00
     3536000   3.535999e-06   2.724252e+01   2.705148e+01   1.250737e-01   4.280067e+04  -4.085312e+04  -1.350372e+05  -1.615457e+11   1.569070e+11  -9.867256e+10   1.474311e+05   4.681978e-26   0.000000e+00   0.000000e+00
     3544000   3.543999e-06   2.724286e+01   2.705116e+01   1.239903e-01   4.150615e+04  -3.959264e+04  -1.358145e+05  -1.620801e+11   1.582066e+11  -9.565397e+10   1.474311e+05   4.681658e-26   0.000000e+00   0.000000e+00
     3552000   3.551999e-06   2.724319e+01   2.705084e+01   1.229007e-01   4.020746e+04  -3.832190e+04  -1.365676e+05  -1.625877e+11   1.594742e+11  -9.261824e+10   1.474311e+05   4.681345e-26   0.000000e+00   0.000000e+00
     3560000   3.559999e-06   2.724350e+01   2.705054e+01   1.218053e-01   3.890482e+04  -3.704114e+04  -1.372964e+05  -1.630685e+11   1.607095e+11  -8.956593e+10   1.474311e+05   4.681039e-26   0.000000e+00   0.000000e+00
     3568000   3.567999e-06   2.724381e+01   2.705025e+01   1.207041e-01   3.759844e+04  -3.575063e+04  -1.380006e+05  -1.635226e+11   1.619123e+11  -8.649760e+10   1.474311e+05   4.680739e-26   0.000000e+00   0.000000e+00
     3576000   3.575999e-06   2.724410e+01   2.704997e+01   1.195973e-01   3.628853e+04  -3.445063e+04  -1.386803e+05  -1.639499e+11   1.630823e+11  -8.341381e+10   1.474311e+05   4.680445e-26   0.000000e+00   0.000000e+00
     3584000   3.583999e-06   2.724439e+01   2.704970e+01   1.184852e-01   3.497531e+04  -3.314140e+04  -1.393352e+05  -1.643505e+11   1.642193e+11  -8.031514e+10   1.474311e+05   4.680158e-26   0.000000e+00   0.000000e+00
     3592000   3.591999e-06   2.724466e+01   2.704944e+01   1.173680e-01   3.365899e+04  -3.182321e+04  -1.399653e+05  -1.647243e+11   1.653229e+11  -7.720215e+10   1.474311e+05   4.679876e-26   0.000000e+00   0.000000e+00
     3600000   3.599999e-06   2.724493e+01   2.704919e+01   1.162459e-01   3.233979e+04  -3.049632e+04  -1.405704e+05  -1.650714e+11   1.663930e+11  -7.407541e+10   1.474311e+05   4.679600e-26   0.000000e+00   0.000000e+00
     3608000   3.607999e-06   2.724518e+01   2.704895e+01   1.151190e-01   3.101792e+04  -2.916101e+04  -1.411504e+05  -1.653918e+11   1.674293e+11  -7.093551e+10   1.474311e+05   4.679329e-26   0.000000e+00   0.000000e+00
     3616000   3.615999e-06   2.724542e+01   2.704873e+01   1.139875e-01   2.969359e+04  -2.781754e+04  -1.417053e+05  -1.656855e+11   1.684316e+11  -6.778301e+10   1.474311e+05   4.679064e-26   0.000000e+00   0.000000e+00
     3624000   3.623999e-06   2.724566e+01   2.704851e+01   1.128517e-01   2.836702e+04  -2.646619e+04  -1.422349e+05  -1.659525e+11   1.693998e+11  -6.461849e+10   1.474311e+05   4.678803e-26   0.000000e+00   0.000000e+00
     3632000   3.631999e-06   2.724588e+01   2.704830e+01   1.117118e-01   2.703842e+04  -2.510724e+04  -1.427392e+05  -1.661929e+11   1.703335e+11  -6.144254e+10   1.474311e+05   4.678547e-26   0.000000e+00   0.000000e+00
     3640000   3.639999e-06   2.724609e+01   2.704811e+01   1.105680e-01   2.570801e+04  -2.374095e+04  -1.432180e+05  -1.664067e+11   1.712326e+11  -5.825574e+10   1.474311e+05   4.678296e-26   0.000000e+00   0.000000e+00
     3648000   3.647999e-06   2.724629e+01   2.704792e+01   1.094204e-01   2.437599e+04  -2.236761e+04  -1.436713e+05  -1.665939e+11   1.720970e+11  -5.505866e+10   1.474311e+05   4.678049e-26   0.000000e+00   0.000000e+00
     3656000   3.655999e-06   2.724648e+01   2.704775e+01   1.082693e-01   2.304257e+04  -2.098749e+04  -1.440989e+05  -1.667545e+11   1.729263e+11  -5.185191e+10   1.474311e+05   4.677805e-26   0.000000e+00   0.000000e+00
     3664000   3.663999e-06   2.724666e+01   2.704759e+01   1.071149e-01   2.170798e+04  -1.960088e+04  -1.445009e+05  -1.668886e+11   1.737206e+11  -4.863605e+10   1.474311e+05   4.677566e-26   0.000000e+00   0.000000e+00
     3672000   3.671999e-06   2.724683e+01   2.704743e+01   1.059574e-01   2.037243e+04  -1.820805e+04  -1.448771e+05  -1.669962e+11   1.744795e+11  -4.541169e+10   1.474311e+05   4.677330e-26   0.000000e+00   0.000000e+00
     3680000   3.679999e-06   2.724698e+01   2.704729e+01   1.047969e-01   1.903612e+04  -1.680930e+04  -1.452274e+05  -1.670774e+11   1.752030e+11  -4.217940e+10   1.474311e+05   4.677097e-26   0.000000e+00   0.000000e+00
     3688000   3.687999e-06   2.724713e+01   2.704717e+01   1.036338e-01   1.769926e+04  -1.540490e+04  -1.455519e+05  -1.671322e+11   1.758909e+11  -3.893977e+10   1.474311e+05   4.676868e-26   0.000000e+00   0.000000e+00
     3696000   3.695999e-06   2.724727e+01   2.704705e+01   1.024682e-01   1.636207e+04  -1.399514e+04  -1.458504e+05  -1.671606e+11   1.765431e+11  -3.569341e+10   1.474311e+05   4.676641e-26   0.000000e+00   0.000000e+00
     3704000   3.703999e-06   2.724739e+01   2.704694e+01   1.013003e-01   1.502476e+04  -1.258031e+04  -1.461230e+05  -1.671627e+11   1.771594e+11  -3.244089e+10   1.474311e+05   4.676416e-26   0.000000e+00   0.000000e+00
     3712000   3.711999e-06   2.724751e+01   2.704685e+01   1.001303e-01   1.368754e+04  -1.116069e+04  -1.463695e+05  -1.671386e+11   1.777398e+11  -2.918282e+10   1.474311e+05   4.676194e-26   0.000000e+00   0.000000e+00
     3720000   3.719999e-06   2.724761e+01   2.704676e+01   9.895842e-02   1.235064e+04  -9.736796e+03  -1.465899e+05  -1.670840e+11   1.782523e+11  -2.591762e+10   1.474311e+05   4.674976e-26   0.000000e+00   0.000000e+00
     3728000   3.727999e-06   2.724771e+01   2.704669e+01   9.778491e-02   1.101426e+04  -8.308715e+03  -1.467841e+05  -1.670073e+11   1.787619e+11  -2.265097e+10   1.474311e+05   4.674795e-26   0.000000e+00   0.000000e+00
     3736000   3.735999e-06   2.724779e+01   2.704663e+01   9.660995e-02   9.678596e+03  -6.876702e+03  -1.469523e+05  -1.669045e+11   1.792353e+11  -1.938050e+10   1.474311e+05   4.674616e-26   0.000000e+00   0.000000e+00
     3744000   3.743999e-06   2.724786e+01   2.704658e+01   9.543374e-02   8.343858e+03  -5.441047e+03  -1.470942e+05  -1.667756e+11   1.796724e+11  -1.610681e+10   1.474311e+05   4.674438e-26   0.000000e+00   0.000000e+00
     3752000   3.751999e-06   2.724792e+01   2.704654e+01   9.425651e-02   7.010255e+03  -4.002040e+03  -1.472100e+05  -1.666207e+11   1.800731e+11  -1.283048e+10   1.474311e+05   4.674262e-26   0.000000e+00   0.000000e+00
     3760000   3.759999e-06   2.724797e+01   2.704652e+01   9.307845e-02   5.677996e+03  -2.559973e+03  -1.472995e+05  -1.664399e+11   1.804375e+11  -9.552106e+09   1.474311e+05   4.674086e-26   0.000000e+00   0.000000e+00
     3768000   3.767999e-06   2.724801e+01   2.704650e+01   9.189979e-02   4.347287e+03  -1.115138e+03  -1.473628e+05  -1.662331e+11   1.807653e+11  -6.272287e+09   1.474311e+05   4.673911e-26   0.000000e+00   0.000000e+00
     3776000   3.775999e-06   2.724804e+01   2.704650e+01   9.072072e-02   3.018335e+03   3.321744e+02  -1.473998e+05  -1.660006e+11   1.810566e+11  -2.991613e+09   1.474311e+05   4.673736e-26   0.000000e+00   0.000000e+00
     3784000   3.783999e-06   2.724806e+01   2.704651e+01   8.954146e-02   1.691346e+03   1.781671e+03  -1.474107e+05  -1.657422e+11   1.813114e+11   2.893229e+08   1.474311e+05   4.673562e-26   0.000000e+00   0.000000e+00
     3792000   3.791999e-06   2.724807e+01   2.704653e+01   8.836222e-02   3.665275e+02   3.233059e+03  -1.473952e+05  -1.654582e+11   1.815295e+11   3.569928e+09   1.474311e+05   4.673387e-26   0.000000e+00   0.000000e+00
     3800000   3.799999e-06   2.724807e+01   2.704656e+01   8.718320e-02  -9.559164e+02   4.686046e+03  -1.473535e+05  -1.651485e+11   1.817111e+11   6.849610e+09   1.474311e+05   4.673213e-26   0.000000e+00   0.000000e+00
     3808000   3.807999e-06   2.724805e+01   2.704660e+01   8.600463e-02  -2.275781e+03   6.140338e+03  -1.472856e+05  -1.648133e+11   1.818560e+11   1.012778e+10   1.474311e+05   4.673038e-26   0.000000e+00   0.000000e+00
     3816000   3.815999e-06   2.724803e+01   2.704666e+01   8.482670e-02  -3.592861e+03   7.595644e+03  -1.471915e+05  -1.644526e+11   1.819644e+11   1.340384e+10   1.474311e+05   4.672862e-26   0.000000e+00   0.000000e+00
     3824000   3.823999e-06   2.724800e+01   2.704672e+01   8.364964e-02  -4.906954e+03   9.051671e+03  -1.470712e+05  -1.640664e+11   1.820361e+11   1.667721e+10   1.474311e+05   4.672686e-26   0.000000e+00   0.000000e+00
     3832000   3.831999e-06   2.724795e+01   2.704680e+01   8.247364e-02  -6.217856e+03   1.050812e+04  -1.469247e+05  -1.636550e+11   1.820712e+11   1.994730e+10   1.474311e+05   4.672509e-26   0.000000e+00   0.000000e+00
     3840000   3.839999e-06   2.724790e+01   2.704689e+01   8.129891e-02  -7.525365e+03   1.196471e+04  -1.467520e+05  -1.632182e+11   1.820698e+11   2.321351e+10   1.474311e+05   4.672330e-26   0.000000e+00   0.000000e+00
     3848000   3.847999e-06   2.724783e+01   2.704699e+01   8.012567e-02  -8.829280e+03   1.342114e+04  -1.465533e+05  -1.627563e+11   1.820319e+11   2.647527e+10   1.474311e+05   4.672151e-26   0.000000e+00   0.000000e+00
     3856000   3.855999e-06   2.724776e+01   2.704711e+01   7.895413e-02  -1.012940e+04   1.487713e+04  -1.463284e+05  -1.622692e+11   1.819575e+11   2.973198e+10   1.474311e+05   4.671970e-26   0.000000e+00   0.000000e+00
     3864000   3.863999e-06   2.724767e+01   2.704723e+01   7.778449e-02  -1.142552e+04   1.633237e+04  -1.460776e+05  -1.617571e+11   1.818466e+11   3.298306e+10   1.474311e+05   4.671788e-26   0.000000e+00   0.000000e+00
     3872000   3.871999e-06   2.724757e+01   2.704737e+01   7.661696e-02  -1.271745e+04   1.778658e+04  -1.458007e+05  -1.612201e+11   1.816994e+11   3.622794e+10   1.474311e+05   4.671603e-26   0.000000e+00   0.000000e+00
     3880000   3.879999e-06   2.724747e+01   2.704752e+01   7.545175e-02  -1.400497e+04   1.923946e+04  -1.454979e+05  -1.606582e+11   1.815160e+11   3.946602e+10   1.474311e+05   4.671418e-26   0.000000e+00   0.000000e+00
     3888000   3.887999e-06   2.724735e+01   2.704768e+01   7.428906e-02  -1.528791e+04   2.069073e+04  -1.451693e+05  -1.600716e+11   1.812963e+11   4.269673e+10   1.474311e+05   4.671230e-26   0.000000e+00   0.000000e+00
     3896000   3.895999e-06   2.724722e+01   2.704785e+01   7.312911e-02  -1.656605e+04   2.214010e+04  -1.448148e+05  -1.594602e+11   1.810404e+11   4.591948e+10   1.474311e+05   4.671040e-26   0.000000e+00   0.000000e+00
     3904000   3.903999e-06   2.724708e+01   2.704803e+01   7.197209e-02  -1.783921e+04   2.358728e+04  -1.444346e+05  -1.588243e+11   1.807486e+11   4.913372e+10   1.474311e+05   4.670849e-26   0.000000e+00   0.000000e+00
     3912000   3.911999e-06   2.724694e+01   2.704823e+01   7.081822e-02  -1.910718e+04   2.503199e+04  -1.440287e+05  -1.581638e+11   1.804208e+11   5.233885e+10   1.474311e+05   4.670655e-26   0.000000e+00   0.000000e+00
     3920000   3.919999e-06   2.724678e+01   2.704843e+01   6.966770e-02  -2.036976e+04   2.647392e+04  -1.435972e+05  -1.574790e+11   1.800572e+11   5.553431e+10   1.474311e+05   4.670459e-26   0.000000e+00   0.000000e+00
     3928000   3.927999e-06   2.724661e+01   2.704865e+01   6.852074e-02  -2.162677e+04   2.791281e+04  -1.431401e+05  -1.567698e+11   1.796579e+11   5.871953e+10   1.474312e+05   4.670260e-26   0.000000e+00   0.000000e+00
     3936000   3.935999e-06   2.724643e+01   2.704888e+01   6.737753e-02  -2.287801e+04   2.934835e+04  -1.426577e+05  -1.560364e+11   1.792231e+11   6.189393e+10   1.474312e+05   4.670059e-26   0.000000e+00   0.000000e+00
     3944000   3.943999e-06   2.724624e+01   2.704912e+01   6.623828e-02  -2.412329e+04   3.078028e+04  -1.421499e+05  -1.552788e+11   1.787529e+11   6.505696e+10   1.474312e+05   4.669856e-26   0.000000e+00   0.000000e+00
     3952000   3.951999e-06   2.724605e+01   2.704937e+01   6.510320e-02  -2.536241e+04   3.220830e+04  -1.416168e+05  -1.544972e+11   1.782473e+11   6.820805e+10   1.474312e+05   4.669650e-26   0.000000e+00   0.000000e+00
     3960000   3.959999e-06   2.724584e+01   2.704963e+01   6.397248e-02  -2.659518e+04   3.363214e+04  -1.410586e+05  -1.536917e+11   1.777067e+11   7.134664e+10   1.474312e+05   4.669442e-26   0.000000e+00   0.000000e+00
     3968000   3.967999e-06   2.724562e+01   2.704991e+01   6.284633e-02  -2.782141e+04   3.505152e+04  -1.404753e+05  -1.528624e+11   1.771311e+11   7.447217e+10   1.474312e+05   4.669230e-26   0.000000e+00   0.000000e+00
     3976000   3.975999e-06   2.724539e+01   2.705019e+01   6.172494e-02  -2.904092e+04   3.646615e+04  -1.398671e+05  -1.520093e+11   1.765207e+11   7.758409e+10   1.474312e+05   4.669017e-26   0.000000e+00   0.000000e+00
     3984000   3.983999e-06   2.724516e+01   2.705049e+01   6.060852e-02  -3.025350e+04   3.787576e+04  -1.392340e+05  -1.511326e+11   1.758757e+11   8.068184e+10   1.474312e+05   4.668801e-26   0.000000e+00   0.000000e+00
     3992000   3.991999e-06   2.724491e+01   2.705080e+01   5.949726e-02  -3.145897e+04   3.928007e+04  -1.385762e+05  -1.502323e+11   1.751963e+11   8.376487e+10   1.474312e+05   4.668582e-26   0.000000e+00   0.000000e+00
     4000000   3.999999e-06   2.724465e+01   2.705112e+01   5.839137e-02  -3.265715e+04   4.067880e+04  -1.378938e+05  -1.493087e+11   1.744826e+11   8.683264e+10   1.474312e+05   4.668360e-26   0.000000e+00   0.000000e+00
     4008000   4.007999e-06   2.724439e+01   2.705145e+01   5.729103e-02  -3.384785e+04   4.207170e+04  -1.371869e+05  -1.483618e+11   1.737349e+11   8.988460e+10   1.474312e+05   4.668136e-26   0.000000e+00   0.000000e+00
     4016000   4.015999e-06   2.724411e+01   2.705179e+01   5.619644e-02  -3.503088e+04   4.345847e+04  -1.364557e+05  -1.473917e+11   1.729534e+11   9.292021e+10   1.474312e+05   4.667909e-26   0.000000e+00   0.000000e+00
     4024000   4.023999e-06   2.724383e+01   2.705215e+01   5.510780e-02  -3.620605e+04   4.483886e+04  -1.357002e+05  -1.463985e+11   1.721383e+11   9.593894e+10   1.474312e+05   4.667679e-26   0.000000e+00   0.000000e+00
     4032000   4.031999e-06   2.724353e+01   2.705251e+01   5.402530e-02  -3.737319e+04   4.621259e+04  -1.349207e+05  -1.453823e+11   1.712898e+11   9.894025e+10   1.474312e+05   4.667447e-26   0.000000e+00   0.000000e+00
     4040000   4.039999e-06   2.724323e+01   2.705289e+01   5.294913e-02  -3.853211e+04   4.757941e+04  -1.341172e+05  -1.443433e+11   1.704082e+11   1.019236e+11   1.474312e+05   4.667212e-26   0.000000e+00   0.000000e+00
     4048000   4.047999e-06   2.724292e+01   2.705327e+01   5.187949e-02  -3.968262e+04   4.893904e+04  -1.332900e+05  -1.432816e+11   1.694936e+11   1.048885e+11   1.474312e+05   4.666974e-26   0.000000e+00   0.000000e+00
     4056000   4.055999e-06   2.724259e+01   2.705367e+01   5.081656e-02  -4.082455e+04   5.029122e+04  -1.324390e+05  -1.421972e+11   1.685464e+11   1.078344e+11   1.474312e+05   4.666734e-26   0.000000e+00   0.000000e+00
     4064000   4.063999e-06   2.724226e+01   2.705408e+01   4.976053e-02  -4.195772e+04   5.163569e+04  -1.315647e+05  -1.410904e+11   1.675667e+11   1.107607e+11   1.474312e+05   4.666492e-26   0.000000e+00   0.000000e+00
     4072000   4.071999e-06   2.724192e+01   2.705450e+01   4.871159e-02  -4.308194e+04   5.297220e+04  -1.306669e+05  -1.399612e+11   1.665549e+11   1.136670e+11   1.474312e+05   4.666247e-26   0.000000e+00   0.000000e+00
     4080000   4.079999e-06   2.724157e+01   2.705492e+01   4.766992e-02  -4.419704e+04   5.430048e+04  -1.297460e+05  -1.388098e+11   1.655112e+11   1.165528e+11   1.474312e+05   4.665999e-26   0.000000e+00   0.000000e+00
     4088000   4.087999e-06   2.724122e+01   2.705536e+01   4.663571e-02  -4.530283e+04   5.562029e+04  -1.288021e+05  -1.376363e+11   1.644359e+11   1.194175e+11   1.474312e+05   4.665749e-26   0.000000e+00   0.000000e+00
     4096000   4.095999e-06   2.724085e+01   2.705581e+01   4.560915e-02  -4.639916e+04   5.693137e+04  -1.278354e+05  -1.364408e+11   1.633292e+11   1.222606e+11   1.474312e+05   4.665497e-26   0.000000e+00   0.000000e+00
     4104000   4.103999e-06   2.724047e+01   2.705627e+01   4.459040e-02  -4.748583e+04   5.823348e+04  -1.268460e+05  -1.352235e+11   1.621915e+11   1.250817e+11   1.474312e+05   4.665243e-26   0.000000e+00   0.000000e+00
     4112000   4.111999e-06   2.724009e+01   2.705675e+01   4.357967e-02  -4.856267e+04   5.952635e+04  -1.258342e+05  -1.339845e+11   1.610230e+11   1.278802e+11   1.474312e+05   4.664986e-26   0.000000e+00   0.000000e+00
     4120000   4.119999e-06   2.723970e+01   2.705723e+01   4.257712e-02  -4.962952e+04   6.080976e+04  -1.248000e+05  -1.327238e+11   1.598241e+11   1.306556e+11   1.474312e+05   4.664727e-26   0.000000e+00   0.000000e+00
     4128000   4.127999e-06   2.723929e+01   2.705772e+01   4.158293e-02  -5.068620e+04   6.208346e+04  -1.237437e+05  -1.314418e+11   1.585950e+11   1.334076e+11   1.474312e+05   4.664466e-26   0.000000e+00   0.000000e+00
     4136000   4.135999e-06   2.723888e+01   2.705822e+01   4.059728e-02  -5.173253e+04   6.334720e+04  -1.226655e+05  -1.301385e+11   1.573360e+11   1.361354e+11   1.474312e+05   4.664204e-26   0.000000e+00   0.000000e+00
     4144000   4.143999e-06   2.723847e+01   2.705873e+01   3.962034e-02  -5.276835e+04   6.460075e+04  -1.215656e+05  -1.288140e+11   1.560475e+11   1.388388e+11   1.474312e+05   4.663939e-26   0.000000e+00   0.000000e+00
     4152000   4.151999e-06   2.723804e+01   2.705925e+01   3.865228e-02  -5.379350e+04   6.584388e+04  -1.204442e+05  -1.274685e+11   1.547297e+11   1.415172e+11   1.474312e+05   4.663672e-26   0.000000e+00   0.000000e+00
     4160000   4.159999e-06   2.723761e+01   2.705979e+01   3.769329e-02  -5.480779e+04   6.707635e+04  -1.193014e+05  -1.261022e+11   1.533831e+11   1.441701e+11   1.474312e+05   4.663404e-26   0.000000e+00   0.000000e+00
     4168000   4.167999e-06   2.723716e+01   2.706033e+01   3.674352e-02  -5.581108e+04   6.829793e+04  -1.181375e+05  -1.247151e+11   1.520079e+11   1.467972e+11   1.474312e+05   4.663134e-26   0.000000e+00   0.000000e+00
     4176000   4.175999e-06   2.723671e+01   2.706088e+01   3.580314e-02  -5.680318e+04   6.950840e+04  -1.169527e+05  -1.233075e+11   1.506045e+11   1.493978e+11   1.474312e+05   4.662863e-26   0.000000e+00   0.000000e+00
     4184000   4.183999e-06   2.723625e+01   2.706144e+01   3.487233e-02  -5.778394e+04   7.070753e+04  -1.157472e+05  -1.218795e+11   1.491732e+11   1.519716e+11   1.474312e+05   4.662590e-26   0.000000e+00   0.000000e+00
     4192000   4.191999e-06   2.723579e+01   2.706201e+01   3.395124e-02  -5.875320e+04   7.189510e+04  -1.145213e+05  -1.204313e+11   1.477144e+11   1.545181e+11   1.474312e+05   4.662316e-26   0.000000e+00   0.000000e+00
     4200000   4.199999e-06   2.723531e+01   2.706259e+01   3.304004e-02  -5.971079e+04   7.307089e+04  -1.132750e+05  -1.189630e+11   1.462284e+11   1.570369e+11   1.474312e+05   4.662040e-26   0.000000e+00   0.000000e+00
     4208000   4.207999e-06   2.723483e+01   2.706318e+01   3.213889e-02  -6.065655e+04   7.423468e+04  -1.120087e+05  -1.174748e+11   1.447156e+11   1.595275e+11   1.474312e+05   4.661763e-26   0.000000e+00   0.000000e+00
     4216000   4.215999e-06   2.723434e+01   2.706378e+01   3.124796e-02  -6.159033e+04   7.538626e+04  -1.107226e+05  -1.159669e+11   1.431764e+11   1.619895e+11   1.474312e+05   4.661485e-26   0.000000e+00   0.000000e+00
     4224000   4.223999e-06   2.723385e+01   2.706439e+01   3.036738e-02  -6.251197e+04   7.652543e+04  -1.094170e+05  -1.144393e+11   1.416110e+11   1.644225e+11   1.474312e+05   4.661207e-26   0.000000e+00   0.000000e+00
     4232000   4.231999e-06   2.723334e+01   2.706500e+01   2.949734e-02  -6.342131e+04   7.765197e+04  -1.080920e+05  -1.128924e+11   1.400199e+11   1.668260e+11   1.474312e+05   4.660927e-26   0.000000e+00   0.000000e+00
     4240000   4.239999e-06   2.723283e+01   2.706563e+01   2.863796e-02  -6.431819e+04   7.876568e+04  -1.067478e+05  -1.113262e+11   1.384035e+11   1.691995e+11   1.474312e+05   4.660646e-26   0.000000e+00   0.000000e+00
     4248000   4.247999e-06   2.723232e+01   2.706626e+01   2.778942e-02  -6.520247e+04   7.986636e+04  -1.053848e+05  -1.097409e+11   1.367622e+11   1.715428e+11   1.474312e+05   4.660365e-26   0.000000e+00   0.000000e+00
     4256000   4.255999e-06   2.723179e+01   2.706691e+01   2.695186e-02  -6.607399e+04   8.095381e+04  -1.040032e+05  -1.081368e+11   1.350962e+11   1.738554e+11   1.474312e+05   4.660083e-26   0.000000e+00   0.000000e+00
     4264000   4.263999e-06   2.723126e+01   2.706756e+01   2.612542e-02  -6.693261e+04   8.202783e+04  -1.026032e+05  -1.065140e+11   1.334061e+11   1.761369e+11   1.474312e+05   4.659801e-26   0.000000e+00   0.000000e+00
     4272000   4.271999e-06   2.723072e+01   2.706822e+01   2.531025e-02  -6.777817e+04   8.308824e+04  -1.011851e+05  -1.048727e+11   1.316922e+11   1.783868e+11   1.474312e+05   4.659519e-26   0.000000e+00   0.000000e+00
     4280000   4.279999e-06   2.723017e+01   2.706889e+01   2.450650e-02  -6.861052e+04   8.413484e+04  -9.974914e+04  -1.032131e+11   1.299549e+11   1.806048e+11   1.474312e+05   4.659236e-26   0.000000e+00   0.000000e+00
     4288000   4.287999e-06   2.722962e+01   2.706956e+01   2.371431e-02  -6.942953e+04   8.516745e+04  -9.829553e+04  -1.015353e+11   1.281946e+11   1.827906e+11   1.474312e+05   4.658953e-26   0.000000e+00   0.000000e+00
