     timestep     time              x             y              z              vx             vy             vz             ax             ay             az         v_magnitude      ELoss        Electronic      Nuclear
           0   0.000000e+00   1.767182e+01   1.632307e+01   1.000000e-01  -8.165284e+04  -9.487650e+04   1.509363e+05   0.000000e+00   0.000000e+00   0.000000e+00   1.960880e+05   0.000000e+00   0.000000e+00   0.000000e+00
        8000   7.999000e-09   1.767115e+01   1.632232e+01   1.012073e-01  -8.409357e+04  -9.281565e+04   1.508775e+05  -3.049993e+11   2.575684e+11  -1.154541e+10   1.960880e+05   2.185213e-25   0.000000e+00   0.000000e+00
       16000   1.599900e-08   1.767047e+01   1.632158e+01   1.024139e-01  -8.653246e+04  -9.075571e+04   1.507516e+05  -3.047005e+11   2.573982e+11  -1.993989e+10   1.960880e+05   2.185138e-25   0.000000e+00   0.000000e+00
       24000   2.399900e-08   1.766977e+01   1.632087e+01   1.036191e-01  -8.896842e+04  -8.869758e+04   1.505585e+05  -3.042659e+11   2.571152e+11  -2.832387e+10   1.960880e+05   2.185061e-25   0.000000e+00   0.000000e+00
       32000   3.199900e-08   1.766905e+01   1.632016e+01   1.048226e-01  -9.140035e+04  -8.664217e+04   1.502984e+05  -3.036958e+11   2.567196e+11  -3.669365e+10   1.960880e+05   2.184983e-25   0.000000e+00   0.000000e+00
       40000   3.999900e-08   1.766831e+01   1.631948e+01   1.060237e-01  -9.382719e+04  -8.459037e+04   1.499714e+05  -3.029903e+11   2.562116e+11  -4.504552e+10   1.960880e+05   2.184902e-25   0.000000e+00   0.000000e+00
       48000   4.799900e-08   1.766755e+01   1.631881e+01   1.072220e-01  -9.624784e+04  -8.254308e+04   1.495777e+05  -3.021500e+11   2.555913e+11  -5.337579e+10   1.960880e+05   2.184819e-25   0.000000e+00   0.000000e+00
       56000   5.599900e-08   1.766677e+01   1.631816e+01   1.084168e-01  -9.866123e+04  -8.050121e+04   1.491175e+05  -3.011752e+11   2.548592e+11  -6.168079e+10   1.960880e+05   2.184733e-25   0.000000e+00   0.000000e+00
       64000   6.399900e-08   1.766597e+01   1.631752e+01   1.096077e-01  -1.010663e+05  -7.846563e+04   1.485909e+05  -3.000664e+11   2.540155e+11  -6.995684e+10   1.960880e+05   2.184643e-25   0.000000e+00   0.000000e+00
       72000   7.199900e-08   1.766515e+01   1.631690e+01   1.107941e-01  -1.034619e+05  -7.643726e+04   1.479982e+05  -2.988242e+11   2.530607e+11  -7.820028e+10   1.960880e+05   2.184550e-25   0.000000e+00   0.000000e+00
       80000   7.999900e-08   1.766431e+01   1.631630e+01   1.119755e-01  -1.058471e+05  -7.441696e+04   1.473398e+05  -2.974491e+11   2.519951e+11  -8.640748e+10   1.960880e+05   2.184452e-25   0.000000e+00   0.000000e+00
       88000   8.799900e-08   1.766346e+01   1.631571e+01   1.131513e-01  -1.082208e+05  -7.240563e+04   1.466158e+05  -2.959418e+11   2.508192e+11  -9.457482e+10   1.960880e+05   2.184349e-25   0.000000e+00   0.000000e+00
       96000   9.599900e-08   1.766258e+01   1.631514e+01   1.143212e-01  -1.105818e+05  -7.040415e+04   1.458267e+05  -2.943031e+11   2.495336e+11  -1.026987e+11   1.960880e+05   2.184241e-25   0.000000e+00   0.000000e+00
      104000   1.039990e-07   1.766169e+01   1.631459e+01   1.154844e-01  -1.129293e+05  -6.841338e+04   1.449728e+05  -2.925337e+11   2.481389e+11  -1.107755e+11   1.960880e+05   2.184128e-25   0.000000e+00   0.000000e+00
      112000   1.119990e-07   1.766077e+01   1.631405e+01   1.166406e-01  -1.152620e+05  -6.643421e+04   1.440544e+05  -2.906344e+11   2.466355e+11  -1.188017e+11   1.960880e+05   2.184008e-25   0.000000e+00   0.000000e+00
      120000   1.199990e-07   1.765984e+01   1.631352e+01   1.177891e-01  -1.175791e+05  -6.446750e+04   1.430721e+05  -2.886063e+11   2.450243e+11  -1.267738e+11   1.960880e+05   2.183882e-25   0.000000e+00   0.000000e+00
      128000   1.279990e-07   1.765889e+01   1.631301e+01   1.189295e-01  -1.198794e+05  -6.251411e+04   1.420262e+05  -2.864502e+11   2.433060e+11  -1.346882e+11   1.960880e+05   2.183749e-25   0.000000e+00   0.000000e+00
      136000   1.359990e-07   1.765792e+01   1.631252e+01   1.200614e-01  -1.221619e+05  -6.057489e+04   1.409172e+05  -2.841671e+11   2.414812e+11  -1.425415e+11   1.960880e+05   2.183609e-25   0.000000e+00   0.000000e+00
      144000   1.439990e-07   1.765694e+01   1.631205e+01   1.211840e-01  -1.244257e+05  -5.865070e+04   1.397457e+05  -2.817582e+11   2.395507e+11  -1.503302e+11   1.960880e+05   2.183462e-25   0.000000e+00   0.000000e+00
      152000   1.519990e-07   1.765593e+01   1.631158e+01   1.222971e-01  -1.266697e+05  -5.674236e+04   1.385121e+05  -2.792246e+11   2.375155e+11  -1.580508e+11   1.960880e+05   2.183306e-25   0.000000e+00   0.000000e+00
      160000   1.599990e-07   1.765491e+01   1.631114e+01   1.234001e-01  -1.288930e+05  -5.485073e+04   1.372170e+05  -2.765674e+11   2.353764e+11  -1.657001e+11   1.960880e+05   2.183142e-25   0.000000e+00   0.000000e+00
      168000   1.679990e-07   1.765387e+01   1.631071e+01   1.244924e-01  -1.310945e+05  -5.297662e+04   1.358611e+05  -2.737880e+11   2.331343e+11  -1.732745e+11   1.960880e+05   2.182970e-25   0.000000e+00   0.000000e+00
      176000   1.759990e-07   1.765281e+01   1.631029e+01   1.255737e-01  -1.332733e+05  -5.112085e+04   1.344449e+05  -2.708875e+11   2.307902e+11  -1.807709e+11   1.960880e+05   2.182789e-25   0.000000e+00   0.000000e+00
      184000   1.839990e-07   1.765174e+01   1.630989e+01   1.266434e-01  -1.354284e+05  -4.928425e+04   1.329690e+05  -2.678675e+11   2.283452e+11  -1.881858e+11   1.960881e+05   2.182599e-25   0.000000e+00   0.000000e+00
      192000   1.919990e-07   1.765065e+01   1.630950e+01   1.277010e-01  -1.375588e+05  -4.746760e+04   1.314341e+05  -2.647292e+11   2.258002e+11  -1.955161e+11   1.960881e+05   2.182399e-25   0.000000e+00   0.000000e+00
      200000   1.999990e-07   1.764954e+01   1.630913e+01   1.287462e-01  -1.396637e+05  -4.567171e+04   1.298409e+05  -2.614742e+11   2.231564e+11  -2.027585e+11   1.960881e+05   2.182190e-25   0.000000e+00   0.000000e+00
      208000   2.079990e-07   1.764841e+01   1.630877e+01   1.297783e-01  -1.417421e+05  -4.389736e+04   1.281902e+05  -2.581039e+11   2.204150e+11  -2.099099e+11   1.960881e+05   2.181971e-25   0.000000e+00   0.000000e+00
      216000   2.159990e-07   1.764727e+01   1.630843e+01   1.307971e-01  -1.437931e+05  -4.214533e+04   1.264826e+05  -2.546199e+11   2.175771e+11  -2.169671e+11   1.960881e+05   2.181742e-25   0.000000e+00   0.000000e+00
      224000   2.239990e-07   1.764611e+01   1.630810e+01   1.318019e-01  -1.458157e+05  -4.041638e+04   1.247190e+05  -2.510239e+11   2.146440e+11  -2.239270e+11   1.960881e+05   2.181502e-25   0.000000e+00   0.000000e+00
      232000   2.319990e-07   1.764494e+01   1.630778e+01   1.327924e-01  -1.478092e+05  -3.871128e+04   1.229001e+05  -2.473175e+11   2.116168e+11  -2.307865e+11   1.960881e+05   2.181252e-25   0.000000e+00   0.000000e+00
      240000   2.399990e-07   1.764375e+01   1.630748e+01   1.337682e-01  -1.497725e+05  -3.703076e+04   1.210267e+05  -2.435025e+11   2.084971e+11  -2.375428e+11   1.960881e+05   2.180992e-25   0.000000e+00   0.000000e+00
      248000   2.479990e-07   1.764254e+01   1.630719e+01   1.347287e-01  -1.517049e+05  -3.537557e+04   1.190996e+05  -2.395805e+11   2.052859e+11  -2.441928e+11   1.960881e+05   2.180720e-25   0.000000e+00   0.000000e+00
      256000   2.559990e-07   1.764132e+01   1.630691e+01   1.356736e-01  -1.536055e+05  -3.374643e+04   1.171199e+05  -2.355535e+11   2.019849e+11  -2.507335e+11   1.960881e+05   2.180438e-25   0.000000e+00   0.000000e+00
      264000   2.639990e-07   1.764008e+01   1.630665e+01   1.366025e-01  -1.554735e+05  -3.214405e+04   1.150882e+05  -2.314232e+11   1.985954e+11  -2.571623e+11   1.960881e+05   2.180145e-25   0.000000e+00   0.000000e+00
      272000   2.719990e-07   1.763883e+01   1.630640e+01   1.375149e-01  -1.573080e+05  -3.056914e+04   1.130056e+05  -2.271915e+11   1.951188e+11  -2.634761e+11   1.960881e+05   2.179840e-25   0.000000e+00   0.000000e+00
      280000   2.799990e-07   1.763757e+01   1.630616e+01   1.384104e-01  -1.591083e+05  -2.902239e+04   1.108729e+05  -2.228605e+11   1.915567e+11  -2.696724e+11   1.960881e+05   2.179525e-25   0.000000e+00   0.000000e+00
      288000   2.879990e-07   1.763629e+01   1.630593e+01   1.392887e-01  -1.608735e+05  -2.750446e+04   1.086911e+05  -2.184321e+11   1.879106e+11  -2.757484e+11   1.960881e+05   2.179198e-25   0.000000e+00   0.000000e+00
      296000   2.959990e-07   1.763499e+01   1.630572e+01   1.401494e-01  -1.626029e+05  -2.601604e+04   1.064612e+05  -2.139083e+11   1.841820e+11  -2.817013e+11   1.960881e+05   2.178860e-25   0.000000e+00   0.000000e+00
      304000   3.039990e-07   1.763368e+01   1.630552e+01   1.409920e-01  -1.642958e+05  -2.455777e+04   1.041842e+05  -2.092913e+11   1.803727e+11  -2.875288e+11   1.960881e+05   2.178511e-25   0.000000e+00   0.000000e+00
      312000   3.119990e-07   1.763236e+01   1.630532e+01   1.418162e-01  -1.659513e+05  -2.313029e+04   1.018611e+05  -2.045831e+11   1.764842e+11  -2.932281e+11   1.960881e+05   2.178151e-25   0.000000e+00   0.000000e+00
      320000   3.199990e-07   1.763103e+01   1.630515e+01   1.426216e-01  -1.675689e+05  -2.173423e+04   9.949292e+04  -1.997858e+11   1.725182e+11  -2.987969e+11   1.960881e+05   2.177779e-25   0.000000e+00   0.000000e+00
      328000   3.279990e-07   1.762968e+01   1.630498e+01   1.434080e-01  -1.691477e+05  -2.037021e+04   9.708071e+04  -1.949018e+11   1.684765e+11  -3.042327e+11   1.960881e+05   2.177396e-25   0.000000e+00   0.000000e+00
      336000   3.359990e-07   1.762832e+01   1.630482e+01   1.441748e-01  -1.706871e+05  -1.903881e+04   9.462556e+04  -1.899331e+11   1.643608e+11  -3.095331e+11   1.960881e+05   2.177002e-25   0.000000e+00   0.000000e+00
      344000   3.439990e-07   1.762695e+01   1.630467e+01   1.449219e-01  -1.721864e+05  -1.774063e+04   9.212855e+04  -1.848822e+11   1.601728e+11  -3.146959e+11   1.960881e+05   2.176597e-25   0.000000e+00   0.000000e+00
      352000   3.519990e-07   1.762557e+01   1.630454e+01   1.456488e-01  -1.736450e+05  -1.647624e+04   8.959079e+04  -1.797512e+11   1.559144e+11  -3.197187e+11   1.960881e+05   2.176181e-25   0.000000e+00   0.000000e+00
      360000   3.599990e-07   1.762417e+01   1.630441e+01   1.463552e-01  -1.750622e+05  -1.524619e+04   8.701342e+04  -1.745426e+11   1.515874e+11  -3.245996e+11   1.960881e+05   2.175755e-25   0.000000e+00   0.000000e+00
      368000   3.679990e-07   1.762277e+01   1.630429e+01   1.470409e-01  -1.764374e+05  -1.405102e+04   8.439758e+04  -1.692586e+11   1.471938e+11  -3.293362e+11   1.960881e+05   2.175317e-25   0.000000e+00   0.000000e+00
      376000   3.759990e-07   1.762135e+01   1.630418e+01   1.477055e-01  -1.777701e+05  -1.289126e+04   8.174443e+04  -1.639018e+11   1.427353e+11  -3.339266e+11   1.960881e+05   2.174870e-25   0.000000e+00   0.000000e+00
      384000   3.839990e-07   1.761992e+01   1.630408e+01   1.483487e-01  -1.790597e+05  -1.176743e+04   7.905514e+04  -1.584744e+11   1.382140e+11  -3.383688e+11   1.960881e+05   2.174412e-25   0.000000e+00   0.000000e+00
      392000   3.919990e-07   1.761849e+01   1.630400e+01   1.489703e-01  -1.803055e+05  -1.068001e+04   7.633092e+04  -1.529790e+11   1.336317e+11  -3.426609e+11   1.960881e+05   2.173944e-25   0.000000e+00   0.000000e+00
      400000   3.999990e-07   1.761704e+01   1.630391e+01   1.495699e-01  -1.815072e+05  -9.629482e+03   7.357297e+04  -1.474182e+11   1.289906e+11  -3.468010e+11   1.960881e+05   2.173466e-25   0.000000e+00   0.000000e+00
      408000   4.079990e-07   1.761558e+01   1.630384e+01   1.501473e-01  -1.826640e+05  -8.616315e+03   7.078251e+04  -1.417943e+11   1.242926e+11  -3.507874e+11   1.960881e+05   2.172978e-25   0.000000e+00   0.000000e+00
      416000   4.159990e-07   1.761412e+01   1.630378e+01   1.507023e-01  -1.837757e+05  -7.640952e+03   6.796078e+04  -1.361099e+11   1.195397e+11  -3.546183e+11   1.960881e+05   2.172481e-25   0.000000e+00   0.000000e+00
      424000   4.239990e-07   1.761264e+01   1.630372e+01   1.512346e-01  -1.848416e+05  -6.703825e+03   6.510903e+04  -1.303676e+11   1.147340e+11  -3.582921e+11   1.960881e+05   2.171975e-25   0.000000e+00   0.000000e+00
      432000   4.319990e-07   1.761116e+01   1.630367e+01   1.517440e-01  -1.858614e+05  -5.805348e+03   6.222853e+04  -1.245700e+11   1.098776e+11  -3.618072e+11   1.960882e+05   2.171460e-25   0.000000e+00   0.000000e+00
      440000   4.399990e-07   1.760967e+01   1.630363e+01   1.522302e-01  -1.868346e+05  -4.945917e+03   5.932054e+04  -1.187197e+11   1.049727e+11  -3.651621e+11   1.960882e+05   2.170937e-25   0.000000e+00   0.000000e+00
      448000   4.479990e-07   1.760817e+01   1.630359e+01   1.526931e-01  -1.877608e+05  -4.125914e+03   5.638636e+04  -1.128194e+11   1.000213e+11  -3.683554e+11   1.960882e+05   2.170405e-25   0.000000e+00   0.000000e+00
      456000   4.559990e-07   1.760666e+01   1.630356e+01   1.531323e-01  -1.886396e+05  -3.345700e+03   5.342729e+04  -1.068716e+11   9.502556e+10  -3.713858e+11   1.960882e+05   2.169865e-25   0.000000e+00   0.000000e+00
      464000   4.639990e-07   1.760515e+01   1.630354e+01   1.535478e-01  -1.894706e+05  -2.605622e+03   5.044463e+04  -1.008791e+11   8.998774e+10  -3.742519e+11   1.960882e+05   2.169318e-25   0.000000e+00   0.000000e+00
      472000   4.719990e-07   1.760363e+01   1.630352e+01   1.539394e-01  -1.902535e+05  -1.906008e+03   4.743970e+04  -9.484453e+10   8.490999e+10  -3.769525e+11   1.960882e+05   2.168764e-25   0.000000e+00   0.000000e+00
      480000   4.799990e-07   1.760211e+01   1.630350e+01   1.543068e-01  -1.909880e+05  -1.247168e+03   4.441383e+04  -8.877061e+10   7.979454e+10  -3.794865e+11   1.960882e+05   2.168202e-25   0.000000e+00   0.000000e+00
      488000   4.879990e-07   1.760058e+01   1.630350e+01   1.546500e-01  -1.916738e+05  -6.293948e+02   4.136836e+04  -8.266005e+10   7.464361e+10  -3.818528e+11   1.960882e+05   2.167634e-25   0.000000e+00   0.000000e+00
      496000   4.959990e-07   1.759904e+01   1.630349e+01   1.549687e-01  -1.923105e+05  -5.329121e+01   3.830476e+04  -7.651081e+10   6.939406e+10  -3.840247e+11   1.960882e+05   2.166654e-25   0.000000e+00   0.000000e+00
      504000   5.039990e-07   1.759750e+01   1.630350e+01   1.552628e-01  -1.928979e+05   4.810212e+02   3.522434e+04  -7.033634e+10   6.417974e+10  -3.860525e+11   1.960882e+05   2.166084e-25   0.000000e+00   0.000000e+00
      512000   5.119990e-07   1.759595e+01   1.630350e+01   1.555322e-01  -1.934358e+05   9.735031e+02   3.212837e+04  -6.413343e+10   5.893681e+10  -3.879100e+11   1.960882e+05   2.165509e-25   0.000000e+00   0.000000e+00
      520000   5.199990e-07   1.759441e+01   1.630351e+01   1.557768e-01  -1.939239e+05   1.423935e+03   2.901823e+04  -5.790484e+10   5.366756e+10  -3.895963e+11   1.960882e+05   2.164929e-25   0.000000e+00   0.000000e+00
      528000   5.279990e-07   1.759285e+01   1.630353e+01   1.559965e-01  -1.943622e+05   1.832115e+03   2.589529e+04  -5.165335e+10   4.837430e+10  -3.911108e+11   1.960882e+05   2.164345e-25   0.000000e+00   0.000000e+00
      536000   5.359990e-07   1.759130e+01   1.630354e+01   1.561911e-01  -1.947503e+05   2.197860e+03   2.276092e+04  -4.538173e+10   4.305935e+10  -3.924529e+11   1.960882e+05   2.163757e-25   0.000000e+00   0.000000e+00
      544000   5.439990e-07   1.758974e+01   1.630356e+01   1.563606e-01  -1.950882e+05   2.521007e+03   1.961650e+04  -3.909277e+10   3.772504e+10  -3.936220e+11   1.960882e+05   2.163165e-25   0.000000e+00   0.000000e+00
      552000   5.519990e-07   1.758817e+01   1.630358e+01   1.565049e-01  -1.953758e+05   2.801410e+03   1.646343e+04  -3.278925e+10   3.237370e+10  -3.946176e+11   1.960882e+05   2.162570e-25   0.000000e+00   0.000000e+00
      560000   5.599990e-07   1.758661e+01   1.630360e+01   1.566240e-01  -1.956128e+05   3.038942e+03   1.330308e+04  -2.647396e+10   2.700770e+10  -3.954395e+11   1.960882e+05   2.161973e-25   0.000000e+00   0.000000e+00
      568000   5.679990e-07   1.758504e+01   1.630363e+01   1.567178e-01  -1.957993e+05   3.233495e+03   1.013686e+04  -2.014971e+10   2.162937e+10  -3.960872e+11   1.960882e+05   2.161374e-25   0.000000e+00   0.000000e+00
      576000   5.759990e-07   1.758348e+01   1.630366e+01   1.567862e-01  -1.959352e+05   3.384980e+03   6.966151e+03  -1.381928e+10   1.624109e+10  -3.965606e+11   1.960882e+05   2.160772e-25   0.000000e+00   0.000000e+00
      584000   5.839990e-07   1.758191e+01   1.630368e+01   1.568292e-01  -1.960204e+05   3.493327e+03   3.792355e+03  -7.485462e+09   1.084522e+10  -3.968594e+11   1.960882e+05   2.160170e-25   0.000000e+00   0.000000e+00
      592000   5.919990e-07   1.758034e+01   1.630371e+01   1.568469e-01  -1.960550e+05   3.558484e+03   6.168657e+02  -1.151057e+09   5.444143e+09  -3.969837e+11   1.960882e+05   2.159567e-25   0.000000e+00   0.000000e+00
      600000   5.999990e-07   1.757877e+01   1.630374e+01   1.568391e-01  -1.960388e+05   3.580420e+03  -2.558919e+03   5.181151e+09   4.022892e+07  -3.969334e+11   1.960882e+05   2.158963e-25   0.000000e+00   0.000000e+00
      608000   6.079990e-07   1.757721e+01   1.630377e+01   1.568059e-01  -1.959721e+05   3.559121e+03  -5.733603e+03   1.150838e+10  -5.364140e+09  -3.967085e+11   1.960882e+05   2.158360e-25   0.000000e+00   0.000000e+00
      616000   6.159990e-07   1.757564e+01   1.630380e+01   1.567474e-01  -1.958547e+05   3.494594e+03  -8.905790e+03   1.782784e+10  -1.076658e+10  -3.963094e+11   1.960882e+05   2.157757e-25   0.000000e+00   0.000000e+00
      624000   6.239990e-07   1.757407e+01   1.630383e+01   1.566634e-01  -1.956868e+05   3.386862e+03  -1.207409e+04   2.413676e+10  -1.616472e+10  -3.957361e+11   1.960882e+05   2.157155e-25   0.000000e+00   0.000000e+00
      632000   6.319990e-07   1.757251e+01   1.630385e+01   1.565542e-01  -1.954686e+05   3.235971e+03  -1.523710e+04   3.043239e+10  -2.155616e+10  -3.949890e+11   1.960882e+05   2.156554e-25   0.000000e+00   0.000000e+00
      640000   6.399990e-07   1.757094e+01   1.630388e+01   1.564197e-01  -1.952000e+05   3.041982e+03  -1.839345e+04   3.671196e+10  -2.693853e+10  -3.940684e+11   1.960882e+05   2.155955e-25   0.000000e+00   0.000000e+00
      648000   6.479990e-07   1.756938e+01   1.630390e+01   1.562599e-01  -1.948812e+05   2.804979e+03  -2.154174e+04   4.297273e+10  -3.230945e+10  -3.929749e+11   1.960882e+05   2.155359e-25   0.000000e+00   0.000000e+00
      656000   6.559990e-07   1.756783e+01   1.630392e+01   1.560750e-01  -1.945124e+05   2.525063e+03  -2.468059e+04   4.921197e+10  -3.766656e+10  -3.917090e+11   1.960882e+05   2.154766e-25   0.000000e+00   0.000000e+00
      664000   6.639990e-07   1.756627e+01   1.630394e+01   1.558651e-01  -1.940939e+05   2.202352e+03  -2.780862e+04   5.542694e+10  -4.300747e+10  -3.902712e+11   1.960882e+05   2.154175e-25   0.000000e+00   0.000000e+00
      672000   6.719990e-07   1.756472e+01   1.630396e+01   1.556301e-01  -1.936257e+05   1.836987e+03  -3.092447e+04   6.161496e+10  -4.832983e+10  -3.886624e+11   1.960882e+05   2.153588e-25   0.000000e+00   0.000000e+00
      680000   6.799990e-07   1.756317e+01   1.630397e+01   1.553703e-01  -1.931081e+05   1.429126e+03  -3.402676e+04   6.777332e+10  -5.363128e+10  -3.868831e+11   1.960883e+05   2.153006e-25   0.000000e+00   0.000000e+00
      688000   6.879990e-07   1.756163e+01   1.630398e+01   1.550857e-01  -1.925414e+05   9.789437e+02  -3.711414e+04   7.389934e+10  -5.890947e+10  -3.849343e+11   1.960883e+05   2.152428e-25   0.000000e+00   0.000000e+00
      696000   6.959990e-07   1.756009e+01   1.630399e+01   1.547765e-01  -1.919258e+05   4.866371e+02  -4.018526e+04   7.999037e+10  -6.416206e+10  -3.828169e+11   1.960883e+05   2.151854e-25   0.000000e+00   0.000000e+00
      704000   7.039990e-07   1.755856e+01   1.630399e+01   1.544428e-01  -1.912616e+05  -4.758008e+01  -4.323876e+04   8.604377e+10  -6.938673e+10  -3.805318e+11   1.960883e+05   2.151286e-25   0.000000e+00   0.000000e+00
      712000   7.119990e-07   1.755703e+01   1.630398e+01   1.540847e-01  -1.905492e+05  -6.234751e+02  -4.627332e+04   9.205691e+10  -7.458115e+10  -3.780802e+11   1.960883e+05   2.150724e-25   0.000000e+00   0.000000e+00
      720000   7.199990e-07   1.755551e+01   1.630398e+01   1.537025e-01  -1.897888e+05  -1.240797e+03  -4.928760e+04   9.802720e+10  -7.974303e+10  -3.754631e+11   1.960883e+05   2.150167e-25   0.000000e+00   0.000000e+00
      728000   7.279990e-07   1.755400e+01   1.630396e+01   1.532962e-01  -1.889809e+05  -1.899276e+03  -5.228029e+04   1.039520e+11  -8.487007e+10  -3.726818e+11   1.960883e+05   2.149617e-25   0.000000e+00   0.000000e+00
      736000   7.359990e-07   1.755249e+01   1.630395e+01   1.528661e-01  -1.881257e+05  -2.598624e+03  -5.525008e+04   1.098289e+11  -8.995999e+10  -3.697376e+11   1.960883e+05   2.149074e-25   0.000000e+00   0.000000e+00
      744000   7.439990e-07   1.755099e+01   1.630392e+01   1.524123e-01  -1.872237e+05  -3.338536e+03  -5.819566e+04   1.156553e+11  -9.501052e+10  -3.666317e+11   1.960883e+05   2.148538e-25   0.000000e+00   0.000000e+00
      752000   7.519990e-07   1.754949e+01   1.630389e+01   1.519350e-01  -1.862754e+05  -4.118687e+03  -6.111575e+04   1.214286e+11  -1.000194e+11  -3.633655e+11   1.960883e+05   2.148009e-25   0.000000e+00   0.000000e+00
      760000   7.599990e-07   1.754801e+01   1.630386e+01   1.514345e-01  -1.852810e+05  -4.938735e+03  -6.400908e+04   1.271464e+11  -1.049845e+11  -3.599407e+11   1.960883e+05   2.147488e-25   0.000000e+00   0.000000e+00
      768000   7.679990e-07   1.754653e+01   1.630381e+01   1.509109e-01  -1.842412e+05  -5.798321e+03  -6.687438e+04   1.328062e+11  -1.099035e+11  -3.563587e+11   1.960883e+05   2.146975e-25   0.000000e+00   0.000000e+00
      776000   7.759990e-07   1.754506e+01   1.630376e+01   1.503646e-01  -1.831563e+05  -6.697067e+03  -6.971040e+04   1.384056e+11  -1.147742e+11  -3.526212e+11   1.960883e+05   2.146470e-25   0.000000e+00   0.000000e+00
      784000   7.839990e-07   1.754360e+01   1.630371e+01   1.497956e-01  -1.820269e+05  -7.634579e+03  -7.251591e+04   1.439423e+11  -1.195946e+11  -3.487299e+11   1.960883e+05   2.145974e-25   0.000000e+00   0.000000e+00
      792000   7.919990e-07   1.754215e+01   1.630364e+01   1.492044e-01  -1.808534e+05  -8.610445e+03  -7.528967e+04   1.494138e+11  -1.243623e+11  -3.446864e+11   1.960883e+05   2.145487e-25   0.000000e+00   0.000000e+00
      800000   7.999990e-07   1.754070e+01   1.630357e+01   1.485911e-01  -1.796364e+05  -9.624235e+03  -7.803048e+04   1.548178e+11  -1.290754e+11  -3.404927e+11   1.960883e+05   2.145008e-25   0.000000e+00   0.000000e+00
      808000   8.079990e-07   1.753927e+01   1.630349e+01   1.479560e-01  -1.783765e+05  -1.067550e+04  -8.073715e+04   1.601519e+11  -1.337317e+11  -3.361506e+11   1.960883e+05   2.144539e-25   0.000000e+00   0.000000e+00
      816000   8.159990e-07   1.753785e+01   1.630340e+01   1.472994e-01  -1.770742e+05  -1.176379e+04  -8.340850e+04   1.654141e+11  -1.383291e+11  -3.316621e+11   1.960883e+05   2.144080e-25   0.000000e+00   0.000000e+00
      824000   8.239990e-07   1.753644e+01   1.630330e+01   1.466216e-01  -1.757300e+05  -1.288861e+04  -8.604336e+04   1.706019e+11  -1.428656e+11  -3.270292e+11   1.960883e+05   2.143630e-25   0.000000e+00   0.000000e+00
      832000   8.319990e-07   1.753504e+01   1.630319e+01   1.459228e-01  -1.743447e+05  -1.404948e+04  -8.864058e+04   1.757132e+11  -1.473391e+11  -3.222540e+11   1.960883e+05   2.143191e-25   0.000000e+00   0.000000e+00
      840000   8.399990e-07   1.753365e+01   1.630307e+01   1.452034e-01  -1.729188e+05  -1.524587e+04  -9.119904e+04   1.807458e+11  -1.517477e+11  -3.173386e+11   1.960883e+05   2.142761e-25   0.000000e+00   0.000000e+00
      848000   8.479990e-07   1.753227e+01   1.630295e+01   1.444637e-01  -1.714530e+05  -1.647727e+04  -9.371763e+04   1.856975e+11  -1.560895e+11  -3.122852e+11   1.960883e+05   2.142341e-25   0.000000e+00   0.000000e+00
      856000   8.559990e-07   1.753091e+01   1.630281e+01   1.437041e-01  -1.699479e+05  -1.774312e+04  -9.619524e+04   1.905664e+11  -1.603623e+11  -3.070962e+11   1.960883e+05   2.141932e-25   0.000000e+00   0.000000e+00
      864000   8.639990e-07   1.752955e+01   1.630266e+01   1.429247e-01  -1.684042e+05  -1.904288e+04  -9.863080e+04   1.953503e+11  -1.645645e+11  -3.017737e+11   1.960883e+05   2.141533e-25   0.000000e+00   0.000000e+00
      872000   8.719990e-07   1.752821e+01   1.630251e+01   1.421261e-01  -1.668225e+05  -2.037596e+04  -1.010233e+05   2.000472e+11  -1.686940e+11  -2.963202e+11   1.960883e+05   2.141145e-25   0.000000e+00   0.000000e+00
      880000   8.799990e-07   1.752688e+01   1.630234e+01   1.413085e-01  -1.652036e+05  -2.174179e+04  -1.033716e+05   2.046551e+11  -1.727490e+11  -2.907381e+11   1.960883e+05   2.140767e-25   0.000000e+00   0.000000e+00
      888000   8.879990e-07   1.752557e+01   1.630216e+01   1.404722e-01  -1.635483e+05  -2.313975e+04  -1.056747e+05   2.091722e+11  -1.767278e+11  -2.850300e+11   1.960883e+05   2.140399e-25   0.000000e+00   0.000000e+00
      896000   8.959990e-07   1.752427e+01   1.630197e+01   1.396178e-01  -1.618571e+05  -2.456923e+04  -1.079317e+05   2.135964e+11  -1.806285e+11  -2.791983e+11   1.960883e+05   2.140043e-25   0.000000e+00   0.000000e+00
      904000   9.039990e-07   1.752298e+01   1.630176e+01   1.387455e-01  -1.601310e+05  -2.602959e+04  -1.101416e+05   2.179259e+11  -1.844494e+11  -2.732457e+11   1.960883e+05   2.139697e-25   0.000000e+00   0.000000e+00
      912000   9.119990e-07   1.752171e+01   1.630155e+01   1.378557e-01  -1.583706e+05  -2.752020e+04  -1.123033e+05   2.221590e+11  -1.881889e+11  -2.671747e+11   1.960883e+05   2.139361e-25   0.000000e+00   0.000000e+00
      920000   9.199990e-07   1.752045e+01   1.630132e+01   1.369487e-01  -1.565767e+05  -2.904040e+04  -1.144161e+05   2.262938e+11  -1.918451e+11  -2.609882e+11   1.960883e+05   2.139036e-25   0.000000e+00   0.000000e+00
      928000   9.279990e-07   1.751920e+01   1.630109e+01   1.360251e-01  -1.547501e+05  -3.058950e+04  -1.164788e+05   2.303287e+11  -1.954166e+11  -2.546888e+11   1.960884e+05   2.138722e-25   0.000000e+00   0.000000e+00
      936000   9.359990e-07   1.751797e+01   1.630083e+01   1.350852e-01  -1.528917e+05  -3.216684e+04  -1.184908e+05   2.342619e+11  -1.989017e+11  -2.482793e+11   1.960884e+05   2.138418e-25   0.000000e+00   0.000000e+00
      944000   9.439990e-07   1.751675e+01   1.630057e+01   1.341294e-01  -1.510022e+05  -3.377170e+04  -1.204510e+05   2.380917e+11  -2.022989e+11  -2.417627e+11   1.960884e+05   2.138124e-25   0.000000e+00   0.000000e+00
      952000   9.519990e-07   1.751555e+01   1.630029e+01   1.331581e-01  -1.490825e+05  -3.540338e+04  -1.223587e+05   2.418167e+11  -2.056066e+11  -2.351417e+11   1.960884e+05   2.137841e-25   0.000000e+00   0.000000e+00
      960000   9.599990e-07   1.751437e+01   1.630000e+01   1.321718e-01  -1.471334e+05  -3.706117e+04  -1.242130e+05   2.454353e+11  -2.088234e+11  -2.284193e+11   1.960884e+05   2.137568e-25   0.000000e+00   0.000000e+00
      968000   9.679990e-07   1.751320e+01   1.629970e+01   1.311709e-01  -1.451557e+05  -3.874461e+04  -1.260132e+05   2.489603e+11  -2.119843e+11  -2.216031e+11   1.960884e+05   2.137643e-25   0.000000e+00   0.000000e+00
      976000   9.759990e-07   1.751205e+01   1.629938e+01   1.301558e-01  -1.431504e+05  -4.045266e+04  -1.277584e+05   2.523609e+11  -2.150132e+11  -2.146853e+11   1.960884e+05   2.137368e-25   0.000000e+00   0.000000e+00
      984000   9.839990e-07   1.751091e+01   1.629905e+01   1.291269e-01  -1.411182e+05  -4.218457e+04  -1.294479e+05   2.556507e+11  -2.179470e+11  -2.076753e+11   1.960884e+05   2.137103e-25   0.000000e+00   0.000000e+00
      992000   9.919990e-07   1.750979e+01   1.629871e+01   1.280847e-01  -1.390602e+05  -4.393956e+04  -1.310810e+05   2.588282e+11  -2.207843e+11  -2.005760e+11   1.960884e+05   2.136848e-25   0.000000e+00   0.000000e+00
     1000000   9.999990e-07   1.750868e+01   1.629835e+01   1.270298e-01  -1.369773e+05  -4.571686e+04  -1.326569e+05   2.618921e+11  -2.235240e+11  -1.933908e+11   1.960884e+05   2.136601e-25   0.000000e+00   0.000000e+00
     1008000   1.007999e-06   1.750760e+01   1.629798e+01   1.259624e-01  -1.348703e+05  -4.751568e+04  -1.341750e+05   2.648413e+11  -2.261647e+11  -1.861227e+11   1.960884e+05   2.136362e-25   0.000000e+00   0.000000e+00
     1016000   1.015999e-06   1.750653e+01   1.629759e+01   1.248831e-01  -1.327401e+05  -4.933523e+04  -1.356346e+05   2.676745e+11  -2.287054e+11  -1.787750e+11   1.960884e+05   2.136133e-25   0.000000e+00   0.000000e+00
     1024000   1.023999e-06   1.750547e+01   1.629719e+01   1.237924e-01  -1.305878e+05  -5.117470e+04  -1.370352e+05   2.703906e+11  -2.311448e+11  -1.713509e+11   1.960884e+05   2.135911e-25   0.000000e+00   0.000000e+00
     1032000   1.031999e-06   1.750444e+01   1.629677e+01   1.226907e-01  -1.284142e+05  -5.303328e+04  -1.383760e+05   2.729884e+11  -2.334820e+11  -1.638537e+11   1.960884e+05   2.135698e-25   0.000000e+00   0.000000e+00
     1040000   1.039999e-06   1.750342e+01   1.629634e+01   1.215785e-01  -1.262203e+05  -5.491014e+04  -1.396566e+05   2.754668e+11  -2.357159e+11  -1.562866e+11   1.960884e+05   2.135492e-25   0.000000e+00   0.000000e+00
     1048000   1.047999e-06   1.750242e+01   1.629589e+01   1.204564e-01  -1.240070e+05  -5.680446e+04  -1.408764e+05   2.778250e+11  -2.378455e+11  -1.486532e+11   1.960884e+05   2.135293e-25   0.000000e+00   0.000000e+00
     1056000   1.055999e-06   1.750143e+01   1.629543e+01   1.193247e-01  -1.217754e+05  -5.871539e+04  -1.420349e+05   2.800619e+11  -2.398699e+11  -1.409566e+11   1.960884e+05   2.135101e-25   0.000000e+00   0.000000e+00
     1064000   1.063999e-06   1.750047e+01   1.629495e+01   1.181840e-01  -1.195264e+05  -6.064210e+04  -1.431316e+05   2.821766e+11  -2.417882e+11  -1.332002e+11   1.960884e+05   2.134917e-25   0.000000e+00   0.000000e+00
     1072000   1.071999e-06   1.749952e+01   1.629446e+01   1.170347e-01  -1.172611e+05  -6.258351e+04  -1.441659e+05   2.841175e+11  -2.435485e+11  -1.253693e+11   1.960884e+05   2.133938e-25   0.000000e+00   0.000000e+00
     1080000   1.079999e-06   1.749859e+01   1.629395e+01   1.158775e-01  -1.149806e+05  -6.453879e+04  -1.451374e+05   2.859856e+11  -2.452516e+11  -1.175074e+11   1.960884e+05   2.133774e-25   0.000000e+00   0.000000e+00
     1088000   1.087999e-06   1.749768e+01   1.629343e+01   1.147127e-01  -1.126857e+05  -6.650725e+04  -1.460459e+05   2.877292e+11  -2.468464e+11  -1.095960e+11   1.960884e+05   2.133615e-25   0.000000e+00   0.000000e+00
     1096000   1.095999e-06   1.749679e+01   1.629289e+01   1.135409e-01  -1.103773e+05  -6.848804e+04  -1.468908e+05   2.893476e+11  -2.483322e+11  -1.016386e+11   1.960884e+05   2.133462e-25   0.000000e+00   0.000000e+00
     1104000   1.103999e-06   1.749592e+01   1.629233e+01   1.123626e-01  -1.080564e+05  -7.048028e+04  -1.476719e+05   2.908402e+11  -2.497083e+11  -9.363868e+10   1.960884e+05   2.133314e-25   0.000000e+00   0.000000e+00
     1112000   1.111999e-06   1.749506e+01   1.629176e+01   1.111783e-01  -1.057242e+05  -7.248308e+04  -1.483889e+05   2.922065e+11  -2.509742e+11  -8.559982e+10   1.960884e+05   2.133170e-25   0.000000e+00   0.000000e+00
     1120000   1.119999e-06   1.749423e+01   1.629117e+01   1.099886e-01  -1.033815e+05  -7.449557e+04  -1.490414e+05   2.934459e+11  -2.521293e+11  -7.752548e+10   1.960884e+05   2.133031e-25   0.000000e+00   0.000000e+00
     1128000   1.127999e-06   1.749341e+01   1.629057e+01   1.087938e-01  -1.010294e+05  -7.651685e+04  -1.496292e+05   2.945578e+11  -2.531731e+11  -6.941922e+10   1.960884e+05   2.132896e-25   0.000000e+00   0.000000e+00
     1136000   1.135999e-06   1.749261e+01   1.628995e+01   1.075947e-01  -9.866890e+04  -7.854604e+04  -1.501521e+05   2.955420e+11  -2.541051e+11  -6.128458e+10   1.960884e+05   2.132763e-25   0.000000e+00   0.000000e+00
     1144000   1.143999e-06   1.749183e+01   1.628931e+01   1.063916e-01  -9.630105e+04  -8.058224e+04  -1.506097e+05   2.963980e+11  -2.549251e+11  -5.312512e+10   1.960884e+05   2.132634e-25   0.000000e+00   0.000000e+00
     1152000   1.151999e-06   1.749107e+01   1.628866e+01   1.051851e-01  -9.392687e+04  -8.262454e+04  -1.510020e+05   2.971255e+11  -2.556327e+11  -4.494441e+10   1.960884e+05   2.132508e-25   0.000000e+00   0.000000e+00
     1160000   1.159999e-06   1.749033e+01   1.628799e+01   1.039757e-01  -9.154738e+04  -8.467206e+04  -1.513288e+05   2.977243e+11  -2.562275e+11  -3.674601e+10   1.960884e+05   2.132384e-25   0.000000e+00   0.000000e+00
     1168000   1.167999e-06   1.748960e+01   1.628730e+01   1.027640e-01  -8.916362e+04  -8.672388e+04  -1.515899e+05   2.981942e+11  -2.567094e+11  -2.853352e+10   1.960884e+05   2.132261e-25   0.000000e+00   0.000000e+00
     1176000   1.175999e-06   1.748890e+01   1.628660e+01   1.015505e-01  -8.677662e+04  -8.877911e+04  -1.517853e+05   2.985349e+11  -2.570781e+11  -2.031051e+10   1.960884e+05   2.132140e-25   0.000000e+00   0.000000e+00
     1184000   1.183999e-06   1.748821e+01   1.628588e+01   1.003356e-01  -8.438741e+04  -9.083683e+04  -1.519148e+05   2.987465e+11  -2.573337e+11  -1.208058e+10   1.960885e+05   2.132020e-25   0.000000e+00   0.000000e+00
     1192000   1.191999e-06   1.748755e+01   1.628515e+01   9.912000e-02  -8.199633e+04  -9.289674e+04  -1.519786e+05   2.989499e+11  -2.575780e+11  -3.847844e+09   1.960885e+05   2.133613e-25   0.000000e+00   0.000000e+00
     1200000   1.199999e-06   1.748690e+01   1.628440e+01   9.790414e-02  -7.960482e+04  -9.495755e+04  -1.519764e+05   2.989053e+11  -2.576059e+11   4.389908e+09   1.960885e+05   2.133506e-25   0.000000e+00   0.000000e+00
     1208000   1.207999e-06   1.748628e+01   1.628363e+01   9.668856e-02  -7.721419e+04  -9.701813e+04  -1.519083e+05   2.987315e+11  -2.575204e+11   1.262392e+10   1.960885e+05   2.133399e-25   0.000000e+00   0.000000e+00
     1216000   1.215999e-06   1.748567e+01   1.628285e+01   9.547378e-02  -7.482546e+04  -9.907757e+04  -1.517744e+05   2.984286e+11  -2.573216e+11   2.085059e+10   1.960885e+05   2.133291e-25   0.000000e+00   0.000000e+00
     1224000   1.223999e-06   1.748508e+01   1.628204e+01   9.426034e-02  -7.243967e+04  -1.011350e+05  -1.515747e+05   2.979966e+11  -2.570096e+11   2.906636e+10   1.960885e+05   2.133182e-25   0.000000e+00   0.000000e+00
     1232000   1.231999e-06   1.748451e+01   1.628123e+01   9.304876e-02  -7.005786e+04  -1.031894e+05  -1.513094e+05   2.974359e+11  -2.565846e+11   3.726763e+10   1.960885e+05   2.133071e-25   0.000000e+00   0.000000e+00
     1240000   1.239999e-06   1.748396e+01   1.628039e+01   9.183957e-02  -6.768104e+04  -1.052400e+05  -1.509785e+05   2.967468e+11  -2.560469e+11   4.545085e+10   1.960885e+05   2.132958e-25   0.000000e+00   0.000000e+00
     1248000   1.247999e-06   1.748343e+01   1.627954e+01   9.063328e-02  -6.531025e+04  -1.072859e+05  -1.505822e+05   2.959295e+11  -2.553968e+11   5.361245e+10   1.960885e+05   2.132843e-25   0.000000e+00   0.000000e+00
     1256000   1.255999e-06   1.748291e+01   1.627868e+01   8.943042e-02  -6.294651e+04  -1.093261e+05  -1.501207e+05   2.949844e+11  -2.546345e+11   6.174888e+10   1.960885e+05   2.132725e-25   0.000000e+00   0.000000e+00
     1264000   1.263999e-06   1.748242e+01   1.627779e+01   8.823152e-02  -6.059084e+04  -1.113597e+05  -1.495943e+05   2.939121e+11  -2.537604e+11   6.985662e+10   1.960885e+05   2.132604e-25   0.000000e+00   0.000000e+00
     1272000   1.271999e-06   1.748194e+01   1.627689e+01   8.703709e-02  -5.824426e+04  -1.133859e+05  -1.490031e+05   2.927129e+11  -2.527750e+11   7.793215e+10   1.960885e+05   2.132480e-25   0.000000e+00   0.000000e+00
     1280000   1.279999e-06   1.748149e+01   1.627598e+01   8.584764e-02  -5.590777e+04  -1.154038e+05  -1.483475e+05   2.913875e+11  -2.516788e+11   8.597194e+10   1.960885e+05   2.132351e-25   0.000000e+00   0.000000e+00
     1288000   1.287999e-06   1.748105e+01   1.627505e+01   8.466370e-02  -5.358239e+04  -1.174125e+05  -1.476277e+05   2.899364e+11  -2.504724e+11   9.397253e+10   1.960885e+05   2.132218e-25   0.000000e+00   0.000000e+00
     1296000   1.295999e-06   1.748063e+01   1.627410e+01   8.348577e-02  -5.126912e+04  -1.194111e+05  -1.468440e+05   2.883603e+11  -2.491562e+11   1.019304e+11   1.960885e+05   2.132080e-25   0.000000e+00   0.000000e+00
     1304000   1.303999e-06   1.748023e+01   1.627314e+01   8.231436e-02  -4.896896e+04  -1.213987e+05  -1.459969e+05   2.866599e+11  -2.477309e+11   1.098422e+11   1.960885e+05   2.131936e-25   0.000000e+00   0.000000e+00
     1312000   1.311999e-06   1.747985e+01   1.627216e+01   8.114999e-02  -4.668290e+04  -1.233745e+05  -1.450867e+05   2.848360e+11  -2.461973e+11   1.177044e+11   1.960885e+05   2.131788e-25   0.000000e+00   0.000000e+00
     1320000   1.319999e-06   1.747948e+01   1.627116e+01   7.999315e-02  -4.441192e+04  -1.253376e+05  -1.441138e+05   2.828893e+11  -2.445560e+11   1.255137e+11   1.960885e+05   2.131633e-25   0.000000e+00   0.000000e+00
     1328000   1.327999e-06   1.747914e+01   1.627015e+01   7.884433e-02  -4.215700e+04  -1.272871e+05  -1.430786e+05   2.808207e+11  -2.428078e+11   1.332666e+11   1.960885e+05   2.131472e-25   0.000000e+00   0.000000e+00
     1336000   1.335999e-06   1.747881e+01   1.626913e+01   7.770405e-02  -3.991911e+04  -1.292222e+05  -1.419816e+05   2.786312e+11  -2.409537e+11   1.409598e+11   1.960885e+05   2.131304e-25   0.000000e+00   0.000000e+00
     1344000   1.343999e-06   1.747850e+01   1.626809e+01   7.657279e-02  -3.769922e+04  -1.311421e+05  -1.408234e+05   2.763217e+11  -2.389943e+11   1.485900e+11   1.960885e+05   2.131130e-25   0.000000e+00   0.000000e+00
     1352000   1.351999e-06   1.747820e+01   1.626703e+01   7.545104e-02  -3.549828e+04  -1.330459e+05  -1.396044e+05   2.738932e+11  -2.369307e+11   1.561538e+11   1.960885e+05   2.130948e-25   0.000000e+00   0.000000e+00
     1360000   1.359999e-06   1.747793e+01   1.626596e+01   7.433928e-02  -3.331724e+04  -1.349327e+05  -1.383251e+05   2.713467e+11  -2.347639e+11   1.636481e+11   1.960885e+05   2.130759e-25   0.000000e+00   0.000000e+00
     1368000   1.367999e-06   1.747767e+01   1.626487e+01   7.323800e-02  -3.115705e+04  -1.368018e+05  -1.369862e+05   2.686835e+11  -2.324948e+11   1.710696e+11   1.960885e+05   2.130562e-25   0.000000e+00   0.000000e+00
     1376000   1.375999e-06   1.747743e+01   1.626377e+01   7.214766e-02  -2.901862e+04  -1.386523e+05  -1.355882e+05   2.659046e+11  -2.301246e+11   1.784150e+11   1.960885e+05   2.130357e-25   0.000000e+00   0.000000e+00
     1384000   1.383999e-06   1.747721e+01   1.626265e+01   7.106874e-02  -2.690288e+04  -1.404835e+05  -1.341318e+05   2.630113e+11  -2.276542e+11   1.856813e+11   1.960885e+05   2.130143e-25   0.000000e+00   0.000000e+00
     1392000   1.391999e-06   1.747700e+01   1.626152e+01   7.000171e-02  -2.481074e+04  -1.422945e+05  -1.326175e+05   2.600047e+11  -2.250850e+11   1.928652e+11   1.960885e+05   2.129921e-25   0.000000e+00   0.000000e+00
     1400000   1.399999e-06   1.747681e+01   1.626038e+01   6.894701e-02  -2.274311e+04  -1.440846e+05  -1.310461e+05   2.568863e+11  -2.224180e+11   1.999637e+11   1.960885e+05   2.129690e-25   0.000000e+00   0.000000e+00
     1408000   1.407999e-06   1.747664e+01   1.625922e+01   6.790512e-02  -2.070086e+04  -1.458530e+05  -1.294183e+05   2.536574e+11  -2.196545e+11   2.069737e+11   1.960885e+05   2.129450e-25   0.000000e+00   0.000000e+00
     1416000   1.415999e-06   1.747648e+01   1.625804e+01   6.687647e-02  -1.868488e+04  -1.475988e+05  -1.277348e+05   2.503194e+11  -2.167959e+11   2.138922e+11   1.960885e+05   2.129201e-25   0.000000e+00   0.000000e+00
     1424000   1.423999e-06   1.747634e+01   1.625685e+01   6.586151e-02  -1.669604e+04  -1.493215e+05  -1.259963e+05   2.468737e+11  -2.138433e+11   2.207163e+11   1.960885e+05   2.128943e-25   0.000000e+00   0.000000e+00
     1432000   1.431999e-06   1.747621e+01   1.625565e+01   6.486067e-02  -1.473519e+04  -1.510201e+05  -1.242036e+05   2.433217e+11  -2.107983e+11   2.274429e+11   1.960886e+05   2.128675e-25   0.000000e+00   0.000000e+00
     1440000   1.439999e-06   1.747610e+01   1.625444e+01   6.387439e-02  -1.280318e+04  -1.526940e+05  -1.223575e+05   2.396652e+11  -2.076621e+11   2.340693e+11   1.960886e+05   2.128397e-25   0.000000e+00   0.000000e+00
     1448000   1.447999e-06   1.747601e+01   1.625321e+01   6.290310e-02  -1.090083e+04  -1.543424e+05  -1.204587e+05   2.359055e+11  -2.044363e+11   2.405925e+11   1.960886e+05   2.128109e-25   0.000000e+00   0.000000e+00
     1456000   1.455999e-06   1.747593e+01   1.625197e+01   6.194719e-02  -9.028963e+03  -1.559647e+05  -1.185083e+05   2.320444e+11  -2.011223e+11   2.470098e+11   1.960886e+05   2.127812e-25   0.000000e+00   0.000000e+00
     1464000   1.463999e-06   1.747586e+01   1.625071e+01   6.100710e-02  -7.188387e+03  -1.575602e+05  -1.165069e+05   2.280835e+11  -1.977216e+11   2.533185e+11   1.960886e+05   2.127504e-25   0.000000e+00   0.000000e+00
     1472000   1.471999e-06   1.747581e+01   1.624945e+01   6.008322e-02  -5.379892e+03  -1.591280e+05  -1.144555e+05   2.240246e+11  -1.942359e+11   2.595157e+11   1.960886e+05   2.127186e-25   0.000000e+00   0.000000e+00
     1480000   1.479999e-06   1.747577e+01   1.624817e+01   5.917594e-02  -3.604255e+03  -1.606677e+05  -1.123549e+05   2.198693e+11  -1.906666e+11   2.655989e+11   1.960886e+05   2.126858e-25   0.000000e+00   0.000000e+00
     1488000   1.487999e-06   1.747575e+01   1.624688e+01   5.828567e-02  -1.862240e+03  -1.621785e+05  -1.102062e+05   2.156194e+11  -1.870155e+11   2.715655e+11   1.960886e+05   2.126519e-25   0.000000e+00   0.000000e+00
     1496000   1.495999e-06   1.747574e+01   1.624557e+01   5.741277e-02  -1.545959e+02  -1.636597e+05  -1.080102e+05   2.112769e+11  -1.832841e+11   2.774129e+11   1.960886e+05   2.126171e-25   0.000000e+00   0.000000e+00
     1504000   1.503999e-06   1.747575e+01   1.624426e+01   5.655763e-02   1.517943e+03  -1.651108e+05  -1.057679e+05   2.068435e+11  -1.794743e+11   2.831386e+11   1.960886e+05   2.125812e-25   0.000000e+00   0.000000e+00
     1512000   1.511999e-06   1.747577e+01   1.624293e+01   5.572060e-02   3.154658e+03  -1.665311e+05  -1.034803e+05   2.023211e+11  -1.755877e+11   2.887401e+11   1.960886e+05   2.125443e-25   0.000000e+00   0.000000e+00
     1520000   1.519999e-06   1.747580e+01   1.624159e+01   5.490206e-02   4.754844e+03  -1.679200e+05  -1.011484e+05   1.977118e+11  -1.716261e+11   2.942152e+11   1.960886e+05   2.125063e-25   0.000000e+00   0.000000e+00
     1528000   1.527999e-06   1.747585e+01   1.624025e+01   5.410235e-02   6.317815e+03  -1.692769e+05  -9.877318e+04   1.930174e+11  -1.675913e+11   2.995613e+11   1.960886e+05   2.124674e-25   0.000000e+00   0.000000e+00
     1536000   1.535999e-06   1.747590e+01   1.623889e+01   5.332180e-02   7.842897e+03  -1.706013e+05  -9.635574e+04   1.882401e+11  -1.634851e+11   3.047764e+11   1.960886e+05   2.124274e-25   0.000000e+00   0.000000e+00
     1544000   1.543999e-06   1.747597e+01   1.623752e+01   5.256076e-02   9.329436e+03  -1.718925e+05  -9.389711e+04   1.833819e+11  -1.593094e+11   3.098581e+11   1.960886e+05   2.123864e-25   0.000000e+00   0.000000e+00
     1552000   1.551999e-06   1.747605e+01   1.623614e+01   5.181956e-02   1.077679e+04  -1.731500e+05  -9.139836e+04   1.784447e+11  -1.550661e+11   3.148044e+11   1.960886e+05   2.123444e-25   0.000000e+00   0.000000e+00
     1560000   1.559999e-06   1.747614e+01   1.623475e+01   5.109849e-02   1.218434e+04  -1.743734e+05  -8.886060e+04   1.734309e+11  -1.507570e+11   3.196130e+11   1.960886e+05   2.123014e-25   0.000000e+00   0.000000e+00
     1568000   1.567999e-06   1.747625e+01   1.623335e+01   5.039789e-02   1.355148e+04  -1.755620e+05  -8.628492e+04   1.683425e+11  -1.463842e+11   3.242819e+11   1.960886e+05   2.122574e-25   0.000000e+00   0.000000e+00
     1576000   1.575999e-06   1.747636e+01   1.623194e+01   4.971803e-02   1.487762e+04  -1.767154e+05  -8.367246e+04   1.631817e+11  -1.419497e+11   3.288093e+11   1.960886e+05   2.122125e-25   0.000000e+00   0.000000e+00
     1584000   1.583999e-06   1.747648e+01   1.623052e+01   4.905922e-02   1.616220e+04  -1.778330e+05  -8.102435e+04   1.579507e+11  -1.374553e+11   3.331931e+11   1.960886e+05   2.121667e-25   0.000000e+00   0.000000e+00
     1592000   1.591999e-06   1.747662e+01   1.622909e+01   4.842174e-02   1.740465e+04  -1.789145e+05  -7.834176e+04   1.526519e+11  -1.329031e+11   3.374316e+11   1.960886e+05   2.121199e-25   0.000000e+00   0.000000e+00
     1600000   1.599999e-06   1.747676e+01   1.622766e+01   4.780584e-02   1.860445e+04  -1.799593e+05  -7.562584e+04   1.472873e+11  -1.282952e+11   3.415229e+11   1.960886e+05   2.120722e-25   0.000000e+00   0.000000e+00
     1608000   1.607999e-06   1.747692e+01   1.622621e+01   4.721181e-02   1.976107e+04  -1.809671e+05  -7.287778e+04   1.418595e+11  -1.236336e+11   3.454653e+11   1.960886e+05   2.120236e-25   0.000000e+00   0.000000e+00
     1616000   1.615999e-06   1.747708e+01   1.622476e+01   4.663988e-02   2.087403e+04  -1.819373e+05  -7.009879e+04   1.363706e+11  -1.189204e+11   3.492571e+11   1.960886e+05   2.119741e-25   0.000000e+00   0.000000e+00
     1624000   1.623999e-06   1.747725e+01   1.622330e+01   4.609031e-02   2.194284e+04  -1.828696e+05  -6.729007e+04   1.308231e+11  -1.141577e+11   3.528968e+11   1.960886e+05   2.119239e-25   0.000000e+00   0.000000e+00
     1632000   1.631999e-06   1.747743e+01   1.622183e+01   4.556332e-02   2.296704e+04  -1.837637e+05  -6.445285e+04   1.252193e+11  -1.093476e+11   3.563828e+11   1.960886e+05   2.118727e-25   0.000000e+00   0.000000e+00
     1640000   1.639999e-06   1.747762e+01   1.622036e+01   4.505913e-02   2.394620e+04  -1.846191e+05  -6.158836e+04   1.195617e+11  -1.044924e+11   3.597137e+11   1.960886e+05   2.118209e-25   0.000000e+00   0.000000e+00
     1648000   1.647999e-06   1.747781e+01   1.621888e+01   4.457797e-02   2.487989e+04  -1.854355e+05  -5.869784e+04   1.138527e+11  -9.959401e+10   3.628881e+11   1.960886e+05   2.117682e-25   0.000000e+00   0.000000e+00
     1656000   1.655999e-06   1.747801e+01   1.621739e+01   4.412003e-02   2.576771e+04  -1.862125e+05  -5.578256e+04   1.080947e+11  -9.465478e+10   3.659047e+11   1.960886e+05   2.117148e-25   0.000000e+00   0.000000e+00
     1664000   1.663999e-06   1.747822e+01   1.621590e+01   4.368551e-02   2.660927e+04  -1.869498e+05  -5.284379e+04   1.022903e+11  -8.967686e+10   3.687621e+11   1.960886e+05   2.116607e-25   0.000000e+00   0.000000e+00
     1672000   1.671999e-06   1.747844e+01   1.621440e+01   4.327459e-02   2.740423e+04  -1.876472e+05  -4.988280e+04   9.644179e+10  -8.466244e+10   3.714593e+11   1.960886e+05   2.116060e-25   0.000000e+00   0.000000e+00
     1680000   1.679999e-06   1.747866e+01   1.621290e+01   4.288744e-02   2.815223e+04  -1.883043e+05  -4.690087e+04   9.055186e+10  -7.961375e+10   3.739951e+11   1.960886e+05   2.115506e-25   0.000000e+00   0.000000e+00
     1688000   1.687999e-06   1.747889e+01   1.621139e+01   4.252423e-02   2.885295e+04  -1.889209e+05  -4.389930e+04   8.462300e+10  -7.453301e+10   3.763685e+11   1.960887e+05   2.114946e-25   0.000000e+00   0.000000e+00
     1696000   1.695999e-06   1.747912e+01   1.620988e+01   4.218510e-02   2.950609e+04  -1.894968e+05  -4.087941e+04   7.865775e+10  -6.942247e+10   3.785785e+11   1.960887e+05   2.114381e-25   0.000000e+00   0.000000e+00
     1704000   1.703999e-06   1.747936e+01   1.620836e+01   4.187021e-02   3.011138e+04  -1.900316e+05  -3.784248e+04   7.265868e+10  -6.428438e+10   3.806241e+11   1.960887e+05   2.113810e-25   0.000000e+00   0.000000e+00
     1712000   1.711999e-06   1.747961e+01   1.620684e+01   4.157967e-02   3.066854e+04  -1.905252e+05  -3.478986e+04   6.662839e+10  -5.912100e+10   3.825047e+11   1.960887e+05   2.113234e-25   0.000000e+00   0.000000e+00
     1720000   1.719999e-06   1.747985e+01   1.620531e+01   4.131361e-02   3.117735e+04  -1.909775e+05  -3.172285e+04   6.056945e+10  -5.393459e+10   3.842194e+11   1.960887e+05   2.112654e-25   0.000000e+00   0.000000e+00
     1728000   1.727999e-06   1.748010e+01   1.620378e+01   4.107214e-02   3.163758e+04  -1.913881e+05  -2.864279e+04   5.448449e+10  -4.872743e+10   3.857674e+11   1.960887e+05   2.112069e-25   0.000000e+00   0.000000e+00
     1736000   1.735999e-06   1.748036e+01   1.620225e+01   4.085535e-02   3.204903e+04  -1.917571e+05  -2.555102e+04   4.837613e+10  -4.350181e+10   3.871483e+11   1.960887e+05   2.111481e-25   0.000000e+00   0.000000e+00
     1744000   1.743999e-06   1.748062e+01   1.620071e+01   4.066335e-02   3.241153e+04  -1.920841e+05  -2.244886e+04   4.224701e+10  -3.826000e+10   3.883615e+11   1.960887e+05   2.110889e-25   0.000000e+00   0.000000e+00
     1752000   1.751999e-06   1.748088e+01   1.619917e+01   4.049620e-02   3.272503e+04  -1.923692e+05  -1.933779e+04   3.612299e+10  -3.299804e+10   3.893815e+11   1.960887e+05   2.110045e-25   0.000000e+00   0.000000e+00
     1760000   1.759999e-06   1.748114e+01   1.619763e+01   4.035396e-02   3.298937e+04  -1.926121e+05  -1.621911e+04   2.996120e+10  -2.773136e+10   3.902582e+11   1.960887e+05   2.109449e-25   0.000000e+00   0.000000e+00
     1768000   1.767999e-06   1.748141e+01   1.619609e+01   4.023671e-02   3.320437e+04  -1.928128e+05  -1.309410e+04   2.378664e+10  -2.245537e+10   3.909660e+11   1.960887e+05   2.108850e-25   0.000000e+00   0.000000e+00
     1776000   1.775999e-06   1.748167e+01   1.619455e+01   4.014447e-02   3.336992e+04  -1.929713e+05  -9.964109e+03   1.760198e+10  -1.717235e+10   3.915047e+11   1.960887e+05   2.108249e-25   0.000000e+00   0.000000e+00
     1784000   1.783999e-06   1.748194e+01   1.619301e+01   4.007729e-02   3.348597e+04  -1.930876e+05  -6.830481e+03   1.140988e+10  -1.188461e+10   3.918740e+11   1.960887e+05   2.107647e-25   0.000000e+00   0.000000e+00
     1792000   1.791999e-06   1.748221e+01   1.619146e+01   4.003519e-02   3.355246e+04  -1.931615e+05  -3.694576e+03   5.213010e+09  -6.594438e+09   3.920739e+11   1.960887e+05   2.107044e-25   0.000000e+00   0.000000e+00
     1800000   1.799999e-06   1.748248e+01   1.618992e+01   4.001818e-02   3.356937e+04  -1.931931e+05  -5.577497e+02  -9.859405e+08  -1.304122e+09   3.921044e+11   1.960887e+05   2.106440e-25   0.000000e+00   0.000000e+00
     1808000   1.807999e-06   1.748274e+01   1.618837e+01   4.002626e-02   3.353668e+04  -1.931823e+05   2.578643e+03  -7.184300e+09   3.984049e+09   3.919656e+11   1.960887e+05   2.105837e-25   0.000000e+00   0.000000e+00
     1816000   1.815999e-06   1.748301e+01   1.618682e+01   4.005943e-02   3.345442e+04  -1.931293e+05   5.713248e+03  -1.337939e+10   9.267791e+09   3.916574e+11   1.960887e+05   2.105233e-25   0.000000e+00   0.000000e+00
     1824000   1.823999e-06   1.748328e+01   1.618528e+01   4.011767e-02   3.332262e+04  -1.930341e+05   8.844710e+03  -1.956853e+10   1.454482e+10   3.911802e+11   1.960887e+05   2.104630e-25   0.000000e+00   0.000000e+00
     1832000   1.831999e-06   1.748355e+01   1.618374e+01   4.020094e-02   3.314134e+04  -1.928966e+05   1.197168e+04  -2.574905e+10   1.981288e+10   3.905341e+11   1.960887e+05   2.104028e-25   0.000000e+00   0.000000e+00
     1840000   1.839999e-06   1.748381e+01   1.618219e+01   4.030920e-02   3.291066e+04  -1.927171e+05   1.509281e+04  -3.191827e+10   2.506968e+10   3.897196e+11   1.960887e+05   2.103427e-25   0.000000e+00   0.000000e+00
     1848000   1.847999e-06   1.748407e+01   1.618065e+01   4.044240e-02   3.263068e+04  -1.924956e+05   1.820674e+04  -3.807353e+10   3.031299e+10   3.887370e+11   1.960887e+05   2.102828e-25   0.000000e+00   0.000000e+00
     1856000   1.855999e-06   1.748433e+01   1.617911e+01   4.060048e-02   3.230152e+04  -1.922321e+05   2.131215e+04  -4.421216e+10   3.554054e+10   3.875868e+11   1.960887e+05   2.102232e-25   0.000000e+00   0.000000e+00
     1864000   1.863999e-06   1.748459e+01   1.617758e+01   4.078337e-02   3.192333e+04  -1.919269e+05   2.440768e+04  -5.033150e+10   4.075010e+10   3.862696e+11   1.960887e+05   2.101638e-25   0.000000e+00   0.000000e+00
     1872000   1.871999e-06   1.748484e+01   1.617604e+01   4.099098e-02   3.149627e+04  -1.915802e+05   2.749202e+04  -5.642892e+10   4.593945e+10   3.847859e+11   1.960887e+05   2.101047e-25   0.000000e+00   0.000000e+00
     1880000   1.879999e-06   1.748509e+01   1.617451e+01   4.122321e-02   3.102053e+04  -1.911920e+05   3.056382e+04  -6.250177e+10   5.110636e+10   3.831366e+11   1.960887e+05   2.100460e-25   0.000000e+00   0.000000e+00
     1888000   1.887999e-06   1.748534e+01   1.617298e+01   4.147996e-02   3.049631e+04  -1.907625e+05   3.362176e+04  -6.854741e+10   5.624864e+10   3.813224e+11   1.960887e+05   2.099876e-25   0.000000e+00   0.000000e+00
     1896000   1.895999e-06   1.748558e+01   1.617146e+01   4.176112e-02   2.992384e+04  -1.902921e+05   3.666453e+04  -7.456324e+10   6.136410e+10   3.793440e+11   1.960887e+05   2.099297e-25   0.000000e+00   0.000000e+00
     1904000   1.903999e-06   1.748582e+01   1.616994e+01   4.206655e-02   2.930338e+04  -1.897808e+05   3.969083e+04  -8.054664e+10   6.645055e+10   3.772025e+11   1.960887e+05   2.098722e-25   0.000000e+00   0.000000e+00
     1912000   1.911999e-06   1.748605e+01   1.616842e+01   4.239612e-02   2.863519e+04  -1.892289e+05   4.269934e+04  -8.649503e+10   7.150585e+10   3.748988e+11   1.960887e+05   2.098152e-25   0.000000e+00   0.000000e+00
     1920000   1.919999e-06   1.748628e+01   1.616691e+01   4.274969e-02   2.791955e+04  -1.886368e+05   4.568878e+04  -9.240583e+10   7.652785e+10   3.724339e+11   1.960887e+05   2.097588e-25   0.000000e+00   0.000000e+00
     1928000   1.927999e-06   1.748650e+01   1.616541e+01   4.312709e-02   2.715679e+04  -1.880046e+05   4.865785e+04  -9.827647e+10   8.151442e+10   3.698090e+11   1.960887e+05   2.097029e-25   0.000000e+00   0.000000e+00
     1936000   1.935999e-06   1.748671e+01   1.616390e+01   4.352816e-02   2.634724e+04  -1.873326e+05   5.160529e+04  -1.041044e+11   8.646346e+10   3.670252e+11   1.960887e+05   2.096476e-25   0.000000e+00   0.000000e+00
     1944000   1.943999e-06   1.748692e+01   1.616241e+01   4.395271e-02   2.549124e+04  -1.866213e+05   5.452983e+04  -1.098871e+11   9.137287e+10   3.640839e+11   1.960888e+05   2.095929e-25   0.000000e+00   0.000000e+00
     1952000   1.951999e-06   1.748712e+01   1.616092e+01   4.440057e-02   2.458917e+04  -1.858708e+05   5.743022e+04  -1.156221e+11   9.624060e+10   3.609863e+11   1.960888e+05   2.095389e-25   0.000000e+00   0.000000e+00
     1960000   1.959999e-06   1.748731e+01   1.615943e+01   4.487153e-02   2.364141e+04  -1.850815e+05   6.030520e+04  -1.213069e+11   1.010646e+11   3.577338e+11   1.960888e+05   2.094855e-25   0.000000e+00   0.000000e+00
     1968000   1.967999e-06   1.748750e+01   1.615796e+01   4.536538e-02   2.264839e+04  -1.842539e+05   6.315354e+04  -1.269390e+11   1.058428e+11   3.543279e+11   1.960888e+05   2.094329e-25   0.000000e+00   0.000000e+00
     1976000   1.975999e-06   1.748767e+01   1.615649e+01   4.588191e-02   2.161053e+04  -1.833882e+05   6.597403e+04  -1.325159e+11   1.105733e+11   3.507701e+11   1.960888e+05   2.093810e-25   0.000000e+00   0.000000e+00
     1984000   1.983999e-06   1.748784e+01   1.615502e+01   4.642089e-02   2.052828e+04  -1.824848e+05   6.876546e+04  -1.380353e+11   1.152540e+11   3.470620e+11   1.960888e+05   2.093299e-25   0.000000e+00   0.000000e+00
     1992000   1.991999e-06   1.748800e+01   1.615357e+01   4.698208e-02   1.940212e+04  -1.815442e+05   7.152663e+04  -1.434948e+11   1.198829e+11   3.432052e+11   1.960888e+05   2.092796e-25   0.000000e+00   0.000000e+00
     2000000   1.999999e-06   1.748815e+01   1.615212e+01   4.756523e-02   1.823253e+04  -1.805668e+05   7.425635e+04  -1.488920e+11   1.244583e+11   3.392015e+11   1.960888e+05   2.092300e-25   0.000000e+00   0.000000e+00
     2008000   2.007999e-06   1.748829e+01   1.615068e+01   4.817009e-02   1.702001e+04  -1.795530e+05   7.695346e+04  -1.542245e+11   1.289781e+11   3.350527e+11   1.960888e+05   2.091814e-25   0.000000e+00   0.000000e+00
     2016000   2.015999e-06   1.748842e+01   1.614925e+01   4.879640e-02   1.576511e+04  -1.785033e+05   7.961680e+04  -1.594901e+11   1.334404e+11   3.307605e+11   1.960888e+05   2.091335e-25   0.000000e+00   0.000000e+00
     2024000   2.023999e-06   1.748854e+01   1.614782e+01   4.944387e-02   1.446835e+04  -1.774181e+05   8.224524e+04  -1.646864e+11   1.378435e+11   3.263268e+11   1.960888e+05   2.090866e-25   0.000000e+00   0.000000e+00
     2032000   2.031999e-06   1.748865e+01   1.614641e+01   5.011222e-02   1.313031e+04  -1.762980e+05   8.483766e+04  -1.698112e+11   1.421854e+11   3.217537e+11   1.960888e+05   2.090405e-25   0.000000e+00   0.000000e+00
     2040000   2.039999e-06   1.748875e+01   1.614500e+01   5.080117e-02   1.175156e+04  -1.751433e+05   8.739293e+04  -1.748623e+11   1.464645e+11   3.170432e+11   1.960888e+05   2.089954e-25   0.000000e+00   0.000000e+00
     2048000   2.047999e-06   1.748884e+01   1.614360e+01   5.151041e-02   1.033271e+04  -1.739547e+05   8.990998e+04  -1.798375e+11   1.506788e+11   3.121973e+11   1.960888e+05   2.089511e-25   0.000000e+00   0.000000e+00
     2056000   2.055999e-06   1.748892e+01   1.614222e+01   5.223963e-02   8.874367e+03  -1.727327e+05   9.238773e+04  -1.847346e+11   1.548267e+11   3.072181e+11   1.960888e+05   2.089079e-25   0.000000e+00   0.000000e+00
     2064000   2.063999e-06   1.748898e+01   1.614084e+01   5.298851e-02   7.377166e+03  -1.714777e+05   9.482512e+04  -1.895516e+11   1.589065e+11   3.021079e+11   1.960888e+05   2.088655e-25   0.000000e+00   0.000000e+00
     2072000   2.071999e-06   1.748904e+01   1.613947e+01   5.375672e-02   5.841757e+03  -1.701903e+05   9.722111e+04  -1.942862e+11   1.629164e+11   2.968689e+11   1.960888e+05   2.088241e-25   0.000000e+00   0.000000e+00
     2080000   2.079999e-06   1.748908e+01   1.613812e+01   5.454393e-02   4.268807e+03  -1.688712e+05   9.957468e+04  -1.989365e+11   1.668549e+11   2.915034e+11   1.960888e+05   2.087837e-25   0.000000e+00   0.000000e+00
     2088000   2.087999e-06   1.748911e+01   1.613677e+01   5.534980e-02   2.658998e+03  -1.675208e+05   1.018848e+05  -2.035005e+11   1.707202e+11   2.860137e+11   1.960888e+05   2.087442e-25   0.000000e+00   0.000000e+00
     2096000   2.095999e-06   1.748912e+01   1.613544e+01   5.617397e-02   1.013030e+03  -1.661399e+05   1.041506e+05  -2.079761e+11   1.745109e+11   2.804023e+11   1.960888e+05   2.087057e-25   0.000000e+00   0.000000e+00
     2104000   2.103999e-06   1.748912e+01   1.613411e+01   5.701609e-02  -6.683834e+02  -1.647289e+05   1.063709e+05  -2.123615e+11   1.782254e+11   2.746716e+11   1.960888e+05   2.086681e-25   0.000000e+00   0.000000e+00
     2112000   2.111999e-06   1.748911e+01   1.613280e+01   5.787578e-02  -2.384513e+03  -1.632885e+05   1.085450e+05  -2.166547e+11   1.818621e+11   2.688241e+11   1.960888e+05   2.086316e-25   0.000000e+00   0.000000e+00
     2120000   2.119999e-06   1.748908e+01   1.613150e+01   5.875268e-02  -4.134613e+03  -1.618193e+05   1.106718e+05  -2.208539e+11   1.854195e+11   2.628624e+11   1.960888e+05   2.085960e-25   0.000000e+00   0.000000e+00
     2128000   2.127999e-06   1.748904e+01   1.613021e+01   5.964640e-02  -5.917924e+03  -1.603220e+05   1.127505e+05  -2.249573e+11   1.888963e+11   2.567891e+11   1.960888e+05   2.085614e-25   0.000000e+00   0.000000e+00
     2136000   2.135999e-06   1.748899e+01   1.612894e+01   6.055656e-02  -7.733673e+03  -1.587972e+05   1.147801e+05  -2.289630e+11   1.922910e+11   2.506068e+11   1.960888e+05   2.085277e-25   0.000000e+00   0.000000e+00
     2144000   2.143999e-06   1.748892e+01   1.612767e+01   6.148275e-02  -9.581072e+03  -1.572455e+05   1.167599e+05  -2.328695e+11   1.956022e+11   2.443182e+11   1.960888e+05   2.084950e-25   0.000000e+00   0.000000e+00
     2152000   2.151999e-06   1.748884e+01   1.612642e+01   6.242458e-02  -1.145932e+04  -1.556677e+05   1.186890e+05  -2.366748e+11   1.988285e+11   2.379262e+11   1.960888e+05   2.084633e-25   0.000000e+00   0.000000e+00
     2160000   2.159999e-06   1.748874e+01   1.612518e+01   6.338164e-02  -1.336760e+04  -1.540645e+05   1.205665e+05  -2.403775e+11   2.019687e+11   2.314333e+11   1.960888e+05   2.084325e-25   0.000000e+00   0.000000e+00
     2168000   2.167999e-06   1.748862e+01   1.612396e+01   6.435350e-02  -1.530509e+04  -1.524365e+05   1.223916e+05  -2.439760e+11   2.050216e+11   2.248426e+11   1.960888e+05   2.084026e-25   0.000000e+00   0.000000e+00
     2176000   2.175999e-06   1.748849e+01   1.612274e+01   6.533976e-02  -1.727094e+04  -1.507844e+05   1.241637e+05  -2.474686e+11   2.079858e+11   2.181568e+11   1.960888e+05   2.083736e-25   0.000000e+00   0.000000e+00
     2184000   2.183999e-06   1.748835e+01   1.612154e+01   6.633998e-02  -1.926430e+04  -1.491089e+05   1.258819e+05  -2.508538e+11   2.108602e+11   2.113788e+11   1.960888e+05   2.083455e-25   0.000000e+00   0.000000e+00
     2192000   2.191999e-06   1.748818e+01   1.612036e+01   6.735372e-02  -2.128431e+04  -1.474109e+05   1.275455e+05  -2.541303e+11   2.136435e+11   2.045117e+11   1.960888e+05   2.083184e-25   0.000000e+00   0.000000e+00
     2200000   2.199999e-06   1.748800e+01   1.611918e+01   6.838056e-02  -2.333009e+04  -1.456909e+05   1.291538e+05  -2.572966e+11   2.163348e+11   1.975583e+11   1.960889e+05   2.082921e-25   0.000000e+00   0.000000e+00
     2208000   2.207999e-06   1.748781e+01   1.611803e+01   6.942004e-02  -2.540076e+04  -1.439498e+05   1.307062e+05  -2.603514e+11   2.189330e+11   1.905217e+11   1.960889e+05   2.082666e-25   0.000000e+00   0.000000e+00
     2216000   2.215999e-06   1.748760e+01   1.611688e+01   7.047171e-02  -2.749542e+04  -1.421882e+05   1.322020e+05  -2.632933e+11   2.214369e+11   1.834050e+11   1.960889e+05   2.082420e-25   0.000000e+00   0.000000e+00
     2224000   2.223999e-06   1.748737e+01   1.611575e+01   7.153511e-02  -2.961315e+04  -1.404070e+05   1.336405e+05  -2.661210e+11   2.238456e+11   1.762113e+11   1.960889e+05   2.082181e-25   0.000000e+00   0.000000e+00
     2232000   2.231999e-06   1.748712e+01   1.611464e+01   7.260980e-02  -3.175305e+04  -1.386069e+05   1.350211e+05  -2.688334e+11   2.261581e+11   1.689435e+11   1.960889e+05   2.081951e-25   0.000000e+00   0.000000e+00
     2240000   2.239999e-06   1.748686e+01   1.611353e+01   7.369530e-02  -3.391418e+04  -1.367887e+05   1.363434e+05  -2.714294e+11   2.283735e+11   1.616050e+11   1.960889e+05   2.081728e-25   0.000000e+00   0.000000e+00
     2248000   2.247999e-06   1.748658e+01   1.611245e+01   7.479114e-02  -3.609561e+04  -1.349532e+05   1.376066e+05  -2.739077e+11   2.304910e+11   1.541989e+11   1.960889e+05   2.081512e-25   0.000000e+00   0.000000e+00
     2256000   2.255999e-06   1.748628e+01   1.611137e+01   7.589684e-02  -3.829639e+04  -1.331011e+05   1.388104e+05  -2.762674e+11   2.325096e+11   1.467283e+11   1.960889e+05   2.081304e-25   0.000000e+00   0.000000e+00
     2264000   2.263999e-06   1.748597e+01   1.611032e+01   7.701194e-02  -4.051557e+04  -1.312333e+05   1.399541e+05  -2.785074e+11   2.344287e+11   1.391965e+11   1.960889e+05   2.081102e-25   0.000000e+00   0.000000e+00
     2272000   2.271999e-06   1.748564e+01   1.610927e+01   7.813595e-02  -4.275219e+04  -1.293506e+05   1.410373e+05  -2.806268e+11   2.362474e+11   1.316069e+11   1.960889e+05   2.080907e-25   0.000000e+00   0.000000e+00
     2280000   2.279999e-06   1.748528e+01   1.610825e+01   7.926838e-02  -4.500528e+04  -1.274536e+05   1.420597e+05  -2.826247e+11   2.379651e+11   1.239625e+11   1.960889e+05   2.080718e-25   0.000000e+00   0.000000e+00
     2288000   2.287999e-06   1.748492e+01   1.610724e+01   8.040874e-02  -4.727386e+04  -1.255434e+05   1.430206e+05  -2.845002e+11   2.395811e+11   1.162668e+11   1.960889e+05   2.080535e-25   0.000000e+00   0.000000e+00
     2296000   2.295999e-06   1.748453e+01   1.610624e+01   8.155654e-02  -4.955695e+04  -1.236206e+05   1.439198e+05  -2.862526e+11   2.410946e+11   1.085230e+11   1.960889e+05   2.080357e-25   0.000000e+00   0.000000e+00
     2304000   2.303999e-06   1.748412e+01   1.610526e+01   8.271129e-02  -5.185357e+04  -1.216861e+05   1.447568e+05  -2.878812e+11   2.425053e+11   1.007346e+11   1.960889e+05   2.080184e-25   0.000000e+00   0.000000e+00
     2312000   2.311999e-06   1.748370e+01   1.610429e+01   8.387249e-02  -5.416272e+04  -1.197408e+05   1.455314e+05  -2.893852e+11   2.438125e+11   9.290475e+10   1.960889e+05   2.080017e-25   0.000000e+00   0.000000e+00
     2320000   2.319999e-06   1.748326e+01   1.610334e+01   8.503963e-02  -5.648340e+04  -1.177854e+05   1.462432e+05  -2.907640e+11   2.450157e+11   8.503697e+10   1.960889e+05   2.079854e-25   0.000000e+00   0.000000e+00
     2328000   2.327999e-06   1.748279e+01   1.610241e+01   8.621221e-02  -5.881461e+04  -1.158208e+05   1.468919e+05  -2.920172e+11   2.461144e+11   7.713461e+10   1.960889e+05   2.079694e-25   0.000000e+00   0.000000e+00
     2336000   2.335999e-06   1.748231e+01   1.610149e+01   8.738973e-02  -6.115534e+04  -1.138479e+05   1.474773e+05  -2.931440e+11   2.471083e+11   6.920106e+10   1.960889e+05   2.079539e-25   0.000000e+00   0.000000e+00
     2344000   2.343999e-06   1.748182e+01   1.610059e+01   8.857168e-02  -6.350458e+04  -1.118674e+05   1.479991e+05  -2.941442e+11   2.479970e+11   6.123973e+10   1.960889e+05   2.079387e-25   0.000000e+00   0.000000e+00
     2352000   2.351999e-06   1.748130e+01   1.609970e+01   8.975754e-02  -6.586128e+04  -1.098802e+05   1.484570e+05  -2.950073e+11   2.487648e+11   5.324721e+10   1.960889e+05   2.079043e-25   0.000000e+00   0.000000e+00
     2360000   2.359999e-06   1.748076e+01   1.609883e+01   9.094682e-02  -6.822441e+04  -1.078873e+05   1.488510e+05  -2.957531e+11   2.494404e+11   4.524008e+10   1.960889e+05   2.078886e-25   0.000000e+00   0.000000e+00
     2368000   2.367999e-06   1.748021e+01   1.609797e+01   9.213899e-02  -7.059299e+04  -1.058895e+05   1.491808e+05  -2.963711e+11   2.500098e+11   3.721549e+10   1.960889e+05   2.078731e-25   0.000000e+00   0.000000e+00
     2376000   2.375999e-06   1.747963e+01   1.609713e+01   9.333354e-02  -7.296601e+04  -1.038875e+05   1.494464e+05  -2.968611e+11   2.504730e+11   2.917690e+10   1.960889e+05   2.078578e-25   0.000000e+00   0.000000e+00
     2384000   2.383999e-06   1.747904e+01   1.609631e+01   9.452996e-02  -7.534243e+04  -1.018822e+05   1.496476e+05  -2.972231e+11   2.508296e+11   2.112775e+10   1.960889e+05   2.078426e-25   0.000000e+00   0.000000e+00
     2392000   2.391999e-06   1.747843e+01   1.609550e+01   9.572773e-02  -7.772123e+04  -9.987448e+04   1.497844e+05  -2.974567e+11   2.510797e+11   1.307149e+10   1.960889e+05   2.078275e-25   0.000000e+00   0.000000e+00
     2400000   2.399999e-06   1.747780e+01   1.609471e+01   9.692634e-02  -8.010140e+04  -9.786519e+04   1.498567e+05  -2.975621e+11   2.512232e+11   5.011579e+09   1.960889e+05   2.078125e-25   0.000000e+00   0.000000e+00
     2408000   2.407999e-06   1.747715e+01   1.609394e+01   9.812526e-02  -8.248189e+04  -9.585519e+04   1.498646e+05  -2.975392e+11   2.512600e+11  -3.048531e+09   1.960889e+05   2.077975e-25   0.000000e+00   0.000000e+00
     2416000   2.415999e-06   1.747648e+01   1.609318e+01   9.932400e-02  -8.486168e+04  -9.384532e+04   1.498080e+05  -2.973881e+11   2.511902e+11  -1.110539e+10   1.960889e+05   2.077825e-25   0.000000e+00   0.000000e+00
     2424000   2.423999e-06   1.747579e+01   1.609244e+01   1.005220e-01  -8.723980e+04  -9.183625e+04   1.496870e+05  -2.971221e+11   2.510671e+11  -1.913102e+10   1.960889e+05   2.078136e-25   0.000000e+00   0.000000e+00
     2432000   2.431999e-06   1.747508e+01   1.609171e+01   1.017188e-01  -8.961524e+04  -8.982876e+04   1.495018e+05  -2.967154e+11   2.507879e+11  -2.717094e+10   1.960889e+05   2.078008e-25   0.000000e+00   0.000000e+00
     2440000   2.439999e-06   1.747435e+01   1.609100e+01   1.029139e-01  -9.198691e+04  -8.782393e+04   1.492523e+05  -2.961811e+11   2.504025e+11  -3.519746e+10   1.960889e+05   2.077879e-25   0.000000e+00   0.000000e+00
     2448000   2.447999e-06   1.747361e+01   1.609030e+01   1.041067e-01  -9.435379e+04  -8.582260e+04   1.489386e+05  -2.955193e+11   2.499108e+11  -4.320716e+10   1.960889e+05   2.077748e-25   0.000000e+00   0.000000e+00
     2456000   2.455999e-06   1.747284e+01   1.608963e+01   1.052967e-01  -9.671487e+04  -8.382564e+04   1.485610e+05  -2.947304e+11   2.493133e+11  -5.119660e+10   1.960890e+05   2.077615e-25   0.000000e+00   0.000000e+00
     2464000   2.463999e-06   1.747206e+01   1.608896e+01   1.064835e-01  -9.906914e+04  -8.183387e+04   1.481195e+05  -2.938149e+11   2.486101e+11  -5.916239e+10   1.960890e+05   2.077480e-25   0.000000e+00   0.000000e+00
     2472000   2.471999e-06   1.747126e+01   1.608832e+01   1.076665e-01  -1.014156e+05  -7.984816e+04   1.476145e+05  -2.927730e+11   2.478016e+11  -6.710111e+10   1.960890e+05   2.077342e-25   0.000000e+00   0.000000e+00
     2480000   2.479999e-06   1.747044e+01   1.608769e+01   1.088452e-01  -1.037532e+05  -7.786933e+04   1.470460e+05  -2.916055e+11   2.468881e+11  -7.500938e+10   1.960890e+05   2.077200e-25   0.000000e+00   0.000000e+00
     2488000   2.487999e-06   1.746960e+01   1.608707e+01   1.100190e-01  -1.060809e+05  -7.589822e+04   1.464144e+05  -2.903128e+11   2.458701e+11  -8.288384e+10   1.960890e+05   2.077055e-25   0.000000e+00   0.000000e+00
     2496000   2.495999e-06   1.746874e+01   1.608647e+01   1.111876e-01  -1.083978e+05  -7.393568e+04   1.457200e+05  -2.888954e+11   2.447480e+11  -9.072111e+10   1.960890e+05   2.076907e-25   0.000000e+00   0.000000e+00
     2504000   2.503999e-06   1.746787e+01   1.608589e+01   1.123504e-01  -1.107029e+05  -7.198253e+04   1.449630e+05  -2.873542e+11   2.435223e+11  -9.851786e+10   1.960890e+05   2.076753e-25   0.000000e+00   0.000000e+00
     2512000   2.511999e-06   1.746697e+01   1.608532e+01   1.135069e-01  -1.129952e+05  -7.003960e+04   1.441438e+05  -2.856897e+11   2.421935e+11  -1.062708e+11   1.960890e+05   2.076596e-25   0.000000e+00   0.000000e+00
     2520000   2.519999e-06   1.746606e+01   1.608477e+01   1.146565e-01  -1.152736e+05  -6.810771e+04   1.432628e+05  -2.839028e+11   2.407622e+11  -1.139765e+11   1.960890e+05   2.076433e-25   0.000000e+00   0.000000e+00
     2528000   2.527999e-06   1.746513e+01   1.608423e+01   1.157989e-01  -1.175373e+05  -6.618768e+04   1.423203e+05  -2.819943e+11   2.392290e+11  -1.216319e+11   1.960890e+05   2.076265e-25   0.000000e+00   0.000000e+00
     2536000   2.535999e-06   1.746418e+01   1.608371e+01   1.169335e-01  -1.197852e+05  -6.428032e+04   1.413168e+05  -2.799651e+11   2.375946e+11  -1.292335e+11   1.960890e+05   2.076091e-25   0.000000e+00   0.000000e+00
     2544000   2.543999e-06   1.746321e+01   1.608320e+01   1.180598e-01  -1.220164e+05  -6.238644e+04   1.402527e+05  -2.778160e+11   2.358597e+11  -1.367783e+11   1.960890e+05   2.075912e-25   0.000000e+00   0.000000e+00
     2552000   2.551999e-06   1.746222e+01   1.608271e+01   1.191774e-01  -1.242300e+05  -6.050683e+04   1.391285e+05  -2.755482e+11   2.340250e+11  -1.442629e+11   1.960890e+05   2.075726e-25   0.000000e+00   0.000000e+00
     2560000   2.559999e-06   1.746122e+01   1.608223e+01   1.202857e-01  -1.264249e+05  -5.864230e+04   1.379446e+05  -2.731626e+11   2.320912e+11  -1.516842e+11   1.960890e+05   2.075533e-25   0.000000e+00   0.000000e+00
     2568000   2.567999e-06   1.746020e+01   1.608177e+01   1.213843e-01  -1.286002e+05  -5.679364e+04   1.367017e+05  -2.706602e+11   2.300593e+11  -1.590391e+11   1.960890e+05   2.075334e-25   0.000000e+00   0.000000e+00
     2576000   2.575999e-06   1.745916e+01   1.608132e+01   1.224728e-01  -1.307551e+05  -5.496162e+04   1.354002e+05  -2.680423e+11   2.279301e+11  -1.663244e+11   1.960890e+05   2.075128e-25   0.000000e+00   0.000000e+00
     2584000   2.583999e-06   1.745811e+01   1.608089e+01   1.235506e-01  -1.328886e+05  -5.314701e+04   1.340407e+05  -2.653101e+11   2.257044e+11  -1.735370e+11   1.960890e+05   2.074914e-25   0.000000e+00   0.000000e+00
     2592000   2.591999e-06   1.745704e+01   1.608047e+01   1.246173e-01  -1.349998e+05  -5.135060e+04   1.326238e+05  -2.624647e+11   2.233833e+11  -1.806739e+11   1.960890e+05   2.074693e-25   0.000000e+00   0.000000e+00
     2600000   2.599999e-06   1.745595e+01   1.608007e+01   1.256724e-01  -1.370877e+05  -4.957314e+04   1.311501e+05  -2.595074e+11   2.209677e+11  -1.877320e+11   1.960890e+05   2.074464e-25   0.000000e+00   0.000000e+00
     2608000   2.607999e-06   1.745484e+01   1.607968e+01   1.267155e-01  -1.391516e+05  -4.781537e+04   1.296203e+05  -2.564397e+11   2.184586e+11  -1.947084e+11   1.960890e+05   2.074227e-25   0.000000e+00   0.000000e+00
     2616000   2.615999e-06   1.745372e+01   1.607930e+01   1.277462e-01  -1.411905e+05  -4.607805e+04   1.280350e+05  -2.532628e+11   2.158571e+11  -2.016001e+11   1.960890e+05   2.073982e-25   0.000000e+00   0.000000e+00
     2624000   2.623999e-06   1.745259e+01   1.607894e+01   1.287639e-01  -1.432035e+05  -4.436190e+04   1.263949e+05  -2.499782e+11   2.131643e+11  -2.084042e+11   1.960890e+05   2.073728e-25   0.000000e+00   0.000000e+00
     2632000   2.631999e-06   1.745143e+01   1.607859e+01   1.297684e-01  -1.451898e+05  -4.266766e+04   1.247008e+05  -2.465874e+11   2.103812e+11  -2.151178e+11   1.960890e+05   2.073466e-25   0.000000e+00   0.000000e+00
     2640000   2.639999e-06   1.745026e+01   1.607826e+01   1.307590e-01  -1.471486e+05  -4.099604e+04   1.229533e+05  -2.430918e+11   2.075092e+11  -2.217380e+11   1.960890e+05   2.073195e-25   0.000000e+00   0.000000e+00
     2648000   2.647999e-06   1.744908e+01   1.607794e+01   1.317355e-01  -1.490790e+05  -3.934775e+04   1.211532e+05  -2.394931e+11   2.045494e+11  -2.282622e+11   1.960890e+05   2.072915e-25   0.000000e+00   0.000000e+00
     2656000   2.655999e-06   1.744788e+01   1.607763e+01   1.326973e-01  -1.509802e+05  -3.772349e+04   1.193013e+05  -2.357929e+11   2.015030e+11  -2.346874e+11   1.960890e+05   2.072626e-25   0.000000e+00   0.000000e+00
     2664000   2.663999e-06   1.744666e+01   1.607734e+01   1.336442e-01  -1.528515e+05  -3.612393e+04   1.173985e+05  -2.319928e+11   1.983713e+11  -2.410110e+11   1.960890e+05   2.072327e-25   0.000000e+00   0.000000e+00
     2672000   2.671999e-06   1.744543e+01   1.607705e+01   1.345756e-01  -1.546919e+05  -3.454977e+04   1.154454e+05  -2.280945e+11   1.951557e+11  -2.472304e+11   1.960890e+05   2.072020e-25   0.000000e+00   0.000000e+00
     2680000   2.679999e-06   1.744419e+01   1.607678e+01   1.354911e-01  -1.565007e+05  -3.300167e+04   1.134431e+05  -2.240997e+11   1.918575e+11  -2.533429e+11   1.960890e+05   2.071703e-25   0.000000e+00   0.000000e+00
     2688000   2.687999e-06   1.744293e+01   1.607652e+01   1.363905e-01  -1.582772e+05  -3.148027e+04   1.113922e+05  -2.200103e+11   1.884780e+11  -2.593459e+11   1.960890e+05   2.071377e-25   0.000000e+00   0.000000e+00
     2696000   2.695999e-06   1.744166e+01   1.607628e+01   1.372733e-01  -1.600206e+05  -2.998623e+04   1.092938e+05  -2.158280e+11   1.850187e+11  -2.652369e+11   1.960890e+05   2.071042e-25   0.000000e+00   0.000000e+00
     2704000   2.703999e-06   1.744037e+01   1.607604e+01   1.381391e-01  -1.617302e+05  -2.852019e+04   1.071487e+05  -2.115547e+11   1.814811e+11  -2.710135e+11   1.960890e+05   2.070696e-25   0.000000e+00   0.000000e+00
     2712000   2.711999e-06   1.743907e+01   1.607582e+01   1.389876e-01  -1.634053e+05  -2.708275e+04   1.049579e+05  -2.071923e+11   1.778666e+11  -2.766732e+11   1.960891e+05   2.070342e-25   0.000000e+00   0.000000e+00
     2720000   2.719999e-06   1.743775e+01   1.607561e+01   1.398183e-01  -1.650450e+05  -2.567452e+04   1.027223e+05  -2.027427e+11   1.741767e+11  -2.822135e+11   1.960891e+05   2.069978e-25   0.000000e+00   0.000000e+00
     2728000   2.727999e-06   1.743643e+01   1.607541e+01   1.406310e-01  -1.666489e+05  -2.429612e+04   1.004428e+05  -1.982079e+11   1.704131e+11  -2.876323e+11   1.960891e+05   2.069604e-25   0.000000e+00   0.000000e+00
     2736000   2.735999e-06   1.743509e+01   1.607522e+01   1.414253e-01  -1.682161e+05  -2.294811e+04   9.812050e+04  -1.935899e+11   1.665772e+11  -2.929272e+11   1.960891e+05   2.069221e-25   0.000000e+00   0.000000e+00
     2744000   2.743999e-06   1.743374e+01   1.607504e+01   1.422008e-01  -1.697461e+05  -2.163108e+04   9.575632e+04  -1.888908e+11   1.626707e+11  -2.980961e+11   1.960891e+05   2.068829e-25   0.000000e+00   0.000000e+00
     2752000   2.751999e-06   1.743237e+01   1.607488e+01   1.429573e-01  -1.712382e+05  -2.034557e+04   9.335130e+04  -1.841125e+11   1.586952e+11  -3.031366e+11   1.960891e+05   2.068427e-25   0.000000e+00   0.000000e+00
     2760000   2.759999e-06   1.743100e+01   1.607472e+01   1.436943e-01  -1.726917e+05  -1.909214e+04   9.090647e+04  -1.792573e+11   1.546524e+11  -3.080468e+11   1.960891e+05   2.068016e-25   0.000000e+00   0.000000e+00
     2768000   2.767999e-06   1.742961e+01   1.607457e+01   1.444117e-01  -1.741061e+05  -1.787131e+04   8.842290e+04  -1.743272e+11   1.505440e+11  -3.128246e+11   1.960891e+05   2.067595e-25   0.000000e+00   0.000000e+00
     2776000   2.775999e-06   1.742821e+01   1.607443e+01   1.451090e-01  -1.754807e+05  -1.668361e+04   8.590163e+04  -1.693244e+11   1.463717e+11  -3.174680e+11   1.960891e+05   2.067166e-25   0.000000e+00   0.000000e+00
     2784000   2.783999e-06   1.742680e+01   1.607430e+01   1.457860e-01  -1.768151e+05  -1.552953e+04   8.334377e+04  -1.642512e+11   1.421373e+11  -3.219750e+11   1.960891e+05   2.066728e-25   0.000000e+00   0.000000e+00
     2792000   2.791999e-06   1.742538e+01   1.607418e+01   1.464424e-01  -1.781086e+05  -1.440957e+04   8.075040e+04  -1.591096e+11   1.378426e+11  -3.263438e+11   1.960891e+05   2.066280e-25   0.000000e+00   0.000000e+00
     2800000   2.799999e-06   1.742395e+01   1.607407e+01   1.470779e-01  -1.793607e+05  -1.332421e+04   7.812264e+04  -1.539021e+11   1.334893e+11  -3.305725e+11   1.960891e+05   2.065825e-25   0.000000e+00   0.000000e+00
     2808000   2.807999e-06   1.742251e+01   1.607397e+01   1.476923e-01  -1.805708e+05  -1.227390e+04   7.546161e+04  -1.486309e+11   1.290793e+11  -3.346594e+11   1.960891e+05   2.065360e-25   0.000000e+00   0.000000e+00
     2816000   2.815999e-06   1.742106e+01   1.607388e+01   1.482852e-01  -1.817386e+05  -1.125909e+04   7.276846e+04  -1.432982e+11   1.246144e+11  -3.386029e+11   1.960891e+05   2.064888e-25   0.000000e+00   0.000000e+00
     2824000   2.823999e-06   1.741960e+01   1.607379e+01   1.488565e-01  -1.828634e+05  -1.028022e+04   7.004435e+04  -1.379064e+11   1.200966e+11  -3.424012e+11   1.960891e+05   2.064407e-25   0.000000e+00   0.000000e+00
     2832000   2.831999e-06   1.741814e+01   1.607371e+01   1.494058e-01  -1.839449e+05  -9.337688e+03   6.729043e+04  -1.324579e+11   1.155277e+11  -3.460528e+11   1.960891e+05   2.063918e-25   0.000000e+00   0.000000e+00
     2840000   2.839999e-06   1.741666e+01   1.607364e+01   1.499331e-01  -1.849826e+05  -8.431909e+03   6.450790e+04  -1.269550e+11   1.109096e+11  -3.495562e+11   1.960891e+05   2.063422e-25   0.000000e+00   0.000000e+00
     2848000   2.847999e-06   1.741518e+01   1.607358e+01   1.504379e-01  -1.859761e+05  -7.563265e+03   6.169793e+04  -1.214001e+11   1.062443e+11  -3.529099e+11   1.960891e+05   2.062918e-25   0.000000e+00   0.000000e+00
     2856000   2.855999e-06   1.741369e+01   1.607352e+01   1.509201e-01  -1.869249e+05  -6.732126e+03   5.886174e+04  -1.157957e+11   1.015338e+11  -3.561126e+11   1.960891e+05   2.062407e-25   0.000000e+00   0.000000e+00
     2864000   2.863999e-06   1.741219e+01   1.607347e+01   1.513796e-01  -1.878287e+05  -5.938845e+03   5.600053e+04  -1.101441e+11   9.677997e+10  -3.591629e+11   1.960891e+05   2.061889e-25   0.000000e+00   0.000000e+00
     2872000   2.871999e-06   1.741068e+01   1.607342e+01   1.518161e-01  -1.886871e+05  -5.183761e+03   5.311554e+04  -1.044479e+11   9.198492e+10  -3.620597e+11   1.960891e+05   2.061364e-25   0.000000e+00   0.000000e+00
     2880000   2.879999e-06   1.740917e+01   1.607339e+01   1.522294e-01  -1.894997e+05  -4.467196e+03   5.020799e+04  -9.870952e+10   8.715064e+10  -3.648017e+11   1.960891e+05   2.060833e-25   0.000000e+00   0.000000e+00
     2888000   2.887999e-06   1.740765e+01   1.607335e+01   1.526194e-01  -1.902663e+05  -3.789455e+03   4.727912e+04  -9.293139e+10   8.227917e+10  -3.673877e+11   1.960891e+05   2.060296e-25   0.000000e+00   0.000000e+00
     2896000   2.895999e-06   1.740612e+01   1.607333e+01   1.529858e-01  -1.909865e+05  -3.150828e+03   4.433020e+04  -8.711605e+10   7.737256e+10  -3.698168e+11   1.960891e+05   2.059753e-25   0.000000e+00   0.000000e+00
     2904000   2.903999e-06   1.740459e+01   1.607330e+01   1.533286e-01  -1.916601e+05  -2.551587e+03   4.136247e+04  -8.126601e+10   7.243289e+10  -3.720880e+11   1.960891e+05   2.059204e-25   0.000000e+00   0.000000e+00
     2912000   2.911999e-06   1.740306e+01   1.607328e+01   1.536476e-01  -1.922867e+05  -1.991989e+03   3.837721e+04  -7.538379e+10   6.746225e+10  -3.742003e+11   1.960891e+05   2.058651e-25   0.000000e+00   0.000000e+00
     2920000   2.919999e-06   1.740152e+01   1.607327e+01   1.539426e-01  -1.928661e+05  -1.472273e+03   3.537569e+04  -6.947194e+10   6.246273e+10  -3.761530e+11   1.960891e+05   2.058092e-25   0.000000e+00   0.000000e+00
     2928000   2.927999e-06   1.739997e+01   1.607326e+01   1.542135e-01  -1.933982e+05  -9.926707e+02   3.235919e+04  -6.353824e+10   5.737572e+10  -3.779784e+11   1.960891e+05   2.057787e-25   0.000000e+00   0.000000e+00
     2936000   2.935999e-06   1.739842e+01   1.607325e+01   1.544603e-01  -1.938826e+05  -5.538618e+02   2.932873e+04  -5.757373e+10   5.232324e+10  -3.796078e+11   1.960891e+05   2.057209e-25   0.000000e+00   0.000000e+00
     2944000   2.943999e-06   1.739687e+01   1.607325e+01   1.546828e-01  -1.943193e+05  -1.555637e+02   2.628589e+04  -5.158729e+10   4.724838e+10  -3.810753e+11   1.960891e+05   2.056628e-25   0.000000e+00   0.000000e+00
     2952000   2.951999e-06   1.739531e+01   1.607325e+01   1.548808e-01  -1.947080e+05   2.020533e+02   2.323196e+04  -4.558149e+10   4.215332e+10  -3.823804e+11   1.960891e+05   2.056042e-25   0.000000e+00   0.000000e+00
     2960000   2.959999e-06   1.739375e+01   1.607325e+01   1.550545e-01  -1.950485e+05   5.188361e+02   2.016824e+04  -3.955891e+10   3.704019e+10  -3.835225e+11   1.960891e+05   2.055454e-25   0.000000e+00   0.000000e+00
     2968000   2.967999e-06   1.739219e+01   1.607326e+01   1.552035e-01  -1.953409e+05   7.946489e+02   1.709603e+04  -3.352212e+10   3.191118e+10  -3.845013e+11   1.960891e+05   2.054864e-25   0.000000e+00   0.000000e+00
     2976000   2.975999e-06   1.739063e+01   1.607327e+01   1.553280e-01  -1.955848e+05   1.029373e+03   1.401665e+04  -2.747371e+10   2.676845e+10  -3.853163e+11   1.960892e+05   2.054271e-25   0.000000e+00   0.000000e+00
     2984000   2.983999e-06   1.738906e+01   1.607328e+01   1.554278e-01  -1.957804e+05   1.222908e+03   1.093141e+04  -2.141626e+10   2.161420e+10  -3.859673e+11   1.960892e+05   2.053676e-25   0.000000e+00   0.000000e+00
     2992000   2.991999e-06   1.738750e+01   1.607329e+01   1.555029e-01  -1.959275e+05   1.375170e+03   7.841615e+03  -1.535237e+10   1.645062e+10  -3.864540e+11   1.960892e+05   2.053079e-25   0.000000e+00   0.000000e+00
     3000000   2.999999e-06   1.738593e+01   1.607330e+01   1.555532e-01  -1.960260e+05   1.486094e+03   4.748583e+03  -9.284618e+09   1.127989e+10  -3.867764e+11   1.960892e+05   2.052482e-25   0.000000e+00   0.000000e+00
     3008000   3.007999e-06   1.738436e+01   1.607331e+01   1.555788e-01  -1.960760e+05   1.555630e+03   1.653631e+03  -3.215591e+09   6.104212e+09  -3.869343e+11   1.960892e+05   2.051883e-25   0.000000e+00   0.000000e+00
     3016000   3.015999e-06   1.738279e+01   1.607332e+01   1.555797e-01  -1.960775e+05   1.583749e+03  -1.441927e+03   2.852127e+09   9.257945e+08  -3.869277e+11   1.960892e+05   2.051284e-25   0.000000e+00   0.000000e+00
     3024000   3.023999e-06   1.738122e+01   1.607334e+01   1.555558e-01  -1.960304e+05   1.570436e+03  -4.536774e+03   8.915957e+09  -4.253163e+09  -3.867567e+11   1.960892e+05   2.050686e-25   0.000000e+00   0.000000e+00
     3032000   3.031999e-06   1.737966e+01   1.607335e+01   1.555071e-01  -1.959348e+05   1.515697e+03  -7.629595e+03   1.497332e+10  -9.430455e+09  -3.864214e+11   1.960892e+05   2.050087e-25   0.000000e+00   0.000000e+00
     3040000   3.039999e-06   1.737809e+01   1.607336e+01   1.554337e-01  -1.957908e+05   1.419554e+03  -1.071908e+04   2.102166e+10  -1.460388e+10  -3.859220e+11   1.960892e+05   2.049489e-25   0.000000e+00   0.000000e+00
     3048000   3.047999e-06   1.737652e+01   1.607337e+01   1.553356e-01  -1.955985e+05   1.282046e+03  -1.380391e+04   2.705840e+10  -1.977123e+10  -3.852589e+11   1.960892e+05   2.048893e-25   0.000000e+00   0.000000e+00
     3056000   3.055999e-06   1.737496e+01   1.607338e+01   1.552129e-01  -1.953579e+05   1.103232e+03  -1.688278e+04   3.308098e+10  -2.493030e+10  -3.844322e+11   1.960892e+05   2.048298e-25   0.000000e+00   0.000000e+00
     3064000   3.063999e-06   1.737340e+01   1.607339e+01   1.550655e-01  -1.950692e+05   8.831845e+02  -1.995439e+04   3.908688e+10  -3.007889e+10  -3.834425e+11   1.960892e+05   2.047705e-25   0.000000e+00   0.000000e+00
     3072000   3.071999e-06   1.737184e+01   1.607339e+01   1.548936e-01  -1.947326e+05   6.219979e+02  -2.301743e+04   4.507354e+10  -3.521481e+10  -3.822903e+11   1.960892e+05   2.047114e-25   0.000000e+00   0.000000e+00
     3080000   3.079999e-06   1.737028e+01   1.607340e+01   1.546972e-01  -1.943481e+05   3.197820e+02  -2.607060e+04   5.103844e+10  -4.033587e+10  -3.809760e+11   1.960892e+05   2.046525e-25   0.000000e+00   0.000000e+00
     3088000   3.087999e-06   1.736873e+01   1.607340e+01   1.544765e-01  -1.939160e+05  -2.333562e+01  -2.911261e+04   5.697908e+10  -4.543988e+10  -3.795003e+11   1.960892e+05   2.045940e-25   0.000000e+00   0.000000e+00
     3096000   3.095999e-06   1.736718e+01   1.607340e+01   1.542315e-01  -1.934365e+05  -4.072098e+02  -3.214218e+04   6.289294e+10  -5.052465e+10  -3.778639e+11   1.960892e+05   2.045358e-25   0.000000e+00   0.000000e+00
     3104000   3.103999e-06   1.736563e+01   1.607339e+01   1.539623e-01  -1.929098e+05  -8.316780e+02  -3.515801e+04   6.877756e+10  -5.558802e+10  -3.760675e+11   1.960892e+05   2.044779e-25   0.000000e+00   0.000000e+00
     3112000   3.111999e-06   1.736409e+01   1.607338e+01   1.536690e-01  -1.923362e+05  -1.296560e+03  -3.815883e+04   7.463045e+10  -6.062783e+10  -3.741120e+11   1.960892e+05   2.044205e-25   0.000000e+00   0.000000e+00
     3120000   3.119999e-06   1.736256e+01   1.607337e+01   1.533518e-01  -1.917158e+05  -1.801660e+03  -4.114337e+04   8.044916e+10  -6.564191e+10  -3.719982e+11   1.960892e+05   2.043634e-25   0.000000e+00   0.000000e+00
     3128000   3.127999e-06   1.736103e+01   1.607336e+01   1.530107e-01  -1.910491e+05  -2.346762e+03  -4.411038e+04   8.623126e+10  -7.062812e+10  -3.697271e+11   1.960892e+05   2.043069e-25   0.000000e+00   0.000000e+00
     3136000   3.135999e-06   1.735950e+01   1.607333e+01   1.526461e-01  -1.903362e+05  -2.931635e+03  -4.705859e+04   9.197433e+10  -7.558434e+10  -3.672998e+11   1.960892e+05   2.042508e-25   0.000000e+00   0.000000e+00
     3144000   3.143999e-06   1.735798e+01   1.607331e+01   1.522579e-01  -1.895776e+05  -3.556030e+03  -4.998676e+04   9.767597e+10  -8.050843e+10  -3.647172e+11   1.960892e+05   2.041953e-25   0.000000e+00   0.000000e+00
     3152000   3.151999e-06   1.735647e+01   1.607328e+01   1.518463e-01  -1.887735e+05  -4.219683e+03  -5.289365e+04   1.033338e+11  -8.539830e+10  -3.619807e+11   1.960892e+05   2.041404e-25   0.000000e+00   0.000000e+00
     3160000   3.159999e-06   1.735496e+01   1.607324e+01   1.514116e-01  -1.879244e+05  -4.922311e+03  -5.577804e+04   1.089455e+11  -9.025184e+10  -3.590913e+11   1.960892e+05   2.040860e-25   0.000000e+00   0.000000e+00
     3168000   3.167999e-06   1.735346e+01   1.607320e+01   1.509539e-01  -1.870305e+05  -5.663615e+03  -5.863871e+04   1.145086e+11  -9.506698e+10  -3.560504e+11   1.960892e+05   2.040322e-25   0.000000e+00   0.000000e+00
     3176000   3.175999e-06   1.735197e+01   1.607315e+01   1.504735e-01  -1.860923e+05  -6.443280e+03  -6.147444e+04   1.200210e+11  -9.984165e+10  -3.528593e+11   1.960892e+05   2.039791e-25   0.000000e+00   0.000000e+00
     3184000   3.183999e-06   1.735048e+01   1.607310e+01   1.499704e-01  -1.851103e+05  -7.260973e+03  -6.428405e+04   1.254802e+11  -1.045738e+11  -3.495194e+11   1.960892e+05   2.039267e-25   0.000000e+00   0.000000e+00
     3192000   3.191999e-06   1.734901e+01   1.607303e+01   1.494450e-01  -1.840848e+05  -8.116347e+03  -6.706636e+04   1.308841e+11  -1.092614e+11  -3.460322e+11   1.960892e+05   2.038749e-25   0.000000e+00   0.000000e+00
     3200000   3.199999e-06   1.734754e+01   1.607297e+01   1.488974e-01  -1.830163e+05  -9.009036e+03  -6.982018e+04   1.362304e+11  -1.139025e+11  -3.423992e+11   1.960892e+05   2.038239e-25   0.000000e+00   0.000000e+00
     3208000   3.207999e-06   1.734608e+01   1.607289e+01   1.483279e-01  -1.819053e+05  -9.938662e+03  -7.254436e+04   1.415168e+11  -1.184950e+11  -3.386221e+11   1.960892e+05   2.037736e-25   0.000000e+00   0.000000e+00
     3216000   3.215999e-06   1.734463e+01   1.607281e+01   1.477368e-01  -1.807522e+05  -1.090483e+04  -7.523775e+04   1.467413e+11  -1.230371e+11  -3.347025e+11   1.960892e+05   2.037241e-25   0.000000e+00   0.000000e+00
     3224000   3.223999e-06   1.734319e+01   1.607272e+01   1.471242e-01  -1.795576e+05  -1.190712e+04  -7.789922e+04   1.519016e+11  -1.275266e+11  -3.306420e+11   1.960892e+05   2.036753e-25   0.000000e+00   0.000000e+00
     3232000   3.231999e-06   1.734175e+01   1.607262e+01   1.464905e-01  -1.783219e+05  -1.294511e+04  -8.052764e+04   1.569956e+11  -1.319618e+11  -3.264425e+11   1.960892e+05   2.036274e-25   0.000000e+00   0.000000e+00
     3240000   3.239999e-06   1.734033e+01   1.607251e+01   1.458359e-01  -1.770458e+05  -1.401836e+04  -8.312193e+04   1.620212e+11  -1.363407e+11  -3.221059e+11   1.960893e+05   2.035802e-25   0.000000e+00   0.000000e+00
     3248000   3.247999e-06   1.733892e+01   1.607239e+01   1.451606e-01  -1.757298e+05  -1.512641e+04  -8.568097e+04   1.669764e+11  -1.406614e+11  -3.176339e+11   1.960893e+05   2.035339e-25   0.000000e+00   0.000000e+00
     3256000   3.255999e-06   1.733752e+01   1.607227e+01   1.444651e-01  -1.743744e+05  -1.626879e+04  -8.820371e+04   1.718592e+11  -1.449222e+11  -3.130285e+11   1.960893e+05   2.034885e-25   0.000000e+00   0.000000e+00
     3264000   3.263999e-06   1.733613e+01   1.607213e+01   1.437495e-01  -1.729802e+05  -1.744501e+04  -9.068907e+04   1.766674e+11  -1.491210e+11  -3.082918e+11   1.960893e+05   2.034439e-25   0.000000e+00   0.000000e+00
     3272000   3.271999e-06   1.733475e+01   1.607199e+01   1.430142e-01  -1.715479e+05  -1.865456e+04  -9.313603e+04   1.813992e+11  -1.532562e+11  -3.034258e+11   1.960893e+05   2.034001e-25   0.000000e+00   0.000000e+00
     3280000   3.279999e-06   1.733339e+01   1.607183e+01   1.422594e-01  -1.700781e+05  -1.989694e+04  -9.554354e+04   1.860526e+11  -1.573260e+11  -2.984327e+11   1.960893e+05   2.033573e-25   0.000000e+00   0.000000e+00
     3288000   3.287999e-06   1.733203e+01   1.607167e+01   1.414856e-01  -1.685713e+05  -2.117160e+04  -9.791061e+04   1.906258e+11  -1.613286e+11  -2.933144e+11   1.960893e+05   2.033153e-25   0.000000e+00   0.000000e+00
     3296000   3.295999e-06   1.733069e+01   1.607149e+01   1.406930e-01  -1.670283e+05  -2.247801e+04  -1.002362e+05   1.951168e+11  -1.652624e+11  -2.880734e+11   1.960893e+05   2.032742e-25   0.000000e+00   0.000000e+00
     3304000   3.303999e-06   1.732936e+01   1.607131e+01   1.398819e-01  -1.654496e+05  -2.381562e+04  -1.025195e+05   1.995238e+11  -1.691255e+11  -2.827118e+11   1.960893e+05   2.032341e-25   0.000000e+00   0.000000e+00
     3312000   3.311999e-06   1.732804e+01   1.607111e+01   1.390528e-01  -1.638361e+05  -2.518383e+04  -1.047593e+05   2.038451e+11  -1.729164e+11  -2.772320e+11   1.960893e+05   2.031948e-25   0.000000e+00   0.000000e+00
     3320000   3.319999e-06   1.732674e+01   1.607091e+01   1.382059e-01  -1.621883e+05  -2.658209e+04  -1.069549e+05   2.080789e+11  -1.766335e+11  -2.716363e+11   1.960893e+05   2.031565e-25   0.000000e+00   0.000000e+00
     3328000   3.327999e-06   1.732545e+01   1.607069e+01   1.373416e-01  -1.605071e+05  -2.800977e+04  -1.091052e+05   2.122234e+11  -1.802751e+11  -2.659272e+11   1.960893e+05   2.031190e-25   0.000000e+00   0.000000e+00
     3336000   3.335999e-06   1.732417e+01   1.607046e+01   1.364603e-01  -1.587930e+05  -2.946629e+04  -1.112094e+05   2.162770e+11  -1.838397e+11  -2.601071e+11   1.960893e+05   2.030825e-25   0.000000e+00   0.000000e+00
     3344000   3.343999e-06   1.732291e+01   1.607022e+01   1.355624e-01  -1.570469e+05  -3.095100e+04  -1.132666e+05   2.202381e+11  -1.873258e+11  -2.541785e+11   1.960893e+05   2.030468e-25   0.000000e+00   0.000000e+00
     3352000   3.351999e-06   1.732166e+01   1.606996e+01   1.346482e-01  -1.552694e+05  -3.246329e+04  -1.152760e+05   2.241050e+11  -1.907318e+11  -2.481439e+11   1.960893e+05   2.030121e-25   0.000000e+00   0.000000e+00
     3360000   3.359999e-06   1.732042e+01   1.606970e+01   1.337181e-01  -1.534615e+05  -3.400250e+04  -1.172366e+05   2.278763e+11  -1.940564e+11  -2.420060e+11   1.960893e+05   2.029782e-25   0.000000e+00   0.000000e+00
     3368000   3.367999e-06   1.731920e+01   1.606942e+01   1.327725e-01  -1.516237e+05  -3.556797e+04  -1.191478e+05   2.315503e+11  -1.972980e+11  -2.357674e+11   1.960893e+05   2.029452e-25   0.000000e+00   0.000000e+00
     3376000   3.375999e-06   1.731800e+01   1.606913e+01   1.318119e-01  -1.497569e+05  -3.715905e+04  -1.210086e+05   2.351256e+11  -2.004554e+11  -2.294307e+11   1.960893e+05   2.029131e-25   0.000000e+00   0.000000e+00
     3384000   3.383999e-06   1.731681e+01   1.606882e+01   1.308365e-01  -1.478619e+05  -3.877503e+04  -1.228184e+05   2.386008e+11  -2.035271e+11  -2.229988e+11   1.960893e+05   2.028819e-25   0.000000e+00   0.000000e+00
     3392000   3.391999e-06   1.731563e+01   1.606851e+01   1.298469e-01  -1.459396e+05  -4.041525e+04  -1.245764e+05   2.419745e+11  -2.065118e+11  -2.164742e+11   1.960893e+05   2.028515e-25   0.000000e+00   0.000000e+00
     3400000   3.399999e-06   1.731447e+01   1.606818e+01   1.288434e-01  -1.439906e+05  -4.207899e+04  -1.262818e+05   2.452453e+11  -2.094084e+11  -2.098599e+11   1.960893e+05   2.028220e-25   0.000000e+00   0.000000e+00
     3408000   3.407999e-06   1.731333e+01   1.606783e+01   1.278265e-01  -1.420159e+05  -4.376555e+04  -1.279339e+05   2.484120e+11  -2.122154e+11  -2.031587e+11   1.960893e+05   2.027933e-25   0.000000e+00   0.000000e+00
     3416000   3.415999e-06   1.731220e+01   1.606748e+01   1.267966e-01  -1.400163e+05  -4.547420e+04  -1.295321e+05   2.514733e+11  -2.149318e+11  -1.963734e+11   1.960893e+05   2.027654e-25   0.000000e+00   0.000000e+00
     3424000   3.423999e-06   1.731109e+01   1.606711e+01   1.257542e-01  -1.379926e+05  -4.720422e+04  -1.310756e+05   2.544279e+11  -2.175564e+11  -1.895069e+11   1.960893e+05   2.027383e-25   0.000000e+00   0.000000e+00
     3432000   3.431999e-06   1.730999e+01   1.606672e+01   1.246996e-01  -1.359457e+05  -4.895486e+04  -1.325640e+05   2.572747e+11  -2.200881e+11  -1.825622e+11   1.960893e+05   2.027119e-25   0.000000e+00   0.000000e+00
     3440000   3.439999e-06   1.730891e+01   1.606632e+01   1.236333e-01  -1.338765e+05  -5.072538e+04  -1.339964e+05   2.600126e+11  -2.225257e+11  -1.755422e+11   1.960893e+05   2.026864e-25   0.000000e+00   0.000000e+00
     3448000   3.447999e-06   1.730785e+01   1.606591e+01   1.225558e-01  -1.317858e+05  -5.251502e+04  -1.353724e+05   2.626405e+11  -2.248683e+11  -1.684499e+11   1.960893e+05   2.026615e-25   0.000000e+00   0.000000e+00
     3456000   3.455999e-06   1.730680e+01   1.606548e+01   1.214675e-01  -1.296746e+05  -5.432302e+04  -1.366914e+05   2.651574e+11  -2.271149e+11  -1.612884e+11   1.960893e+05   2.026374e-25   0.000000e+00   0.000000e+00
     3464000   3.463999e-06   1.730577e+01   1.606504e+01   1.203689e-01  -1.275436e+05  -5.614860e+04  -1.379529e+05   2.675622e+11  -2.292645e+11  -1.540607e+11   1.960893e+05   2.026139e-25   0.000000e+00   0.000000e+00
     3472000   3.471999e-06   1.730476e+01   1.606458e+01   1.192604e-01  -1.253939e+05  -5.799099e+04  -1.391562e+05   2.698540e+11  -2.313163e+11  -1.467698e+11   1.960893e+05   2.025911e-25   0.000000e+00   0.000000e+00
     3480000   3.479999e-06   1.730377e+01   1.606411e+01   1.181425e-01  -1.232262e+05  -5.984940e+04  -1.403010e+05   2.720321e+11  -2.332693e+11  -1.394189e+11   1.960893e+05   2.025690e-25   0.000000e+00   0.000000e+00
     3488000   3.487999e-06   1.730279e+01   1.606363e+01   1.170157e-01  -1.210417e+05  -6.172303e+04  -1.413868e+05   2.740954e+11  -2.351227e+11  -1.320111e+11   1.960893e+05   2.025474e-25   0.000000e+00   0.000000e+00
     3496000   3.495999e-06   1.730183e+01   1.606312e+01   1.158805e-01  -1.188410e+05  -6.361110e+04  -1.424130e+05   2.760432e+11  -2.368758e+11  -1.245495e+11   1.960893e+05   2.025265e-25   0.000000e+00   0.000000e+00
     3504000   3.503999e-06   1.730089e+01   1.606261e+01   1.147373e-01  -1.166253e+05  -6.551278e+04  -1.433794e+05   2.778748e+11  -2.385279e+11  -1.170373e+11   1.960894e+05   2.025061e-25   0.000000e+00   0.000000e+00
     3512000   3.511999e-06   1.729997e+01   1.606208e+01   1.135866e-01  -1.143953e+05  -6.742727e+04  -1.442855e+05   2.795622e+11  -2.400668e+11  -1.094616e+11   1.960894e+05   2.024530e-25   0.000000e+00   0.000000e+00
     3520000   3.519999e-06   1.729906e+01   1.606153e+01   1.124289e-01  -1.121524e+05  -6.935366e+04  -1.451308e+05   2.811593e+11  -2.415140e+11  -1.018596e+11   1.960894e+05   2.024338e-25   0.000000e+00   0.000000e+00
     3528000   3.527999e-06   1.729817e+01   1.606097e+01   1.112647e-01  -1.098971e+05  -7.129122e+04  -1.459151e+05   2.826383e+11  -2.428582e+11  -9.421654e+10   1.960894e+05   2.024151e-25   0.000000e+00   0.000000e+00
     3536000   3.535999e-06   1.729730e+01   1.606039e+01   1.100944e-01  -1.076305e+05  -7.323912e+04  -1.466382e+05   2.839985e+11  -2.440990e+11  -8.653578e+10   1.960894e+05   2.023968e-25   0.000000e+00   0.000000e+00
     3544000   3.543999e-06   1.729645e+01   1.605979e+01   1.089186e-01  -1.053534e+05  -7.519653e+04  -1.472996e+05   2.852395e+11  -2.452358e+11  -7.882054e+10   1.960894e+05   2.023789e-25   0.000000e+00   0.000000e+00
     3552000   3.551999e-06   1.729562e+01   1.605919e+01   1.077378e-01  -1.030670e+05  -7.716261e+04  -1.478992e+05   2.863608e+11  -2.462681e+11  -7.107408e+10   1.960894e+05   2.023613e-25   0.000000e+00   0.000000e+00
     3560000   3.559999e-06   1.729480e+01   1.605856e+01   1.065524e-01  -1.007720e+05  -7.913654e+04  -1.484367e+05   2.873620e+11  -2.471955e+11  -6.329968e+10   1.960894e+05   2.023441e-25   0.000000e+00   0.000000e+00
     3568000   3.567999e-06   1.729400e+01   1.605792e+01   1.053630e-01  -9.846949e+04  -8.111746e+04  -1.489119e+05   2.882428e+11  -2.480177e+11  -5.550061e+10   1.960894e+05   2.023271e-25   0.000000e+00   0.000000e+00
     3576000   3.575999e-06   1.729322e+01   1.605726e+01   1.041700e-01  -9.616043e+04  -8.310454e+04  -1.493247e+05   2.890028e+11  -2.487344e+11  -4.768018e+10   1.960894e+05   2.023104e-25   0.000000e+00   0.000000e+00
     3584000   3.583999e-06   1.729246e+01   1.605659e+01   1.029739e-01  -9.384577e+04  -8.509693e+04  -1.496747e+05   2.896418e+11  -2.493452e+11  -3.984169e+10   1.960894e+05   2.022939e-25   0.000000e+00   0.000000e+00
     3592000   3.591999e-06   1.729172e+01   1.605590e+01   1.017753e-01  -9.152648e+04  -8.709378e+04  -1.499621e+05   2.901596e+11  -2.498500e+11  -3.198843e+10   1.960894e+05   2.022776e-25   0.000000e+00   0.000000e+00
     3600000   3.599999e-06   1.729100e+01   1.605520e+01   1.005747e-01  -8.920354e+04  -8.909425e+04  -1.501865e+05   2.905560e+11  -2.502486e+11  -2.412373e+10   1.960894e+05   2.022614e-25   0.000000e+00   0.000000e+00
     3608000   3.607999e-06   1.729030e+01   1.605447e+01   9.937252e-02  -8.687752e+04  -9.109774e+04  -1.503481e+05   2.909254e+11  -2.506050e+11  -1.626537e+10   1.960894e+05   2.023655e-25   0.000000e+00   0.000000e+00
     3616000   3.615999e-06   1.728961e+01   1.605374e+01   9.816930e-02  -8.454941e+04  -9.310340e+04  -1.504467e+05   2.910809e+11  -2.507908e+11  -8.384325e+09   1.960894e+05   2.023510e-25   0.000000e+00   0.000000e+00
     3624000   3.623999e-06   1.728894e+01   1.605299e+01   9.696554e-02  -8.222055e+04  -9.511011e+04  -1.504822e+05   2.911148e+11  -2.508701e+11  -5.016544e+08   1.960894e+05   2.023365e-25   0.000000e+00   0.000000e+00
     3632000   3.631999e-06   1.728829e+01   1.605222e+01   9.576175e-02  -7.989190e+04  -9.711704e+04  -1.504547e+05   2.910271e+11  -2.508428e+11   7.379327e+09   1.960894e+05   2.023221e-25   0.000000e+00   0.000000e+00
     3640000   3.639999e-06   1.728767e+01   1.605143e+01   9.455844e-02  -7.756444e+04  -9.912331e+04  -1.503642e+05   2.908178e+11  -2.507091e+11   1.525531e+10   1.960894e+05   2.023076e-25   0.000000e+00   0.000000e+00
     3648000   3.647999e-06   1.728705e+01   1.605063e+01   9.335610e-02  -7.523914e+04  -1.011281e+05  -1.502106e+05   2.904870e+11  -2.504690e+11   2.312297e+10   1.960894e+05   2.022931e-25   0.000000e+00   0.000000e+00
     3656000   3.655999e-06   1.728646e+01   1.604981e+01   9.215523e-02  -7.291697e+04  -1.031305e+05  -1.499942e+05   2.900350e+11  -2.501228e+11   3.097901e+10   1.960894e+05   2.022784e-25   0.000000e+00   0.000000e+00
     3664000   3.663999e-06   1.728589e+01   1.604898e+01   9.095636e-02  -7.059890e+04  -1.051298e+05  -1.497150e+05   2.894620e+11  -2.496705e+11   3.882013e+10   1.960894e+05   2.022636e-25   0.000000e+00   0.000000e+00
     3672000   3.671999e-06   1.728533e+01   1.604813e+01   8.975996e-02  -6.828590e+04  -1.071250e+05  -1.493731e+05   2.887682e+11  -2.491124e+11   4.664304e+10   1.960894e+05   2.022486e-25   0.000000e+00   0.000000e+00
     3680000   3.679999e-06   1.728479e+01   1.604727e+01   8.856655e-02  -6.597893e+04  -1.091153e+05  -1.489688e+05   2.879540e+11  -2.484489e+11   5.444445e+10   1.960894e+05   2.022334e-25   0.000000e+00   0.000000e+00
     3688000   3.687999e-06   1.728428e+01   1.604639e+01   8.737663e-02  -6.367895e+04  -1.110999e+05  -1.485021e+05   2.870198e+11  -2.476801e+11   6.222110e+10   1.960894e+05   2.022179e-25   0.000000e+00   0.000000e+00
     3696000   3.695999e-06   1.728378e+01   1.604549e+01   8.619069e-02  -6.138693e+04  -1.130779e+05  -1.479733e+05   2.859659e+11  -2.468066e+11   6.996972e+10   1.960894e+05   2.022022e-25   0.000000e+00   0.000000e+00
     3704000   3.703999e-06   1.728329e+01   1.604458e+01   8.500922e-02  -5.910382e+04  -1.150485e+05  -1.473826e+05   2.847929e+11  -2.458287e+11   7.768706e+10   1.960894e+05   2.021861e-25   0.000000e+00   0.000000e+00
     3712000   3.711999e-06   1.728283e+01   1.604365e+01   8.383273e-02  -5.683056e+04  -1.170109e+05  -1.467304e+05   2.835013e+11  -2.447469e+11   8.536991e+10   1.960894e+05   2.021697e-25   0.000000e+00   0.000000e+00
     3720000   3.719999e-06   1.728238e+01   1.604270e+01   8.266170e-02  -5.456811e+04  -1.189642e+05  -1.460168e+05   2.820916e+11  -2.435617e+11   9.301503e+10   1.960894e+05   2.021528e-25   0.000000e+00   0.000000e+00
     3728000   3.727999e-06   1.728196e+01   1.604174e+01   8.149662e-02  -5.231741e+04  -1.209076e+05  -1.452422e+05   2.805645e+11  -2.422736e+11   1.006192e+11   1.960894e+05   2.021356e-25   0.000000e+00   0.000000e+00
     3736000   3.735999e-06   1.728155e+01   1.604077e+01   8.033798e-02  -5.007939e+04  -1.228403e+05  -1.444070e+05   2.789206e+11  -2.408833e+11   1.081793e+11   1.960894e+05   2.021179e-25   0.000000e+00   0.000000e+00
     3744000   3.743999e-06   1.728116e+01   1.603978e+01   7.918627e-02  -4.785499e+04  -1.247614e+05  -1.435115e+05   2.771606e+11  -2.393914e+11   1.156922e+11   1.960894e+05   2.020997e-25   0.000000e+00   0.000000e+00
     3752000   3.751999e-06   1.728078e+01   1.603877e+01   7.804196e-02  -4.564513e+04  -1.266703e+05  -1.425561e+05   2.752853e+11  -2.377987e+11   1.231546e+11   1.960894e+05   2.020810e-25   0.000000e+00   0.000000e+00
     3760000   3.759999e-06   1.728043e+01   1.603775e+01   7.690553e-02  -4.345073e+04  -1.285660e+05  -1.415412e+05   2.732956e+11  -2.361057e+11   1.305635e+11   1.960894e+05   2.020617e-25   0.000000e+00   0.000000e+00
     3768000   3.767999e-06   1.728009e+01   1.603672e+01   7.577746e-02  -4.127271e+04  -1.304477e+05  -1.404672e+05   2.711922e+11  -2.343134e+11   1.379159e+11   1.960895e+05   2.020419e-25   0.000000e+00   0.000000e+00
     3776000   3.775999e-06   1.727976e+01   1.603567e+01   7.465821e-02  -3.911196e+04  -1.323147e+05  -1.393347e+05   2.689760e+11  -2.324224e+11   1.452085e+11   1.960895e+05   2.020214e-25   0.000000e+00   0.000000e+00
     3784000   3.783999e-06   1.727946e+01   1.603460e+01   7.354826e-02  -3.696939e+04  -1.341662e+05  -1.381440e+05   2.666480e+11  -2.304338e+11   1.524385e+11   1.960895e+05   2.020003e-25   0.000000e+00   0.000000e+00
     3792000   3.791999e-06   1.727917e+01   1.603352e+01   7.244806e-02  -3.484589e+04  -1.360014e+05  -1.368958e+05   2.642093e+11  -2.283484e+11   1.596027e+11   1.960895e+05   2.019786e-25   0.000000e+00   0.000000e+00
     3800000   3.799999e-06   1.727890e+01   1.603242e+01   7.135808e-02  -3.274234e+04  -1.378195e+05  -1.355906e+05   2.616607e+11  -2.261671e+11   1.666982e+11   1.960895e+05   2.019562e-25   0.000000e+00   0.000000e+00
     3808000   3.807999e-06   1.727865e+01   1.603131e+01   7.027876e-02  -3.065961e+04  -1.396198e+05  -1.342288e+05   2.590035e+11  -2.238909e+11   1.737221e+11   1.960895e+05   2.019331e-25   0.000000e+00   0.000000e+00
     3816000   3.815999e-06   1.727841e+01   1.603019e+01   6.921057e-02  -2.859858e+04  -1.414015e+05  -1.328112e+05   2.562386e+11  -2.215209e+11   1.806714e+11   1.960895e+05   2.019092e-25   0.000000e+00   0.000000e+00
     3824000   3.823999e-06   1.727819e+01   1.602905e+01   6.815393e-02  -2.656008e+04  -1.431639e+05  -1.313383e+05   2.533674e+11  -2.190581e+11   1.875432e+11   1.960895e+05   2.018846e-25   0.000000e+00   0.000000e+00
     3832000   3.831999e-06   1.727799e+01   1.602790e+01   6.710930e-02  -2.454498e+04  -1.449062e+05  -1.298107e+05   2.503909e+11  -2.165036e+11   1.943347e+11   1.960895e+05   2.018592e-25   0.000000e+00   0.000000e+00
     3840000   3.839999e-06   1.727780e+01   1.602673e+01   6.607710e-02  -2.255411e+04  -1.466277e+05  -1.282291e+05   2.473105e+11  -2.138586e+11   2.010430e+11   1.960895e+05   2.018331e-25   0.000000e+00   0.000000e+00
     3848000   3.847999e-06   1.727763e+01   1.602555e+01   6.505777e-02  -2.058829e+04  -1.483277e+05  -1.265942e+05   2.441275e+11  -2.111242e+11   2.076654e+11   1.960895e+05   2.018061e-25   0.000000e+00   0.000000e+00
     3856000   3.855999e-06   1.727747e+01   1.602436e+01   6.405174e-02  -1.864834e+04  -1.500055e+05  -1.249067e+05   2.408431e+11  -2.083017e+11   2.141992e+11   1.960895e+05   2.017783e-25   0.000000e+00   0.000000e+00
     3864000   3.863999e-06   1.727733e+01   1.602315e+01   6.305941e-02  -1.673507e+04  -1.516603e+05  -1.231673e+05   2.374588e+11  -2.053924e+11   2.206416e+11   1.960895e+05   2.017497e-25   0.000000e+00   0.000000e+00
     3872000   3.871999e-06   1.727720e+01   1.602193e+01   6.208120e-02  -1.484927e+04  -1.532915e+05  -1.213767e+05   2.339759e+11  -2.023974e+11   2.269899e+11   1.960895e+05   2.017202e-25   0.000000e+00   0.000000e+00
     3880000   3.879999e-06   1.727709e+01   1.602070e+01   6.111751e-02  -1.299172e+04  -1.548984e+05  -1.195357e+05   2.303960e+11  -1.993183e+11   2.332416e+11   1.960895e+05   2.016898e-25   0.000000e+00   0.000000e+00
     3888000   3.887999e-06   1.727699e+01   1.601945e+01   6.016876e-02  -1.116319e+04  -1.564804e+05  -1.176451e+05   2.267205e+11  -1.961562e+11   2.393940e+11   1.960895e+05   2.016586e-25   0.000000e+00   0.000000e+00
     3896000   3.895999e-06   1.727691e+01   1.601820e+01   5.923532e-02  -9.364444e+03  -1.580367e+05  -1.157057e+05   2.229510e+11  -1.929127e+11   2.454446e+11   1.960895e+05   2.016265e-25   0.000000e+00   0.000000e+00
     3904000   3.903999e-06   1.727684e+01   1.601693e+01   5.831759e-02  -7.596225e+03  -1.595668e+05  -1.137183e+05   2.190890e+11  -1.895892e+11   2.513909e+11   1.960895e+05   2.015936e-25   0.000000e+00   0.000000e+00
     3912000   3.911999e-06   1.727679e+01   1.601564e+01   5.741596e-02  -5.859266e+03  -1.610699e+05  -1.116837e+05   2.151362e+11  -1.861871e+11   2.572305e+11   1.960895e+05   2.015597e-25   0.000000e+00   0.000000e+00
     3920000   3.919999e-06   1.727675e+01   1.601435e+01   5.653078e-02  -4.154288e+03  -1.625455e+05  -1.096029e+05   2.110942e+11  -1.827079e+11   2.629609e+11   1.960895e+05   2.015249e-25   0.000000e+00   0.000000e+00
     3928000   3.927999e-06   1.727672e+01   1.601304e+01   5.566243e-02  -2.481997e+03  -1.639930e+05  -1.074766e+05   2.069646e+11  -1.791532e+11   2.685797e+11   1.960895e+05   2.014893e-25   0.000000e+00   0.000000e+00
     3936000   3.935999e-06   1.727671e+01   1.601173e+01   5.481127e-02  -8.430868e+02  -1.654118e+05  -1.053059e+05   2.027493e+11  -1.755245e+11   2.740848e+11   1.960895e+05   2.014527e-25   0.000000e+00   0.000000e+00
     3944000   3.943999e-06   1.727671e+01   1.601040e+01   5.397765e-02   7.617632e+02  -1.668012e+05  -1.030916e+05   1.984499e+11  -1.718234e+11   2.794737e+11   1.960895e+05   2.014152e-25   0.000000e+00   0.000000e+00
     3952000   3.951999e-06   1.727672e+01   1.600906e+01   5.316192e-02   2.331888e+03  -1.681608e+05  -1.008346e+05   1.940683e+11  -1.680516e+11   2.847444e+11   1.960895e+05   2.013768e-25   0.000000e+00   0.000000e+00
     3960000   3.959999e-06   1.727675e+01   1.600771e+01   5.236441e-02   3.866637e+03  -1.694899e+05  -9.853596e+04   1.896062e+11  -1.642107e+11   2.898946e+11   1.960895e+05   2.013375e-25   0.000000e+00   0.000000e+00
     3968000   3.967999e-06   1.727678e+01   1.600635e+01   5.158545e-02   5.365374e+03  -1.707880e+05  -9.619661e+04   1.850656e+11  -1.603024e+11   2.949222e+11   1.960895e+05   2.012974e-25   0.000000e+00   0.000000e+00
     3976000   3.975999e-06   1.727683e+01   1.600497e+01   5.082537e-02   6.827478e+03  -1.720545e+05  -9.381754e+04   1.804484e+11  -1.563283e+11   2.998251e+11   1.960895e+05   2.012563e-25   0.000000e+00   0.000000e+00
     3984000   3.983999e-06   1.727689e+01   1.600359e+01   5.008448e-02   8.252344e+03  -1.732890e+05  -9.139974e+04   1.757563e+11  -1.522903e+11   3.046014e+11   1.960895e+05   2.012144e-25   0.000000e+00   0.000000e+00
     3992000   3.991999e-06   1.727696e+01   1.600220e+01   4.936308e-02   9.639381e+03  -1.744910e+05  -8.894425e+04   1.709915e+11  -1.481900e+11   3.092491e+11   1.960895e+05   2.011716e-25   0.000000e+00   0.000000e+00
     4000000   3.999999e-06   1.727705e+01   1.600080e+01   4.866147e-02   1.098801e+04  -1.756599e+05  -8.645210e+04   1.661559e+11  -1.440293e+11   3.137663e+11   1.960895e+05   2.011279e-25   0.000000e+00   0.000000e+00
     4008000   4.007999e-06   1.727714e+01   1.599939e+01   4.797994e-02   1.229784e+04  -1.767953e+05  -8.392434e+04   1.612974e+11  -1.398071e+11   3.181521e+11   1.960895e+05   2.011035e-25   0.000000e+00   0.000000e+00
     4016000   4.015999e-06   1.727724e+01   1.599797e+01   4.731877e-02   1.356838e+04  -1.778967e+05  -8.136202e+04   1.563261e+11  -1.355306e+11   3.224034e+11   1.960895e+05   2.010578e-25   0.000000e+00   0.000000e+00
     4024000   4.023999e-06   1.727736e+01   1.599654e+01   4.667823e-02   1.479889e+04  -1.789636e+05  -7.876624e+04   1.512901e+11  -1.311992e+11   3.265188e+11   1.960895e+05   2.010114e-25   0.000000e+00   0.000000e+00
     4032000   4.031999e-06   1.727748e+01   1.599511e+01   4.605860e-02   1.598885e+04  -1.799957e+05  -7.613809e+04   1.461915e+11  -1.268147e+11   3.304967e+11   1.960896e+05   2.009642e-25   0.000000e+00   0.000000e+00
     4040000   4.039999e-06   1.727761e+01   1.599366e+01   4.546011e-02   1.713778e+04  -1.809925e+05  -7.347866e+04   1.410324e+11  -1.223790e+11   3.343354e+11   1.960896e+05   2.009162e-25   0.000000e+00   0.000000e+00
     4048000   4.047999e-06   1.727775e+01   1.599221e+01   4.488302e-02   1.824521e+04  -1.819537e+05  -7.078909e+04   1.358149e+11  -1.178941e+11   3.380335e+11   1.960896e+05   2.008674e-25   0.000000e+00   0.000000e+00
     4056000   4.055999e-06   1.727790e+01   1.599075e+01   4.432756e-02   1.931067e+04  -1.828787e+05  -6.807050e+04   1.305413e+11  -1.133618e+11   3.415893e+11   1.960896e+05   2.008179e-25   0.000000e+00   0.000000e+00
     4064000   4.063999e-06   1.727806e+01   1.598929e+01   4.379396e-02   2.033372e+04  -1.837673e+05  -6.532404e+04   1.252137e+11  -1.087842e+11   3.450016e+11   1.960896e+05   2.007677e-25   0.000000e+00   0.000000e+00
     4072000   4.071999e-06   1.727823e+01   1.598781e+01   4.328245e-02   2.131394e+04  -1.846191e+05  -6.255086e+04   1.198343e+11  -1.041632e+11   3.482688e+11   1.960896e+05   2.007168e-25   0.000000e+00   0.000000e+00
     4080000   4.079999e-06   1.727840e+01   1.598633e+01   4.279322e-02   2.225093e+04  -1.854338e+05  -5.975213e+04   1.144054e+11  -9.950076e+10   3.513897e+11   1.960896e+05   2.006652e-25   0.000000e+00   0.000000e+00
     4088000   4.087999e-06   1.727859e+01   1.598485e+01   4.232648e-02   2.314430e+04  -1.862110e+05  -5.692901e+04   1.089292e+11  -9.479889e+10   3.543631e+11   1.960896e+05   2.006130e-25   0.000000e+00   0.000000e+00
     4096000   4.095999e-06   1.727877e+01   1.598335e+01   4.188242e-02   2.399367e+04  -1.869505e+05  -5.408271e+04   1.034080e+11  -9.005962e+10   3.571878e+11   1.960896e+05   2.005602e-25   0.000000e+00   0.000000e+00
     4104000   4.103999e-06   1.727897e+01   1.598186e+01   4.146121e-02   2.479871e+04  -1.876519e+05  -5.121441e+04   9.784415e+10  -8.528496e+10   3.598625e+11   1.960896e+05   2.005067e-25   0.000000e+00   0.000000e+00
     4112000   4.111999e-06   1.727917e+01   1.598035e+01   4.106304e-02   2.555907e+04  -1.883150e+05  -4.832531e+04   9.223989e+10  -8.047695e+10   3.623864e+11   1.960896e+05   2.004527e-25   0.000000e+00   0.000000e+00
     4120000   4.119999e-06   1.727938e+01   1.597884e+01   4.068806e-02   2.627444e+04  -1.889394e+05  -4.541663e+04   8.659759e+10  -7.563765e+10   3.647583e+11   1.960896e+05   2.003982e-25   0.000000e+00   0.000000e+00
     4128000   4.127999e-06   1.727959e+01   1.597733e+01   4.033642e-02   2.694453e+04  -1.895251e+05  -4.248958e+04   8.091958e+10  -7.076910e+10   3.669773e+11   1.960896e+05   2.003431e-25   0.000000e+00   0.000000e+00
     4136000   4.135999e-06   1.727981e+01   1.597581e+01   4.000827e-02   2.756906e+04  -1.900717e+05  -3.954540e+04   7.520823e+10  -6.587339e+10   3.690426e+11   1.960896e+05   2.002875e-25   0.000000e+00   0.000000e+00
     4144000   4.143999e-06   1.728003e+01   1.597429e+01   3.970374e-02   2.814777e+04  -1.905790e+05  -3.658531e+04   6.946592e+10  -6.095259e+10   3.709534e+11   1.960896e+05   2.002315e-25   0.000000e+00   0.000000e+00
     4152000   4.151999e-06   1.728026e+01   1.597276e+01   3.942295e-02   2.868043e+04  -1.910468e+05  -3.361056e+04   6.369503e+10  -5.600878e+10   3.727089e+11   1.960896e+05   2.001751e-25   0.000000e+00   0.000000e+00
     4160000   4.159999e-06   1.728049e+01   1.597123e+01   3.916601e-02   2.916681e+04  -1.914751e+05  -3.062238e+04   5.789796e+10  -5.104406e+10   3.743085e+11   1.960896e+05   2.001183e-25   0.000000e+00   0.000000e+00
     4168000   4.167999e-06   1.728073e+01   1.596970e+01   3.893302e-02   2.960673e+04  -1.918635e+05  -2.762204e+04   5.207714e+10  -4.606053e+10   3.757515e+11   1.960896e+05   2.000611e-25   0.000000e+00   0.000000e+00
     4176000   4.175999e-06   1.728096e+01   1.596816e+01   3.872408e-02   2.999999e+04  -1.922120e+05  -2.461078e+04   4.623498e+10  -4.106029e+10   3.770373e+11   1.960896e+05   2.000036e-25   0.000000e+00   0.000000e+00
     4184000   4.183999e-06   1.728121e+01   1.596662e+01   3.853927e-02   3.034643e+04  -1.925204e+05  -2.158986e+04   4.037391e+10  -3.604545e+10   3.781657e+11   1.960896e+05   1.999458e-25   0.000000e+00   0.000000e+00
     4192000   4.191999e-06   1.728145e+01   1.596508e+01   3.837867e-02   3.064592e+04  -1.927887e+05  -1.856055e+04   3.449638e+10  -3.101813e+10   3.791360e+11   1.960896e+05   1.998877e-25   0.000000e+00   0.000000e+00
     4200000   4.199999e-06   1.728170e+01   1.596354e+01   3.824232e-02   3.089833e+04  -1.930167e+05  -1.552410e+04   2.860483e+10  -2.598043e+10   3.799479e+11   1.960896e+05   1.998294e-25   0.000000e+00   0.000000e+00
     4208000   4.207999e-06   1.728194e+01   1.596199e+01   3.813030e-02   3.110356e+04  -1.932043e+05  -1.248180e+04   2.270171e+10  -2.093448e+10   3.806013e+11   1.960896e+05   1.997710e-25   0.000000e+00   0.000000e+00
     4216000   4.215999e-06   1.728219e+01   1.596045e+01   3.804263e-02   3.126153e+04  -1.933516e+05  -9.434907e+03   1.678949e+10  -1.588238e+10   3.810958e+11   1.960896e+05   1.997123e-25   0.000000e+00   0.000000e+00
     4224000   4.223999e-06   1.728244e+01   1.595890e+01   3.797935e-02   3.137217e+04  -1.934584e+05  -6.384692e+03   1.087063e+10  -1.082626e+10   3.814314e+11   1.960896e+05   1.996536e-25   0.000000e+00   0.000000e+00
     4232000   4.231999e-06   1.728270e+01   1.595735e+01   3.794048e-02   3.143544e+04  -1.935248e+05  -3.332429e+03   4.947594e+09  -5.768237e+09   3.816079e+11   1.960896e+05   1.995947e-25   0.000000e+00   0.000000e+00
     4240000   4.239999e-06   1.728295e+01   1.595580e+01   3.792603e-02   3.145132e+04  -1.935507e+05  -2.793901e+02  -9.771519e+08  -7.104116e+08   3.816253e+11   1.960896e+05   1.995358e-25   0.000000e+00   0.000000e+00
     4248000   4.247999e-06   1.728320e+01   1.595425e+01   3.793601e-02   3.141980e+04  -1.935362e+05   2.773152e+03  -6.901137e+09   4.345101e+09   3.814837e+11   1.960896e+05   1.994769e-25   0.000000e+00   0.000000e+00
     4256000   4.255999e-06   1.728345e+01   1.595271e+01   3.797040e-02   3.134090e+04  -1.934812e+05   5.823925e+03  -1.282189e+10   9.396194e+09   3.811832e+11   1.960896e+05   1.994180e-25   0.000000e+00   0.000000e+00
     4264000   4.263999e-06   1.728370e+01   1.595116e+01   3.802918e-02   3.121466e+04  -1.933858e+05   8.871659e+03  -1.873695e+10   1.444077e+10   3.807240e+11   1.960896e+05   1.993591e-25   0.000000e+00   0.000000e+00
     4272000   4.271999e-06   1.728395e+01   1.594961e+01   3.811233e-02   3.104113e+04  -1.932502e+05   1.191509e+04  -2.464384e+10   1.947673e+10   3.801063e+11   1.960896e+05   1.993004e-25   0.000000e+00   0.000000e+00
     4280000   4.279999e-06   1.728420e+01   1.594807e+01   3.821981e-02   3.082038e+04  -1.930742e+05   1.495294e+04  -3.054011e+10   2.450198e+10   3.793305e+11   1.960896e+05   1.992417e-25   0.000000e+00   0.000000e+00
     4288000   4.287999e-06   1.728444e+01   1.594652e+01   3.835156e-02   3.055251e+04  -1.928582e+05   1.798395e+04  -3.642328e+10   2.951445e+10   3.783969e+11   1.960896e+05   1.991833e-25   0.000000e+00   0.000000e+00
