     timestep     time              x             y              z              vx             vy             vz             ax             ay             az         v_magnitude      ELoss        Electronic      Nuclear
           0   0.000000e+00   3.823378e+01   2.425449e+01   1.000000e-01   9.018157e+04  -1.286704e+04  -1.159200e+05   0.000000e+00   0.000000e+00   0.000000e+00   1.474304e+05   0.000000e+00   0.000000e+00   0.000000e+00
        8000   7.999000e-09   3.823451e+01   2.425440e+01   9.907209e-02   9.028479e+04  -1.079124e+04  -1.160514e+05   1.290366e+10   2.596064e+11  -1.410184e+10   1.474304e+05   5.247901e-26   0.000000e+00   0.000000e+00
       16000   1.599900e-08   3.823523e+01   2.425432e+01   9.814328e-02   9.038802e+04  -8.713561e+03  -1.161456e+05   1.290280e+10   2.597986e+11  -9.450034e+09   1.474304e+05   5.247143e-26   0.000000e+00   0.000000e+00
       24000   2.399900e-08   3.823595e+01   2.425426e+01   9.721386e-02   9.049122e+04  -6.634681e+03  -1.162026e+05   1.289757e+10   2.599076e+11  -4.796408e+09   1.474304e+05   5.246386e-26   0.000000e+00   0.000000e+00
       32000   3.199900e-08   3.823668e+01   2.425421e+01   9.628414e-02   9.059437e+04  -4.555262e+03  -1.162223e+05   1.288797e+10   2.599335e+11  -1.424460e+08   1.474304e+05   5.245630e-26   0.000000e+00   0.000000e+00
       40000   3.999900e-08   3.823740e+01   2.425419e+01   9.535440e-02   9.069742e+04  -2.475968e+03  -1.162048e+05   1.287400e+10   2.598763e+11   4.510362e+09   1.474304e+05   5.244873e-26   0.000000e+00   0.000000e+00
       48000   4.799900e-08   3.823813e+01   2.425417e+01   9.442496e-02   9.080034e+04  -3.974633e+02  -1.161502e+05   1.285568e+10   2.597360e+11   9.160531e+09   1.474304e+05   5.244117e-26   0.000000e+00   0.000000e+00
       56000   5.599900e-08   3.823886e+01   2.425418e+01   9.349610e-02   9.090310e+04   1.679587e+03  -1.160583e+05   1.283301e+10   2.595128e+11   1.380657e+10   1.474304e+05   5.243359e-26   0.000000e+00   0.000000e+00
       64000   6.399900e-08   3.823958e+01   2.425420e+01   9.256812e-02   9.100566e+04   3.754520e+03  -1.159293e+05   1.280600e+10   2.592067e+11   1.844701e+10   1.474304e+05   5.242602e-26   0.000000e+00   0.000000e+00
       72000   7.199900e-08   3.824031e+01   2.425424e+01   9.164133e-02   9.110798e+04   5.826674e+03  -1.157631e+05   1.277467e+10   2.588179e+11   2.308035e+10   1.474304e+05   5.241843e-26   0.000000e+00   0.000000e+00
       80000   7.999900e-08   3.824104e+01   2.425429e+01   9.071601e-02   9.121004e+04   7.895387e+03  -1.155600e+05   1.273902e+10   2.583466e+11   2.770513e+10   1.474304e+05   5.241082e-26   0.000000e+00   0.000000e+00
       88000   8.799900e-08   3.824177e+01   2.425437e+01   8.979247e-02   9.131180e+04   9.959999e+03  -1.153199e+05   1.269908e+10   2.577928e+11   3.231987e+10   1.474304e+05   5.240320e-26   0.000000e+00   0.000000e+00
       96000   9.599900e-08   3.824250e+01   2.425445e+01   8.887099e-02   9.141321e+04   1.201985e+04  -1.150429e+05   1.265486e+10   2.571568e+11   3.692310e+10   1.474304e+05   5.239556e-26   0.000000e+00   0.000000e+00
      104000   1.039990e-07   3.824323e+01   2.425456e+01   8.795188e-02   9.151426e+04   1.407429e+04  -1.147291e+05   1.260639e+10   2.564389e+11   4.151336e+10   1.474304e+05   5.238790e-26   0.000000e+00   0.000000e+00
      112000   1.119990e-07   3.824397e+01   2.425468e+01   8.703542e-02   9.161491e+04   1.612266e+04  -1.143787e+05   1.255367e+10   2.556393e+11   4.608917e+10   1.474304e+05   5.238021e-26   0.000000e+00   0.000000e+00
      120000   1.199990e-07   3.824470e+01   2.425482e+01   8.612192e-02   9.171511e+04   1.816430e+04  -1.139918e+05   1.249675e+10   2.547583e+11   5.064910e+10   1.474304e+05   5.237249e-26   0.000000e+00   0.000000e+00
      128000   1.279990e-07   3.824543e+01   2.425497e+01   8.521165e-02   9.181484e+04   2.019857e+04  -1.135684e+05   1.243564e+10   2.537962e+11   5.519168e+10   1.474304e+05   5.236474e-26   0.000000e+00   0.000000e+00
      136000   1.359990e-07   3.824617e+01   2.425514e+01   8.430492e-02   9.191407e+04   2.222482e+04  -1.131087e+05   1.237037e+10   2.527534e+11   5.971548e+10   1.474304e+05   5.235695e-26   0.000000e+00   0.000000e+00
      144000   1.439990e-07   3.824690e+01   2.425532e+01   8.340201e-02   9.201276e+04   2.424241e+04  -1.126130e+05   1.230097e+10   2.516301e+11   6.421906e+10   1.474304e+05   5.234913e-26   0.000000e+00   0.000000e+00
      152000   1.519990e-07   3.824764e+01   2.425553e+01   8.250321e-02   9.211087e+04   2.625069e+04  -1.120813e+05   1.222747e+10   2.504269e+11   6.870099e+10   1.474304e+05   5.234126e-26   0.000000e+00   0.000000e+00
      160000   1.599990e-07   3.824838e+01   2.425574e+01   8.160881e-02   9.220839e+04   2.824903e+04  -1.115138e+05   1.214991e+10   2.491441e+11   7.315984e+10   1.474304e+05   5.233336e-26   0.000000e+00   0.000000e+00
      168000   1.679990e-07   3.824912e+01   2.425598e+01   8.071908e-02   9.230526e+04   3.023678e+04  -1.109108e+05   1.206831e+10   2.477821e+11   7.759422e+10   1.474304e+05   5.232540e-26   0.000000e+00   0.000000e+00
      176000   1.759990e-07   3.824985e+01   2.425623e+01   7.983433e-02   9.240147e+04   3.221333e+04  -1.102724e+05   1.198272e+10   2.463415e+11   8.200270e+10   1.474304e+05   5.231740e-26   0.000000e+00   0.000000e+00
      184000   1.839990e-07   3.825059e+01   2.425649e+01   7.895482e-02   9.249697e+04   3.417804e+04  -1.095988e+05   1.189317e+10   2.448226e+11   8.638389e+10   1.474304e+05   5.230935e-26   0.000000e+00   0.000000e+00
      192000   1.919990e-07   3.825133e+01   2.425677e+01   7.808084e-02   9.259175e+04   3.613028e+04  -1.088903e+05   1.179970e+10   2.432261e+11   9.073642e+10   1.474304e+05   5.230124e-26   0.000000e+00   0.000000e+00
      200000   1.999990e-07   3.825208e+01   2.425707e+01   7.721267e-02   9.268576e+04   3.806945e+04  -1.081471e+05   1.170235e+10   2.415525e+11   9.505889e+10   1.474304e+05   5.229308e-26   0.000000e+00   0.000000e+00
      208000   2.079990e-07   3.825282e+01   2.425738e+01   7.635058e-02   9.277898e+04   3.999492e+04  -1.073694e+05   1.160117e+10   2.398023e+11   9.934995e+10   1.474304e+05   5.228486e-26   0.000000e+00   0.000000e+00
      216000   2.159990e-07   3.825356e+01   2.425771e+01   7.549485e-02   9.287137e+04   4.190608e+04  -1.065576e+05   1.149620e+10   2.379761e+11   1.036082e+11   1.474304e+05   5.227658e-26   0.000000e+00   0.000000e+00
      224000   2.239990e-07   3.825430e+01   2.425805e+01   7.464575e-02   9.296290e+04   4.380233e+04  -1.057118e+05   1.138749e+10   2.360745e+11   1.078324e+11   1.474304e+05   5.226824e-26   0.000000e+00   0.000000e+00
      232000   2.319990e-07   3.825505e+01   2.425841e+01   7.380355e-02   9.305356e+04   4.568307e+04  -1.048324e+05   1.127508e+10   2.340981e+11   1.120211e+11   1.474304e+05   5.225983e-26   0.000000e+00   0.000000e+00
      240000   2.399990e-07   3.825579e+01   2.425879e+01   7.296852e-02   9.314330e+04   4.754770e+04  -1.039196e+05   1.115902e+10   2.320477e+11   1.161731e+11   1.474304e+05   5.225136e-26   0.000000e+00   0.000000e+00
      248000   2.479990e-07   3.825654e+01   2.425917e+01   7.214092e-02   9.323209e+04   4.939564e+04  -1.029737e+05   1.103937e+10   2.299239e+11   1.202870e+11   1.474304e+05   5.224282e-26   0.000000e+00   0.000000e+00
      256000   2.559990e-07   3.825728e+01   2.425958e+01   7.132103e-02   9.331992e+04   5.122629e+04  -1.019951e+05   1.091617e+10   2.277274e+11   1.243615e+11   1.474304e+05   5.223420e-26   0.000000e+00   0.000000e+00
      264000   2.639990e-07   3.825803e+01   2.425999e+01   7.050909e-02   9.340674e+04   5.303908e+04  -1.009840e+05   1.078949e+10   2.254589e+11   1.283953e+11   1.474304e+05   5.222552e-26   0.000000e+00   0.000000e+00
      272000   2.719990e-07   3.825878e+01   2.426042e+01   6.970537e-02   9.349254e+04   5.483344e+04  -9.994084e+04   1.065936e+10   2.231192e+11   1.323873e+11   1.474304e+05   5.221676e-26   0.000000e+00   0.000000e+00
      280000   2.799990e-07   3.825953e+01   2.426087e+01   6.891012e-02   9.357728e+04   5.660880e+04  -9.886592e+04   1.052586e+10   2.207090e+11   1.363360e+11   1.474304e+05   5.220793e-26   0.000000e+00   0.000000e+00
      288000   2.879990e-07   3.826028e+01   2.426133e+01   6.812360e-02   9.366094e+04   5.836459e+04  -9.775958e+04   1.038903e+10   2.182292e+11   1.402404e+11   1.474304e+05   5.219902e-26   0.000000e+00   0.000000e+00
      296000   2.959990e-07   3.826103e+01   2.426180e+01   6.734605e-02   9.374350e+04   6.010028e+04  -9.662219e+04   1.024894e+10   2.156805e+11   1.440990e+11   1.474304e+05   5.219003e-26   0.000000e+00   0.000000e+00
      304000   3.039990e-07   3.826178e+01   2.426229e+01   6.657772e-02   9.382492e+04   6.181530e+04  -9.545412e+04   1.010564e+10   2.130639e+11   1.479109e+11   1.474304e+05   5.218097e-26   0.000000e+00   0.000000e+00
      312000   3.119990e-07   3.826253e+01   2.426279e+01   6.581886e-02   9.390518e+04   6.350912e+04  -9.425574e+04   9.959199e+09   2.103801e+11   1.516746e+11   1.474304e+05   5.217182e-26   0.000000e+00   0.000000e+00
      320000   3.199990e-07   3.826328e+01   2.426331e+01   6.506971e-02   9.398426e+04   6.518120e+04  -9.302745e+04   9.809679e+09   2.076300e+11   1.553892e+11   1.474304e+05   5.216260e-26   0.000000e+00   0.000000e+00
      328000   3.279990e-07   3.826403e+01   2.426384e+01   6.433050e-02   9.406213e+04   6.683102e+04  -9.176964e+04   9.657142e+09   2.048145e+11   1.590533e+11   1.474304e+05   5.215329e-26   0.000000e+00   0.000000e+00
      336000   3.359990e-07   3.826478e+01   2.426438e+01   6.360148e-02   9.413876e+04   6.845806e+04  -9.048273e+04   9.501651e+09   2.019346e+11   1.626660e+11   1.474304e+05   5.214390e-26   0.000000e+00   0.000000e+00
      344000   3.439990e-07   3.826554e+01   2.426493e+01   6.288286e-02   9.421414e+04   7.006180e+04  -8.916713e+04   9.343274e+09   1.989912e+11   1.662259e+11   1.474304e+05   5.213442e-26   0.000000e+00   0.000000e+00
      352000   3.519990e-07   3.826629e+01   2.426550e+01   6.217488e-02   9.428825e+04   7.164175e+04  -8.782326e+04   9.182075e+09   1.959853e+11   1.697321e+11   1.474305e+05   5.212487e-26   0.000000e+00   0.000000e+00
      360000   3.599990e-07   3.826705e+01   2.426608e+01   6.147776e-02   9.436105e+04   7.319740e+04  -8.645156e+04   9.018123e+09   1.929178e+11   1.731834e+11   1.474305e+05   5.211522e-26   0.000000e+00   0.000000e+00
      368000   3.679990e-07   3.826780e+01   2.426667e+01   6.079172e-02   9.443253e+04   7.472827e+04  -8.505247e+04   8.851486e+09   1.897897e+11   1.765787e+11   1.474305e+05   5.210550e-26   0.000000e+00   0.000000e+00
      376000   3.759990e-07   3.826856e+01   2.426727e+01   6.011699e-02   9.450267e+04   7.623387e+04  -8.362644e+04   8.682234e+09   1.866020e+11   1.799170e+11   1.474305e+05   5.209569e-26   0.000000e+00   0.000000e+00
      384000   3.839990e-07   3.826931e+01   2.426789e+01   5.945377e-02   9.457144e+04   7.771374e+04  -8.217395e+04   8.510436e+09   1.833559e+11   1.831973e+11   1.474305e+05   5.208579e-26   0.000000e+00   0.000000e+00
      392000   3.919990e-07   3.827007e+01   2.426852e+01   5.880228e-02   9.463883e+04   7.916741e+04  -8.069544e+04   8.336163e+09   1.800522e+11   1.864185e+11   1.474305e+05   5.207581e-26   0.000000e+00   0.000000e+00
      400000   3.999990e-07   3.827083e+01   2.426916e+01   5.816271e-02   9.470481e+04   8.059442e+04  -7.919141e+04   8.159487e+09   1.766922e+11   1.895797e+11   1.474305e+05   5.206574e-26   0.000000e+00   0.000000e+00
      408000   4.079990e-07   3.827158e+01   2.426981e+01   5.753528e-02   9.476937e+04   8.199433e+04  -7.766233e+04   7.980481e+09   1.732769e+11   1.926798e+11   1.474305e+05   5.205559e-26   0.000000e+00   0.000000e+00
      416000   4.159990e-07   3.827234e+01   2.427047e+01   5.692018e-02   9.483249e+04   8.336670e+04  -7.610869e+04   7.799217e+09   1.698073e+11   1.957178e+11   1.474305e+05   5.204535e-26   0.000000e+00   0.000000e+00
      424000   4.239990e-07   3.827310e+01   2.427114e+01   5.631761e-02   9.489415e+04   8.471111e+04  -7.453101e+04   7.615769e+09   1.662847e+11   1.986930e+11   1.474305e+05   5.203503e-26   0.000000e+00   0.000000e+00
      432000   4.319990e-07   3.827386e+01   2.427182e+01   5.572775e-02   9.495434e+04   8.602712e+04  -7.292977e+04   7.430211e+09   1.627102e+11   2.016042e+11   1.474305e+05   5.202463e-26   0.000000e+00   0.000000e+00
      440000   4.399990e-07   3.827462e+01   2.427252e+01   5.515079e-02   9.501303e+04   8.731433e+04  -7.130551e+04   7.242618e+09   1.590848e+11   2.044507e+11   1.474305e+05   5.201415e-26   0.000000e+00   0.000000e+00
      448000   4.479990e-07   3.827538e+01   2.427322e+01   5.458692e-02   9.507022e+04   8.857234e+04  -6.965873e+04   7.053066e+09   1.554099e+11   2.072315e+11   1.474305e+05   5.200358e-26   0.000000e+00   0.000000e+00
      456000   4.559990e-07   3.827614e+01   2.427393e+01   5.403631e-02   9.512588e+04   8.980075e+04  -6.798998e+04   6.861629e+09   1.516865e+11   2.099458e+11   1.474305e+05   5.199293e-26   0.000000e+00   0.000000e+00
      464000   4.639990e-07   3.827690e+01   2.427466e+01   5.349914e-02   9.518000e+04   9.099919e+04  -6.629978e+04   6.668385e+09   1.479159e+11   2.125928e+11   1.474305e+05   5.198220e-26   0.000000e+00   0.000000e+00
      472000   4.719990e-07   3.827767e+01   2.427539e+01   5.297557e-02   9.523256e+04   9.216728e+04  -6.458867e+04   6.473409e+09   1.440993e+11   2.151716e+11   1.474305e+05   5.197139e-26   0.000000e+00   0.000000e+00
      480000   4.799990e-07   3.827843e+01   2.427613e+01   5.246577e-02   9.528357e+04   9.330466e+04  -6.285721e+04   6.276779e+09   1.402378e+11   2.176815e+11   1.474305e+05   5.196051e-26   0.000000e+00   0.000000e+00
      488000   4.879990e-07   3.827919e+01   2.427688e+01   5.196991e-02   9.533299e+04   9.441097e+04  -6.110595e+04   6.078571e+09   1.363329e+11   2.201216e+11   1.474305e+05   5.194954e-26   0.000000e+00   0.000000e+00
      496000   4.959990e-07   3.827995e+01   2.427764e+01   5.148813e-02   9.538082e+04   9.548587e+04  -5.933545e+04   5.878862e+09   1.323856e+11   2.224912e+11   1.474305e+05   5.193851e-26   0.000000e+00   0.000000e+00
      504000   5.039990e-07   3.828072e+01   2.427841e+01   5.102059e-02   9.542705e+04   9.652902e+04  -5.754628e+04   5.677732e+09   1.283973e+11   2.247897e+11   1.474305e+05   5.192740e-26   0.000000e+00   0.000000e+00
      512000   5.119990e-07   3.828148e+01   2.427919e+01   5.056744e-02   9.547166e+04   9.754011e+04  -5.573901e+04   5.475256e+09   1.243693e+11   2.270162e+11   1.474305e+05   5.191621e-26   0.000000e+00   0.000000e+00
      520000   5.199990e-07   3.828224e+01   2.427997e+01   5.012881e-02   9.551465e+04   9.851883e+04  -5.391421e+04   5.271512e+09   1.203028e+11   2.291702e+11   1.474305e+05   5.190496e-26   0.000000e+00   0.000000e+00
      528000   5.279990e-07   3.828301e+01   2.428076e+01   4.970485e-02   9.555600e+04   9.946486e+04  -5.207248e+04   5.066579e+09   1.161992e+11   2.312509e+11   1.474305e+05   5.189364e-26   0.000000e+00   0.000000e+00
      536000   5.359990e-07   3.828377e+01   2.428156e+01   4.929570e-02   9.559571e+04   1.003779e+05  -5.021439e+04   4.860535e+09   1.120597e+11   2.332578e+11   1.474305e+05   5.188225e-26   0.000000e+00   0.000000e+00
      544000   5.439990e-07   3.828454e+01   2.428237e+01   4.890147e-02   9.563377e+04   1.012577e+05  -4.834055e+04   4.653457e+09   1.078857e+11   2.351902e+11   1.474305e+05   5.187079e-26   0.000000e+00   0.000000e+00
      552000   5.519990e-07   3.828530e+01   2.428318e+01   4.852229e-02   9.567016e+04   1.021040e+05  -4.645155e+04   4.445424e+09   1.036786e+11   2.370475e+11   1.474305e+05   5.185928e-26   0.000000e+00   0.000000e+00
      560000   5.599990e-07   3.828607e+01   2.428400e+01   4.815828e-02   9.570489e+04   1.029165e+05  -4.454799e+04   4.236512e+09   9.943961e+10   2.388292e+11   1.474305e+05   5.184770e-26   0.000000e+00   0.000000e+00
      568000   5.679990e-07   3.828683e+01   2.428483e+01   4.780956e-02   9.573794e+04   1.036949e+05  -4.263048e+04   4.026799e+09   9.517016e+10   2.405348e+11   1.474305e+05   5.183606e-26   0.000000e+00   0.000000e+00
      576000   5.759990e-07   3.828760e+01   2.428566e+01   4.747623e-02   9.576932e+04   1.044391e+05  -4.069963e+04   3.816364e+09   9.087160e+10   2.421637e+11   1.474305e+05   5.182437e-26   0.000000e+00   0.000000e+00
      584000   5.839990e-07   3.828837e+01   2.428650e+01   4.715840e-02   9.579900e+04   1.051488e+05  -3.875607e+04   3.605282e+09   8.654531e+10   2.437154e+11   1.474305e+05   5.181262e-26   0.000000e+00   0.000000e+00
      592000   5.919990e-07   3.828913e+01   2.428734e+01   4.685616e-02   9.582700e+04   1.058238e+05  -3.680039e+04   3.393632e+09   8.219266e+10   2.451895e+11   1.474305e+05   5.180083e-26   0.000000e+00   0.000000e+00
      600000   5.999990e-07   3.828990e+01   2.428819e+01   4.656962e-02   9.585330e+04   1.064638e+05  -3.483324e+04   3.181490e+09   7.781504e+10   2.465856e+11   1.474305e+05   5.178898e-26   0.000000e+00   0.000000e+00
      608000   6.079990e-07   3.829067e+01   2.428905e+01   4.629886e-02   9.587790e+04   1.070687e+05  -3.285523e+04   2.968932e+09   7.341385e+10   2.479032e+11   1.474305e+05   5.177709e-26   0.000000e+00   0.000000e+00
      616000   6.159990e-07   3.829143e+01   2.428990e+01   4.604397e-02   9.590080e+04   1.076384e+05  -3.086700e+04   2.756035e+09   6.899049e+10   2.491419e+11   1.474305e+05   5.176515e-26   0.000000e+00   0.000000e+00
      624000   6.239990e-07   3.829220e+01   2.429077e+01   4.580501e-02   9.592200e+04   1.081725e+05  -2.886917e+04   2.542873e+09   6.454637e+10   2.503015e+11   1.474305e+05   5.175317e-26   0.000000e+00   0.000000e+00
      632000   6.319990e-07   3.829297e+01   2.429164e+01   4.558208e-02   9.594149e+04   1.086711e+05  -2.686239e+04   2.329523e+09   6.008291e+10   2.513814e+11   1.474305e+05   5.174115e-26   0.000000e+00   0.000000e+00
      640000   6.399990e-07   3.829374e+01   2.429251e+01   4.537524e-02   9.595927e+04   1.091338e+05  -2.484728e+04   2.116059e+09   5.560152e+10   2.523815e+11   1.474305e+05   5.172910e-26   0.000000e+00   0.000000e+00
      648000   6.479990e-07   3.829450e+01   2.429338e+01   4.518455e-02   9.597534e+04   1.095606e+05  -2.282449e+04   1.902555e+09   5.110363e+10   2.533015e+11   1.474305e+05   5.171701e-26   0.000000e+00   0.000000e+00
      656000   6.559990e-07   3.829527e+01   2.429426e+01   4.501007e-02   9.598971e+04   1.099514e+05  -2.079467e+04   1.689086e+09   4.659066e+10   2.541410e+11   1.474305e+05   5.170490e-26   0.000000e+00   0.000000e+00
      664000   6.639990e-07   3.829604e+01   2.429514e+01   4.485185e-02   9.600237e+04   1.103060e+05  -1.875845e+04   1.475724e+09   4.206406e+10   2.548999e+11   1.474305e+05   5.169276e-26   0.000000e+00   0.000000e+00
      672000   6.719990e-07   3.829681e+01   2.429602e+01   4.470995e-02   9.601332e+04   1.106244e+05  -1.671649e+04   1.262543e+09   3.752526e+10   2.555779e+11   1.474305e+05   5.168059e-26   0.000000e+00   0.000000e+00
      680000   6.799990e-07   3.829758e+01   2.429691e+01   4.458440e-02   9.602257e+04   1.109064e+05  -1.466942e+04   1.049614e+09   3.297570e+10   2.561749e+11   1.474305e+05   5.166840e-26   0.000000e+00   0.000000e+00
      688000   6.879990e-07   3.829834e+01   2.429780e+01   4.447525e-02   9.603012e+04   1.111520e+05  -1.261790e+04   8.370086e+08   2.841682e+10   2.566906e+11   1.474305e+05   5.165619e-26   0.000000e+00   0.000000e+00
      696000   6.959990e-07   3.829911e+01   2.429869e+01   4.438252e-02   9.603596e+04   1.113611e+05  -1.056259e+04   6.247981e+08   2.385007e+10   2.571251e+11   1.474305e+05   5.164397e-26   0.000000e+00   0.000000e+00
      704000   7.039990e-07   3.829988e+01   2.429958e+01   4.430625e-02   9.604011e+04   1.115336e+05  -8.504121e+03   4.130524e+08   1.927690e+10   2.574780e+11   1.474305e+05   5.163174e-26   0.000000e+00   0.000000e+00
      712000   7.119990e-07   3.830065e+01   2.430047e+01   4.424646e-02   9.604232e+04   1.116697e+05  -6.443611e+03   1.653814e+08   1.472717e+10   2.576809e+11   1.474305e+05   5.159272e-26   0.000000e+00   0.000000e+00
      720000   7.199990e-07   3.830142e+01   2.430137e+01   4.420316e-02   9.604280e+04   1.117692e+05  -4.381348e+03  -4.538929e+07   1.014814e+10   2.578712e+11   1.474305e+05   5.158051e-26   0.000000e+00   0.000000e+00
      728000   7.279990e-07   3.830219e+01   2.430226e+01   4.417636e-02   9.604160e+04   1.118320e+05  -2.317888e+03  -2.555029e+08   5.567050e+09   2.579801e+11   1.474305e+05   5.156829e-26   0.000000e+00   0.000000e+00
      736000   7.359990e-07   3.830295e+01   2.430316e+01   4.416608e-02   9.603872e+04   1.118582e+05  -2.538838e+02  -4.648924e+08   9.853378e+08   2.580074e+11   1.474305e+05   5.155607e-26   0.000000e+00   0.000000e+00
      744000   7.439990e-07   3.830372e+01   2.430405e+01   4.417230e-02   9.603416e+04   1.118478e+05   1.810013e+03  -6.734914e+08  -3.595546e+09   2.579532e+11   1.474305e+05   5.154386e-26   0.000000e+00   0.000000e+00
      752000   7.519990e-07   3.830449e+01   2.430495e+01   4.419503e-02   9.602794e+04   1.118007e+05   3.873150e+03  -8.812346e+08  -8.174156e+09   2.578176e+11   1.474305e+05   5.153166e-26   0.000000e+00   0.000000e+00
      760000   7.599990e-07   3.830526e+01   2.430584e+01   4.423427e-02   9.602007e+04   1.117170e+05   5.934877e+03  -1.088057e+09  -1.274905e+10   2.576005e+11   1.474305e+05   5.151947e-26   0.000000e+00   0.000000e+00
      768000   7.679990e-07   3.830603e+01   2.430673e+01   4.428999e-02   9.601054e+04   1.115967e+05   7.994541e+03  -1.293895e+09  -1.731878e+10   2.573022e+11   1.474305e+05   5.150729e-26   0.000000e+00   0.000000e+00
      776000   7.759990e-07   3.830679e+01   2.430763e+01   4.436217e-02   9.599937e+04   1.114399e+05   1.005149e+04  -1.498686e+09  -2.188190e+10   2.569227e+11   1.474305e+05   5.149513e-26   0.000000e+00   0.000000e+00
      784000   7.839990e-07   3.830756e+01   2.430852e+01   4.445080e-02   9.598656e+04   1.112466e+05   1.210509e+04  -1.702368e+09  -2.643699e+10   2.564621e+11   1.474305e+05   5.148300e-26   0.000000e+00   0.000000e+00
      792000   7.919990e-07   3.830833e+01   2.430940e+01   4.455584e-02   9.597213e+04   1.110169e+05   1.415467e+04  -1.904878e+09  -3.098260e+10   2.559208e+11   1.474306e+05   5.147088e-26   0.000000e+00   0.000000e+00
      800000   7.999990e-07   3.830910e+01   2.431029e+01   4.467726e-02   9.595609e+04   1.107509e+05   1.619960e+04  -2.106158e+09  -3.551730e+10   2.552988e+11   1.474306e+05   5.145879e-26   0.000000e+00   0.000000e+00
      808000   8.079990e-07   3.830987e+01   2.431118e+01   4.481502e-02   9.593844e+04   1.104487e+05   1.823924e+04  -2.306147e+09  -4.003967e+10   2.545964e+11   1.474306e+05   5.144673e-26   0.000000e+00   0.000000e+00
      816000   8.159990e-07   3.831063e+01   2.431206e+01   4.496908e-02   9.591919e+04   1.101103e+05   2.027293e+04  -2.504787e+09  -4.454829e+10   2.538138e+11   1.474306e+05   5.143470e-26   0.000000e+00   0.000000e+00
      824000   8.239990e-07   3.831140e+01   2.431294e+01   4.513937e-02   9.589836e+04   1.097360e+05   2.230005e+04  -2.702021e+09  -4.904173e+10   2.529514e+11   1.474306e+05   5.142271e-26   0.000000e+00   0.000000e+00
      832000   8.319990e-07   3.831217e+01   2.431381e+01   4.532586e-02   9.587596e+04   1.093257e+05   2.431994e+04  -2.897791e+09  -5.351859e+10   2.520094e+11   1.474306e+05   5.141075e-26   0.000000e+00   0.000000e+00
      840000   8.399990e-07   3.831293e+01   2.431469e+01   4.552847e-02   9.585200e+04   1.088797e+05   2.633198e+04  -3.092042e+09  -5.797746e+10   2.509881e+11   1.474306e+05   5.139883e-26   0.000000e+00   0.000000e+00
      848000   8.479990e-07   3.831370e+01   2.431556e+01   4.574715e-02   9.582649e+04   1.083981e+05   2.833554e+04  -3.284720e+09  -6.241694e+10   2.498879e+11   1.474306e+05   5.138696e-26   0.000000e+00   0.000000e+00
      856000   8.559990e-07   3.831447e+01   2.431642e+01   4.598181e-02   9.579945e+04   1.078811e+05   3.032998e+04  -3.475771e+09  -6.683564e+10   2.487092e+11   1.474306e+05   5.137513e-26   0.000000e+00   0.000000e+00
      864000   8.639990e-07   3.831523e+01   2.431728e+01   4.623240e-02   9.577089e+04   1.073288e+05   3.231468e+04  -3.665142e+09  -7.123217e+10   2.474524e+11   1.474306e+05   5.136335e-26   0.000000e+00   0.000000e+00
      872000   8.719990e-07   3.831600e+01   2.431814e+01   4.649882e-02   9.574081e+04   1.067414e+05   3.428901e+04  -3.852781e+09  -7.560516e+10   2.461179e+11   1.474306e+05   5.135161e-26   0.000000e+00   0.000000e+00
      880000   8.799990e-07   3.831677e+01   2.431899e+01   4.678099e-02   9.570925e+04   1.061192e+05   3.625235e+04  -4.038637e+09  -7.995323e+10   2.447061e+11   1.474306e+05   5.133993e-26   0.000000e+00   0.000000e+00
      888000   8.879990e-07   3.831753e+01   2.431984e+01   4.707883e-02   9.567620e+04   1.054622e+05   3.820410e+04  -4.222662e+09  -8.427502e+10   2.432176e+11   1.474306e+05   5.132831e-26   0.000000e+00   0.000000e+00
      896000   8.959990e-07   3.831830e+01   2.432068e+01   4.739223e-02   9.564169e+04   1.047708e+05   4.014363e+04  -4.404805e+09  -8.856919e+10   2.416527e+11   1.474306e+05   5.131674e-26   0.000000e+00   0.000000e+00
      904000   9.039990e-07   3.831906e+01   2.432151e+01   4.772109e-02   9.560573e+04   1.040452e+05   4.207034e+04  -4.585020e+09  -9.283439e+10   2.400122e+11   1.474306e+05   5.130523e-26   0.000000e+00   0.000000e+00
      912000   9.119990e-07   3.831983e+01   2.432234e+01   4.806532e-02   9.556833e+04   1.032856e+05   4.398362e+04  -4.763260e+09  -9.706928e+10   2.382964e+11   1.474306e+05   5.129378e-26   0.000000e+00   0.000000e+00
      920000   9.199990e-07   3.832059e+01   2.432317e+01   4.842479e-02   9.552952e+04   1.024922e+05   4.588288e+04  -4.939479e+09  -1.012725e+11   2.365060e+11   1.474306e+05   5.128240e-26   0.000000e+00   0.000000e+00
      928000   9.279990e-07   3.832135e+01   2.432398e+01   4.879940e-02   9.548931e+04   1.016653e+05   4.776752e+04  -5.113632e+09  -1.054429e+11   2.346415e+11   1.474306e+05   5.127108e-26   0.000000e+00   0.000000e+00
      936000   9.359990e-07   3.832212e+01   2.432479e+01   4.918903e-02   9.544771e+04   1.008052e+05   4.963695e+04  -5.285676e+09  -1.095789e+11   2.327036e+11   1.474306e+05   5.125983e-26   0.000000e+00   0.000000e+00
      944000   9.439990e-07   3.832288e+01   2.432560e+01   4.959355e-02   9.540474e+04   9.991213e+04   5.149058e+04  -5.455568e+09  -1.136795e+11   2.306929e+11   1.474306e+05   5.124865e-26   0.000000e+00   0.000000e+00
      952000   9.519990e-07   3.832364e+01   2.432639e+01   5.001284e-02   9.536042e+04   9.898641e+04   5.332784e+04  -5.623267e+09  -1.177432e+11   2.286101e+11   1.474306e+05   5.123754e-26   0.000000e+00   0.000000e+00
      960000   9.599990e-07   3.832441e+01   2.432718e+01   5.044675e-02   9.531477e+04   9.802833e+04   5.514815e+04  -5.788732e+09  -1.217689e+11   2.264558e+11   1.474306e+05   5.122650e-26   0.000000e+00   0.000000e+00
      968000   9.679990e-07   3.832517e+01   2.432796e+01   5.089516e-02   9.526781e+04   9.703821e+04   5.695094e+04  -5.951923e+09  -1.257552e+11   2.242308e+11   1.474306e+05   5.121554e-26   0.000000e+00   0.000000e+00
      976000   9.759990e-07   3.832593e+01   2.432873e+01   5.135792e-02   9.521955e+04   9.601635e+04   5.873565e+04  -6.112802e+09  -1.297010e+11   2.219358e+11   1.474306e+05   5.120465e-26   0.000000e+00   0.000000e+00
      984000   9.839990e-07   3.832669e+01   2.432950e+01   5.183488e-02   9.517001e+04   9.496310e+04   6.050173e+04  -6.271332e+09  -1.336050e+11   2.195714e+11   1.474306e+05   5.119384e-26   0.000000e+00   0.000000e+00
      992000   9.919990e-07   3.832745e+01   2.433025e+01   5.232590e-02   9.511921e+04   9.387878e+04   6.224861e+04  -6.427475e+09  -1.374659e+11   2.171386e+11   1.474306e+05   5.118310e-26   0.000000e+00   0.000000e+00
     1000000   9.999990e-07   3.832822e+01   2.433100e+01   5.283081e-02   9.506718e+04   9.276376e+04   6.397576e+04  -6.581196e+09  -1.412827e+11   2.146381e+11   1.474306e+05   5.117245e-26   0.000000e+00   0.000000e+00
     1008000   1.007999e-06   3.832898e+01   2.433173e+01   5.334946e-02   9.501392e+04   9.161838e+04   6.568264e+04  -6.732461e+09  -1.450541e+11   2.120707e+11   1.474306e+05   5.116188e-26   0.000000e+00   0.000000e+00
     1016000   1.015999e-06   3.832974e+01   2.433246e+01   5.388167e-02   9.495947e+04   9.044301e+04   6.736872e+04  -6.881236e+09  -1.487789e+11   2.094372e+11   1.474306e+05   5.115139e-26   0.000000e+00   0.000000e+00
     1024000   1.023999e-06   3.833049e+01   2.433318e+01   5.442730e-02   9.490383e+04   8.923804e+04   6.903346e+04  -7.027489e+09  -1.524559e+11   2.067384e+11   1.474306e+05   5.114098e-26   0.000000e+00   0.000000e+00
     1032000   1.031999e-06   3.833125e+01   2.433389e+01   5.498615e-02   9.484703e+04   8.800384e+04   7.067636e+04  -7.171187e+09  -1.560842e+11   2.039754e+11   1.474306e+05   5.113065e-26   0.000000e+00   0.000000e+00
     1040000   1.039999e-06   3.833201e+01   2.433459e+01   5.555806e-02   9.478910e+04   8.674082e+04   7.229689e+04  -7.312301e+09  -1.596624e+11   2.011489e+11   1.474306e+05   5.112041e-26   0.000000e+00   0.000000e+00
     1048000   1.047999e-06   3.833277e+01   2.433528e+01   5.614284e-02   9.473004e+04   8.544938e+04   7.389457e+04  -7.450800e+09  -1.631895e+11   1.982598e+11   1.474306e+05   5.111026e-26   0.000000e+00   0.000000e+00
     1056000   1.055999e-06   3.833353e+01   2.433596e+01   5.674031e-02   9.466989e+04   8.412992e+04   7.546888e+04  -7.586656e+09  -1.666645e+11   1.953092e+11   1.474306e+05   5.110019e-26   0.000000e+00   0.000000e+00
     1064000   1.063999e-06   3.833429e+01   2.433662e+01   5.735028e-02   9.460866e+04   8.278288e+04   7.701935e+04  -7.719841e+09  -1.700862e+11   1.922979e+11   1.474306e+05   5.109020e-26   0.000000e+00   0.000000e+00
     1072000   1.071999e-06   3.833504e+01   2.433728e+01   5.797256e-02   9.454638e+04   8.140869e+04   7.854549e+04  -7.850327e+09  -1.734537e+11   1.892269e+11   1.474306e+05   5.108030e-26   0.000000e+00   0.000000e+00
     1080000   1.079999e-06   3.833580e+01   2.433793e+01   5.860694e-02   9.448306e+04   8.000777e+04   8.004682e+04  -7.978090e+09  -1.767657e+11   1.860972e+11   1.474306e+05   5.107048e-26   0.000000e+00   0.000000e+00
     1088000   1.087999e-06   3.833655e+01   2.433856e+01   5.925324e-02   9.441874e+04   7.858058e+04   8.152289e+04  -8.103104e+09  -1.800214e+11   1.829099e+11   1.474306e+05   5.106076e-26   0.000000e+00   0.000000e+00
     1096000   1.095999e-06   3.833731e+01   2.433918e+01   5.991124e-02   9.435342e+04   7.712758e+04   8.297323e+04  -8.225345e+09  -1.832198e+11   1.796658e+11   1.474306e+05   5.105111e-26   0.000000e+00   0.000000e+00
     1104000   1.103999e-06   3.833806e+01   2.433980e+01   6.058074e-02   9.428714e+04   7.564922e+04   8.439739e+04  -8.344790e+09  -1.863597e+11   1.763661e+11   1.474306e+05   5.104156e-26   0.000000e+00   0.000000e+00
     1112000   1.111999e-06   3.833882e+01   2.434039e+01   6.126153e-02   9.421991e+04   7.414598e+04   8.579493e+04  -8.461415e+09  -1.894404e+11   1.730119e+11   1.474306e+05   5.103208e-26   0.000000e+00   0.000000e+00
     1120000   1.119999e-06   3.833957e+01   2.434098e+01   6.195339e-02   9.415176e+04   7.261833e+04   8.716543e+04  -8.575201e+09  -1.924608e+11   1.696041e+11   1.474306e+05   5.102270e-26   0.000000e+00   0.000000e+00
     1128000   1.127999e-06   3.834032e+01   2.434156e+01   6.265610e-02   9.408272e+04   7.106676e+04   8.850846e+04  -8.686125e+09  -1.954200e+11   1.661440e+11   1.474306e+05   5.101340e-26   0.000000e+00   0.000000e+00
     1136000   1.135999e-06   3.834108e+01   2.434212e+01   6.336945e-02   9.401279e+04   6.949177e+04   8.982360e+04  -8.794168e+09  -1.983171e+11   1.626325e+11   1.474306e+05   5.100418e-26   0.000000e+00   0.000000e+00
     1144000   1.143999e-06   3.834183e+01   2.434267e+01   6.409320e-02   9.394202e+04   6.789386e+04   9.111044e+04  -8.899311e+09  -2.011512e+11   1.590708e+11   1.474306e+05   5.099504e-26   0.000000e+00   0.000000e+00
     1152000   1.151999e-06   3.834258e+01   2.434320e+01   6.482714e-02   9.387041e+04   6.627352e+04   9.236859e+04  -9.001537e+09  -2.039214e+11   1.554602e+11   1.474306e+05   5.098599e-26   0.000000e+00   0.000000e+00
     1160000   1.159999e-06   3.834333e+01   2.434373e+01   6.557102e-02   9.379800e+04   6.463128e+04   9.359767e+04  -9.100827e+09  -2.066270e+11   1.518016e+11   1.474306e+05   5.097702e-26   0.000000e+00   0.000000e+00
     1168000   1.167999e-06   3.834408e+01   2.434424e+01   6.632462e-02   9.372481e+04   6.296766e+04   9.479729e+04  -9.197165e+09  -2.092670e+11   1.480963e+11   1.474306e+05   5.096813e-26   0.000000e+00   0.000000e+00
     1176000   1.175999e-06   3.834483e+01   2.434474e+01   6.708770e-02   9.365085e+04   6.128318e+04   9.596709e+04  -9.290534e+09  -2.118407e+11   1.443454e+11   1.474306e+05   5.095932e-26   0.000000e+00   0.000000e+00
     1184000   1.183999e-06   3.834558e+01   2.434522e+01   6.786001e-02   9.357617e+04   5.957839e+04   9.710670e+04  -9.380922e+09  -2.143473e+11   1.405502e+11   1.474306e+05   5.095059e-26   0.000000e+00   0.000000e+00
     1192000   1.191999e-06   3.834633e+01   2.434569e+01   6.864132e-02   9.350077e+04   5.785381e+04   9.821577e+04  -9.468311e+09  -2.167860e+11   1.367118e+11   1.474306e+05   5.094194e-26   0.000000e+00   0.000000e+00
     1200000   1.199999e-06   3.834707e+01   2.434615e+01   6.943138e-02   9.342468e+04   5.610999e+04   9.929397e+04  -9.552690e+09  -2.191561e+11   1.328315e+11   1.474306e+05   5.093336e-26   0.000000e+00   0.000000e+00
     1208000   1.207999e-06   3.834782e+01   2.434659e+01   7.022994e-02   9.334793e+04   5.434749e+04   1.003410e+05  -9.634046e+09  -2.214569e+11   1.289106e+11   1.474306e+05   5.092486e-26   0.000000e+00   0.000000e+00
     1216000   1.215999e-06   3.834857e+01   2.434701e+01   7.103676e-02   9.327055e+04   5.256686e+04   1.013564e+05  -9.712366e+09  -2.236876e+11   1.249501e+11   1.474306e+05   5.091643e-26   0.000000e+00   0.000000e+00
     1224000   1.223999e-06   3.834931e+01   2.434743e+01   7.185156e-02   9.319254e+04   5.076867e+04   1.023401e+05  -9.787639e+09  -2.258476e+11   1.209515e+11   1.474306e+05   5.090807e-26   0.000000e+00   0.000000e+00
     1232000   1.231999e-06   3.835006e+01   2.434783e+01   7.267411e-02   9.311395e+04   4.895349e+04   1.032916e+05  -9.859854e+09  -2.279363e+11   1.169160e+11   1.474306e+05   5.089978e-26   0.000000e+00   0.000000e+00
     1240000   1.239999e-06   3.835080e+01   2.434821e+01   7.350414e-02   9.303479e+04   4.712188e+04   1.042106e+05  -9.929001e+09  -2.299529e+11   1.128448e+11   1.474307e+05   5.089155e-26   0.000000e+00   0.000000e+00
     1248000   1.247999e-06   3.835155e+01   2.434858e+01   7.434139e-02   9.295510e+04   4.527443e+04   1.050970e+05  -9.995071e+09  -2.318970e+11   1.087392e+11   1.474307e+05   5.088340e-26   0.000000e+00   0.000000e+00
     1256000   1.255999e-06   3.835229e+01   2.434894e+01   7.518560e-02   9.287488e+04   4.341173e+04   1.059504e+05  -1.005806e+10  -2.337679e+11   1.046006e+11   1.474307e+05   5.087530e-26   0.000000e+00   0.000000e+00
     1264000   1.263999e-06   3.835303e+01   2.434928e+01   7.603651e-02   9.279417e+04   4.153434e+04   1.067705e+05  -1.011795e+10  -2.355651e+11   1.004303e+11   1.474307e+05   5.086727e-26   0.000000e+00   0.000000e+00
     1272000   1.271999e-06   3.835378e+01   2.434960e+01   7.689384e-02   9.271300e+04   3.964288e+04   1.075571e+05  -1.017474e+10  -2.372880e+11   9.622954e+10   1.474307e+05   5.085930e-26   0.000000e+00   0.000000e+00
     1280000   1.279999e-06   3.835452e+01   2.434991e+01   7.775733e-02   9.263139e+04   3.773793e+04   1.083101e+05  -1.022842e+10  -2.389361e+11   9.199967e+10   1.474307e+05   5.085138e-26   0.000000e+00   0.000000e+00
     1288000   1.287999e-06   3.835526e+01   2.435020e+01   7.862671e-02   9.254936e+04   3.582010e+04   1.090291e+05  -1.027899e+10  -2.405089e+11   8.774204e+10   1.474307e+05   5.084352e-26   0.000000e+00   0.000000e+00
     1296000   1.295999e-06   3.835600e+01   2.435048e+01   7.950171e-02   9.246693e+04   3.388999e+04   1.097139e+05  -1.032643e+10  -2.420060e+11   8.345799e+10   1.474307e+05   5.083572e-26   0.000000e+00   0.000000e+00
     1304000   1.303999e-06   3.835674e+01   2.435075e+01   8.038204e-02   9.238414e+04   3.194821e+04   1.103643e+05  -1.037076e+10  -2.434269e+11   7.914888e+10   1.474307e+05   5.082796e-26   0.000000e+00   0.000000e+00
     1312000   1.311999e-06   3.835748e+01   2.435099e+01   8.126745e-02   9.230101e+04   2.999536e+04   1.109802e+05  -1.041195e+10  -2.447712e+11   7.481606e+10   1.474307e+05   5.082025e-26   0.000000e+00   0.000000e+00
     1320000   1.319999e-06   3.835821e+01   2.435123e+01   8.215764e-02   9.221756e+04   2.803207e+04   1.115613e+05  -1.045001e+10  -2.460385e+11   7.046090e+10   1.474307e+05   5.081258e-26   0.000000e+00   0.000000e+00
     1328000   1.327999e-06   3.835895e+01   2.435144e+01   8.305233e-02   9.213382e+04   2.605895e+04   1.121075e+05  -1.048494e+10  -2.472285e+11   6.608477e+10   1.474307e+05   5.080496e-26   0.000000e+00   0.000000e+00
     1336000   1.335999e-06   3.835969e+01   2.435164e+01   8.395126e-02   9.204981e+04   2.407662e+04   1.126186e+05  -1.051673e+10  -2.483408e+11   6.168904e+10   1.474307e+05   5.079738e-26   0.000000e+00   0.000000e+00
     1344000   1.343999e-06   3.836042e+01   2.435183e+01   8.485414e-02   9.196556e+04   2.208571e+04   1.130945e+05  -1.054537e+10  -2.493750e+11   5.727512e+10   1.474307e+05   5.078984e-26   0.000000e+00   0.000000e+00
     1352000   1.351999e-06   3.836116e+01   2.435200e+01   8.576068e-02   9.188109e+04   2.008683e+04   1.135350e+05  -1.057088e+10  -2.503309e+11   5.284437e+10   1.474307e+05   5.078232e-26   0.000000e+00   0.000000e+00
     1360000   1.359999e-06   3.836189e+01   2.435215e+01   8.667060e-02   9.179643e+04   1.808062e+04   1.139399e+05  -1.059324e+10  -2.512082e+11   4.839819e+10   1.474307e+05   5.077485e-26   0.000000e+00   0.000000e+00
     1368000   1.367999e-06   3.836263e+01   2.435229e+01   8.758362e-02   9.171161e+04   1.606771e+04   1.143093e+05  -1.061246e+10  -2.520067e+11   4.393799e+10   1.474307e+05   5.076740e-26   0.000000e+00   0.000000e+00
     1376000   1.375999e-06   3.836336e+01   2.435241e+01   8.849946e-02   9.162664e+04   1.404872e+04   1.146429e+05  -1.062853e+10  -2.527261e+11   3.946517e+10   1.474307e+05   5.075997e-26   0.000000e+00   0.000000e+00
     1384000   1.383999e-06   3.836409e+01   2.435251e+01   8.941781e-02   9.154156e+04   1.202430e+04   1.149407e+05  -1.064146e+10  -2.533663e+11   3.498112e+10   1.474307e+05   5.075257e-26   0.000000e+00   0.000000e+00
     1392000   1.391999e-06   3.836483e+01   2.435260e+01   9.033841e-02   9.145638e+04   9.995074e+03   1.152026e+05  -1.065125e+10  -2.539271e+11   3.048725e+10   1.474307e+05   5.074519e-26   0.000000e+00   0.000000e+00
     1400000   1.399999e-06   3.836556e+01   2.435267e+01   9.126096e-02   9.137115e+04   7.961680e+03   1.154285e+05  -1.065790e+10  -2.544082e+11   2.598498e+10   1.474307e+05   5.073783e-26   0.000000e+00   0.000000e+00
     1408000   1.407999e-06   3.836629e+01   2.435273e+01   9.218517e-02   9.128587e+04   5.924754e+03   1.156183e+05  -1.066141e+10  -2.548097e+11   2.147572e+10   1.474307e+05   5.073048e-26   0.000000e+00   0.000000e+00
     1416000   1.415999e-06   3.836702e+01   2.435276e+01   9.311076e-02   9.120057e+04   3.884936e+03   1.157721e+05  -1.066178e+10  -2.551314e+11   1.696087e+10   1.474307e+05   5.072314e-26   0.000000e+00   0.000000e+00
     1424000   1.423999e-06   3.836775e+01   2.435279e+01   9.403743e-02   9.111529e+04   1.842864e+03   1.158897e+05  -1.065902e+10  -2.553733e+11   1.244186e+10   1.474307e+05   5.071581e-26   0.000000e+00   0.000000e+00
     1432000   1.431999e-06   3.836848e+01   2.435279e+01   9.496490e-02   9.103004e+04  -2.008237e+02   1.159711e+05  -1.065313e+10  -2.555352e+11   7.920102e+09   1.474307e+05   5.070849e-26   0.000000e+00   0.000000e+00
     1440000   1.439999e-06   3.836920e+01   2.435278e+01   9.589287e-02   9.094484e+04  -2.245487e+03   1.160164e+05  -1.064412e+10  -2.556173e+11   3.397004e+09   1.474307e+05   5.070117e-26   0.000000e+00   0.000000e+00
     1448000   1.447999e-06   3.836993e+01   2.435276e+01   9.682106e-02   9.085974e+04  -4.290487e+03   1.160255e+05  -1.063199e+10  -2.556194e+11  -1.126017e+09   1.474307e+05   5.069385e-26   0.000000e+00   0.000000e+00
     1456000   1.455999e-06   3.837066e+01   2.435272e+01   9.774918e-02   9.077474e+04  -6.335184e+03   1.159984e+05  -1.061673e+10  -2.555416e+11  -5.647545e+09   1.474307e+05   5.068652e-26   0.000000e+00   0.000000e+00
     1464000   1.463999e-06   3.837138e+01   2.435266e+01   9.867694e-02   9.068988e+04  -8.378939e+03   1.159351e+05  -1.059837e+10  -2.553839e+11  -1.016617e+10   1.474307e+05   5.067919e-26   0.000000e+00   0.000000e+00
     1472000   1.471999e-06   3.837211e+01   2.435258e+01   9.960405e-02   9.060518e+04  -1.042111e+04   1.158357e+05  -1.057691e+10  -2.551466e+11  -1.468048e+10   1.474307e+05   5.067185e-26   0.000000e+00   0.000000e+00
     1480000   1.479999e-06   3.837283e+01   2.435249e+01   1.005302e-01   9.052071e+04  -1.246102e+04   1.157002e+05  -1.054051e+10  -2.548196e+11  -1.919715e+10   1.474307e+05   5.066063e-26   0.000000e+00   0.000000e+00
     1488000   1.487999e-06   3.837356e+01   2.435238e+01   1.014552e-01   9.043650e+04  -1.449805e+04   1.155286e+05  -1.051197e+10  -2.544242e+11  -2.369910e+10   1.474307e+05   5.065378e-26   0.000000e+00   0.000000e+00
     1496000   1.495999e-06   3.837428e+01   2.435226e+01   1.023786e-01   9.035253e+04  -1.653160e+04   1.153210e+05  -1.048034e+10  -2.539494e+11  -2.819260e+10   1.474307e+05   5.064690e-26   0.000000e+00   0.000000e+00
     1504000   1.503999e-06   3.837500e+01   2.435212e+01   1.033002e-01   9.026882e+04  -1.856103e+04   1.150775e+05  -1.044562e+10  -2.533953e+11  -3.267622e+10   1.474307e+05   5.064001e-26   0.000000e+00   0.000000e+00
     1512000   1.511999e-06   3.837572e+01   2.435196e+01   1.042197e-01   9.018540e+04  -2.058571e+04   1.147982e+05  -1.040783e+10  -2.527623e+11  -3.714858e+10   1.474307e+05   5.063308e-26   0.000000e+00   0.000000e+00
     1520000   1.519999e-06   3.837645e+01   2.435179e+01   1.051369e-01   9.010230e+04  -2.260502e+04   1.144832e+05  -1.036697e+10  -2.520504e+11  -4.160829e+10   1.474307e+05   5.062613e-26   0.000000e+00   0.000000e+00
     1528000   1.527999e-06   3.837717e+01   2.435160e+01   1.060514e-01   9.001954e+04  -2.461831e+04   1.141325e+05  -1.032306e+10  -2.512600e+11  -4.605394e+10   1.474307e+05   5.061915e-26   0.000000e+00   0.000000e+00
     1536000   1.535999e-06   3.837789e+01   2.435139e+01   1.069629e-01   8.993714e+04  -2.662497e+04   1.137464e+05  -1.027610e+10  -2.503913e+11  -5.048417e+10   1.474307e+05   5.061213e-26   0.000000e+00   0.000000e+00
     1544000   1.543999e-06   3.837861e+01   2.435117e+01   1.078712e-01   8.985513e+04  -2.862436e+04   1.133248e+05  -1.022610e+10  -2.494446e+11  -5.489758e+10   1.474307e+05   5.060507e-26   0.000000e+00   0.000000e+00
     1552000   1.551999e-06   3.837932e+01   2.435094e+01   1.087760e-01   8.977353e+04  -3.061587e+04   1.128681e+05  -1.017308e+10  -2.484203e+11  -5.929281e+10   1.474307e+05   5.059797e-26   0.000000e+00   0.000000e+00
     1560000   1.559999e-06   3.838004e+01   2.435068e+01   1.096770e-01   8.969237e+04  -3.259888e+04   1.123762e+05  -1.011704e+10  -2.473186e+11  -6.366849e+10   1.474307e+05   5.059083e-26   0.000000e+00   0.000000e+00
     1568000   1.567999e-06   3.838076e+01   2.435042e+01   1.105739e-01   8.961167e+04  -3.457276e+04   1.118494e+05  -1.005801e+10  -2.461400e+11  -6.802326e+10   1.474307e+05   5.058364e-26   0.000000e+00   0.000000e+00
     1576000   1.575999e-06   3.838148e+01   2.435013e+01   1.114665e-01   8.953145e+04  -3.653691e+04   1.112879e+05  -9.995980e+09  -2.448849e+11  -7.235576e+10   1.474307e+05   5.057641e-26   0.000000e+00   0.000000e+00
     1584000   1.583999e-06   3.838219e+01   2.434983e+01   1.123544e-01   8.945174e+04  -3.849072e+04   1.106918e+05  -9.930977e+09  -2.435537e+11  -7.666466e+10   1.474307e+05   5.056912e-26   0.000000e+00   0.000000e+00
     1592000   1.591999e-06   3.838291e+01   2.434951e+01   1.132375e-01   8.937256e+04  -4.043357e+04   1.100613e+05  -9.863011e+09  -2.421468e+11  -8.094861e+10   1.474307e+05   5.056177e-26   0.000000e+00   0.000000e+00
     1600000   1.599999e-06   3.838362e+01   2.434918e+01   1.141153e-01   8.929394e+04  -4.236486e+04   1.093967e+05  -9.792095e+09  -2.406646e+11  -8.520628e+10   1.474307e+05   5.055437e-26   0.000000e+00   0.000000e+00
     1608000   1.607999e-06   3.838434e+01   2.434884e+01   1.149877e-01   8.921590e+04  -4.428400e+04   1.086981e+05  -9.718245e+09  -2.391077e+11  -8.943636e+10   1.474307e+05   5.054692e-26   0.000000e+00   0.000000e+00
     1616000   1.615999e-06   3.838505e+01   2.434848e+01   1.158544e-01   8.913846e+04  -4.619039e+04   1.079658e+05  -9.641474e+09  -2.374767e+11  -9.363753e+10   1.474307e+05   5.053939e-26   0.000000e+00   0.000000e+00
     1624000   1.623999e-06   3.838576e+01   2.434810e+01   1.167151e-01   8.906164e+04  -4.808343e+04   1.072000e+05  -9.561800e+09  -2.357719e+11  -9.780849e+10   1.474307e+05   5.053181e-26   0.000000e+00   0.000000e+00
     1632000   1.631999e-06   3.838647e+01   2.434771e+01   1.175695e-01   8.898548e+04  -4.996254e+04   1.064009e+05  -9.479237e+09  -2.339940e+11  -1.019480e+11   1.474307e+05   5.052416e-26   0.000000e+00   0.000000e+00
     1640000   1.639999e-06   3.838719e+01   2.434730e+01   1.184174e-01   8.890998e+04  -5.182714e+04   1.055689e+05  -9.393802e+09  -2.321436e+11  -1.060546e+11   1.474307e+05   5.051644e-26   0.000000e+00   0.000000e+00
     1648000   1.647999e-06   3.838790e+01   2.434688e+01   1.192585e-01   8.883518e+04  -5.367664e+04   1.047041e+05  -9.305513e+09  -2.302212e+11  -1.101273e+11   1.474307e+05   5.050865e-26   0.000000e+00   0.000000e+00
     1656000   1.655999e-06   3.838861e+01   2.434644e+01   1.200926e-01   8.876110e+04  -5.551049e+04   1.038069e+05  -9.214387e+09  -2.282275e+11  -1.141646e+11   1.474307e+05   5.050078e-26   0.000000e+00   0.000000e+00
     1664000   1.663999e-06   3.838932e+01   2.434599e+01   1.209194e-01   8.868776e+04  -5.732809e+04   1.028776e+05  -9.120442e+09  -2.261631e+11  -1.181653e+11   1.474307e+05   5.049285e-26   0.000000e+00   0.000000e+00
     1672000   1.671999e-06   3.839003e+01   2.434552e+01   1.217386e-01   8.861518e+04  -5.912891e+04   1.019164e+05  -9.023698e+09  -2.240288e+11  -1.221283e+11   1.474307e+05   5.048483e-26   0.000000e+00   0.000000e+00
     1680000   1.679999e-06   3.839073e+01   2.434504e+01   1.225499e-01   8.854339e+04  -6.091237e+04   1.009236e+05  -8.924173e+09  -2.218251e+11  -1.260523e+11   1.474307e+05   5.047674e-26   0.000000e+00   0.000000e+00
     1688000   1.687999e-06   3.839144e+01   2.434455e+01   1.233533e-01   8.847240e+04  -6.267792e+04   9.989964e+04  -8.821889e+09  -2.195529e+11  -1.299360e+11   1.474308e+05   5.046857e-26   0.000000e+00   0.000000e+00
     1696000   1.695999e-06   3.839215e+01   2.434404e+01   1.241482e-01   8.840225e+04  -6.442503e+04   9.884475e+04  -8.716865e+09  -2.172127e+11  -1.337783e+11   1.474308e+05   5.046032e-26   0.000000e+00   0.000000e+00
     1704000   1.703999e-06   3.839286e+01   2.434352e+01   1.249347e-01   8.833294e+04  -6.615315e+04   9.775930e+04  -8.609123e+09  -2.148055e+11  -1.375780e+11   1.474308e+05   5.045198e-26   0.000000e+00   0.000000e+00
     1712000   1.711999e-06   3.839356e+01   2.434298e+01   1.257123e-01   8.826451e+04  -6.786174e+04   9.664362e+04  -8.498684e+09  -2.123320e+11  -1.413339e+11   1.474308e+05   5.044356e-26   0.000000e+00   0.000000e+00
     1720000   1.719999e-06   3.839427e+01   2.434243e+01   1.264809e-01   8.819697e+04  -6.955028e+04   9.549807e+04  -8.385572e+09  -2.097929e+11  -1.450449e+11   1.474308e+05   5.043506e-26   0.000000e+00   0.000000e+00
     1728000   1.727999e-06   3.839497e+01   2.434187e+01   1.272402e-01   8.813034e+04  -7.121825e+04   9.432302e+04  -8.269809e+09  -2.071890e+11  -1.487098e+11   1.474308e+05   5.042647e-26   0.000000e+00   0.000000e+00
     1736000   1.735999e-06   3.839568e+01   2.434129e+01   1.279900e-01   8.806466e+04  -7.286513e+04   9.311884e+04  -8.151419e+09  -2.045213e+11  -1.523275e+11   1.474308e+05   5.041779e-26   0.000000e+00   0.000000e+00
     1744000   1.743999e-06   3.839638e+01   2.434070e+01   1.287300e-01   8.799993e+04  -7.449042e+04   9.188591e+04  -8.030428e+09  -2.017906e+11  -1.558968e+11   1.474308e+05   5.040903e-26   0.000000e+00   0.000000e+00
     1752000   1.751999e-06   3.839709e+01   2.434010e+01   1.294601e-01   8.793618e+04  -7.609361e+04   9.062462e+04  -7.906859e+09  -1.989977e+11  -1.594168e+11   1.474308e+05   5.040017e-26   0.000000e+00   0.000000e+00
     1760000   1.759999e-06   3.839779e+01   2.433949e+01   1.301800e-01   8.787343e+04  -7.767422e+04   8.933537e+04  -7.780738e+09  -1.961435e+11  -1.628863e+11   1.474308e+05   5.039123e-26   0.000000e+00   0.000000e+00
     1768000   1.767999e-06   3.839849e+01   2.433886e+01   1.308894e-01   8.781169e+04  -7.923174e+04   8.801857e+04  -7.652093e+09  -1.932290e+11  -1.663042e+11   1.474308e+05   5.038219e-26   0.000000e+00   0.000000e+00
     1776000   1.775999e-06   3.839920e+01   2.433822e+01   1.315882e-01   8.775100e+04  -8.076572e+04   8.667464e+04  -7.520951e+09  -1.902550e+11  -1.696696e+11   1.474308e+05   5.037306e-26   0.000000e+00   0.000000e+00
     1784000   1.783999e-06   3.839990e+01   2.433757e+01   1.322761e-01   8.769136e+04  -8.227567e+04   8.530400e+04  -7.387339e+09  -1.872226e+11  -1.729813e+11   1.474308e+05   5.036385e-26   0.000000e+00   0.000000e+00
     1792000   1.791999e-06   3.840060e+01   2.433690e+01   1.329530e-01   8.763287e+04  -8.376056e+04   8.390758e+04  -7.241951e+09  -1.840508e+11  -1.761641e+11   1.474308e+05   5.031081e-26   0.000000e+00   0.000000e+00
     1800000   1.799999e-06   3.840130e+01   2.433623e+01   1.336186e-01   8.757549e+04  -8.522042e+04   8.248543e+04  -7.102788e+09  -1.809058e+11  -1.793622e+11   1.474308e+05   5.030093e-26   0.000000e+00   0.000000e+00
     1808000   1.807999e-06   3.840200e+01   2.433554e+01   1.342727e-01   8.751923e+04  -8.665490e+04   8.103793e+04  -6.961254e+09  -1.777054e+11  -1.825038e+11   1.474308e+05   5.029097e-26   0.000000e+00   0.000000e+00
     1816000   1.815999e-06   3.840270e+01   2.433484e+01   1.349151e-01   8.746412e+04  -8.806356e+04   7.956552e+04  -6.817381e+09  -1.744506e+11  -1.855879e+11   1.474308e+05   5.028094e-26   0.000000e+00   0.000000e+00
     1824000   1.823999e-06   3.840340e+01   2.433413e+01   1.355457e-01   8.741016e+04  -8.944597e+04   7.806868e+04  -6.671200e+09  -1.711425e+11  -1.886135e+11   1.474308e+05   5.027084e-26   0.000000e+00   0.000000e+00
     1832000   1.831999e-06   3.840410e+01   2.433341e+01   1.361641e-01   8.735738e+04  -9.080170e+04   7.654786e+04  -6.522746e+09  -1.677820e+11  -1.915797e+11   1.474308e+05   5.026066e-26   0.000000e+00   0.000000e+00
     1840000   1.839999e-06   3.840480e+01   2.433268e+01   1.367704e-01   8.730580e+04  -9.213034e+04   7.500356e+04  -6.372052e+09  -1.643704e+11  -1.944857e+11   1.474308e+05   5.025040e-26   0.000000e+00   0.000000e+00
     1848000   1.847999e-06   3.840549e+01   2.433193e+01   1.373641e-01   8.725544e+04  -9.343149e+04   7.343625e+04  -6.219153e+09  -1.609086e+11  -1.973305e+11   1.474308e+05   5.024007e-26   0.000000e+00   0.000000e+00
     1856000   1.855999e-06   3.840619e+01   2.433118e+01   1.379453e-01   8.720630e+04  -9.470474e+04   7.184643e+04  -6.064084e+09  -1.573978e+11  -2.001133e+11   1.474308e+05   5.022967e-26   0.000000e+00   0.000000e+00
     1864000   1.863999e-06   3.840689e+01   2.433042e+01   1.385136e-01   8.715842e+04  -9.594972e+04   7.023460e+04  -5.906882e+09  -1.538390e+11  -2.028332e+11   1.474308e+05   5.021920e-26   0.000000e+00   0.000000e+00
     1872000   1.871999e-06   3.840759e+01   2.432965e+01   1.390690e-01   8.711180e+04  -9.716604e+04   6.860127e+04  -5.747582e+09  -1.502334e+11  -2.054894e+11   1.474308e+05   5.020866e-26   0.000000e+00   0.000000e+00
     1880000   1.879999e-06   3.840828e+01   2.432886e+01   1.396112e-01   8.706646e+04  -9.835333e+04   6.694694e+04  -5.586223e+09  -1.465821e+11  -2.080812e+11   1.474308e+05   5.019804e-26   0.000000e+00   0.000000e+00
     1888000   1.887999e-06   3.840898e+01   2.432807e+01   1.401401e-01   8.702242e+04  -9.951123e+04   6.527214e+04  -5.422844e+09  -1.428863e+11  -2.106077e+11   1.474308e+05   5.018735e-26   0.000000e+00   0.000000e+00
     1896000   1.895999e-06   3.840968e+01   2.432727e+01   1.406555e-01   8.697970e+04  -1.006394e+05   6.357739e+04  -5.257483e+09  -1.391471e+11  -2.130682e+11   1.474308e+05   5.017660e-26   0.000000e+00   0.000000e+00
     1904000   1.903999e-06   3.841037e+01   2.432646e+01   1.411573e-01   8.693831e+04  -1.017375e+05   6.186323e+04  -5.090180e+09  -1.353657e+11  -2.154619e+11   1.474308e+05   5.016577e-26   0.000000e+00   0.000000e+00
     1912000   1.911999e-06   3.841107e+01   2.432564e+01   1.416452e-01   8.689826e+04  -1.028051e+05   6.013018e+04  -4.920976e+09  -1.315434e+11  -2.177882e+11   1.474308e+05   5.015488e-26   0.000000e+00   0.000000e+00
     1920000   1.919999e-06   3.841176e+01   2.432482e+01   1.421193e-01   8.685958e+04  -1.038420e+05   5.837879e+04  -4.749913e+09  -1.276812e+11  -2.200463e+11   1.474308e+05   5.014392e-26   0.000000e+00   0.000000e+00
     1928000   1.927999e-06   3.841246e+01   2.432398e+01   1.425793e-01   8.682227e+04  -1.048479e+05   5.660962e+04  -4.577033e+09  -1.237804e+11  -2.222355e+11   1.474308e+05   5.013290e-26   0.000000e+00   0.000000e+00
     1936000   1.935999e-06   3.841315e+01   2.432314e+01   1.430250e-01   8.678635e+04  -1.058224e+05   5.482321e+04  -4.402379e+09  -1.198423e+11  -2.243553e+11   1.474308e+05   5.012181e-26   0.000000e+00   0.000000e+00
     1944000   1.943999e-06   3.841385e+01   2.432229e+01   1.434564e-01   8.675184e+04  -1.067653e+05   5.302012e+04  -4.225995e+09  -1.158681e+11  -2.264049e+11   1.474308e+05   5.011066e-26   0.000000e+00   0.000000e+00
     1952000   1.951999e-06   3.841454e+01   2.432143e+01   1.438733e-01   8.671874e+04  -1.076762e+05   5.120092e+04  -4.047926e+09  -1.118590e+11  -2.283838e+11   1.474308e+05   5.009946e-26   0.000000e+00   0.000000e+00
     1960000   1.959999e-06   3.841523e+01   2.432057e+01   1.442756e-01   8.668707e+04  -1.085549e+05   4.936617e+04  -3.868216e+09  -1.078163e+11  -2.302914e+11   1.474308e+05   5.008819e-26   0.000000e+00   0.000000e+00
     1968000   1.967999e-06   3.841593e+01   2.431970e+01   1.446631e-01   8.665685e+04  -1.094012e+05   4.751644e+04  -3.686913e+09  -1.037412e+11  -2.321271e+11   1.474308e+05   5.007686e-26   0.000000e+00   0.000000e+00
     1976000   1.975999e-06   3.841662e+01   2.431882e+01   1.450358e-01   8.662809e+04  -1.102147e+05   4.565232e+04  -3.504063e+09  -9.963509e+10  -2.338904e+11   1.474308e+05   5.006548e-26   0.000000e+00   0.000000e+00
     1984000   1.983999e-06   3.841731e+01   2.431793e+01   1.453935e-01   8.660079e+04  -1.109953e+05   4.377439e+04  -3.319714e+09  -9.549915e+10  -2.355807e+11   1.474308e+05   5.005405e-26   0.000000e+00   0.000000e+00
     1992000   1.991999e-06   3.841801e+01   2.431704e+01   1.457361e-01   8.657498e+04  -1.117426e+05   4.188323e+04  -3.133914e+09  -9.133473e+10  -2.371975e+11   1.474308e+05   5.004257e-26   0.000000e+00   0.000000e+00
     2000000   1.999999e-06   3.841870e+01   2.431614e+01   1.460636e-01   8.655065e+04  -1.124566e+05   3.997943e+04  -2.946713e+09  -8.714310e+10  -2.387405e+11   1.474308e+05   5.003103e-26   0.000000e+00   0.000000e+00
     2008000   2.007999e-06   3.841939e+01   2.431524e+01   1.463758e-01   8.652783e+04  -1.131368e+05   3.806358e+04  -2.758161e+09  -8.292560e+10  -2.402091e+11   1.474308e+05   5.001945e-26   0.000000e+00   0.000000e+00
     2016000   2.015999e-06   3.842008e+01   2.431433e+01   1.466726e-01   8.650653e+04  -1.137833e+05   3.613628e+04  -2.568309e+09  -7.868352e+10  -2.416029e+11   1.474308e+05   5.000782e-26   0.000000e+00   0.000000e+00
     2024000   2.023999e-06   3.842077e+01   2.431342e+01   1.469539e-01   8.648674e+04  -1.143957e+05   3.419813e+04  -2.377208e+09  -7.441821e+10  -2.429215e+11   1.474308e+05   4.999615e-26   0.000000e+00   0.000000e+00
     2032000   2.031999e-06   3.842147e+01   2.431250e+01   1.472197e-01   8.646849e+04  -1.149739e+05   3.224973e+04  -2.184910e+09  -7.013097e+10  -2.441646e+11   1.474308e+05   4.998444e-26   0.000000e+00   0.000000e+00
     2040000   2.039999e-06   3.842216e+01   2.431158e+01   1.474699e-01   8.645179e+04  -1.155177e+05   3.029170e+04  -1.991469e+09  -6.582317e+10  -2.453317e+11   1.474308e+05   4.997269e-26   0.000000e+00   0.000000e+00
     2048000   2.047999e-06   3.842285e+01   2.431066e+01   1.477044e-01   8.643663e+04  -1.160270e+05   2.832463e+04  -1.796939e+09  -6.149612e+10  -2.464226e+11   1.474308e+05   4.996090e-26   0.000000e+00   0.000000e+00
     2056000   2.055999e-06   3.842354e+01   2.430973e+01   1.479231e-01   8.642304e+04  -1.165016e+05   2.634914e+04  -1.601373e+09  -5.715120e+10  -2.474368e+11   1.474308e+05   4.994908e-26   0.000000e+00   0.000000e+00
     2064000   2.063999e-06   3.842423e+01   2.430879e+01   1.481259e-01   8.641102e+04  -1.169414e+05   2.436584e+04  -1.404827e+09  -5.278973e+10  -2.483743e+11   1.474308e+05   4.993723e-26   0.000000e+00   0.000000e+00
     2072000   2.071999e-06   3.842492e+01   2.430785e+01   1.483129e-01   8.640057e+04  -1.173462e+05   2.237536e+04  -1.207358e+09  -4.841309e+10  -2.492346e+11   1.474308e+05   4.992535e-26   0.000000e+00   0.000000e+00
     2080000   2.079999e-06   3.842561e+01   2.430691e+01   1.484839e-01   8.639170e+04  -1.177160e+05   2.037830e+04  -1.009021e+09  -4.402263e+10  -2.500175e+11   1.474308e+05   4.991344e-26   0.000000e+00   0.000000e+00
     2088000   2.087999e-06   3.842631e+01   2.430597e+01   1.486389e-01   8.638442e+04  -1.180506e+05   1.837528e+04  -8.098747e+08  -3.961972e+10  -2.507229e+11   1.474308e+05   4.990150e-26   0.000000e+00   0.000000e+00
     2096000   2.095999e-06   3.842700e+01   2.430503e+01   1.487779e-01   8.637874e+04  -1.183499e+05   1.636693e+04  -6.099759e+08  -3.520572e+10  -2.513506e+11   1.474308e+05   4.988955e-26   0.000000e+00   0.000000e+00
     2104000   2.103999e-06   3.842769e+01   2.430408e+01   1.489008e-01   8.637467e+04  -1.186138e+05   1.435388e+04  -4.093838e+08  -3.078201e+10  -2.519003e+11   1.474308e+05   4.987757e-26   0.000000e+00   0.000000e+00
     2112000   2.111999e-06   3.842838e+01   2.430313e+01   1.490076e-01   8.637220e+04  -1.188423e+05   1.233674e+04  -2.081575e+08  -2.634996e+10  -2.523720e+11   1.474308e+05   4.986558e-26   0.000000e+00   0.000000e+00
     2120000   2.119999e-06   3.842907e+01   2.430218e+01   1.490982e-01   8.637134e+04  -1.190354e+05   1.031614e+04  -6.356962e+06  -2.191093e+10  -2.527655e+11   1.474308e+05   4.985358e-26   0.000000e+00   0.000000e+00
     2128000   2.127999e-06   3.842976e+01   2.430122e+01   1.491726e-01   8.637210e+04  -1.191929e+05   8.292698e+03   1.959573e+08  -1.746632e+10  -2.530807e+11   1.474308e+05   4.984156e-26   0.000000e+00   0.000000e+00
     2136000   2.135999e-06   3.843045e+01   2.430027e+01   1.492309e-01   8.637447e+04  -1.193148e+05   6.267052e+03   3.987243e+08  -1.301749e+10  -2.533176e+11   1.474308e+05   4.982954e-26   0.000000e+00   0.000000e+00
     2144000   2.143999e-06   3.843114e+01   2.429931e+01   1.492729e-01   8.637845e+04  -1.194012e+05   4.239100e+03   5.972597e+08  -8.572104e+09  -2.536023e+11   1.474309e+05   4.986713e-26   0.000000e+00   0.000000e+00
     2152000   2.151999e-06   3.843183e+01   2.429836e+01   1.492987e-01   8.638404e+04  -1.194520e+05   2.209909e+03   8.007635e+08  -4.114674e+09  -2.536823e+11   1.474309e+05   4.985496e-26   0.000000e+00   0.000000e+00
     2160000   2.159999e-06   3.843252e+01   2.429740e+01   1.493082e-01   8.639126e+04  -1.194670e+05   1.803929e+02   1.004526e+09   3.428154e+08  -2.536837e+11   1.474309e+05   4.984277e-26   0.000000e+00   0.000000e+00
     2168000   2.167999e-06   3.843322e+01   2.429645e+01   1.493016e-01   8.640012e+04  -1.194465e+05  -1.848820e+03   1.208482e+09   4.798983e+09  -2.536066e+11   1.474309e+05   4.983058e-26   0.000000e+00   0.000000e+00
     2176000   2.175999e-06   3.843391e+01   2.429549e+01   1.492787e-01   8.641060e+04  -1.193903e+05  -3.877103e+03   1.412570e+09   9.252449e+09  -2.534510e+11   1.474309e+05   4.981838e-26   0.000000e+00   0.000000e+00
     2184000   2.183999e-06   3.843460e+01   2.429454e+01   1.492395e-01   8.642272e+04  -1.192984e+05  -5.903827e+03   1.616724e+09   1.370184e+10  -2.532171e+11   1.474309e+05   4.980617e-26   0.000000e+00   0.000000e+00
     2192000   2.191999e-06   3.843529e+01   2.429358e+01   1.491842e-01   8.643647e+04  -1.191710e+05  -7.928368e+03   1.820879e+09   1.814576e+10  -2.529050e+11   1.474309e+05   4.979397e-26   0.000000e+00   0.000000e+00
     2200000   2.199999e-06   3.843598e+01   2.429263e+01   1.491127e-01   8.645185e+04  -1.190081e+05  -9.950098e+03   2.024971e+09   2.258286e+10  -2.525147e+11   1.474309e+05   4.978177e-26   0.000000e+00   0.000000e+00
     2208000   2.207999e-06   3.843667e+01   2.429168e+01   1.490250e-01   8.646887e+04  -1.188097e+05  -1.196839e+04   2.228934e+09   2.701176e+10  -2.520464e+11   1.474309e+05   4.976958e-26   0.000000e+00   0.000000e+00
     2216000   2.215999e-06   3.843736e+01   2.429073e+01   1.489212e-01   8.648751e+04  -1.185760e+05  -1.398263e+04   2.432700e+09   3.143109e+10  -2.515004e+11   1.474309e+05   4.975739e-26   0.000000e+00   0.000000e+00
     2224000   2.223999e-06   3.843806e+01   2.428978e+01   1.488013e-01   8.650779e+04  -1.183069e+05  -1.599219e+04   2.636205e+09   3.583949e+10  -2.508767e+11   1.474309e+05   4.974522e-26   0.000000e+00   0.000000e+00
     2232000   2.231999e-06   3.843875e+01   2.428884e+01   1.486653e-01   8.652969e+04  -1.180025e+05  -1.799645e+04   2.839382e+09   4.023559e+10  -2.501757e+11   1.474309e+05   4.973306e-26   0.000000e+00   0.000000e+00
     2240000   2.239999e-06   3.843944e+01   2.428789e+01   1.485134e-01   8.655322e+04  -1.176631e+05  -1.999480e+04   3.042162e+09   4.461805e+10  -2.493976e+11   1.474309e+05   4.972092e-26   0.000000e+00   0.000000e+00
     2248000   2.247999e-06   3.844013e+01   2.428695e+01   1.483454e-01   8.657837e+04  -1.172887e+05  -2.198661e+04   3.244480e+09   4.898551e+10  -2.485426e+11   1.474309e+05   4.970879e-26   0.000000e+00   0.000000e+00
     2256000   2.255999e-06   3.844083e+01   2.428602e+01   1.481616e-01   8.660513e+04  -1.168794e+05  -2.397127e+04   3.446267e+09   5.333662e+10  -2.476110e+11   1.474309e+05   4.969669e-26   0.000000e+00   0.000000e+00
     2264000   2.263999e-06   3.844152e+01   2.428508e+01   1.479619e-01   8.663350e+04  -1.164354e+05  -2.594818e+04   3.647455e+09   5.767006e+10  -2.466032e+11   1.474309e+05   4.968462e-26   0.000000e+00   0.000000e+00
     2272000   2.271999e-06   3.844221e+01   2.428416e+01   1.477465e-01   8.666349e+04  -1.159567e+05  -2.791672e+04   3.847977e+09   6.198448e+10  -2.455196e+11   1.474309e+05   4.967257e-26   0.000000e+00   0.000000e+00
     2280000   2.279999e-06   3.844291e+01   2.428323e+01   1.475153e-01   8.669507e+04  -1.154437e+05  -2.987629e+04   4.047764e+09   6.627856e+10  -2.443604e+11   1.474309e+05   4.966055e-26   0.000000e+00   0.000000e+00
     2288000   2.287999e-06   3.844360e+01   2.428231e+01   1.472685e-01   8.672825e+04  -1.148963e+05  -3.182629e+04   4.246748e+09   7.055098e+10  -2.431260e+11   1.474309e+05   4.964857e-26   0.000000e+00   0.000000e+00
     2296000   2.295999e-06   3.844429e+01   2.428139e+01   1.470061e-01   8.676302e+04  -1.143149e+05  -3.376611e+04   4.444860e+09   7.480043e+10  -2.418170e+11   1.474309e+05   4.963662e-26   0.000000e+00   0.000000e+00
     2304000   2.303999e-06   3.844499e+01   2.428048e+01   1.467282e-01   8.679936e+04  -1.136996e+05  -3.569516e+04   4.642033e+09   7.902561e+10  -2.404336e+11   1.474309e+05   4.962470e-26   0.000000e+00   0.000000e+00
     2312000   2.311999e-06   3.844568e+01   2.427957e+01   1.464350e-01   8.683729e+04  -1.130505e+05  -3.761285e+04   4.838196e+09   8.322523e+10  -2.389765e+11   1.474309e+05   4.961283e-26   0.000000e+00   0.000000e+00
     2320000   2.319999e-06   3.844638e+01   2.427867e+01   1.461265e-01   8.687677e+04  -1.123680e+05  -3.951859e+04   5.033283e+09   8.739798e+10  -2.374460e+11   1.474309e+05   4.960100e-26   0.000000e+00   0.000000e+00
     2328000   2.327999e-06   3.844707e+01   2.427777e+01   1.458027e-01   8.691782e+04  -1.116522e+05  -4.141179e+04   5.227223e+09   9.154261e+10  -2.358426e+11   1.474309e+05   4.958921e-26   0.000000e+00   0.000000e+00
     2336000   2.335999e-06   3.844777e+01   2.427688e+01   1.454639e-01   8.696041e+04  -1.109034e+05  -4.329187e+04   5.419949e+09   9.565783e+10  -2.341669e+11   1.474309e+05   4.957747e-26   0.000000e+00   0.000000e+00
     2344000   2.343999e-06   3.844846e+01   2.427600e+01   1.451101e-01   8.700453e+04  -1.101218e+05  -4.515826e+04   5.611392e+09   9.974240e+10  -2.324195e+11   1.474309e+05   4.956578e-26   0.000000e+00   0.000000e+00
     2352000   2.351999e-06   3.844916e+01   2.427512e+01   1.447414e-01   8.705018e+04  -1.093076e+05  -4.701039e+04   5.801484e+09   1.037951e+11  -2.306008e+11   1.474309e+05   4.955414e-26   0.000000e+00   0.000000e+00
     2360000   2.359999e-06   3.844986e+01   2.427425e+01   1.443580e-01   8.709735e+04  -1.084612e+05  -4.884769e+04   5.990156e+09   1.078146e+11  -2.287116e+11   1.474309e+05   4.954256e-26   0.000000e+00   0.000000e+00
     2368000   2.367999e-06   3.845055e+01   2.427339e+01   1.439599e-01   8.714602e+04  -1.075827e+05  -5.066959e+04   6.177341e+09   1.117997e+11  -2.267523e+11   1.474309e+05   4.953102e-26   0.000000e+00   0.000000e+00
     2376000   2.375999e-06   3.845125e+01   2.427253e+01   1.435473e-01   8.719619e+04  -1.066725e+05  -5.247554e+04   6.362970e+09   1.157493e+11  -2.247237e+11   1.474309e+05   4.951955e-26   0.000000e+00   0.000000e+00
     2384000   2.383999e-06   3.845195e+01   2.427168e+01   1.431203e-01   8.724783e+04  -1.057308e+05  -5.426498e+04   6.546976e+09   1.196621e+11  -2.226264e+11   1.474309e+05   4.950813e-26   0.000000e+00   0.000000e+00
     2392000   2.391999e-06   3.845265e+01   2.427084e+01   1.426791e-01   8.730093e+04  -1.047580e+05  -5.603738e+04   6.729292e+09   1.235369e+11  -2.204611e+11   1.474309e+05   4.949677e-26   0.000000e+00   0.000000e+00
     2400000   2.399999e-06   3.845335e+01   2.427000e+01   1.422238e-01   8.735549e+04  -1.037543e+05  -5.779218e+04   6.909850e+09   1.273725e+11  -2.182284e+11   1.474309e+05   4.948547e-26   0.000000e+00   0.000000e+00
     2408000   2.407999e-06   3.845404e+01   2.426918e+01   1.417545e-01   8.741149e+04  -1.027201e+05  -5.952885e+04   7.088584e+09   1.311678e+11  -2.159291e+11   1.474309e+05   4.947424e-26   0.000000e+00   0.000000e+00
     2416000   2.415999e-06   3.845474e+01   2.426836e+01   1.412714e-01   8.746890e+04  -1.016557e+05  -6.124687e+04   7.265428e+09   1.349217e+11  -2.135640e+11   1.474309e+05   4.946307e-26   0.000000e+00   0.000000e+00
     2424000   2.423999e-06   3.845544e+01   2.426755e+01   1.407746e-01   8.752773e+04  -1.005615e+05  -6.294570e+04   7.440316e+09   1.386329e+11  -2.111337e+11   1.474309e+05   4.945197e-26   0.000000e+00   0.000000e+00
     2432000   2.431999e-06   3.845614e+01   2.426675e+01   1.402643e-01   8.758794e+04  -9.943771e+04  -6.462483e+04   7.613182e+09   1.423004e+11  -2.086391e+11   1.474309e+05   4.944093e-26   0.000000e+00   0.000000e+00
     2440000   2.439999e-06   3.845685e+01   2.426596e+01   1.397406e-01   8.764953e+04  -9.828478e+04  -6.628375e+04   7.783961e+09   1.459230e+11  -2.060809e+11   1.474309e+05   4.942996e-26   0.000000e+00   0.000000e+00
     2448000   2.447999e-06   3.845755e+01   2.426518e+01   1.392038e-01   8.771248e+04  -9.710306e+04  -6.792196e+04   7.952589e+09   1.494997e+11  -2.034600e+11   1.474309e+05   4.941907e-26   0.000000e+00   0.000000e+00
     2456000   2.455999e-06   3.845825e+01   2.426441e+01   1.386539e-01   8.777677e+04  -9.589291e+04  -6.953895e+04   8.119002e+09   1.530294e+11  -2.007772e+11   1.474309e+05   4.940824e-26   0.000000e+00   0.000000e+00
     2464000   2.463999e-06   3.845895e+01   2.426365e+01   1.380912e-01   8.784238e+04  -9.465471e+04  -7.113423e+04   8.283137e+09   1.565109e+11  -1.980334e+11   1.474309e+05   4.939748e-26   0.000000e+00   0.000000e+00
     2472000   2.471999e-06   3.845965e+01   2.426289e+01   1.375159e-01   8.790929e+04  -9.338886e+04  -7.270732e+04   8.444930e+09   1.599434e+11  -1.952294e+11   1.474309e+05   4.938679e-26   0.000000e+00   0.000000e+00
     2480000   2.479999e-06   3.846036e+01   2.426215e+01   1.369280e-01   8.797749e+04  -9.209575e+04  -7.425774e+04   8.604321e+09   1.633256e+11  -1.923661e+11   1.474309e+05   4.937618e-26   0.000000e+00   0.000000e+00
     2488000   2.487999e-06   3.846106e+01   2.426142e+01   1.363278e-01   8.804696e+04  -9.077578e+04  -7.578502e+04   8.761248e+09   1.666567e+11  -1.894445e+11   1.474309e+05   4.936564e-26   0.000000e+00   0.000000e+00
     2496000   2.495999e-06   3.846177e+01   2.426070e+01   1.357155e-01   8.811766e+04  -8.942938e+04  -7.728869e+04   8.915649e+09   1.699355e+11  -1.864653e+11   1.474309e+05   4.935518e-26   0.000000e+00   0.000000e+00
     2504000   2.503999e-06   3.846247e+01   2.425999e+01   1.350912e-01   8.818960e+04  -8.805695e+04  -7.876831e+04   9.067466e+09   1.731611e+11  -1.834297e+11   1.474309e+05   4.934479e-26   0.000000e+00   0.000000e+00
     2512000   2.511999e-06   3.846318e+01   2.425929e+01   1.344553e-01   8.826274e+04  -8.665894e+04  -8.022342e+04   9.216639e+09   1.763326e+11  -1.803386e+11   1.474309e+05   4.933447e-26   0.000000e+00   0.000000e+00
     2520000   2.519999e-06   3.846388e+01   2.425860e+01   1.338077e-01   8.833706e+04  -8.523578e+04  -8.165358e+04   9.363110e+09   1.794490e+11  -1.771928e+11   1.474309e+05   4.932423e-26   0.000000e+00   0.000000e+00
     2528000   2.527999e-06   3.846459e+01   2.425793e+01   1.331489e-01   8.841254e+04  -8.378790e+04  -8.305836e+04   9.506822e+09   1.825093e+11  -1.739935e+11   1.474309e+05   4.931406e-26   0.000000e+00   0.000000e+00
     2536000   2.535999e-06   3.846530e+01   2.425726e+01   1.324789e-01   8.848916e+04  -8.231578e+04  -8.443733e+04   9.647718e+09   1.855127e+11  -1.707416e+11   1.474309e+05   4.930397e-26   0.000000e+00   0.000000e+00
     2544000   2.543999e-06   3.846601e+01   2.425661e+01   1.317979e-01   8.856690e+04  -8.081985e+04  -8.579008e+04   9.785742e+09   1.884582e+11  -1.674382e+11   1.474309e+05   4.929395e-26   0.000000e+00   0.000000e+00
     2552000   2.551999e-06   3.846672e+01   2.425597e+01   1.311063e-01   8.864572e+04  -7.930060e+04  -8.711620e+04   9.920841e+09   1.913450e+11  -1.640843e+11   1.474309e+05   4.928401e-26   0.000000e+00   0.000000e+00
     2560000   2.559999e-06   3.846743e+01   2.425534e+01   1.304041e-01   8.872562e+04  -7.775849e+04  -8.841529e+04   1.005296e+10   1.941722e+11  -1.606809e+11   1.474309e+05   4.927414e-26   0.000000e+00   0.000000e+00
     2568000   2.567999e-06   3.846814e+01   2.425472e+01   1.296917e-01   8.880656e+04  -7.619400e+04  -8.968696e+04   1.018205e+10   1.969389e+11  -1.572291e+11   1.474309e+05   4.926435e-26   0.000000e+00   0.000000e+00
     2576000   2.575999e-06   3.846885e+01   2.425412e+01   1.289692e-01   8.888853e+04  -7.460762e+04  -9.093083e+04   1.030805e+10   1.996444e+11  -1.537299e+11   1.474309e+05   4.925463e-26   0.000000e+00   0.000000e+00
     2584000   2.583999e-06   3.846956e+01   2.425353e+01   1.282369e-01   8.897148e+04  -7.299985e+04  -9.214652e+04   1.043092e+10   2.022878e+11  -1.501846e+11   1.474309e+05   4.924498e-26   0.000000e+00   0.000000e+00
     2592000   2.591999e-06   3.847027e+01   2.425295e+01   1.274950e-01   8.905541e+04  -7.137118e+04  -9.333366e+04   1.055061e+10   2.048684e+11  -1.465942e+11   1.474309e+05   4.923541e-26   0.000000e+00   0.000000e+00
     2600000   2.599999e-06   3.847098e+01   2.425239e+01   1.267436e-01   8.914029e+04  -6.972213e+04  -9.449190e+04   1.066706e+10   2.073853e+11  -1.429598e+11   1.474309e+05   4.922591e-26   0.000000e+00   0.000000e+00
     2608000   2.607999e-06   3.847170e+01   2.425184e+01   1.259832e-01   8.922608e+04  -6.805319e+04  -9.562090e+04   1.078024e+10   2.098379e+11  -1.392825e+11   1.474310e+05   4.921647e-26   0.000000e+00   0.000000e+00
     2616000   2.615999e-06   3.847241e+01   2.425130e+01   1.252138e-01   8.931276e+04  -6.636489e+04  -9.672031e+04   1.089009e+10   2.122254e+11  -1.355636e+11   1.474310e+05   4.920711e-26   0.000000e+00   0.000000e+00
     2624000   2.623999e-06   3.847313e+01   2.425078e+01   1.244357e-01   8.940031e+04  -6.465776e+04  -9.778980e+04   1.099658e+10   2.145471e+11  -1.318041e+11   1.474310e+05   4.919782e-26   0.000000e+00   0.000000e+00
     2632000   2.631999e-06   3.847384e+01   2.425027e+01   1.236492e-01   8.948870e+04  -6.293231e+04  -9.882906e+04   1.109965e+10   2.168023e+11  -1.280053e+11   1.474310e+05   4.918860e-26   0.000000e+00   0.000000e+00
     2640000   2.639999e-06   3.847456e+01   2.424977e+01   1.228545e-01   8.957789e+04  -6.118910e+04  -9.983778e+04   1.119927e+10   2.189904e+11  -1.241682e+11   1.474310e+05   4.917944e-26   0.000000e+00   0.000000e+00
     2648000   2.647999e-06   3.847527e+01   2.424929e+01   1.220519e-01   8.966788e+04  -5.942865e+04  -1.008157e+05   1.129540e+10   2.211107e+11  -1.202942e+11   1.474310e+05   4.917035e-26   0.000000e+00   0.000000e+00
     2656000   2.655999e-06   3.847599e+01   2.424882e+01   1.212416e-01   8.975861e+04  -5.765151e+04  -1.017624e+05   1.138799e+10   2.231626e+11  -1.163844e+11   1.474310e+05   4.916133e-26   0.000000e+00   0.000000e+00
     2664000   2.663999e-06   3.847671e+01   2.424836e+01   1.204238e-01   8.985007e+04  -5.585823e+04  -1.026777e+05   1.147701e+10   2.251455e+11  -1.124400e+11   1.474310e+05   4.915236e-26   0.000000e+00   0.000000e+00
     2672000   2.671999e-06   3.847743e+01   2.424792e+01   1.195988e-01   8.994223e+04  -5.404936e+04  -1.035613e+05   1.156242e+10   2.270589e+11  -1.084623e+11   1.474310e+05   4.914346e-26   0.000000e+00   0.000000e+00
     2680000   2.679999e-06   3.847815e+01   2.424750e+01   1.187669e-01   9.003506e+04  -5.222547e+04  -1.044130e+05   1.164419e+10   2.289021e+11  -1.044525e+11   1.474310e+05   4.913462e-26   0.000000e+00   0.000000e+00
     2688000   2.687999e-06   3.847887e+01   2.424709e+01   1.179283e-01   9.012853e+04  -5.038711e+04  -1.052325e+05   1.172228e+10   2.306746e+11  -1.004118e+11   1.474310e+05   4.912584e-26   0.000000e+00   0.000000e+00
     2696000   2.695999e-06   3.847959e+01   2.424669e+01   1.170833e-01   9.022261e+04  -4.853486e+04  -1.060195e+05   1.179667e+10   2.323760e+11  -9.634147e+10   1.474310e+05   4.911711e-26   0.000000e+00   0.000000e+00
     2704000   2.703999e-06   3.848031e+01   2.424631e+01   1.162321e-01   9.031727e+04  -4.666929e+04  -1.067739e+05   1.186731e+10   2.340058e+11  -9.224281e+10   1.474310e+05   4.910844e-26   0.000000e+00   0.000000e+00
     2712000   2.711999e-06   3.848104e+01   2.424595e+01   1.153750e-01   9.041248e+04  -4.479096e+04  -1.074953e+05   1.193418e+10   2.355634e+11  -8.811707e+10   1.474310e+05   4.909982e-26   0.000000e+00   0.000000e+00
     2720000   2.719999e-06   3.848176e+01   2.424560e+01   1.145122e-01   9.050821e+04  -4.290047e+04  -1.081837e+05   1.199726e+10   2.370484e+11  -8.396552e+10   1.474310e+05   4.909126e-26   0.000000e+00   0.000000e+00
     2728000   2.727999e-06   3.848248e+01   2.424526e+01   1.136441e-01   9.060442e+04  -4.099838e+04  -1.088387e+05   1.205651e+10   2.384604e+11  -7.978945e+10   1.474310e+05   4.908274e-26   0.000000e+00   0.000000e+00
     2736000   2.735999e-06   3.848321e+01   2.424494e+01   1.127709e-01   9.070110e+04  -3.908529e+04  -1.094602e+05   1.211192e+10   2.397990e+11  -7.559013e+10   1.474310e+05   4.907427e-26   0.000000e+00   0.000000e+00
     2744000   2.743999e-06   3.848394e+01   2.424464e+01   1.118928e-01   9.079820e+04  -3.716179e+04  -1.100481e+05   1.216346e+10   2.410639e+11  -7.136888e+10   1.474310e+05   4.906585e-26   0.000000e+00   0.000000e+00
     2752000   2.751999e-06   3.848466e+01   2.424435e+01   1.110102e-01   9.089570e+04  -3.522847e+04  -1.106021e+05   1.221110e+10   2.422546e+11  -6.712700e+10   1.474310e+05   4.905747e-26   0.000000e+00   0.000000e+00
     2760000   2.759999e-06   3.848539e+01   2.424407e+01   1.101233e-01   9.099357e+04  -3.328592e+04  -1.111221e+05   1.225483e+10   2.433709e+11  -6.286578e+10   1.474310e+05   4.904913e-26   0.000000e+00   0.000000e+00
     2768000   2.767999e-06   3.848612e+01   2.424381e+01   1.092324e-01   9.109177e+04  -3.133473e+04  -1.116079e+05   1.229463e+10   2.444124e+11  -5.858654e+10   1.474310e+05   4.904083e-26   0.000000e+00   0.000000e+00
     2776000   2.775999e-06   3.848685e+01   2.424357e+01   1.083377e-01   9.119027e+04  -2.937552e+04  -1.120594e+05   1.233048e+10   2.453788e+11  -5.429061e+10   1.474310e+05   4.903256e-26   0.000000e+00   0.000000e+00
     2784000   2.783999e-06   3.848758e+01   2.424334e+01   1.074395e-01   9.128905e+04  -2.740887e+04  -1.124765e+05   1.236237e+10   2.462700e+11  -4.997929e+10   1.474310e+05   4.902433e-26   0.000000e+00   0.000000e+00
     2792000   2.791999e-06   3.848831e+01   2.424313e+01   1.065381e-01   9.138806e+04  -2.543540e+04  -1.128590e+05   1.239029e+10   2.470855e+11  -4.565393e+10   1.474310e+05   4.901613e-26   0.000000e+00   0.000000e+00
     2800000   2.799999e-06   3.848904e+01   2.424294e+01   1.056338e-01   9.148728e+04  -2.345570e+04  -1.132069e+05   1.241422e+10   2.478253e+11  -4.131584e+10   1.474310e+05   4.900797e-26   0.000000e+00   0.000000e+00
     2808000   2.807999e-06   3.848977e+01   2.424276e+01   1.047269e-01   9.158668e+04  -2.147039e+04  -1.135200e+05   1.243415e+10   2.484892e+11  -3.696635e+10   1.474310e+05   4.899982e-26   0.000000e+00   0.000000e+00
     2816000   2.815999e-06   3.849051e+01   2.424259e+01   1.038176e-01   9.168622e+04  -1.948008e+04  -1.137983e+05   1.245007e+10   2.490769e+11  -3.260681e+10   1.474310e+05   4.899171e-26   0.000000e+00   0.000000e+00
     2824000   2.823999e-06   3.849124e+01   2.424244e+01   1.029062e-01   9.178587e+04  -1.748537e+04  -1.140417e+05   1.246198e+10   2.495884e+11  -2.823855e+10   1.474310e+05   4.898361e-26   0.000000e+00   0.000000e+00
     2832000   2.831999e-06   3.849197e+01   2.424231e+01   1.019930e-01   9.188560e+04  -1.548687e+04  -1.142501e+05   1.246988e+10   2.500234e+11  -2.386291e+10   1.474310e+05   4.897554e-26   0.000000e+00   0.000000e+00
     2840000   2.839999e-06   3.849271e+01   2.424220e+01   1.010783e-01   9.198538e+04  -1.348520e+04  -1.144235e+05   1.247375e+10   2.503820e+11  -1.948122e+10   1.474310e+05   4.896748e-26   0.000000e+00   0.000000e+00
     2848000   2.847999e-06   3.849345e+01   2.424210e+01   1.001624e-01   9.208517e+04  -1.148096e+04  -1.145618e+05   1.247360e+10   2.506639e+11  -1.509484e+10   1.474310e+05   4.895944e-26   0.000000e+00   0.000000e+00
     2856000   2.855999e-06   3.849418e+01   2.424201e+01   9.924543e-02   9.218485e+04  -9.475401e+03  -1.146650e+05   1.245487e+10   2.507747e+11  -1.071036e+10   1.474310e+05   4.891448e-26   0.000000e+00   0.000000e+00
     2864000   2.863999e-06   3.849492e+01   2.424195e+01   9.832782e-02   9.228446e+04  -7.468635e+03  -1.147332e+05   1.244754e+10   2.509038e+11  -6.321259e+09   1.474310e+05   4.890660e-26   0.000000e+00   0.000000e+00
     2872000   2.871999e-06   3.849566e+01   2.424189e+01   9.740980e-02   9.238400e+04  -5.461144e+03  -1.147662e+05   1.243621e+10   2.509563e+11  -1.931447e+09   1.474310e+05   4.889873e-26   0.000000e+00   0.000000e+00
     2880000   2.879999e-06   3.849640e+01   2.424186e+01   9.649165e-02   9.248343e+04  -3.453539e+03  -1.147641e+05   1.242090e+10   2.509322e+11   2.457738e+09   1.474310e+05   4.889086e-26   0.000000e+00   0.000000e+00
     2888000   2.887999e-06   3.849714e+01   2.424184e+01   9.557367e-02   9.258272e+04  -1.446432e+03  -1.147269e+05   1.240161e+10   2.508316e+11   6.844957e+09   1.474310e+05   4.888299e-26   0.000000e+00   0.000000e+00
     2896000   2.895999e-06   3.849788e+01   2.424183e+01   9.465612e-02   9.268184e+04   5.595626e+02  -1.146546e+05   1.237834e+10   2.506545e+11   1.122887e+10   1.474310e+05   4.887512e-26   0.000000e+00   0.000000e+00
     2904000   2.903999e-06   3.849862e+01   2.424185e+01   9.373929e-02   9.278076e+04   2.563835e+03  -1.145472e+05   1.235112e+10   2.504009e+11   1.560815e+10   1.474310e+05   4.886724e-26   0.000000e+00   0.000000e+00
     2912000   2.911999e-06   3.849936e+01   2.424188e+01   9.282345e-02   9.287945e+04   4.565774e+03  -1.144048e+05   1.231994e+10   2.500711e+11   1.998145e+10   1.474310e+05   4.885936e-26   0.000000e+00   0.000000e+00
     2920000   2.919999e-06   3.850011e+01   2.424192e+01   9.190890e-02   9.297789e+04   6.564827e+03  -1.142275e+05   1.229831e+10   2.497142e+11   2.436137e+10   1.474310e+05   4.887120e-26   0.000000e+00   0.000000e+00
     2928000   2.927999e-06   3.850085e+01   2.424198e+01   9.099591e-02   9.307611e+04   8.560656e+03  -1.140152e+05   1.225822e+10   2.492305e+11   2.871952e+10   1.474310e+05   4.886269e-26   0.000000e+00   0.000000e+00
     2936000   2.935999e-06   3.850160e+01   2.424206e+01   9.008475e-02   9.317401e+04   1.055231e+04  -1.137680e+05   1.221423e+10   2.486709e+11   3.306763e+10   1.474310e+05   4.885415e-26   0.000000e+00   0.000000e+00
     2944000   2.943999e-06   3.850234e+01   2.424215e+01   8.917571e-02   9.327153e+04   1.253919e+04  -1.134861e+05   1.216636e+10   2.480357e+11   3.740439e+10   1.474310e+05   4.884560e-26   0.000000e+00   0.000000e+00
     2952000   2.951999e-06   3.850309e+01   2.424226e+01   8.826907e-02   9.336866e+04   1.452068e+04  -1.131696e+05   1.211463e+10   2.473251e+11   4.172848e+10   1.474310e+05   4.883702e-26   0.000000e+00   0.000000e+00
     2960000   2.959999e-06   3.850384e+01   2.424238e+01   8.736509e-02   9.346536e+04   1.649619e+04  -1.128185e+05   1.205907e+10   2.465394e+11   4.603858e+10   1.474310e+05   4.882841e-26   0.000000e+00   0.000000e+00
     2968000   2.967999e-06   3.850458e+01   2.424252e+01   8.646406e-02   9.356159e+04   1.846511e+04  -1.124330e+05   1.199970e+10   2.456788e+11   5.033339e+10   1.474310e+05   4.881978e-26   0.000000e+00   0.000000e+00
     2976000   2.975999e-06   3.850533e+01   2.424268e+01   8.556625e-02   9.365734e+04   2.042685e+04  -1.120132e+05   1.193653e+10   2.447435e+11   5.461160e+10   1.474310e+05   4.881111e-26   0.000000e+00   0.000000e+00
     2984000   2.983999e-06   3.850608e+01   2.424285e+01   8.467194e-02   9.375257e+04   2.238081e+04  -1.115592e+05   1.186960e+10   2.437340e+11   5.887192e+10   1.474310e+05   4.880241e-26   0.000000e+00   0.000000e+00
     2992000   2.991999e-06   3.850683e+01   2.424304e+01   8.378140e-02   9.384724e+04   2.432640e+04  -1.110713e+05   1.179894e+10   2.426506e+11   6.311306e+10   1.474310e+05   4.879367e-26   0.000000e+00   0.000000e+00
     3000000   2.999999e-06   3.850758e+01   2.424324e+01   8.289489e-02   9.394134e+04   2.626302e+04  -1.105495e+05   1.172456e+10   2.414936e+11   6.733374e+10   1.474310e+05   4.878490e-26   0.000000e+00   0.000000e+00
     3008000   3.007999e-06   3.850834e+01   2.424346e+01   8.201270e-02   9.403483e+04   2.819010e+04  -1.099940e+05   1.164651e+10   2.402634e+11   7.153267e+10   1.474310e+05   4.877609e-26   0.000000e+00   0.000000e+00
     3016000   3.015999e-06   3.850909e+01   2.424369e+01   8.113508e-02   9.412768e+04   3.010704e+04  -1.094050e+05   1.156482e+10   2.389605e+11   7.570859e+10   1.474310e+05   4.876723e-26   0.000000e+00   0.000000e+00
     3024000   3.023999e-06   3.850984e+01   2.424394e+01   8.026230e-02   9.421986e+04   3.201327e+04  -1.087827e+05   1.147952e+10   2.375852e+11   7.986024e+10   1.474310e+05   4.875834e-26   0.000000e+00   0.000000e+00
     3032000   3.031999e-06   3.851060e+01   2.424420e+01   7.939464e-02   9.431134e+04   3.390821e+04  -1.081273e+05   1.139064e+10   2.361380e+11   8.398636e+10   1.474310e+05   4.874939e-26   0.000000e+00   0.000000e+00
     3040000   3.039999e-06   3.851135e+01   2.424448e+01   7.853235e-02   9.440210e+04   3.579129e+04  -1.074390e+05   1.129822e+10   2.346194e+11   8.808572e+10   1.474310e+05   4.874040e-26   0.000000e+00   0.000000e+00
     3048000   3.047999e-06   3.851211e+01   2.424477e+01   7.767571e-02   9.449210e+04   3.766193e+04  -1.067180e+05   1.120229e+10   2.330298e+11   9.215706e+10   1.474310e+05   4.873137e-26   0.000000e+00   0.000000e+00
     3056000   3.055999e-06   3.851286e+01   2.424508e+01   7.682495e-02   9.458132e+04   3.951957e+04  -1.059646e+05   1.110291e+10   2.313699e+11   9.619918e+10   1.474310e+05   4.872228e-26   0.000000e+00   0.000000e+00
     3064000   3.063999e-06   3.851362e+01   2.424541e+01   7.598036e-02   9.466974e+04   4.136366e+04  -1.051789e+05   1.100010e+10   2.296401e+11   1.002109e+11   1.474310e+05   4.871313e-26   0.000000e+00   0.000000e+00
     3072000   3.071999e-06   3.851438e+01   2.424574e+01   7.514218e-02   9.475732e+04   4.319363e+04  -1.043613e+05   1.089391e+10   2.278409e+11   1.041909e+11   1.474311e+05   4.870394e-26   0.000000e+00   0.000000e+00
     3080000   3.079999e-06   3.851514e+01   2.424610e+01   7.431066e-02   9.484403e+04   4.500893e+04  -1.035119e+05   1.078438e+10   2.259731e+11   1.081380e+11   1.474311e+05   4.869469e-26   0.000000e+00   0.000000e+00
     3088000   3.087999e-06   3.851590e+01   2.424646e+01   7.348607e-02   9.492986e+04   4.680901e+04  -1.026312e+05   1.067156e+10   2.240370e+11   1.120512e+11   1.474311e+05   4.868538e-26   0.000000e+00   0.000000e+00
     3096000   3.095999e-06   3.851666e+01   2.424685e+01   7.266865e-02   9.501477e+04   4.859334e+04  -1.017192e+05   1.055549e+10   2.220335e+11   1.159291e+11   1.474311e+05   4.867601e-26   0.000000e+00   0.000000e+00
     3104000   3.103999e-06   3.851742e+01   2.424724e+01   7.185864e-02   9.509874e+04   5.036137e+04  -1.007764e+05   1.043622e+10   2.199631e+11   1.197706e+11   1.474311e+05   4.866658e-26   0.000000e+00   0.000000e+00
     3112000   3.111999e-06   3.851818e+01   2.424765e+01   7.105631e-02   9.518174e+04   5.211257e+04  -9.980298e+04   1.031380e+10   2.178264e+11   1.235746e+11   1.474311e+05   4.865710e-26   0.000000e+00   0.000000e+00
     3120000   3.119999e-06   3.851894e+01   2.424808e+01   7.026188e-02   9.526375e+04   5.384642e+04  -9.879929e+04   1.018827e+10   2.156242e+11   1.273400e+11   1.474311e+05   4.864755e-26   0.000000e+00   0.000000e+00
     3128000   3.127999e-06   3.851970e+01   2.424851e+01   6.947560e-02   9.534474e+04   5.556238e+04  -9.776564e+04   1.005968e+10   2.133572e+11   1.310656e+11   1.474311e+05   4.863793e-26   0.000000e+00   0.000000e+00
     3136000   3.135999e-06   3.852046e+01   2.424896e+01   6.869771e-02   9.542470e+04   5.725996e+04  -9.670235e+04   9.928095e+09   2.110260e+11   1.347502e+11   1.474311e+05   4.862826e-26   0.000000e+00   0.000000e+00
     3144000   3.143999e-06   3.852123e+01   2.424943e+01   6.792844e-02   9.550358e+04   5.893863e+04  -9.560974e+04   9.793558e+09   2.086315e+11   1.383929e+11   1.474311e+05   4.861851e-26   0.000000e+00   0.000000e+00
     3152000   3.151999e-06   3.852199e+01   2.424991e+01   6.716803e-02   9.558138e+04   6.059789e+04  -9.448817e+04   9.656124e+09   2.061743e+11   1.419925e+11   1.474311e+05   4.860870e-26   0.000000e+00   0.000000e+00
     3160000   3.159999e-06   3.852276e+01   2.425040e+01   6.641670e-02   9.565807e+04   6.223725e+04  -9.333798e+04   9.515847e+09   2.036552e+11   1.455479e+11   1.474311e+05   4.859883e-26   0.000000e+00   0.000000e+00
     3168000   3.167999e-06   3.852352e+01   2.425090e+01   6.567469e-02   9.573363e+04   6.385621e+04  -9.215952e+04   9.372784e+09   2.010751e+11   1.490581e+11   1.474311e+05   4.858889e-26   0.000000e+00   0.000000e+00
     3176000   3.175999e-06   3.852429e+01   2.425142e+01   6.494223e-02   9.580803e+04   6.545429e+04  -9.095317e+04   9.226990e+09   1.984347e+11   1.525220e+11   1.474311e+05   4.857887e-26   0.000000e+00   0.000000e+00
     3184000   3.183999e-06   3.852506e+01   2.425195e+01   6.421952e-02   9.588125e+04   6.703100e+04  -8.971929e+04   9.078523e+09   1.957348e+11   1.559386e+11   1.474311e+05   4.856879e-26   0.000000e+00   0.000000e+00
     3192000   3.191999e-06   3.852582e+01   2.425249e+01   6.350679e-02   9.595328e+04   6.858589e+04  -8.845828e+04   8.927441e+09   1.929764e+11   1.593069e+11   1.474311e+05   4.855865e-26   0.000000e+00   0.000000e+00
     3200000   3.199999e-06   3.852659e+01   2.425305e+01   6.280426e-02   9.602409e+04   7.011847e+04  -8.717051e+04   8.773803e+09   1.901603e+11   1.626259e+11   1.474311e+05   4.854843e-26   0.000000e+00   0.000000e+00
     3208000   3.207999e-06   3.852736e+01   2.425361e+01   6.211213e-02   9.609365e+04   7.162830e+04  -8.585639e+04   8.617670e+09   1.872873e+11   1.658946e+11   1.474311e+05   4.853814e-26   0.000000e+00   0.000000e+00
     3216000   3.215999e-06   3.852813e+01   2.425419e+01   6.143062e-02   9.616196e+04   7.311491e+04  -8.451633e+04   8.459102e+09   1.843583e+11   1.691120e+11   1.474311e+05   4.852778e-26   0.000000e+00   0.000000e+00
     3224000   3.223999e-06   3.852890e+01   2.425478e+01   6.075994e-02   9.622899e+04   7.457788e+04  -8.315074e+04   8.298160e+09   1.813744e+11   1.722772e+11   1.474311e+05   4.851735e-26   0.000000e+00   0.000000e+00
     3232000   3.231999e-06   3.852967e+01   2.425539e+01   6.010028e-02   9.629473e+04   7.601676e+04  -8.176003e+04   8.134907e+09   1.783363e+11   1.753893e+11   1.474311e+05   4.850685e-26   0.000000e+00   0.000000e+00
     3240000   3.239999e-06   3.853044e+01   2.425600e+01   5.945184e-02   9.635915e+04   7.743112e+04  -8.034465e+04   7.969406e+09   1.752450e+11   1.784472e+11   1.474311e+05   4.849628e-26   0.000000e+00   0.000000e+00
     3248000   3.247999e-06   3.853121e+01   2.425663e+01   5.881483e-02   9.642223e+04   7.882053e+04  -7.890502e+04   7.801720e+09   1.721016e+11   1.814503e+11   1.474311e+05   4.848565e-26   0.000000e+00   0.000000e+00
     3256000   3.255999e-06   3.853198e+01   2.425726e+01   5.818943e-02   9.648397e+04   8.018460e+04  -7.744159e+04   7.631913e+09   1.689069e+11   1.843974e+11   1.474311e+05   4.847494e-26   0.000000e+00   0.000000e+00
     3264000   3.263999e-06   3.853275e+01   2.425791e+01   5.757583e-02   9.654434e+04   8.152291e+04  -7.595481e+04   7.460051e+09   1.656620e+11   1.872878e+11   1.474311e+05   4.846416e-26   0.000000e+00   0.000000e+00
     3272000   3.271999e-06   3.853353e+01   2.425857e+01   5.697421e-02   9.660332e+04   8.283506e+04  -7.444514e+04   7.286199e+09   1.623678e+11   1.901207e+11   1.474311e+05   4.845331e-26   0.000000e+00   0.000000e+00
     3280000   3.279999e-06   3.853430e+01   2.425923e+01   5.638476e-02   9.666091e+04   8.412066e+04  -7.291303e+04   7.110421e+09   1.590255e+11   1.928951e+11   1.474311e+05   4.844240e-26   0.000000e+00   0.000000e+00
     3288000   3.287999e-06   3.853507e+01   2.425991e+01   5.580766e-02   9.671708e+04   8.537934e+04  -7.135897e+04   6.932786e+09   1.556359e+11   1.956103e+11   1.474311e+05   4.843142e-26   0.000000e+00   0.000000e+00
     3296000   3.295999e-06   3.853585e+01   2.426060e+01   5.524308e-02   9.677183e+04   8.661071e+04  -6.978343e+04   6.753359e+09   1.522003e+11   1.982655e+11   1.474311e+05   4.842037e-26   0.000000e+00   0.000000e+00
     3304000   3.303999e-06   3.853662e+01   2.426130e+01   5.469118e-02   9.682513e+04   8.781442e+04  -6.818688e+04   6.572209e+09   1.487195e+11   2.008599e+11   1.474311e+05   4.840925e-26   0.000000e+00   0.000000e+00
     3312000   3.311999e-06   3.853740e+01   2.426200e+01   5.415214e-02   9.687698e+04   8.899010e+04  -6.656983e+04   6.389401e+09   1.451947e+11   2.033927e+11   1.474311e+05   4.839807e-26   0.000000e+00   0.000000e+00
     3320000   3.319999e-06   3.853817e+01   2.426272e+01   5.362612e-02   9.692736e+04   9.013742e+04  -6.493276e+04   6.205005e+09   1.416271e+11   2.058633e+11   1.474311e+05   4.838683e-26   0.000000e+00   0.000000e+00
     3328000   3.327999e-06   3.853895e+01   2.426345e+01   5.311327e-02   9.697626e+04   9.125602e+04  -6.327618e+04   6.019088e+09   1.380176e+11   2.082708e+11   1.474311e+05   4.837552e-26   0.000000e+00   0.000000e+00
     3336000   3.335999e-06   3.853972e+01   2.426418e+01   5.261375e-02   9.702366e+04   9.234558e+04  -6.160060e+04   5.831719e+09   1.343674e+11   2.106146e+11   1.474311e+05   4.836414e-26   0.000000e+00   0.000000e+00
     3344000   3.343999e-06   3.854050e+01   2.426492e+01   5.212771e-02   9.706956e+04   9.340579e+04  -5.990652e+04   5.642967e+09   1.306776e+11   2.128941e+11   1.474311e+05   4.835271e-26   0.000000e+00   0.000000e+00
     3352000   3.351999e-06   3.854128e+01   2.426568e+01   5.165529e-02   9.711394e+04   9.443632e+04  -5.819446e+04   5.452901e+09   1.269494e+11   2.151084e+11   1.474311e+05   4.834122e-26   0.000000e+00   0.000000e+00
     3360000   3.359999e-06   3.854205e+01   2.426644e+01   5.119664e-02   9.715680e+04   9.543687e+04  -5.646496e+04   5.261590e+09   1.231838e+11   2.172571e+11   1.474311e+05   4.832967e-26   0.000000e+00   0.000000e+00
     3368000   3.367999e-06   3.854283e+01   2.426720e+01   5.075190e-02   9.719813e+04   9.640716e+04  -5.471852e+04   5.069102e+09   1.193821e+11   2.193395e+11   1.474311e+05   4.831806e-26   0.000000e+00   0.000000e+00
     3376000   3.375999e-06   3.854361e+01   2.426798e+01   5.032119e-02   9.723791e+04   9.734689e+04  -5.295570e+04   4.875508e+09   1.155454e+11   2.213550e+11   1.474311e+05   4.830639e-26   0.000000e+00   0.000000e+00
     3384000   3.383999e-06   3.854439e+01   2.426876e+01   4.990465e-02   9.727613e+04   9.825579e+04  -5.117702e+04   4.680877e+09   1.116749e+11   2.233030e+11   1.474311e+05   4.829467e-26   0.000000e+00   0.000000e+00
     3392000   3.391999e-06   3.854516e+01   2.426955e+01   4.950240e-02   9.731280e+04   9.913360e+04  -4.938303e+04   4.485278e+09   1.077718e+11   2.251829e+11   1.474311e+05   4.828290e-26   0.000000e+00   0.000000e+00
     3400000   3.399999e-06   3.854594e+01   2.427035e+01   4.911456e-02   9.734789e+04   9.998005e+04  -4.757428e+04   4.288781e+09   1.038372e+11   2.269943e+11   1.474311e+05   4.827108e-26   0.000000e+00   0.000000e+00
     3408000   3.407999e-06   3.854672e+01   2.427115e+01   4.874125e-02   9.738142e+04   1.007949e+05  -4.575131e+04   4.091454e+09   9.987235e+10   2.287365e+11   1.474311e+05   4.825921e-26   0.000000e+00   0.000000e+00
     3416000   3.415999e-06   3.854750e+01   2.427196e+01   4.838258e-02   9.741335e+04   1.015779e+05  -4.391468e+04   3.893369e+09   9.587850e+10   2.304092e+11   1.474311e+05   4.824729e-26   0.000000e+00   0.000000e+00
     3424000   3.423999e-06   3.854828e+01   2.427277e+01   4.803865e-02   9.744371e+04   1.023289e+05  -4.206495e+04   3.694592e+09   9.185684e+10   2.320117e+11   1.474311e+05   4.823532e-26   0.000000e+00   0.000000e+00
     3432000   3.431999e-06   3.854906e+01   2.427360e+01   4.770957e-02   9.747247e+04   1.030476e+05  -4.020268e+04   3.495195e+09   8.780860e+10   2.335438e+11   1.474311e+05   4.822331e-26   0.000000e+00   0.000000e+00
     3440000   3.439999e-06   3.854984e+01   2.427442e+01   4.739544e-02   9.749963e+04   1.037338e+05  -3.832843e+04   3.295245e+09   8.373500e+10   2.350049e+11   1.474311e+05   4.821126e-26   0.000000e+00   0.000000e+00
     3448000   3.447999e-06   3.855062e+01   2.427526e+01   4.709635e-02   9.752519e+04   1.043873e+05  -3.644279e+04   3.094812e+09   7.963730e+10   2.363946e+11   1.474311e+05   4.819917e-26   0.000000e+00   0.000000e+00
     3456000   3.455999e-06   3.855140e+01   2.427609e+01   4.681238e-02   9.754914e+04   1.050079e+05  -3.454631e+04   2.893964e+09   7.551672e+10   2.377126e+11   1.474311e+05   4.818704e-26   0.000000e+00   0.000000e+00
     3464000   3.463999e-06   3.855218e+01   2.427694e+01   4.654363e-02   9.757149e+04   1.055955e+05  -3.263958e+04   2.692770e+09   7.137454e+10   2.389585e+11   1.474311e+05   4.817488e-26   0.000000e+00   0.000000e+00
     3472000   3.471999e-06   3.855296e+01   2.427778e+01   4.629018e-02   9.759223e+04   1.061498e+05  -3.072317e+04   2.491297e+09   6.721201e+10   2.401319e+11   1.474311e+05   4.816268e-26   0.000000e+00   0.000000e+00
     3480000   3.479999e-06   3.855374e+01   2.427863e+01   4.605209e-02   9.761135e+04   1.066708e+05  -2.879766e+04   2.289613e+09   6.303038e+10   2.412325e+11   1.474311e+05   4.815046e-26   0.000000e+00   0.000000e+00
     3488000   3.487999e-06   3.855452e+01   2.427949e+01   4.582944e-02   9.762886e+04   1.071583e+05  -2.686364e+04   2.087785e+09   5.883094e+10   2.422600e+11   1.474311e+05   4.813820e-26   0.000000e+00   0.000000e+00
     3496000   3.495999e-06   3.855530e+01   2.428035e+01   4.562229e-02   9.764476e+04   1.076120e+05  -2.492169e+04   1.885882e+09   5.461494e+10   2.432142e+11   1.474311e+05   4.812592e-26   0.000000e+00   0.000000e+00
     3504000   3.503999e-06   3.855609e+01   2.428121e+01   4.543071e-02   9.765903e+04   1.080320e+05  -2.297241e+04   1.683968e+09   5.038368e+10   2.440948e+11   1.474311e+05   4.811361e-26   0.000000e+00   0.000000e+00
     3512000   3.511999e-06   3.855687e+01   2.428208e+01   4.525475e-02   9.767170e+04   1.084181e+05  -2.101637e+04   1.482111e+09   4.613843e+10   2.449015e+11   1.474311e+05   4.810128e-26   0.000000e+00   0.000000e+00
     3520000   3.519999e-06   3.855765e+01   2.428295e+01   4.509446e-02   9.768275e+04   1.087702e+05  -1.905418e+04   1.280376e+09   4.188048e+10   2.456341e+11   1.474311e+05   4.808894e-26   0.000000e+00   0.000000e+00
     3528000   3.527999e-06   3.855843e+01   2.428382e+01   4.494990e-02   9.769219e+04   1.090882e+05  -1.708642e+04   1.078828e+09   3.761111e+10   2.462925e+11   1.474311e+05   4.807657e-26   0.000000e+00   0.000000e+00
     3536000   3.535999e-06   3.855921e+01   2.428469e+01   4.482109e-02   9.770001e+04   1.093720e+05  -1.511370e+04   8.775329e+08   3.333162e+10   2.468765e+11   1.474311e+05   4.806419e-26   0.000000e+00   0.000000e+00
     3544000   3.543999e-06   3.855999e+01   2.428557e+01   4.470809e-02   9.770623e+04   1.096215e+05  -1.313660e+04   6.765543e+08   2.904329e+10   2.473860e+11   1.474312e+05   4.805180e-26   0.000000e+00   0.000000e+00
     3552000   3.551999e-06   3.856078e+01   2.428644e+01   4.461092e-02   9.771084e+04   1.098366e+05  -1.115572e+04   4.759562e+08   2.474743e+10   2.478207e+11   1.474312e+05   4.803940e-26   0.000000e+00   0.000000e+00
     3560000   3.559999e-06   3.856156e+01   2.428732e+01   4.452961e-02   9.771384e+04   1.100174e+05  -9.171665e+03   2.758016e+08   2.044534e+10   2.481807e+11   1.474312e+05   4.802700e-26   0.000000e+00   0.000000e+00
     3568000   3.567999e-06   3.856234e+01   2.428821e+01   4.446418e-02   9.771525e+04   1.101637e+05  -7.185029e+03   7.615335e+07   1.613830e+10   2.484659e+11   1.474312e+05   4.801459e-26   0.000000e+00   0.000000e+00
     3576000   3.575999e-06   3.856312e+01   2.428909e+01   4.441465e-02   9.771506e+04   1.102756e+05  -5.196411e+03  -1.229267e+08   1.182761e+10   2.486761e+11   1.474312e+05   4.800217e-26   0.000000e+00   0.000000e+00
     3584000   3.583999e-06   3.856390e+01   2.428997e+01   4.438104e-02   9.771328e+04   1.103530e+05  -3.206411e+03  -3.213770e+08   7.514581e+09   2.488114e+11   1.474312e+05   4.798976e-26   0.000000e+00   0.000000e+00
     3592000   3.591999e-06   3.856468e+01   2.429085e+01   4.436335e-02   9.770992e+04   1.103958e+05  -1.215629e+03  -5.191370e+08   3.200504e+09   2.488717e+11   1.474312e+05   4.797735e-26   0.000000e+00   0.000000e+00
     3600000   3.599999e-06   3.856547e+01   2.429174e+01   4.436159e-02   9.770498e+04   1.104042e+05   7.753371e+02  -7.161464e+08  -1.113320e+09   2.488572e+11   1.474312e+05   4.796495e-26   0.000000e+00   0.000000e+00
     3608000   3.607999e-06   3.856625e+01   2.429262e+01   4.437575e-02   9.769847e+04   1.103780e+05   2.765886e+03  -9.123459e+08  -5.425595e+09   2.487677e+11   1.474312e+05   4.795256e-26   0.000000e+00   0.000000e+00
     3616000   3.615999e-06   3.856703e+01   2.429350e+01   4.440584e-02   9.769038e+04   1.103174e+05   4.755421e+03  -1.107677e+09  -9.735026e+09   2.486034e+11   1.474312e+05   4.794018e-26   0.000000e+00   0.000000e+00
     3624000   3.623999e-06   3.856781e+01   2.429438e+01   4.445184e-02   9.768074e+04   1.102223e+05   6.743341e+03  -1.302081e+09  -1.404032e+10   2.483644e+11   1.474312e+05   4.792781e-26   0.000000e+00   0.000000e+00
     3632000   3.631999e-06   3.856859e+01   2.429527e+01   4.451373e-02   9.766955e+04   1.100927e+05   8.729051e+03  -1.495501e+09  -1.834017e+10   2.480507e+11   1.474312e+05   4.791546e-26   0.000000e+00   0.000000e+00
     3640000   3.639999e-06   3.856937e+01   2.429615e+01   4.459149e-02   9.765682e+04   1.099288e+05   1.071195e+04  -1.687881e+09  -2.263331e+10   2.476624e+11   1.474312e+05   4.790312e-26   0.000000e+00   0.000000e+00
     3648000   3.647999e-06   3.857015e+01   2.429702e+01   4.468511e-02   9.764255e+04   1.097306e+05   1.269145e+04  -1.879165e+09  -2.691844e+10   2.471999e+11   1.474312e+05   4.789081e-26   0.000000e+00   0.000000e+00
     3656000   3.655999e-06   3.857094e+01   2.429790e+01   4.479455e-02   9.762676e+04   1.094982e+05   1.466695e+04  -2.069297e+09  -3.119427e+10   2.466631e+11   1.474312e+05   4.787852e-26   0.000000e+00   0.000000e+00
     3664000   3.663999e-06   3.857172e+01   2.429878e+01   4.491977e-02   9.760944e+04   1.092315e+05   1.663786e+04  -2.258224e+09  -3.545952e+10   2.460523e+11   1.474312e+05   4.786626e-26   0.000000e+00   0.000000e+00
     3672000   3.671999e-06   3.857250e+01   2.429965e+01   4.506074e-02   9.759063e+04   1.089308e+05   1.860359e+04  -2.445893e+09  -3.971293e+10   2.453677e+11   1.474312e+05   4.785403e-26   0.000000e+00   0.000000e+00
     3680000   3.679999e-06   3.857328e+01   2.430052e+01   4.521741e-02   9.757038e+04   1.085960e+05   2.056392e+04  -2.618151e+09  -4.398167e+10   2.446883e+11   1.474312e+05   4.787354e-26   0.000000e+00   0.000000e+00
     3688000   3.687999e-06   3.857406e+01   2.430139e+01   4.538975e-02   9.754869e+04   1.082273e+05   2.251816e+04  -2.803382e+09  -4.821058e+10   2.438577e+11   1.474312e+05   4.786202e-26   0.000000e+00   0.000000e+00
     3696000   3.695999e-06   3.857484e+01   2.430225e+01   4.557768e-02   9.752553e+04   1.078247e+05   2.446545e+04  -2.987220e+09  -5.242389e+10   2.429541e+11   1.474312e+05   4.785053e-26   0.000000e+00   0.000000e+00
     3704000   3.703999e-06   3.857562e+01   2.430311e+01   4.578117e-02   9.750090e+04   1.073885e+05   2.640523e+04  -3.169618e+09  -5.662033e+10   2.419777e+11   1.474312e+05   4.783909e-26   0.000000e+00   0.000000e+00
     3712000   3.711999e-06   3.857640e+01   2.430397e+01   4.600015e-02   9.747482e+04   1.069188e+05   2.833690e+04  -3.350524e+09  -6.079866e+10   2.409288e+11   1.474312e+05   4.782768e-26   0.000000e+00   0.000000e+00
     3720000   3.719999e-06   3.857718e+01   2.430482e+01   4.623454e-02   9.744730e+04   1.064158e+05   3.025989e+04  -3.529891e+09  -6.495763e+10   2.398077e+11   1.474312e+05   4.781632e-26   0.000000e+00   0.000000e+00
     3728000   3.727999e-06   3.857796e+01   2.430567e+01   4.648428e-02   9.741835e+04   1.058795e+05   3.217363e+04  -3.707671e+09  -6.909599e+10   2.386149e+11   1.474312e+05   4.780500e-26   0.000000e+00   0.000000e+00
     3736000   3.735999e-06   3.857874e+01   2.430652e+01   4.674929e-02   9.738798e+04   1.053103e+05   3.407754e+04  -3.883818e+09  -7.321251e+10   2.373507e+11   1.474312e+05   4.779372e-26   0.000000e+00   0.000000e+00
     3744000   3.743999e-06   3.857952e+01   2.430736e+01   4.702949e-02   9.735621e+04   1.047082e+05   3.597105e+04  -4.058285e+09  -7.730595e+10   2.360156e+11   1.474312e+05   4.778250e-26   0.000000e+00   0.000000e+00
     3752000   3.751999e-06   3.858029e+01   2.430819e+01   4.732480e-02   9.732305e+04   1.040735e+05   3.785360e+04  -4.231029e+09  -8.137511e+10   2.346099e+11   1.474312e+05   4.777132e-26   0.000000e+00   0.000000e+00
     3760000   3.759999e-06   3.858107e+01   2.430902e+01   4.763512e-02   9.728852e+04   1.034063e+05   3.972462e+04  -4.402005e+09  -8.541877e+10   2.331341e+11   1.474312e+05   4.776019e-26   0.000000e+00   0.000000e+00
     3768000   3.767999e-06   3.858185e+01   2.430985e+01   4.796036e-02   9.725262e+04   1.027068e+05   4.158356e+04  -4.571170e+09  -8.943572e+10   2.315886e+11   1.474312e+05   4.774912e-26   0.000000e+00   0.000000e+00
     3776000   3.775999e-06   3.858263e+01   2.431066e+01   4.830042e-02   9.721538e+04   1.019754e+05   4.342985e+04  -4.738482e+09  -9.342477e+10   2.299741e+11   1.474312e+05   4.773810e-26   0.000000e+00   0.000000e+00
     3784000   3.783999e-06   3.858341e+01   2.431148e+01   4.865520e-02   9.717681e+04   1.012121e+05   4.526296e+04  -4.903899e+09  -9.738473e+10   2.282909e+11   1.474312e+05   4.772714e-26   0.000000e+00   0.000000e+00
     3792000   3.791999e-06   3.858418e+01   2.431228e+01   4.902459e-02   9.713693e+04   1.004173e+05   4.708232e+04  -5.067380e+09  -1.013144e+11   2.265396e+11   1.474312e+05   4.771624e-26   0.000000e+00   0.000000e+00
     3800000   3.799999e-06   3.858496e+01   2.431308e+01   4.940848e-02   9.709574e+04   9.959116e+04   4.888741e+04  -5.228887e+09  -1.052127e+11   2.247208e+11   1.474312e+05   4.770540e-26   0.000000e+00   0.000000e+00
     3808000   3.807999e-06   3.858574e+01   2.431388e+01   4.980675e-02   9.705327e+04   9.873397e+04   5.067768e+04  -5.388381e+09  -1.090784e+11   2.228350e+11   1.474312e+05   4.769462e-26   0.000000e+00   0.000000e+00
     3816000   3.815999e-06   3.858651e+01   2.431466e+01   5.021928e-02   9.700953e+04   9.784599e+04   5.245259e+04  -5.545823e+09  -1.129103e+11   2.208828e+11   1.474312e+05   4.768390e-26   0.000000e+00   0.000000e+00
     3824000   3.823999e-06   3.858729e+01   2.431544e+01   5.064595e-02   9.696454e+04   9.692749e+04   5.421163e+04  -5.701176e+09  -1.167073e+11   2.188649e+11   1.474312e+05   4.767325e-26   0.000000e+00   0.000000e+00
     3832000   3.831999e-06   3.858806e+01   2.431621e+01   5.108663e-02   9.691832e+04   9.597876e+04   5.595425e+04  -5.854406e+09  -1.204684e+11   2.167819e+11   1.474312e+05   4.766266e-26   0.000000e+00   0.000000e+00
     3840000   3.839999e-06   3.858884e+01   2.431698e+01   5.154117e-02   9.687088e+04   9.500009e+04   5.767996e+04  -6.005475e+09  -1.241923e+11   2.146343e+11   1.474312e+05   4.765214e-26   0.000000e+00   0.000000e+00
     3848000   3.847999e-06   3.858961e+01   2.431773e+01   5.200946e-02   9.682224e+04   9.399178e+04   5.938823e+04  -6.154351e+09  -1.278781e+11   2.124230e+11   1.474312e+05   4.764169e-26   0.000000e+00   0.000000e+00
     3856000   3.855999e-06   3.859039e+01   2.431848e+01   5.249134e-02   9.677241e+04   9.295415e+04   6.107856e+04  -6.300999e+09  -1.315245e+11   2.101485e+11   1.474312e+05   4.763130e-26   0.000000e+00   0.000000e+00
     3864000   3.863999e-06   3.859116e+01   2.431922e+01   5.298667e-02   9.672143e+04   9.188750e+04   6.275044e+04  -6.445388e+09  -1.351305e+11   2.078117e+11   1.474312e+05   4.762099e-26   0.000000e+00   0.000000e+00
     3872000   3.871999e-06   3.859194e+01   2.431995e+01   5.349530e-02   9.666929e+04   9.079217e+04   6.440338e+04  -6.587484e+09  -1.386951e+11   2.054131e+11   1.474312e+05   4.761075e-26   0.000000e+00   0.000000e+00
     3880000   3.879999e-06   3.859271e+01   2.432067e+01   5.401707e-02   9.661603e+04   8.966849e+04   6.603688e+04  -6.727259e+09  -1.422172e+11   2.029535e+11   1.474312e+05   4.760058e-26   0.000000e+00   0.000000e+00
     3888000   3.887999e-06   3.859348e+01   2.432139e+01   5.455183e-02   9.656166e+04   8.851680e+04   6.765047e+04  -6.864681e+09  -1.456957e+11   2.004338e+11   1.474312e+05   4.759048e-26   0.000000e+00   0.000000e+00
     3896000   3.895999e-06   3.859425e+01   2.432209e+01   5.509942e-02   9.650620e+04   8.733747e+04   6.924366e+04  -6.999721e+09  -1.491296e+11   1.978547e+11   1.474312e+05   4.758045e-26   0.000000e+00   0.000000e+00
     3904000   3.903999e-06   3.859503e+01   2.432278e+01   5.565968e-02   9.644967e+04   8.613085e+04   7.081599e+04  -7.132351e+09  -1.525180e+11   1.952169e+11   1.474312e+05   4.757050e-26   0.000000e+00   0.000000e+00
     3912000   3.911999e-06   3.859580e+01   2.432347e+01   5.623242e-02   9.639209e+04   8.489730e+04   7.236698e+04  -7.262544e+09  -1.558598e+11   1.925214e+11   1.474312e+05   4.756062e-26   0.000000e+00   0.000000e+00
     3920000   3.919999e-06   3.859657e+01   2.432414e+01   5.681749e-02   9.633348e+04   8.363721e+04   7.389618e+04  -7.390273e+09  -1.591541e+11   1.897689e+11   1.474312e+05   4.755081e-26   0.000000e+00   0.000000e+00
     3928000   3.927999e-06   3.859734e+01   2.432481e+01   5.741470e-02   9.627385e+04   8.235096e+04   7.540313e+04  -7.515512e+09  -1.623998e+11   1.869602e+11   1.474312e+05   4.754108e-26   0.000000e+00   0.000000e+00
     3936000   3.935999e-06   3.859811e+01   2.432546e+01   5.802388e-02   9.621324e+04   8.103895e+04   7.688739e+04  -7.638237e+09  -1.655960e+11   1.840963e+11   1.474312e+05   4.753142e-26   0.000000e+00   0.000000e+00
     3944000   3.943999e-06   3.859888e+01   2.432610e+01   5.864484e-02   9.615165e+04   7.970156e+04   7.834852e+04  -7.758423e+09  -1.687418e+11   1.811780e+11   1.474312e+05   4.752184e-26   0.000000e+00   0.000000e+00
     3952000   3.951999e-06   3.859965e+01   2.432673e+01   5.927739e-02   9.608911e+04   7.833921e+04   7.978609e+04  -7.876047e+09  -1.718362e+11   1.782062e+11   1.474312e+05   4.751234e-26   0.000000e+00   0.000000e+00
     3960000   3.959999e-06   3.860042e+01   2.432736e+01   5.992135e-02   9.602553e+04   7.695245e+04   8.119969e+04  -8.017248e+09  -1.748475e+11   1.751838e+11   1.474312e+05   4.749539e-26   0.000000e+00   0.000000e+00
     3968000   3.967999e-06   3.860118e+01   2.432797e+01   6.057652e-02   9.596094e+04   7.554168e+04   8.258888e+04  -8.129848e+09  -1.778351e+11   1.721076e+11   1.474312e+05   4.748544e-26   0.000000e+00   0.000000e+00
     3976000   3.975999e-06   3.860195e+01   2.432856e+01   6.124271e-02   9.589546e+04   7.410723e+04   8.395327e+04  -8.239795e+09  -1.807687e+11   1.689807e+11   1.474312e+05   4.747557e-26   0.000000e+00   0.000000e+00
     3984000   3.983999e-06   3.860272e+01   2.432915e+01   6.191971e-02   9.582911e+04   7.264953e+04   8.529244e+04  -8.347068e+09  -1.836473e+11   1.658042e+11   1.474312e+05   4.746578e-26   0.000000e+00   0.000000e+00
     3992000   3.991999e-06   3.860348e+01   2.432973e+01   6.260732e-02   9.576191e+04   7.116902e+04   8.660600e+04  -8.451647e+09  -1.864703e+11   1.625789e+11   1.474312e+05   4.745606e-26   0.000000e+00   0.000000e+00
     4000000   3.999999e-06   3.860425e+01   2.433029e+01   6.330533e-02   9.569389e+04   6.966615e+04   8.789357e+04  -8.553514e+09  -1.892367e+11   1.593060e+11   1.474312e+05   4.744643e-26   0.000000e+00   0.000000e+00
     4008000   4.007999e-06   3.860502e+01   2.433084e+01   6.401354e-02   9.562506e+04   6.814138e+04   8.915477e+04  -8.652649e+09  -1.919457e+11   1.559862e+11   1.474312e+05   4.743687e-26   0.000000e+00   0.000000e+00
     4016000   4.015999e-06   3.860578e+01   2.433138e+01   6.473174e-02   9.555545e+04   6.659517e+04   9.038923e+04  -8.749036e+09  -1.945966e+11   1.526207e+11   1.474312e+05   4.742738e-26   0.000000e+00   0.000000e+00
     4024000   4.023999e-06   3.860654e+01   2.433191e+01   6.545970e-02   9.548508e+04   6.502799e+04   9.159658e+04  -8.842657e+09  -1.971886e+11   1.492106e+11   1.474313e+05   4.741797e-26   0.000000e+00   0.000000e+00
     4032000   4.031999e-06   3.860731e+01   2.433242e+01   6.619721e-02   9.541398e+04   6.344031e+04   9.277648e+04  -8.933497e+09  -1.997209e+11   1.457567e+11   1.474313e+05   4.740863e-26   0.000000e+00   0.000000e+00
     4040000   4.039999e-06   3.860807e+01   2.433292e+01   6.694405e-02   9.534215e+04   6.183261e+04   9.392857e+04  -9.021541e+09  -2.021928e+11   1.422603e+11   1.474313e+05   4.739937e-26   0.000000e+00   0.000000e+00
     4048000   4.047999e-06   3.860883e+01   2.433341e+01   6.769999e-02   9.526964e+04   6.020539e+04   9.505253e+04  -9.106774e+09  -2.046036e+11   1.387222e+11   1.474313e+05   4.739019e-26   0.000000e+00   0.000000e+00
     4056000   4.055999e-06   3.860960e+01   2.433388e+01   6.846481e-02   9.519645e+04   5.855912e+04   9.614801e+04  -9.189182e+09  -2.069526e+11   1.351437e+11   1.474313e+05   4.738107e-26   0.000000e+00   0.000000e+00
     4064000   4.063999e-06   3.861036e+01   2.433435e+01   6.923828e-02   9.512262e+04   5.689431e+04   9.721472e+04  -9.268753e+09  -2.092392e+11   1.315258e+11   1.474313e+05   4.737203e-26   0.000000e+00   0.000000e+00
     4072000   4.071999e-06   3.861112e+01   2.433480e+01   7.002017e-02   9.504816e+04   5.521146e+04   9.825232e+04  -9.345473e+09  -2.114626e+11   1.278696e+11   1.474313e+05   4.736305e-26   0.000000e+00   0.000000e+00
     4080000   4.079999e-06   3.861188e+01   2.433523e+01   7.081024e-02   9.497310e+04   5.351107e+04   9.926053e+04  -9.419331e+09  -2.136222e+11   1.241762e+11   1.474313e+05   4.735415e-26   0.000000e+00   0.000000e+00
     4088000   4.087999e-06   3.861264e+01   2.433565e+01   7.160826e-02   9.489746e+04   5.179367e+04   1.002390e+05  -9.490317e+09  -2.157174e+11   1.204467e+11   1.474313e+05   4.734531e-26   0.000000e+00   0.000000e+00
     4096000   4.095999e-06   3.861340e+01   2.433606e+01   7.241399e-02   9.482126e+04   5.005977e+04   1.011876e+05  -9.558420e+09  -2.177476e+11   1.166823e+11   1.474313e+05   4.733654e-26   0.000000e+00   0.000000e+00
     4104000   4.103999e-06   3.861415e+01   2.433645e+01   7.322718e-02   9.474453e+04   4.830988e+04   1.021059e+05  -9.623630e+09  -2.197123e+11   1.128840e+11   1.474313e+05   4.732783e-26   0.000000e+00   0.000000e+00
     4112000   4.111999e-06   3.861491e+01   2.433683e+01   7.404760e-02   9.466729e+04   4.654455e+04   1.029936e+05  -9.685938e+09  -2.216108e+11   1.090531e+11   1.474313e+05   4.731919e-26   0.000000e+00   0.000000e+00
     4120000   4.119999e-06   3.861567e+01   2.433720e+01   7.487500e-02   9.458956e+04   4.476429e+04   1.038506e+05  -9.745337e+09  -2.234427e+11   1.051907e+11   1.474313e+05   4.731061e-26   0.000000e+00   0.000000e+00
     4128000   4.127999e-06   3.861643e+01   2.433755e+01   7.570913e-02   9.451137e+04   4.296964e+04   1.046766e+05  -9.801817e+09  -2.252073e+11   1.012979e+11   1.474313e+05   4.730209e-26   0.000000e+00   0.000000e+00
     4136000   4.135999e-06   3.861718e+01   2.433788e+01   7.654974e-02   9.443274e+04   4.116115e+04   1.054713e+05  -9.855373e+09  -2.269043e+11   9.737597e+10   1.474313e+05   4.729363e-26   0.000000e+00   0.000000e+00
     4144000   4.143999e-06   3.861794e+01   2.433821e+01   7.739658e-02   9.435370e+04   3.933935e+04   1.062345e+05  -9.905998e+09  -2.285330e+11   9.342602e+10   1.474313e+05   4.728523e-26   0.000000e+00   0.000000e+00
     4152000   4.151999e-06   3.861869e+01   2.433851e+01   7.824941e-02   9.427426e+04   3.750480e+04   1.069661e+05  -9.953686e+09  -2.300932e+11   8.944928e+10   1.474313e+05   4.727688e-26   0.000000e+00   0.000000e+00
     4160000   4.159999e-06   3.861944e+01   2.433881e+01   7.910796e-02   9.419444e+04   3.565804e+04   1.076657e+05  -9.998432e+09  -2.315843e+11   8.544693e+10   1.474313e+05   4.726859e-26   0.000000e+00   0.000000e+00
     4168000   4.167999e-06   3.862020e+01   2.433908e+01   7.997197e-02   9.411429e+04   3.379964e+04   1.083331e+05  -1.004023e+10  -2.330058e+11   8.142017e+10   1.474313e+05   4.726035e-26   0.000000e+00   0.000000e+00
     4176000   4.175999e-06   3.862095e+01   2.433935e+01   8.084120e-02   9.403381e+04   3.193014e+04   1.089683e+05  -1.007908e+10  -2.343575e+11   7.737023e+10   1.474313e+05   4.725216e-26   0.000000e+00   0.000000e+00
     4184000   4.183999e-06   3.862170e+01   2.433960e+01   8.171538e-02   9.395303e+04   3.005010e+04   1.095710e+05  -1.011497e+10  -2.356390e+11   7.329830e+10   1.474313e+05   4.724401e-26   0.000000e+00   0.000000e+00
     4192000   4.191999e-06   3.862245e+01   2.433983e+01   8.259425e-02   9.387198e+04   2.816010e+04   1.101410e+05  -1.014791e+10  -2.368498e+11   6.920563e+10   1.474313e+05   4.723592e-26   0.000000e+00   0.000000e+00
     4200000   4.199999e-06   3.862320e+01   2.434005e+01   8.347755e-02   9.379067e+04   2.626069e+04   1.106782e+05  -1.017788e+10  -2.379897e+11   6.509343e+10   1.474313e+05   4.722786e-26   0.000000e+00   0.000000e+00
     4208000   4.207999e-06   3.862395e+01   2.434025e+01   8.436501e-02   9.370914e+04   2.435245e+04   1.111825e+05  -1.020490e+10  -2.390583e+11   6.096293e+10   1.474313e+05   4.721985e-26   0.000000e+00   0.000000e+00
     4216000   4.215999e-06   3.862470e+01   2.434044e+01   8.525638e-02   9.362740e+04   2.243595e+04   1.116536e+05  -1.022895e+10  -2.400553e+11   5.681538e+10   1.474313e+05   4.721188e-26   0.000000e+00   0.000000e+00
     4224000   4.223999e-06   3.862545e+01   2.434061e+01   8.615138e-02   9.354548e+04   2.051176e+04   1.120915e+05  -1.025004e+10  -2.409806e+11   5.265202e+10   1.474313e+05   4.720395e-26   0.000000e+00   0.000000e+00
     4232000   4.231999e-06   3.862620e+01   2.434076e+01   8.704975e-02   9.346341e+04   1.858045e+04   1.124960e+05  -1.026817e+10  -2.418338e+11   4.847409e+10   1.474313e+05   4.719605e-26   0.000000e+00   0.000000e+00
     4240000   4.239999e-06   3.862695e+01   2.434090e+01   8.795123e-02   9.338120e+04   1.664261e+04   1.128670e+05  -1.028333e+10  -2.426146e+11   4.428284e+10   1.474313e+05   4.718818e-26   0.000000e+00   0.000000e+00
     4248000   4.247999e-06   3.862769e+01   2.434103e+01   8.885554e-02   9.329888e+04   1.469881e+04   1.132045e+05  -1.029554e+10  -2.433230e+11   4.007953e+10   1.474313e+05   4.718035e-26   0.000000e+00   0.000000e+00
     4256000   4.255999e-06   3.862844e+01   2.434114e+01   8.976241e-02   9.321648e+04   1.274963e+04   1.135082e+05  -1.030478e+10  -2.439587e+11   3.586542e+10   1.474313e+05   4.717254e-26   0.000000e+00   0.000000e+00
     4264000   4.263999e-06   3.862919e+01   2.434123e+01   9.067158e-02   9.313401e+04   1.079566e+04   1.137783e+05  -1.031106e+10  -2.445216e+11   3.164175e+10   1.474313e+05   4.716476e-26   0.000000e+00   0.000000e+00
     4272000   4.271999e-06   3.862993e+01   2.434131e+01   9.158277e-02   9.305151e+04   8.837483e+03   1.140145e+05  -1.031439e+10  -2.450115e+11   2.740981e+10   1.474313e+05   4.715700e-26   0.000000e+00   0.000000e+00
     4280000   4.279999e-06   3.863068e+01   2.434138e+01   9.249572e-02   9.296899e+04   6.875675e+03   1.142168e+05  -1.031476e+10  -2.454283e+11   2.317083e+10   1.474313e+05   4.714926e-26   0.000000e+00   0.000000e+00
     4288000   4.287999e-06   3.863142e+01   2.434142e+01   9.341015e-02   9.288648e+04   4.910826e+03   1.143852e+05  -1.031219e+10  -2.457719e+11   1.892610e+10   1.474313e+05   4.714155e-26   0.000000e+00   0.000000e+00
