     timestep     time              x             y              z              vx             vy             vz             ax             ay             az         v_magnitude      ELoss        Electronic      Nuclear
           0   0.000000e+00   3.376752e+01   1.661868e+01   1.000000e-01   1.155996e+05  -1.396169e+05  -2.360904e+05   0.000000e+00   0.000000e+00   0.000000e+00   2.976488e+05   0.000000e+00   0.000000e+00   0.000000e+00
        8000   7.999000e-09   3.376846e+01   1.661758e+01   9.810957e-02   1.188064e+05  -1.361853e+05  -2.365024e+05   4.011899e+11   4.292753e+11  -4.565453e+10   2.976488e+05   1.096390e-24   0.000000e+00   0.000000e+00
       16000   1.599900e-08   3.376942e+01   1.661650e+01   9.621621e-02   1.220182e+05  -1.327489e+05  -2.368208e+05   4.017329e+11   4.297966e+11  -3.393558e+10   2.976488e+05   1.096236e-24   0.000000e+00   0.000000e+00
       24000   2.399900e-08   3.377041e+01   1.661546e+01   9.432068e-02   1.252337e+05  -1.293090e+05  -2.370454e+05   4.021146e+11   4.301490e+11  -2.220754e+10   2.976488e+05   1.096083e-24   0.000000e+00   0.000000e+00
       32000   3.199900e-08   3.377142e+01   1.661444e+01   9.242374e-02   1.284516e+05  -1.258670e+05  -2.371761e+05   4.023348e+11   4.303325e+11  -1.047506e+10   2.976488e+05   1.095930e-24   0.000000e+00   0.000000e+00
       40000   3.999900e-08   3.377246e+01   1.661344e+01   9.052612e-02   1.316707e+05  -1.224242e+05  -2.372129e+05   4.023937e+11   4.303469e+11   1.257209e+09   2.976488e+05   1.095777e-24   0.000000e+00   0.000000e+00
       48000   4.799900e-08   3.377353e+01   1.661248e+01   8.862858e-02   1.348895e+05  -1.189819e+05  -2.371560e+05   4.022911e+11   4.301925e+11   1.298460e+10   2.976488e+05   1.095625e-24   0.000000e+00   0.000000e+00
       56000   5.599900e-08   3.377462e+01   1.661154e+01   8.673187e-02   1.381069e+05  -1.155415e+05  -2.370052e+05   4.020273e+11   4.298694e+11   2.470248e+10   2.976488e+05   1.095472e-24   0.000000e+00   0.000000e+00
       64000   6.399900e-08   3.377574e+01   1.661063e+01   8.483675e-02   1.413215e+05  -1.121044e+05  -2.367608e+05   4.016025e+11   4.293779e+11   3.640620e+10   2.976488e+05   1.095319e-24   0.000000e+00   0.000000e+00
       72000   7.199900e-08   3.377688e+01   1.660974e+01   8.294395e-02   1.445321e+05  -1.086719e+05  -2.364227e+05   4.010169e+11   4.287181e+11   4.809113e+10   2.976488e+05   1.095164e-24   0.000000e+00   0.000000e+00
       80000   7.999900e-08   3.377805e+01   1.660889e+01   8.105423e-02   1.477374e+05  -1.052454e+05  -2.359913e+05   4.002708e+11   4.278904e+11   5.975265e+10   2.976488e+05   1.095009e-24   0.000000e+00   0.000000e+00
       88000   8.799900e-08   3.377925e+01   1.660806e+01   7.916834e-02   1.509360e+05  -1.018261e+05  -2.354668e+05   3.993647e+11   4.268953e+11   7.138616e+10   2.976489e+05   1.094853e-24   0.000000e+00   0.000000e+00
       96000   9.599900e-08   3.378047e+01   1.660726e+01   7.728701e-02   1.541268e+05  -9.841552e+04  -2.348492e+05   3.982991e+11   4.257332e+11   8.298705e+10   2.976489e+05   1.094695e-24   0.000000e+00   0.000000e+00
      104000   1.039990e-07   3.378171e+01   1.660649e+01   7.541100e-02   1.573084e+05  -9.501486e+04  -2.341391e+05   3.970744e+11   4.244047e+11   9.455076e+10   2.976489e+05   1.094536e-24   0.000000e+00   0.000000e+00
      112000   1.119990e-07   3.378298e+01   1.660574e+01   7.354103e-02   1.604795e+05  -9.162549e+04  -2.333365e+05   3.956913e+11   4.229103e+11   1.060727e+11   2.976489e+05   1.094374e-24   0.000000e+00   0.000000e+00
      120000   1.199990e-07   3.378428e+01   1.660502e+01   7.167786e-02   1.636390e+05  -8.824873e+04  -2.324420e+05   3.941504e+11   4.212507e+11   1.175484e+11   2.976489e+05   1.094211e-24   0.000000e+00   0.000000e+00
      128000   1.279990e-07   3.378560e+01   1.660433e+01   6.982220e-02   1.667855e+05  -8.488592e+04  -2.314559e+05   3.924524e+11   4.194266e+11   1.289733e+11   2.976489e+05   1.094045e-24   0.000000e+00   0.000000e+00
      136000   1.359990e-07   3.378695e+01   1.660366e+01   6.797481e-02   1.699178e+05  -8.153835e+04  -2.303786e+05   3.905983e+11   4.174389e+11   1.403429e+11   2.976489e+05   1.093876e-24   0.000000e+00   0.000000e+00
      144000   1.439990e-07   3.378832e+01   1.660302e+01   6.613639e-02   1.730347e+05  -7.820733e+04  -2.292105e+05   3.885887e+11   4.152882e+11   1.516527e+11   2.976489e+05   1.093705e-24   0.000000e+00   0.000000e+00
      152000   1.519990e-07   3.378972e+01   1.660241e+01   6.430768e-02   1.761348e+05  -7.489417e+04  -2.279523e+05   3.864247e+11   4.129756e+11   1.628983e+11   2.976489e+05   1.093530e-24   0.000000e+00   0.000000e+00
      160000   1.599990e-07   3.379114e+01   1.660182e+01   6.248939e-02   1.792171e+05  -7.160015e+04  -2.266043e+05   3.841072e+11   4.105020e+11   1.740753e+11   2.976489e+05   1.093353e-24   0.000000e+00   0.000000e+00
      168000   1.679990e-07   3.379258e+01   1.660126e+01   6.068225e-02   1.822801e+05  -6.832657e+04  -2.251673e+05   3.816374e+11   4.078684e+11   1.851793e+11   2.976489e+05   1.093172e-24   0.000000e+00   0.000000e+00
      176000   1.759990e-07   3.379405e+01   1.660073e+01   5.888695e-02   1.853228e+05  -6.507468e+04  -2.236417e+05   3.790162e+11   4.050760e+11   1.962059e+11   2.976489e+05   1.092987e-24   0.000000e+00   0.000000e+00
      184000   1.839990e-07   3.379555e+01   1.660022e+01   5.710421e-02   1.883440e+05  -6.184577e+04  -2.220282e+05   3.762449e+11   4.021258e+11   2.071509e+11   2.976489e+05   1.092798e-24   0.000000e+00   0.000000e+00
      192000   1.919990e-07   3.379707e+01   1.659974e+01   5.533473e-02   1.913422e+05  -5.864104e+04  -2.203277e+05   3.732751e+11   3.990303e+11   2.179633e+11   2.976489e+05   1.092453e-24   0.000000e+00   0.000000e+00
      200000   1.999990e-07   3.379861e+01   1.659929e+01   5.357920e-02   1.943162e+05  -5.546175e+04  -2.185408e+05   3.702087e+11   3.957669e+11   2.287319e+11   2.976489e+05   1.092254e-24   0.000000e+00   0.000000e+00
      208000   2.079990e-07   3.380018e+01   1.659885e+01   5.183831e-02   1.972652e+05  -5.230913e+04  -2.166682e+05   3.670609e+11   3.924107e+11   2.394506e+11   2.976489e+05   1.092419e-24   0.000000e+00   0.000000e+00
      216000   2.159990e-07   3.380177e+01   1.659845e+01   5.011274e-02   2.001883e+05  -4.918403e+04  -2.147102e+05   3.637004e+11   3.888395e+11   2.500279e+11   2.976489e+05   1.092203e-24   0.000000e+00   0.000000e+00
      224000   2.239990e-07   3.380338e+01   1.659807e+01   4.840317e-02   2.030840e+05  -4.608811e+04  -2.126680e+05   3.601967e+11   3.851171e+11   2.605024e+11   2.976489e+05   1.091983e-24   0.000000e+00   0.000000e+00
      232000   2.319990e-07   3.380502e+01   1.659771e+01   4.671027e-02   2.059511e+05  -4.302256e+04  -2.105424e+05   3.565513e+11   3.812450e+11   2.708700e+11   2.976489e+05   1.091758e-24   0.000000e+00   0.000000e+00
      240000   2.399990e-07   3.380668e+01   1.659738e+01   4.503471e-02   2.087884e+05  -3.998859e+04  -2.083343e+05   3.527657e+11   3.772246e+11   2.811268e+11   2.976489e+05   1.091528e-24   0.000000e+00   0.000000e+00
      248000   2.479990e-07   3.380836e+01   1.659707e+01   4.337714e-02   2.115949e+05  -3.698736e+04  -2.060447e+05   3.488417e+11   3.730577e+11   2.912688e+11   2.976489e+05   1.091294e-24   0.000000e+00   0.000000e+00
      256000   2.559990e-07   3.381006e+01   1.659679e+01   4.173821e-02   2.143695e+05  -3.402005e+04  -2.036744e+05   3.447810e+11   3.687458e+11   3.012919e+11   2.976489e+05   1.091054e-24   0.000000e+00   0.000000e+00
      264000   2.639990e-07   3.381179e+01   1.659653e+01   4.011856e-02   2.171111e+05  -3.108781e+04  -2.012243e+05   3.405852e+11   3.642908e+11   3.111923e+11   2.976490e+05   1.090810e-24   0.000000e+00   0.000000e+00
      272000   2.719990e-07   3.381353e+01   1.659629e+01   3.851883e-02   2.198185e+05  -2.819178e+04  -1.986956e+05   3.362563e+11   3.596943e+11   3.209663e+11   2.976490e+05   1.090560e-24   0.000000e+00   0.000000e+00
      280000   2.799990e-07   3.381530e+01   1.659608e+01   3.693964e-02   2.224908e+05  -2.533308e+04  -1.960892e+05   3.317960e+11   3.549581e+11   3.306099e+11   2.976490e+05   1.090305e-24   0.000000e+00   0.000000e+00
      288000   2.879990e-07   3.381709e+01   1.659588e+01   3.538161e-02   2.251269e+05  -2.251282e+04  -1.934062e+05   3.272064e+11   3.500842e+11   3.401196e+11   2.976490e+05   1.090044e-24   0.000000e+00   0.000000e+00
      296000   2.959990e-07   3.381891e+01   1.659571e+01   3.384534e-02   2.277258e+05  -1.973210e+04  -1.906477e+05   3.224893e+11   3.450745e+11   3.494915e+11   2.976490e+05   1.089779e-24   0.000000e+00   0.000000e+00
      304000   3.039990e-07   3.382074e+01   1.659557e+01   3.233144e-02   2.302864e+05  -1.699199e+04  -1.878147e+05   3.176468e+11   3.399309e+11   3.587221e+11   2.976490e+05   1.089507e-24   0.000000e+00   0.000000e+00
      312000   3.119990e-07   3.382259e+01   1.659544e+01   3.084050e-02   2.328078e+05  -1.429356e+04  -1.849085e+05   3.126809e+11   3.346555e+11   3.678078e+11   2.976490e+05   1.089230e-24   0.000000e+00   0.000000e+00
      320000   3.199990e-07   3.382446e+01   1.659534e+01   2.937310e-02   2.352890e+05  -1.163786e+04  -1.819302e+05   3.075938e+11   3.292503e+11   3.767452e+11   2.976490e+05   1.088947e-24   0.000000e+00   0.000000e+00
      328000   3.279990e-07   3.382635e+01   1.659526e+01   2.792981e-02   2.377290e+05  -9.025905e+03  -1.788809e+05   3.023876e+11   3.237175e+11   3.855307e+11   2.976490e+05   1.088659e-24   0.000000e+00   0.000000e+00
      336000   3.359990e-07   3.382827e+01   1.659519e+01   2.651119e-02   2.401268e+05  -6.458718e+03  -1.757621e+05   2.970646e+11   3.180593e+11   3.941611e+11   2.976490e+05   1.088365e-24   0.000000e+00   0.000000e+00
      344000   3.439990e-07   3.383020e+01   1.659515e+01   2.511780e-02   2.424817e+05  -3.937291e+03  -1.725748e+05   2.916269e+11   3.122778e+11   4.026330e+11   2.976490e+05   1.088065e-24   0.000000e+00   0.000000e+00
      352000   3.519990e-07   3.383215e+01   1.659513e+01   2.375017e-02   2.447926e+05  -1.462602e+03  -1.693204e+05   2.860769e+11   3.063753e+11   4.109432e+11   2.976490e+05   1.087759e-24   0.000000e+00   0.000000e+00
      360000   3.599990e-07   3.383411e+01   1.659513e+01   2.240885e-02   2.470586e+05   9.643914e+02  -1.660001e+05   2.804169e+11   3.003542e+11   4.190884e+11   2.976490e+05   1.087447e-24   0.000000e+00   0.000000e+00
      368000   3.679990e-07   3.383610e+01   1.659515e+01   2.109434e-02   2.492790e+05   3.342749e+03  -1.626154e+05   2.746494e+11   2.942167e+11   4.270657e+11   2.976490e+05   1.087130e-24   0.000000e+00   0.000000e+00
      376000   3.759990e-07   3.383810e+01   1.659518e+01   1.980717e-02   2.514527e+05   5.671549e+03  -1.591675e+05   2.687766e+11   2.879654e+11   4.348718e+11   2.976490e+05   1.086806e-24   0.000000e+00   0.000000e+00
      384000   3.839990e-07   3.384012e+01   1.659524e+01   1.854783e-02   2.535791e+05   7.949891e+03  -1.556579e+05   2.628011e+11   2.816026e+11   4.425040e+11   2.976490e+05   1.086477e-24   0.000000e+00   0.000000e+00
      392000   3.919990e-07   3.384216e+01   1.659531e+01   1.731681e-02   2.556573e+05   1.017689e+04  -1.520879e+05   2.567254e+11   2.751308e+11   4.499592e+11   2.976490e+05   1.086143e-24   0.000000e+00   0.000000e+00
      400000   3.999990e-07   3.384421e+01   1.659540e+01   1.611458e-02   2.576864e+05   1.235169e+04  -1.484590e+05   2.505521e+11   2.685526e+11   4.572346e+11   2.976490e+05   1.085802e-24   0.000000e+00   0.000000e+00
      408000   4.079990e-07   3.384628e+01   1.659551e+01   1.494161e-02   2.596658e+05   1.447345e+04  -1.447726e+05   2.442836e+11   2.618704e+11   4.643275e+11   2.976490e+05   1.085456e-24   0.000000e+00   0.000000e+00
      416000   4.159990e-07   3.384837e+01   1.659563e+01   1.379837e-02   2.615947e+05   1.654134e+04  -1.410303e+05   2.379226e+11   2.550870e+11   4.712352e+11   2.976490e+05   1.085104e-24   0.000000e+00   0.000000e+00
      424000   4.239990e-07   3.385047e+01   1.659577e+01   1.268528e-02   2.634724e+05   1.855457e+04  -1.372334e+05   2.314717e+11   2.482050e+11   4.779551e+11   2.976490e+05   1.084747e-24   0.000000e+00   0.000000e+00
      432000   4.319990e-07   3.385258e+01   1.659593e+01   1.160277e-02   2.652980e+05   2.051236e+04  -1.333835e+05   2.249337e+11   2.412271e+11   4.844846e+11   2.976491e+05   1.084384e-24   0.000000e+00   0.000000e+00
      440000   4.399990e-07   3.385471e+01   1.659610e+01   1.055128e-02   2.670711e+05   2.241395e+04  -1.294821e+05   2.183111e+11   2.341559e+11   4.908213e+11   2.976491e+05   1.084016e-24   0.000000e+00   0.000000e+00
      448000   4.479990e-07   3.385685e+01   1.659629e+01   9.531192e-03   2.687908e+05   2.425861e+04  -1.255309e+05   2.116068e+11   2.269942e+11   4.969629e+11   2.976491e+05   1.083642e-24   0.000000e+00   0.000000e+00
      456000   4.559990e-07   3.385901e+01   1.659649e+01   8.542912e-03   2.704566e+05   2.604562e+04  -1.215312e+05   2.048235e+11   2.197449e+11   5.029070e+11   2.976491e+05   1.083263e-24   0.000000e+00   0.000000e+00
      464000   4.639990e-07   3.386118e+01   1.659670e+01   7.586817e-03   2.720678e+05   2.777429e+04  -1.174849e+05   1.979640e+11   2.124107e+11   5.086513e+11   2.976491e+05   1.082879e-24   0.000000e+00   0.000000e+00
      472000   4.719990e-07   3.386336e+01   1.659693e+01   6.663274e-03   2.736238e+05   2.944396e+04  -1.133934e+05   1.910311e+11   2.049945e+11   5.141939e+11   2.976491e+05   1.082490e-24   0.000000e+00   0.000000e+00
      480000   4.799990e-07   3.386556e+01   1.659717e+01   5.772639e-03   2.751241e+05   3.105398e+04  -1.092583e+05   1.840277e+11   1.974992e+11   5.195325e+11   2.976491e+05   1.082096e-24   0.000000e+00   0.000000e+00
      488000   4.879990e-07   3.386777e+01   1.659743e+01   4.915253e-03   2.765680e+05   3.260374e+04  -1.050814e+05   1.769566e+11   1.899277e+11   5.246653e+11   2.976491e+05   1.081697e-24   0.000000e+00   0.000000e+00
      496000   4.959990e-07   3.386998e+01   1.659770e+01   4.091444e-03   2.779552e+05   3.409262e+04  -1.008642e+05   1.698207e+11   1.822829e+11   5.295903e+11   2.976491e+05   1.081294e-24   0.000000e+00   0.000000e+00
      504000   5.039990e-07   3.387221e+01   1.659797e+01   3.301528e-03   2.792850e+05   3.552007e+04  -9.660849e+04   1.626229e+11   1.745679e+11   5.343057e+11   2.976491e+05   1.080886e-24   0.000000e+00   0.000000e+00
      512000   5.119990e-07   3.387445e+01   1.659826e+01   2.545807e-03   2.805570e+05   3.688552e+04  -9.231589e+04   1.553662e+11   1.667856e+11   5.388098e+11   2.976491e+05   1.080474e-24   0.000000e+00   0.000000e+00
      520000   5.199990e-07   3.387670e+01   1.659856e+01   1.824568e-03   2.817707e+05   3.818846e+04  -8.798810e+04   1.480535e+11   1.589391e+11   5.431010e+11   2.976491e+05   1.080057e-24   0.000000e+00   0.000000e+00
      528000   5.279990e-07   3.387896e+01   1.659887e+01   1.138086e-03   2.829257e+05   3.942838e+04  -8.362684e+04   1.406877e+11   1.510315e+11   5.471776e+11   2.976491e+05   1.079636e-24   0.000000e+00   0.000000e+00
      536000   5.359990e-07   3.388123e+01   1.659919e+01   4.866229e-04   2.840216e+05   4.060480e+04  -7.923383e+04   1.332718e+11   1.430657e+11   5.510383e+11   2.976491e+05   1.079212e-24   0.000000e+00   0.000000e+00
