     timestep     time              x             y              z              vx             vy             vz             ax             ay             az         v_magnitude      ELoss        Electronic      Nuclear
           0  4.940656e-324   2.969915e+01   4.081946e+01   1.000000e-01   2.726837e+04   1.092419e+05  -9.517538e+04   0.000000e+00   0.000000e+00   0.000000e+00   1.474304e+05   0.000000e+00   0.000000e+00   0.000000e+00
        8000   7.999000e-10   2.969917e+01   4.081955e+01   9.992386e-02   2.715177e+04   1.092783e+05  -9.516694e+04  -1.457454e+11   4.549111e+10   1.065438e+10   1.474304e+05   1.814179e-28  1.020628e-317  1.020628e-317
       16000   1.599900e-09   2.969920e+01   4.081963e+01   9.984773e-02   2.703518e+04   1.093147e+05  -9.515833e+04  -1.457306e+11   4.548387e+10   1.084719e+10   1.474304e+05   1.814116e-28  1.020628e-317  1.020628e-317
       24000   2.399900e-09   2.969922e+01   4.081972e+01   9.977161e-02   2.691860e+04   1.093511e+05  -9.514958e+04  -1.457156e+11   4.547657e+10   1.103998e+10   1.474304e+05   1.814053e-28  1.020628e-317  1.020628e-317
       32000   3.199900e-09   2.969924e+01   4.081981e+01   9.969549e-02   2.680204e+04   1.093875e+05  -9.514067e+04  -1.457004e+11   4.546919e+10   1.123274e+10   1.474304e+05   1.813989e-28  1.020628e-317  1.020628e-317
       40000   3.999900e-09   2.969926e+01   4.081990e+01   9.961938e-02   2.668548e+04   1.094238e+05  -9.513161e+04  -1.456849e+11   4.546174e+10   1.142547e+10   1.474304e+05   1.813926e-28  1.020628e-317  1.020628e-317
       48000   4.799900e-09   2.969928e+01   4.081998e+01   9.954328e-02   2.656894e+04   1.094602e+05  -9.512239e+04  -1.456692e+11   4.545422e+10   1.161818e+10   1.474304e+05   1.813863e-28  1.020628e-317  1.020628e-317
       56000   5.599900e-09   2.969930e+01   4.082007e+01   9.946719e-02   2.645241e+04   1.094966e+05  -9.511302e+04  -1.456533e+11   4.544662e+10   1.181086e+10   1.474304e+05   1.813800e-28  1.020628e-317  1.020628e-317
       64000   6.399900e-09   2.969932e+01   4.082016e+01   9.939110e-02   2.633590e+04   1.095329e+05  -9.510349e+04  -1.456371e+11   4.543896e+10   1.200351e+10   1.474304e+05   1.813736e-28  1.020628e-317  1.020628e-317
       72000   7.199900e-09   2.969935e+01   4.082025e+01   9.931502e-02   2.621939e+04   1.095693e+05  -9.509381e+04  -1.456207e+11   4.543122e+10   1.219614e+10   1.474304e+05   1.813673e-28  1.020628e-317  1.020628e-317
       80000   7.999900e-09   2.969937e+01   4.082033e+01   9.923895e-02   2.610290e+04   1.096056e+05  -9.508398e+04  -1.456041e+11   4.542342e+10   1.238873e+10   1.474304e+05   1.813610e-28  1.020628e-317  1.020628e-317
       88000   8.799900e-09   2.969939e+01   4.082042e+01   9.916289e-02   2.598643e+04   1.096419e+05  -9.507399e+04  -1.455872e+11   4.541554e+10   1.258130e+10   1.474304e+05   1.813547e-28  1.020628e-317  1.020628e-317
       96000   9.599900e-09   2.969941e+01   4.082051e+01   9.908683e-02   2.586996e+04   1.096783e+05  -9.506385e+04  -1.455701e+11   4.540759e+10   1.277383e+10   1.474304e+05   1.813484e-28  1.020628e-317  1.020628e-317
      104000   1.039990e-08   2.969943e+01   4.082060e+01   9.901079e-02   2.575351e+04   1.097146e+05  -9.505355e+04  -1.455528e+11   4.539957e+10   1.296634e+10   1.474304e+05   1.813420e-28  1.020628e-317  1.020628e-317
      112000   1.119990e-08   2.969945e+01   4.082069e+01   9.893475e-02   2.563708e+04   1.097509e+05  -9.504310e+04  -1.455353e+11   4.539148e+10   1.315882e+10   1.474304e+05   1.813357e-28  1.020628e-317  1.020628e-317
      120000   1.199990e-08   2.969947e+01   4.082077e+01   9.885872e-02   2.552066e+04   1.097872e+05  -9.503250e+04  -1.455175e+11   4.538332e+10   1.335127e+10   1.474304e+05   1.813294e-28  1.020628e-317  1.020628e-317
      128000   1.279990e-08   2.969949e+01   4.082086e+01   9.878270e-02   2.540425e+04   1.098235e+05  -9.502174e+04  -1.454995e+11   4.537508e+10   1.354368e+10   1.474304e+05   1.813231e-28  1.020628e-317  1.020628e-317
      136000   1.359990e-08   2.969951e+01   4.082095e+01   9.870668e-02   2.528786e+04   1.098598e+05  -9.501083e+04  -1.454812e+11   4.536678e+10   1.373607e+10   1.474304e+05   1.813168e-28  1.020628e-317  1.020628e-317
      144000   1.439990e-08   2.969953e+01   4.082104e+01   9.863068e-02   2.517148e+04   1.098961e+05  -9.499976e+04  -1.454627e+11   4.535840e+10   1.392843e+10   1.474304e+05   1.813104e-28  1.020628e-317  1.020628e-317
      152000   1.519990e-08   2.969955e+01   4.082112e+01   9.855468e-02   2.505512e+04   1.099324e+05  -9.498854e+04  -1.454440e+11   4.534995e+10   1.412075e+10   1.474304e+05   1.813041e-28  1.020628e-317  1.020628e-317
      160000   1.599990e-08   2.969957e+01   4.082121e+01   9.847870e-02   2.493877e+04   1.099687e+05  -9.497717e+04  -1.454251e+11   4.534143e+10   1.431305e+10   1.474304e+05   1.812978e-28  1.020628e-317  1.020628e-317
      168000   1.679990e-08   2.969959e+01   4.082130e+01   9.840272e-02   2.482244e+04   1.100049e+05  -9.496564e+04  -1.454059e+11   4.533284e+10   1.450531e+10   1.474304e+05   1.812915e-28  1.020628e-317  1.020628e-317
      176000   1.759990e-08   2.969961e+01   4.082139e+01   9.832675e-02   2.470612e+04   1.100412e+05  -9.495396e+04  -1.453865e+11   4.532418e+10   1.469754e+10   1.474304e+05   1.812852e-28  1.020628e-317  1.020628e-317
      184000   1.839990e-08   2.969963e+01   4.082148e+01   9.825079e-02   2.458982e+04   1.100775e+05  -9.494213e+04  -1.453668e+11   4.531545e+10   1.488973e+10   1.474304e+05   1.812788e-28  1.020628e-317  1.020628e-317
      192000   1.919990e-08   2.969965e+01   4.082156e+01   9.817485e-02   2.447353e+04   1.101137e+05  -9.493014e+04  -1.453470e+11   4.530664e+10   1.508190e+10   1.474304e+05   1.812725e-28  1.020628e-317  1.020628e-317
      200000   1.999990e-08   2.969967e+01   4.082165e+01   9.809891e-02   2.435726e+04   1.101500e+05  -9.491800e+04  -1.453269e+11   4.529777e+10   1.527403e+10   1.474304e+05   1.812662e-28  1.020628e-317  1.020628e-317
      208000   2.079990e-08   2.969969e+01   4.082174e+01   9.802298e-02   2.424101e+04   1.101862e+05  -9.490570e+04  -1.453065e+11   4.528882e+10   1.546613e+10   1.474304e+05   1.812599e-28  1.020628e-317  1.020628e-317
      216000   2.159990e-08   2.969971e+01   4.082183e+01   9.794706e-02   2.412477e+04   1.102224e+05  -9.489325e+04  -1.452859e+11   4.527981e+10   1.565819e+10   1.474304e+05   1.812536e-28  1.020628e-317  1.020628e-317
      224000   2.239990e-08   2.969973e+01   4.082192e+01   9.787115e-02   2.400855e+04   1.102586e+05  -9.488065e+04  -1.452651e+11   4.527072e+10   1.585022e+10   1.474304e+05   1.812472e-28  1.020628e-317  1.020628e-317
      232000   2.319990e-08   2.969975e+01   4.082201e+01   9.779525e-02   2.389235e+04   1.102948e+05  -9.486789e+04  -1.452441e+11   4.526156e+10   1.604222e+10   1.474304e+05   1.812409e-28  1.020628e-317  1.020628e-317
      240000   2.399990e-08   2.969977e+01   4.082209e+01   9.771936e-02   2.377616e+04   1.103311e+05  -9.485498e+04  -1.452229e+11   4.525233e+10   1.623418e+10   1.474304e+05   1.812346e-28  1.020628e-317  1.020628e-317
      248000   2.479990e-08   2.969978e+01   4.082218e+01   9.764348e-02   2.365999e+04   1.103673e+05  -9.484191e+04  -1.452014e+11   4.524303e+10   1.642611e+10   1.474304e+05   1.812283e-28  1.020628e-317  1.020628e-317
      256000   2.559990e-08   2.969980e+01   4.082227e+01   9.756761e-02   2.354384e+04   1.104034e+05  -9.482870e+04  -1.451796e+11   4.523366e+10   1.661800e+10   1.474304e+05   1.812220e-28  1.020628e-317  1.020628e-317
      264000   2.639990e-08   2.969982e+01   4.082236e+01   9.749175e-02   2.342771e+04   1.104396e+05  -9.481533e+04  -1.451577e+11   4.522421e+10   1.680985e+10   1.474304e+05   1.812157e-28  1.020628e-317  1.020628e-317
      272000   2.719990e-08   2.969984e+01   4.082245e+01   9.741591e-02   2.331159e+04   1.104758e+05  -9.480180e+04  -1.451355e+11   4.521470e+10   1.700167e+10   1.474304e+05   1.812093e-28  1.020628e-317  1.020628e-317
      280000   2.799990e-08   2.969986e+01   4.082254e+01   9.734007e-02   2.319549e+04   1.105120e+05  -9.478812e+04  -1.451131e+11   4.520512e+10   1.719346e+10   1.474304e+05   1.812030e-28  1.020628e-317  1.020628e-317
      288000   2.879990e-08   2.969988e+01   4.082262e+01   9.726425e-02   2.307941e+04   1.105481e+05  -9.477429e+04  -1.450904e+11   4.519546e+10   1.738520e+10   1.474304e+05   1.811967e-28  1.020628e-317  1.020628e-317
      296000   2.959990e-08   2.969990e+01   4.082271e+01   9.718843e-02   2.296334e+04   1.105843e+05  -9.476031e+04  -1.450675e+11   4.518574e+10   1.757692e+10   1.474304e+05   1.811904e-28  1.020628e-317  1.020628e-317
      304000   3.039990e-08   2.969991e+01   4.082280e+01   9.711263e-02   2.284730e+04   1.106204e+05  -9.474617e+04  -1.450444e+11   4.517594e+10   1.776859e+10   1.474304e+05   1.811841e-28  1.020628e-317  1.020628e-317
      312000   3.119990e-08   2.969993e+01   4.082289e+01   9.703684e-02   2.273127e+04   1.106566e+05  -9.473188e+04  -1.450211e+11   4.516607e+10   1.796023e+10   1.474304e+05   1.811777e-28  1.020628e-317  1.020628e-317
      320000   3.199990e-08   2.969995e+01   4.082298e+01   9.696106e-02   2.261527e+04   1.106927e+05  -9.471743e+04  -1.449975e+11   4.515613e+10   1.815183e+10   1.474304e+05   1.811714e-28  1.020628e-317  1.020628e-317
      328000   3.279990e-08   2.969997e+01   4.082307e+01   9.688529e-02   2.249928e+04   1.107288e+05  -9.470283e+04  -1.449737e+11   4.514612e+10   1.834339e+10   1.474304e+05   1.811651e-28  1.020628e-317  1.020628e-317
      336000   3.359990e-08   2.969999e+01   4.082316e+01   9.680953e-02   2.238331e+04   1.107649e+05  -9.468808e+04  -1.449497e+11   4.513604e+10   1.853491e+10   1.474304e+05   1.811588e-28  1.020628e-317  1.020628e-317
      344000   3.439990e-08   2.970000e+01   4.082324e+01   9.673379e-02   2.226735e+04   1.108010e+05  -9.467318e+04  -1.449582e+11   4.513830e+10   1.873321e+10   1.474304e+05   1.812368e-28  1.020628e-317  1.020628e-317
      352000   3.519990e-08   2.970002e+01   4.082333e+01   9.665806e-02   2.215139e+04   1.108371e+05  -9.465811e+04  -1.449338e+11   4.512804e+10   1.892468e+10   1.474304e+05   1.812306e-28  1.020628e-317  1.020628e-317
      360000   3.599990e-08   2.970004e+01   4.082342e+01   9.658234e-02   2.203546e+04   1.108732e+05  -9.464290e+04  -1.449091e+11   4.511770e+10   1.911612e+10   1.474304e+05   1.812244e-28  1.020628e-317  1.020628e-317
      368000   3.679990e-08   2.970006e+01   4.082351e+01   9.650663e-02   2.191954e+04   1.109093e+05  -9.462753e+04  -1.448842e+11   4.510729e+10   1.930751e+10   1.474304e+05   1.812182e-28  1.020628e-317  1.020628e-317
      376000   3.759990e-08   2.970008e+01   4.082360e+01   9.643093e-02   2.180364e+04   1.109454e+05  -9.461200e+04  -1.448591e+11   4.509681e+10   1.949886e+10   1.474304e+05   1.812120e-28  1.020628e-317  1.020628e-317
      384000   3.839990e-08   2.970009e+01   4.082369e+01   9.635525e-02   2.168777e+04   1.109815e+05  -9.459633e+04  -1.448337e+11   4.508626e+10   1.969018e+10   1.474304e+05   1.812057e-28  1.020628e-317  1.020628e-317
      392000   3.919990e-08   2.970011e+01   4.082378e+01   9.627958e-02   2.157191e+04   1.110175e+05  -9.458050e+04  -1.448081e+11   4.507564e+10   1.988145e+10   1.474304e+05   1.811995e-28  1.020628e-317  1.020628e-317
      400000   3.999990e-08   2.970013e+01   4.082386e+01   9.620392e-02   2.145607e+04   1.110536e+05  -9.456452e+04  -1.447823e+11   4.506495e+10   2.007268e+10   1.474304e+05   1.811933e-28  1.020628e-317  1.020628e-317
      408000   4.079990e-08   2.970014e+01   4.082395e+01   9.612828e-02   2.134026e+04   1.110897e+05  -9.454838e+04  -1.447562e+11   4.505419e+10   2.026388e+10   1.474304e+05   1.811871e-28  1.020628e-317  1.020628e-317
      416000   4.159990e-08   2.970016e+01   4.082404e+01   9.605264e-02   2.122446e+04   1.111257e+05  -9.453210e+04  -1.447299e+11   4.504335e+10   2.045503e+10   1.474304e+05   1.811809e-28  1.020628e-317  1.020628e-317
      424000   4.239990e-08   2.970018e+01   4.082413e+01   9.597702e-02   2.110869e+04   1.111617e+05  -9.451566e+04  -1.447034e+11   4.503245e+10   2.064614e+10   1.474304e+05   1.811746e-28  1.020628e-317  1.020628e-317
      432000   4.319990e-08   2.970020e+01   4.082422e+01   9.590142e-02   2.099294e+04   1.111977e+05  -9.449906e+04  -1.446766e+11   4.502148e+10   2.083721e+10   1.474304e+05   1.811684e-28  1.020628e-317  1.020628e-317
      440000   4.399990e-08   2.970021e+01   4.082431e+01   9.582583e-02   2.087721e+04   1.112338e+05  -9.448232e+04  -1.446497e+11   4.501043e+10   2.102823e+10   1.474304e+05   1.811622e-28  1.020628e-317  1.020628e-317
      448000   4.479990e-08   2.970023e+01   4.082440e+01   9.575025e-02   2.076150e+04   1.112698e+05  -9.446542e+04  -1.446224e+11   4.499932e+10   2.121922e+10   1.474304e+05   1.811560e-28  1.020628e-317  1.020628e-317
      456000   4.559990e-08   2.970025e+01   4.082449e+01   9.567468e-02   2.064581e+04   1.113058e+05  -9.444837e+04  -1.445950e+11   4.498813e+10   2.141016e+10   1.474304e+05   1.811498e-28  1.020628e-317  1.020628e-317
      464000   4.639990e-08   2.970026e+01   4.082458e+01   9.559913e-02   2.053015e+04   1.113417e+05  -9.443116e+04  -1.445673e+11   4.497688e+10   2.160106e+10   1.474304e+05   1.811435e-28  1.020628e-317  1.020628e-317
      472000   4.719990e-08   2.970028e+01   4.082467e+01   9.552359e-02   2.041450e+04   1.113777e+05  -9.441380e+04  -1.445394e+11   4.496555e+10   2.179191e+10   1.474304e+05   1.811373e-28  1.020628e-317  1.020628e-317
      480000   4.799990e-08   2.970029e+01   4.082475e+01   9.544807e-02   2.029888e+04   1.114137e+05  -9.439629e+04  -1.445113e+11   4.495415e+10   2.198272e+10   1.474304e+05   1.811311e-28  1.020628e-317  1.020628e-317
      488000   4.879990e-08   2.970031e+01   4.082484e+01   9.537256e-02   2.018329e+04   1.114496e+05  -9.437863e+04  -1.444829e+11   4.494269e+10   2.217349e+10   1.474304e+05   1.811249e-28  1.020628e-317  1.020628e-317
      496000   4.959990e-08   2.970033e+01   4.082493e+01   9.529706e-02   2.006771e+04   1.114856e+05  -9.436082e+04  -1.444544e+11   4.493115e+10   2.236421e+10   1.474304e+05   1.811187e-28  1.020628e-317  1.020628e-317
      504000   5.039990e-08   2.970034e+01   4.082502e+01   9.522158e-02   1.995216e+04   1.115215e+05  -9.434285e+04  -1.444255e+11   4.491954e+10   2.255489e+10   1.474304e+05   1.811124e-28  1.020628e-317  1.020628e-317
      512000   5.119990e-08   2.970036e+01   4.082511e+01   9.514611e-02   1.983663e+04   1.115575e+05  -9.432473e+04  -1.443965e+11   4.490787e+10   2.274553e+10   1.474304e+05   1.811062e-28  1.020628e-317  1.020628e-317
      520000   5.199990e-08   2.970037e+01   4.082520e+01   9.507066e-02   1.972112e+04   1.115934e+05  -9.430646e+04  -1.443672e+11   4.489612e+10   2.293612e+10   1.474304e+05   1.811000e-28  1.020628e-317  1.020628e-317
      528000   5.279990e-08   2.970039e+01   4.082529e+01   9.499522e-02   1.960564e+04   1.116293e+05  -9.428803e+04  -1.443377e+11   4.488430e+10   2.312666e+10   1.474304e+05   1.810938e-28  1.020628e-317  1.020628e-317
      536000   5.359990e-08   2.970041e+01   4.082538e+01   9.491980e-02   1.949018e+04   1.116652e+05  -9.426945e+04  -1.443080e+11   4.487241e+10   2.331716e+10   1.474304e+05   1.810876e-28  1.020628e-317  1.020628e-317
      544000   5.439990e-08   2.970042e+01   4.082547e+01   9.484439e-02   1.937475e+04   1.117011e+05  -9.425072e+04  -1.442780e+11   4.486045e+10   2.350761e+10   1.474304e+05   1.810813e-28  1.020628e-317  1.020628e-317
      552000   5.519990e-08   2.970044e+01   4.082556e+01   9.476900e-02   1.925934e+04   1.117370e+05  -9.423184e+04  -1.442478e+11   4.484843e+10   2.369802e+10   1.474304e+05   1.810751e-28  1.020628e-317  1.020628e-317
      560000   5.599990e-08   2.970045e+01   4.082565e+01   9.469362e-02   1.914395e+04   1.117729e+05  -9.421281e+04  -1.442174e+11   4.483633e+10   2.388838e+10   1.474304e+05   1.810689e-28  1.020628e-317  1.020628e-317
      568000   5.679990e-08   2.970047e+01   4.082574e+01   9.461826e-02   1.902859e+04   1.118087e+05  -9.419362e+04  -1.441867e+11   4.482416e+10   2.407869e+10   1.474304e+05   1.810627e-28  1.020628e-317  1.020628e-317
      576000   5.759990e-08   2.970048e+01   4.082583e+01   9.454291e-02   1.891325e+04   1.118446e+05  -9.417428e+04  -1.441558e+11   4.481192e+10   2.426896e+10   1.474304e+05   1.810565e-28  1.020628e-317  1.020628e-317
      584000   5.839990e-08   2.970050e+01   4.082592e+01   9.446758e-02   1.879794e+04   1.118804e+05  -9.415479e+04  -1.441247e+11   4.479961e+10   2.445917e+10   1.474304e+05   1.810503e-28  1.020628e-317  1.020628e-317
      592000   5.919990e-08   2.970051e+01   4.082601e+01   9.439226e-02   1.868265e+04   1.119162e+05  -9.413515e+04  -1.440934e+11   4.478723e+10   2.464935e+10   1.474304e+05   1.810440e-28  1.020628e-317  1.020628e-317
      600000   5.999990e-08   2.970053e+01   4.082610e+01   9.431696e-02   1.856739e+04   1.119521e+05  -9.411535e+04  -1.440618e+11   4.477478e+10   2.483947e+10   1.474304e+05   1.810378e-28  1.020628e-317  1.020628e-317
      608000   6.079990e-08   2.970054e+01   4.082618e+01   9.424168e-02   1.845216e+04   1.119879e+05  -9.409540e+04  -1.440300e+11   4.476227e+10   2.502954e+10   1.474304e+05   1.810316e-28  1.020628e-317  1.020628e-317
      616000   6.159990e-08   2.970056e+01   4.082627e+01   9.416641e-02   1.833694e+04   1.120237e+05  -9.407530e+04  -1.439980e+11   4.474968e+10   2.521957e+10   1.474304e+05   1.810254e-28  1.020628e-317  1.020628e-317
      624000   6.239990e-08   2.970057e+01   4.082636e+01   9.409116e-02   1.822176e+04   1.120595e+05  -9.405505e+04  -1.439657e+11   4.473702e+10   2.540954e+10   1.474304e+05   1.810192e-28  1.020628e-317  1.020628e-317
      632000   6.319990e-08   2.970059e+01   4.082645e+01   9.401592e-02   1.810660e+04   1.120953e+05  -9.403465e+04  -1.439333e+11   4.472429e+10   2.559947e+10   1.474304e+05   1.810129e-28  1.020628e-317  1.020628e-317
      640000   6.399990e-08   2.970060e+01   4.082654e+01   9.394070e-02   1.799147e+04   1.121310e+05  -9.401409e+04  -1.439005e+11   4.471149e+10   2.578935e+10   1.474304e+05   1.810067e-28  1.020628e-317  1.020628e-317
      648000   6.479990e-08   2.970062e+01   4.082663e+01   9.386550e-02   1.787636e+04   1.121668e+05  -9.399339e+04  -1.438676e+11   4.469862e+10   2.597918e+10   1.474304e+05   1.810005e-28  1.020628e-317  1.020628e-317
      656000   6.559990e-08   2.970063e+01   4.082672e+01   9.379031e-02   1.776128e+04   1.122026e+05  -9.397253e+04  -1.438344e+11   4.468568e+10   2.616895e+10   1.474304e+05   1.809943e-28  1.020628e-317  1.020628e-317
      664000   6.639990e-08   2.970064e+01   4.082681e+01   9.371514e-02   1.764622e+04   1.122383e+05  -9.395151e+04  -1.438010e+11   4.467268e+10   2.635868e+10   1.474304e+05   1.809881e-28  1.020628e-317  1.020628e-317
      672000   6.719990e-08   2.970066e+01   4.082690e+01   9.363999e-02   1.753120e+04   1.122740e+05  -9.393035e+04  -1.437674e+11   4.465960e+10   2.654836e+10   1.474304e+05   1.809819e-28  1.020628e-317  1.020628e-317
      680000   6.799990e-08   2.970067e+01   4.082699e+01   9.356486e-02   1.741620e+04   1.123098e+05  -9.390904e+04  -1.437336e+11   4.464645e+10   2.673798e+10   1.474304e+05   1.809756e-28  1.020628e-317  1.020628e-317
      688000   6.879990e-08   2.970069e+01   4.082708e+01   9.348974e-02   1.730122e+04   1.123455e+05  -9.388757e+04  -1.436995e+11   4.463323e+10   2.692756e+10   1.474304e+05   1.809694e-28  1.020628e-317  1.020628e-317
      696000   6.959990e-08   2.970070e+01   4.082717e+01   9.341464e-02   1.718628e+04   1.123812e+05  -9.386595e+04  -1.436652e+11   4.461995e+10   2.711708e+10   1.474304e+05   1.809632e-28  1.020628e-317  1.020628e-317
      704000   7.039990e-08   2.970071e+01   4.082726e+01   9.333955e-02   1.707136e+04   1.124169e+05  -9.384418e+04  -1.436306e+11   4.460659e+10   2.730655e+10   1.474304e+05   1.809570e-28  1.020628e-317  1.020628e-317
      712000   7.119990e-08   2.970073e+01   4.082735e+01   9.326448e-02   1.695647e+04   1.124525e+05  -9.382226e+04  -1.435959e+11   4.459316e+10   2.749597e+10   1.474304e+05   1.809508e-28  1.020628e-317  1.020628e-317
      720000   7.199990e-08   2.970074e+01   4.082744e+01   9.318944e-02   1.684161e+04   1.124882e+05  -9.380019e+04  -1.435609e+11   4.457967e+10   2.768533e+10   1.474304e+05   1.809445e-28  1.020628e-317  1.020628e-317
      728000   7.279990e-08   2.970075e+01   4.082753e+01   9.311440e-02   1.672677e+04   1.125239e+05  -9.377797e+04  -1.435256e+11   4.456610e+10   2.787465e+10   1.474304e+05   1.809383e-28  1.020628e-317  1.020628e-317
      736000   7.359990e-08   2.970077e+01   4.082762e+01   9.303939e-02   1.661196e+04   1.125595e+05  -9.375559e+04  -1.434902e+11   4.455247e+10   2.806391e+10   1.474304e+05   1.809321e-28  1.020628e-317  1.020628e-317
      744000   7.439990e-08   2.970078e+01   4.082771e+01   9.296440e-02   1.649719e+04   1.125952e+05  -9.373306e+04  -1.434545e+11   4.453876e+10   2.825311e+10   1.474304e+05   1.809259e-28  1.020628e-317  1.020628e-317
      752000   7.519990e-08   2.970079e+01   4.082780e+01   9.288942e-02   1.638244e+04   1.126308e+05  -9.371039e+04  -1.434186e+11   4.452499e+10   2.844227e+10   1.474304e+05   1.809197e-28  1.020628e-317  1.020628e-317
      760000   7.599990e-08   2.970081e+01   4.082789e+01   9.281446e-02   1.626772e+04   1.126664e+05  -9.368756e+04  -1.433825e+11   4.451114e+10   2.863136e+10   1.474304e+05   1.809135e-28  1.020628e-317  1.020628e-317
      768000   7.679990e-08   2.970082e+01   4.082798e+01   9.273952e-02   1.615303e+04   1.127020e+05  -9.366458e+04  -1.433461e+11   4.449723e+10   2.882041e+10   1.474304e+05   1.809072e-28  1.020628e-317  1.020628e-317
      776000   7.759990e-08   2.970083e+01   4.082807e+01   9.266460e-02   1.603836e+04   1.127376e+05  -9.364144e+04  -1.433095e+11   4.448325e+10   2.900940e+10   1.474304e+05   1.809010e-28  1.020628e-317  1.020628e-317
      784000   7.839990e-08   2.970084e+01   4.082816e+01   9.258969e-02   1.592373e+04   1.127732e+05  -9.361816e+04  -1.432727e+11   4.446920e+10   2.919833e+10   1.474304e+05   1.808948e-28  1.020628e-317  1.020628e-317
      792000   7.919990e-08   2.970086e+01   4.082825e+01   9.251481e-02   1.580913e+04   1.128087e+05  -9.359473e+04  -1.432357e+11   4.445508e+10   2.938721e+10   1.474304e+05   1.808886e-28  1.020628e-317  1.020628e-317
      800000   7.999990e-08   2.970087e+01   4.082834e+01   9.243994e-02   1.569455e+04   1.128443e+05  -9.357114e+04  -1.431984e+11   4.444088e+10   2.957603e+10   1.474304e+05   1.808824e-28  1.020628e-317  1.020628e-317
      808000   8.079990e-08   2.970088e+01   4.082843e+01   9.236509e-02   1.558001e+04   1.128799e+05  -9.354740e+04  -1.431609e+11   4.442662e+10   2.976480e+10   1.474304e+05   1.808762e-28  1.020628e-317  1.020628e-317
      816000   8.159990e-08   2.970090e+01   4.082852e+01   9.229026e-02   1.546550e+04   1.129154e+05  -9.352352e+04  -1.431232e+11   4.441230e+10   2.995351e+10   1.474304e+05   1.808699e-28  1.020628e-317  1.020628e-317
      824000   8.239990e-08   2.970091e+01   4.082861e+01   9.221546e-02   1.535101e+04   1.129509e+05  -9.349948e+04  -1.430852e+11   4.439790e+10   3.014217e+10   1.474304e+05   1.808637e-28  1.020628e-317  1.020628e-317
      832000   8.319990e-08   2.970092e+01   4.082870e+01   9.214067e-02   1.523656e+04   1.129864e+05  -9.347529e+04  -1.430471e+11   4.438343e+10   3.033077e+10   1.474304e+05   1.808575e-28  1.020628e-317  1.020628e-317
      840000   8.399990e-08   2.970093e+01   4.082879e+01   9.206589e-02   1.512214e+04   1.130219e+05  -9.345095e+04  -1.430087e+11   4.436889e+10   3.051931e+10   1.474304e+05   1.808513e-28  1.020628e-317  1.020628e-317
      848000   8.479990e-08   2.970094e+01   4.082889e+01   9.199114e-02   1.500775e+04   1.130574e+05  -9.342646e+04  -1.429700e+11   4.435429e+10   3.070779e+10   1.474304e+05   1.808451e-28  1.020628e-317  1.020628e-317
      856000   8.559990e-08   2.970096e+01   4.082898e+01   9.191641e-02   1.489338e+04   1.130929e+05  -9.340182e+04  -1.429312e+11   4.433961e+10   3.089622e+10   1.474304e+05   1.808389e-28  1.020628e-317  1.020628e-317
      864000   8.639990e-08   2.970097e+01   4.082907e+01   9.184170e-02   1.477906e+04   1.131284e+05  -9.337703e+04  -1.428921e+11   4.432487e+10   3.108459e+10   1.474304e+05   1.808326e-28  1.020628e-317  1.020628e-317
      872000   8.719990e-08   2.970098e+01   4.082916e+01   9.176701e-02   1.466476e+04   1.131638e+05  -9.335208e+04  -1.428528e+11   4.431005e+10   3.127290e+10   1.474304e+05   1.808264e-28  1.020628e-317  1.020628e-317
      880000   8.799990e-08   2.970099e+01   4.082925e+01   9.169234e-02   1.455049e+04   1.131993e+05  -9.332699e+04  -1.428133e+11   4.429517e+10   3.146115e+10   1.474304e+05   1.808202e-28  1.020628e-317  1.020628e-317
      888000   8.879990e-08   2.970100e+01   4.082934e+01   9.161769e-02   1.443626e+04   1.132347e+05  -9.330174e+04  -1.427735e+11   4.428022e+10   3.164935e+10   1.474304e+05   1.808140e-28  1.020628e-317  1.020628e-317
      896000   8.959990e-08   2.970101e+01   4.082943e+01   9.154305e-02   1.432205e+04   1.132701e+05  -9.327635e+04  -1.427335e+11   4.426520e+10   3.183748e+10   1.474304e+05   1.808078e-28  1.020628e-317  1.020628e-317
      904000   9.039990e-08   2.970103e+01   4.082952e+01   9.146844e-02   1.420788e+04   1.133055e+05  -9.325080e+04  -1.426933e+11   4.425011e+10   3.202555e+10   1.474304e+05   1.808016e-28  1.020628e-317  1.020628e-317
      912000   9.119990e-08   2.970104e+01   4.082961e+01   9.139385e-02   1.409374e+04   1.133409e+05  -9.322511e+04  -1.426529e+11   4.423495e+10   3.221357e+10   1.474304e+05   1.807954e-28  1.020628e-317  1.020628e-317
      920000   9.199990e-08   2.970105e+01   4.082970e+01   9.131928e-02   1.397964e+04   1.133763e+05  -9.319926e+04  -1.426122e+11   4.421972e+10   3.240152e+10   1.474304e+05   1.807891e-28  1.020628e-317  1.020628e-317
      928000   9.279990e-08   2.970106e+01   4.082979e+01   9.124473e-02   1.386556e+04   1.134117e+05  -9.317327e+04  -1.425713e+11   4.420442e+10   3.258942e+10   1.474304e+05   1.807829e-28  1.020628e-317  1.020628e-317
      936000   9.359990e-08   2.970107e+01   4.082988e+01   9.117021e-02   1.375152e+04   1.134470e+05  -9.314712e+04  -1.425302e+11   4.418906e+10   3.277725e+10   1.474304e+05   1.807767e-28  1.020628e-317  1.020628e-317
      944000   9.439990e-08   2.970108e+01   4.082997e+01   9.109570e-02   1.363752e+04   1.134824e+05  -9.312082e+04  -1.424888e+11   4.417362e+10   3.296503e+10   1.474304e+05   1.807705e-28  1.020628e-317  1.020628e-317
      952000   9.519990e-08   2.970109e+01   4.083006e+01   9.102121e-02   1.352354e+04   1.135177e+05  -9.309438e+04  -1.424473e+11   4.415812e+10   3.315274e+10   1.474304e+05   1.807643e-28  1.020628e-317  1.020628e-317
      960000   9.599990e-08   2.970110e+01   4.083015e+01   9.094675e-02   1.340960e+04   1.135530e+05  -9.306778e+04  -1.424055e+11   4.414255e+10   3.334039e+10   1.474304e+05   1.807581e-28  1.020628e-317  1.020628e-317
      968000   9.679990e-08   2.970111e+01   4.083025e+01   9.087231e-02   1.329569e+04   1.135883e+05  -9.304103e+04  -1.423635e+11   4.412691e+10   3.352798e+10   1.474304e+05   1.807519e-28  1.020628e-317  1.020628e-317
      976000   9.759990e-08   2.970112e+01   4.083034e+01   9.079788e-02   1.318182e+04   1.136236e+05  -9.301413e+04  -1.423212e+11   4.411120e+10   3.371551e+10   1.474304e+05   1.807456e-28  1.020628e-317  1.020628e-317
      984000   9.839990e-08   2.970113e+01   4.083043e+01   9.072348e-02   1.306798e+04   1.136589e+05  -9.298709e+04  -1.422788e+11   4.409542e+10   3.390297e+10   1.474304e+05   1.807394e-28  1.020628e-317  1.020628e-317
      992000   9.919990e-08   2.970115e+01   4.083052e+01   9.064910e-02   1.295417e+04   1.136942e+05  -9.295989e+04  -1.422361e+11   4.407957e+10   3.409037e+10   1.474304e+05   1.807332e-28  1.020628e-317  1.020628e-317
     1000000   9.999990e-08   2.970116e+01   4.083061e+01   9.057475e-02   1.284040e+04   1.137294e+05  -9.293254e+04  -1.421931e+11   4.406366e+10   3.427771e+10   1.474304e+05   1.807270e-28  1.020628e-317  1.020628e-317
     1008000   1.007999e-07   2.970117e+01   4.083070e+01   9.050041e-02   1.272666e+04   1.137647e+05  -9.290504e+04  -1.421500e+11   4.404767e+10   3.446499e+10   1.474304e+05   1.807208e-28  1.020628e-317  1.020628e-317
     1016000   1.015999e-07   2.970118e+01   4.083079e+01   9.042610e-02   1.261296e+04   1.137999e+05  -9.287740e+04  -1.421066e+11   4.403162e+10   3.465220e+10   1.474304e+05   1.807146e-28  1.020628e-317  1.020628e-317
     1024000   1.023999e-07   2.970119e+01   4.083088e+01   9.035181e-02   1.249929e+04   1.138351e+05  -9.284960e+04  -1.420630e+11   4.401550e+10   3.483935e+10   1.474304e+05   1.807084e-28  1.020628e-317  1.020628e-317
     1032000   1.031999e-07   2.970120e+01   4.083097e+01   9.027754e-02   1.238566e+04   1.138703e+05  -9.282165e+04  -1.420192e+11   4.399931e+10   3.502643e+10   1.474304e+05   1.807021e-28  1.020628e-317  1.020628e-317
     1040000   1.039999e-07   2.970121e+01   4.083106e+01   9.020329e-02   1.227206e+04   1.139055e+05  -9.279356e+04  -1.419752e+11   4.398305e+10   3.521345e+10   1.474304e+05   1.806959e-28  1.020628e-317  1.020628e-317
     1048000   1.047999e-07   2.970122e+01   4.083116e+01   9.012907e-02   1.215850e+04   1.139407e+05  -9.276531e+04  -1.419309e+11   4.396672e+10   3.540040e+10   1.474304e+05   1.806897e-28  1.020628e-317  1.020628e-317
     1056000   1.055999e-07   2.970123e+01   4.083125e+01   9.005487e-02   1.204497e+04   1.139759e+05  -9.273692e+04  -1.418864e+11   4.395033e+10   3.558729e+10   1.474304e+05   1.806835e-28  1.020628e-317  1.020628e-317
     1064000   1.063999e-07   2.970123e+01   4.083134e+01   8.998069e-02   1.193148e+04   1.140110e+05  -9.270837e+04  -1.418417e+11   4.393386e+10   3.577412e+10   1.474304e+05   1.806773e-28  1.020628e-317  1.020628e-317
     1072000   1.071999e-07   2.970124e+01   4.083143e+01   8.990654e-02   1.181803e+04   1.140462e+05  -9.267968e+04  -1.417968e+11   4.391733e+10   3.596088e+10   1.474304e+05   1.806711e-28  1.020628e-317  1.020628e-317
     1080000   1.079999e-07   2.970125e+01   4.083152e+01   8.983240e-02   1.170461e+04   1.140813e+05  -9.265084e+04  -1.417516e+11   4.390073e+10   3.614757e+10   1.474304e+05   1.806649e-28  1.020628e-317  1.020628e-317
     1088000   1.087999e-07   2.970126e+01   4.083161e+01   8.975829e-02   1.159123e+04   1.141164e+05  -9.262184e+04  -1.417062e+11   4.388406e+10   3.633420e+10   1.474304e+05   1.806586e-28  1.020628e-317  1.020628e-317
     1096000   1.095999e-07   2.970127e+01   4.083170e+01   8.968421e-02   1.147788e+04   1.141515e+05  -9.259270e+04  -1.416606e+11   4.386733e+10   3.652076e+10   1.474304e+05   1.806524e-28  1.020628e-317  1.020628e-317
     1104000   1.103999e-07   2.970128e+01   4.083179e+01   8.961015e-02   1.136457e+04   1.141866e+05  -9.256341e+04  -1.416147e+11   4.385052e+10   3.670725e+10   1.474304e+05   1.806462e-28  1.020628e-317  1.020628e-317
     1112000   1.111999e-07   2.970129e+01   4.083189e+01   8.953611e-02   1.125129e+04   1.142217e+05  -9.253397e+04  -1.415687e+11   4.383365e+10   3.689368e+10   1.474304e+05   1.806400e-28  1.020628e-317  1.020628e-317
     1120000   1.119999e-07   2.970130e+01   4.083198e+01   8.946209e-02   1.113806e+04   1.142567e+05  -9.250438e+04  -1.415224e+11   4.381671e+10   3.708004e+10   1.474304e+05   1.806338e-28  1.020628e-317  1.020628e-317
     1128000   1.127999e-07   2.970131e+01   4.083207e+01   8.938810e-02   1.102486e+04   1.142918e+05  -9.247464e+04  -1.414759e+11   4.379970e+10   3.726633e+10   1.474304e+05   1.806276e-28  1.020628e-317  1.020628e-317
     1136000   1.135999e-07   2.970132e+01   4.083216e+01   8.931413e-02   1.091170e+04   1.143268e+05  -9.244475e+04  -1.414292e+11   4.378262e+10   3.745255e+10   1.474304e+05   1.806214e-28  1.020628e-317  1.020628e-317
     1144000   1.143999e-07   2.970133e+01   4.083225e+01   8.924019e-02   1.079857e+04   1.143618e+05  -9.241472e+04  -1.413822e+11   4.376547e+10   3.763871e+10   1.474304e+05   1.806152e-28  1.020628e-317  1.020628e-317
     1152000   1.151999e-07   2.970133e+01   4.083234e+01   8.916627e-02   1.068549e+04   1.143968e+05  -9.238453e+04  -1.413350e+11   4.374826e+10   3.782480e+10   1.474304e+05   1.806090e-28  1.020628e-317  1.020628e-317
     1160000   1.159999e-07   2.970134e+01   4.083243e+01   8.909237e-02   1.057244e+04   1.144318e+05  -9.235420e+04  -1.412876e+11   4.373098e+10   3.801081e+10   1.474304e+05   1.806027e-28  1.020628e-317  1.020628e-317
     1168000   1.167999e-07   2.970135e+01   4.083253e+01   8.901850e-02   1.045943e+04   1.144668e+05  -9.232371e+04  -1.412400e+11   4.371363e+10   3.819676e+10   1.474304e+05   1.805965e-28  1.020628e-317  1.020628e-317
     1176000   1.175999e-07   2.970136e+01   4.083262e+01   8.894466e-02   1.034645e+04   1.145018e+05  -9.229308e+04  -1.411921e+11   4.369621e+10   3.838264e+10   1.474304e+05   1.805903e-28  1.020628e-317  1.020628e-317
     1184000   1.183999e-07   2.970137e+01   4.083271e+01   8.887083e-02   1.023352e+04   1.145367e+05  -9.226230e+04  -1.411441e+11   4.367872e+10   3.856845e+10   1.474304e+05   1.805841e-28  1.020628e-317  1.020628e-317
     1192000   1.191999e-07   2.970138e+01   4.083280e+01   8.879704e-02   1.012062e+04   1.145716e+05  -9.223137e+04  -1.410958e+11   4.366117e+10   3.875419e+10   1.474304e+05   1.805779e-28  1.020628e-317  1.020628e-317
     1200000   1.199999e-07   2.970138e+01   4.083289e+01   8.872326e-02   1.000776e+04   1.146066e+05  -9.220030e+04  -1.410473e+11   4.364355e+10   3.893986e+10   1.474304e+05   1.805717e-28  1.020628e-317  1.020628e-317
     1208000   1.207999e-07   2.970139e+01   4.083298e+01   8.864952e-02   9.894947e+03   1.146415e+05  -9.216907e+04  -1.409985e+11   4.362586e+10   3.912546e+10   1.474304e+05   1.805655e-28  1.020628e-317  1.020628e-317
     1216000   1.215999e-07   2.970140e+01   4.083308e+01   8.857579e-02   9.782167e+03   1.146764e+05  -9.213770e+04  -1.409496e+11   4.360810e+10   3.931099e+10   1.474304e+05   1.805593e-28  1.020628e-317  1.020628e-317
     1224000   1.223999e-07   2.970141e+01   4.083317e+01   8.850209e-02   9.669427e+03   1.147112e+05  -9.210617e+04  -1.409004e+11   4.359028e+10   3.949645e+10   1.474304e+05   1.805530e-28  1.020628e-317  1.020628e-317
     1232000   1.231999e-07   2.970142e+01   4.083326e+01   8.842842e-02   9.556727e+03   1.147461e+05  -9.207450e+04  -1.408510e+11   4.357238e+10   3.968183e+10   1.474304e+05   1.805468e-28  1.020628e-317  1.020628e-317
     1240000   1.239999e-07   2.970142e+01   4.083335e+01   8.835478e-02   9.444066e+03   1.147810e+05  -9.204268e+04  -1.408013e+11   4.355442e+10   3.986715e+10   1.474304e+05   1.805406e-28  1.020628e-317  1.020628e-317
     1248000   1.247999e-07   2.970143e+01   4.083344e+01   8.828115e-02   9.331445e+03   1.148158e+05  -9.201071e+04  -1.407515e+11   4.353639e+10   4.005239e+10   1.474304e+05   1.805344e-28  1.020628e-317  1.020628e-317
     1256000   1.255999e-07   2.970144e+01   4.083353e+01   8.820756e-02   9.218864e+03   1.148506e+05  -9.197860e+04  -1.407014e+11   4.351830e+10   4.023756e+10   1.474304e+05   1.805282e-28  1.020628e-317  1.020628e-317
     1264000   1.263999e-07   2.970145e+01   4.083363e+01   8.813399e-02   9.106323e+03   1.148854e+05  -9.194633e+04  -1.406511e+11   4.350013e+10   4.042265e+10   1.474304e+05   1.805220e-28  1.020628e-317  1.020628e-317
     1272000   1.271999e-07   2.970145e+01   4.083372e+01   8.806044e-02   8.993822e+03   1.149202e+05  -9.191392e+04  -1.406006e+11   4.348190e+10   4.060768e+10   1.474304e+05   1.805158e-28  1.020628e-317  1.020628e-317
     1280000   1.279999e-07   2.970146e+01   4.083381e+01   8.798693e-02   8.881362e+03   1.149550e+05  -9.188136e+04  -1.405498e+11   4.346361e+10   4.079263e+10   1.474304e+05   1.805096e-28  1.020628e-317  1.020628e-317
     1288000   1.287999e-07   2.970147e+01   4.083390e+01   8.791343e-02   8.768942e+03   1.149898e+05  -9.184865e+04  -1.404989e+11   4.344524e+10   4.097751e+10   1.474304e+05   1.805034e-28  1.020628e-317  1.020628e-317
     1296000   1.295999e-07   2.970147e+01   4.083399e+01   8.783997e-02   8.656564e+03   1.150245e+05  -9.181580e+04  -1.404477e+11   4.342681e+10   4.116231e+10   1.474304e+05   1.804972e-28  1.020628e-317  1.020628e-317
     1304000   1.303999e-07   2.970148e+01   4.083409e+01   8.776653e-02   8.544226e+03   1.150592e+05  -9.178279e+04  -1.403963e+11   4.340831e+10   4.134704e+10   1.474304e+05   1.804909e-28  1.020628e-317  1.020628e-317
     1312000   1.311999e-07   2.970149e+01   4.083418e+01   8.769312e-02   8.431930e+03   1.150940e+05  -9.174964e+04  -1.403447e+11   4.338974e+10   4.153169e+10   1.474304e+05   1.804847e-28  1.020628e-317  1.020628e-317
     1320000   1.319999e-07   2.970149e+01   4.083427e+01   8.761973e-02   8.319675e+03   1.151287e+05  -9.171634e+04  -1.402928e+11   4.337110e+10   4.171628e+10   1.474304e+05   1.804785e-28  1.020628e-317  1.020628e-317
     1328000   1.327999e-07   2.970150e+01   4.083436e+01   8.754637e-02   8.207461e+03   1.151634e+05  -9.168290e+04  -1.402407e+11   4.335240e+10   4.190078e+10   1.474304e+05   1.804723e-28  1.020628e-317  1.020628e-317
     1336000   1.335999e-07   2.970151e+01   4.083445e+01   8.747304e-02   8.095289e+03   1.151980e+05  -9.164930e+04  -1.401885e+11   4.333363e+10   4.208521e+10   1.474304e+05   1.804661e-28  1.020628e-317  1.020628e-317
     1344000   1.343999e-07   2.970151e+01   4.083455e+01   8.739973e-02   7.983160e+03   1.152327e+05  -9.161556e+04  -1.401359e+11   4.331479e+10   4.226957e+10   1.474304e+05   1.804599e-28  1.020628e-317  1.020628e-317
     1352000   1.351999e-07   2.970152e+01   4.083464e+01   8.732645e-02   7.871072e+03   1.152673e+05  -9.158167e+04  -1.400832e+11   4.329589e+10   4.245385e+10   1.474304e+05   1.804537e-28  1.020628e-317  1.020628e-317
     1360000   1.359999e-07   2.970153e+01   4.083473e+01   8.725320e-02   7.759027e+03   1.153020e+05  -9.154763e+04  -1.400302e+11   4.327691e+10   4.263805e+10   1.474304e+05   1.804475e-28  1.020628e-317  1.020628e-317
     1368000   1.367999e-07   2.970153e+01   4.083482e+01   8.717998e-02   7.647024e+03   1.153366e+05  -9.151345e+04  -1.399771e+11   4.325787e+10   4.282217e+10   1.474304e+05   1.804413e-28  1.020628e-317  1.020628e-317
     1376000   1.375999e-07   2.970154e+01   4.083492e+01   8.710678e-02   7.535063e+03   1.153712e+05  -9.147912e+04  -1.399237e+11   4.323877e+10   4.300622e+10   1.474304e+05   1.804351e-28  1.020628e-317  1.020628e-317
     1384000   1.383999e-07   2.970154e+01   4.083501e+01   8.703361e-02   7.423146e+03   1.154058e+05  -9.144464e+04  -1.398701e+11   4.321960e+10   4.319020e+10   1.474304e+05   1.804289e-28  1.020628e-317  1.020628e-317
     1392000   1.391999e-07   2.970155e+01   4.083510e+01   8.696047e-02   7.311271e+03   1.154403e+05  -9.141001e+04  -1.398162e+11   4.320036e+10   4.337409e+10   1.474304e+05   1.804226e-28  1.020628e-317  1.020628e-317
     1400000   1.399999e-07   2.970156e+01   4.083519e+01   8.688735e-02   7.199440e+03   1.154749e+05  -9.137524e+04  -1.397622e+11   4.318105e+10   4.355791e+10   1.474304e+05   1.804164e-28  1.020628e-317  1.020628e-317
     1408000   1.407999e-07   2.970156e+01   4.083529e+01   8.681427e-02   7.087652e+03   1.155094e+05  -9.134032e+04  -1.397079e+11   4.316167e+10   4.374165e+10   1.474304e+05   1.804102e-28  1.020628e-317  1.020628e-317
     1416000   1.415999e-07   2.970157e+01   4.083538e+01   8.674121e-02   6.975907e+03   1.155439e+05  -9.130525e+04  -1.396534e+11   4.314223e+10   4.392531e+10   1.474304e+05   1.804040e-28  1.020628e-317  1.020628e-317
     1424000   1.423999e-07   2.970157e+01   4.083547e+01   8.666818e-02   6.864207e+03   1.155784e+05  -9.127004e+04  -1.395987e+11   4.312272e+10   4.410890e+10   1.474304e+05   1.803978e-28  1.020628e-317  1.020628e-317
     1432000   1.431999e-07   2.970158e+01   4.083556e+01   8.659518e-02   6.752550e+03   1.156129e+05  -9.123468e+04  -1.395437e+11   4.310315e+10   4.429240e+10   1.474304e+05   1.803916e-28  1.020628e-317  1.020628e-317
     1440000   1.439999e-07   2.970158e+01   4.083566e+01   8.652220e-02   6.640937e+03   1.156474e+05  -9.119917e+04  -1.394886e+11   4.308351e+10   4.447583e+10   1.474304e+05   1.803854e-28  1.020628e-317  1.020628e-317
     1448000   1.447999e-07   2.970159e+01   4.083575e+01   8.644926e-02   6.529368e+03   1.156819e+05  -9.116352e+04  -1.394332e+11   4.306380e+10   4.465918e+10   1.474304e+05   1.803792e-28  1.020628e-317  1.020628e-317
     1456000   1.455999e-07   2.970159e+01   4.083584e+01   8.637634e-02   6.417844e+03   1.157163e+05  -9.112772e+04  -1.393776e+11   4.304402e+10   4.484244e+10   1.474304e+05   1.803730e-28  1.020628e-317  1.020628e-317
     1464000   1.463999e-07   2.970160e+01   4.083593e+01   8.630345e-02   6.306364e+03   1.157507e+05  -9.109177e+04  -1.393218e+11   4.302418e+10   4.502563e+10   1.474304e+05   1.803668e-28  1.020628e-317  1.020628e-317
     1472000   1.471999e-07   2.970160e+01   4.083603e+01   8.623060e-02   6.194929e+03   1.157852e+05  -9.105568e+04  -1.392657e+11   4.300427e+10   4.520874e+10   1.474304e+05   1.803606e-28  1.020628e-317  1.020628e-317
     1480000   1.479999e-07   2.970161e+01   4.083612e+01   8.615777e-02   6.083539e+03   1.158195e+05  -9.101944e+04  -1.392095e+11   4.298430e+10   4.539177e+10   1.474304e+05   1.803544e-28  1.020628e-317  1.020628e-317
     1488000   1.487999e-07   2.970161e+01   4.083621e+01   8.608496e-02   5.972194e+03   1.158539e+05  -9.098305e+04  -1.391530e+11   4.296425e+10   4.557471e+10   1.474304e+05   1.803482e-28  1.020628e-317  1.020628e-317
     1496000   1.495999e-07   2.970162e+01   4.083630e+01   8.601219e-02   5.860894e+03   1.158883e+05  -9.094652e+04  -1.390963e+11   4.294415e+10   4.575758e+10   1.474304e+05   1.803420e-28  1.020628e-317  1.020628e-317
     1504000   1.503999e-07   2.970162e+01   4.083640e+01   8.593945e-02   5.749640e+03   1.159226e+05  -9.090984e+04  -1.390394e+11   4.292397e+10   4.594036e+10   1.474304e+05   1.803357e-28  1.020628e-317  1.020628e-317
     1512000   1.511999e-07   2.970163e+01   4.083649e+01   8.586674e-02   5.638431e+03   1.159570e+05  -9.087301e+04  -1.389823e+11   4.290373e+10   4.612307e+10   1.474304e+05   1.803295e-28  1.020628e-317  1.020628e-317
     1520000   1.519999e-07   2.970163e+01   4.083658e+01   8.579405e-02   5.527268e+03   1.159913e+05  -9.083604e+04  -1.389249e+11   4.288342e+10   4.630569e+10   1.474304e+05   1.803233e-28  1.020628e-317  1.020628e-317
     1528000   1.527999e-07   2.970164e+01   4.083667e+01   8.572140e-02   5.416151e+03   1.160256e+05  -9.079892e+04  -1.388673e+11   4.286305e+10   4.648823e+10   1.474304e+05   1.803171e-28  1.020628e-317  1.020628e-317
     1536000   1.535999e-07   2.970164e+01   4.083677e+01   8.564877e-02   5.305080e+03   1.160599e+05  -9.076166e+04  -1.388096e+11   4.284260e+10   4.667068e+10   1.474304e+05   1.803109e-28  1.020628e-317  1.020628e-317
     1544000   1.543999e-07   2.970165e+01   4.083686e+01   8.557618e-02   5.194056e+03   1.160941e+05  -9.072425e+04  -1.387515e+11   4.282210e+10   4.685306e+10   1.474304e+05   1.803047e-28  1.020628e-317  1.020628e-317
     1552000   1.551999e-07   2.970165e+01   4.083695e+01   8.550362e-02   5.083078e+03   1.161284e+05  -9.068669e+04  -1.386933e+11   4.280152e+10   4.703535e+10   1.474304e+05   1.802985e-28  1.020628e-317  1.020628e-317
     1560000   1.559999e-07   2.970165e+01   4.083705e+01   8.543108e-02   4.972147e+03   1.161626e+05  -9.064899e+04  -1.386349e+11   4.278088e+10   4.721755e+10   1.474304e+05   1.802923e-28  1.020628e-317  1.020628e-317
     1568000   1.567999e-07   2.970166e+01   4.083714e+01   8.535858e-02   4.861262e+03   1.161968e+05  -9.061115e+04  -1.385762e+11   4.276018e+10   4.739968e+10   1.474304e+05   1.802861e-28  1.020628e-317  1.020628e-317
     1576000   1.575999e-07   2.970166e+01   4.083723e+01   8.528610e-02   4.750425e+03   1.162310e+05  -9.057315e+04  -1.385173e+11   4.273940e+10   4.758172e+10   1.474304e+05   1.802799e-28  1.020628e-317  1.020628e-317
     1584000   1.583999e-07   2.970166e+01   4.083732e+01   8.521366e-02   4.639635e+03   1.162652e+05  -9.053502e+04  -1.384582e+11   4.271857e+10   4.776368e+10   1.474304e+05   1.802737e-28  1.020628e-317  1.020628e-317
     1592000   1.591999e-07   2.970167e+01   4.083742e+01   8.514125e-02   4.528892e+03   1.162994e+05  -9.049673e+04  -1.383989e+11   4.269766e+10   4.794555e+10   1.474304e+05   1.802675e-28  1.020628e-317  1.020628e-317
     1600000   1.599999e-07   2.970167e+01   4.083751e+01   8.506887e-02   4.418196e+03   1.163335e+05  -9.045830e+04  -1.383394e+11   4.267669e+10   4.812733e+10   1.474304e+05   1.802613e-28  1.020628e-317  1.020628e-317
     1608000   1.607999e-07   2.970168e+01   4.083760e+01   8.499651e-02   4.307549e+03   1.163677e+05  -9.041973e+04  -1.382796e+11   4.265565e+10   4.830904e+10   1.474304e+05   1.802551e-28  1.020628e-317  1.020628e-317
     1616000   1.615999e-07   2.970168e+01   4.083770e+01   8.492419e-02   4.196949e+03   1.164018e+05  -9.038101e+04  -1.382197e+11   4.263455e+10   4.849065e+10   1.474304e+05   1.802489e-28  1.020628e-317  1.020628e-317
     1624000   1.623999e-07   2.970168e+01   4.083779e+01   8.485191e-02   4.086397e+03   1.164359e+05  -9.034214e+04  -1.381595e+11   4.261338e+10   4.867218e+10   1.474304e+05   1.802427e-28  1.020628e-317  1.020628e-317
     1632000   1.631999e-07   2.970169e+01   4.083788e+01   8.477965e-02   3.975894e+03   1.164700e+05  -9.030313e+04  -1.380991e+11   4.259215e+10   4.885363e+10   1.474304e+05   1.802365e-28  1.020628e-317  1.020628e-317
     1640000   1.639999e-07   2.970169e+01   4.083798e+01   8.470742e-02   3.865439e+03   1.165040e+05  -9.026398e+04  -1.380384e+11   4.257084e+10   4.903499e+10   1.474304e+05   1.802303e-28  1.020628e-317  1.020628e-317
     1648000   1.647999e-07   2.970169e+01   4.083807e+01   8.463522e-02   3.755033e+03   1.165381e+05  -9.022468e+04  -1.379776e+11   4.254948e+10   4.921626e+10   1.474304e+05   1.802241e-28  1.020628e-317  1.020628e-317
     1656000   1.655999e-07   2.970169e+01   4.083816e+01   8.456306e-02   3.644675e+03   1.165721e+05  -9.018523e+04  -1.379165e+11   4.252804e+10   4.939745e+10   1.474304e+05   1.802179e-28  1.020628e-317  1.020628e-317
     1664000   1.663999e-07   2.970170e+01   4.083826e+01   8.449093e-02   3.534366e+03   1.166061e+05  -9.014564e+04  -1.378553e+11   4.250655e+10   4.957855e+10   1.474304e+05   1.802117e-28  1.020628e-317  1.020628e-317
     1672000   1.671999e-07   2.970170e+01   4.083835e+01   8.441883e-02   3.424107e+03   1.166401e+05  -9.010591e+04  -1.377938e+11   4.248498e+10   4.975956e+10   1.474304e+05   1.802054e-28  1.020628e-317  1.020628e-317
     1680000   1.679999e-07   2.970170e+01   4.083844e+01   8.434676e-02   3.313896e+03   1.166741e+05  -9.006603e+04  -1.377321e+11   4.246335e+10   4.994048e+10   1.474304e+05   1.801992e-28  1.020628e-317  1.020628e-317
     1688000   1.687999e-07   2.970171e+01   4.083854e+01   8.427472e-02   3.203735e+03   1.167081e+05  -9.002600e+04  -1.376702e+11   4.244166e+10   5.012132e+10   1.474304e+05   1.801930e-28  1.020628e-317  1.020628e-317
     1696000   1.695999e-07   2.970171e+01   4.083863e+01   8.420272e-02   3.093624e+03   1.167420e+05  -8.998583e+04  -1.376080e+11   4.241990e+10   5.030207e+10   1.474304e+05   1.801868e-28  1.020628e-317  1.020628e-317
     1704000   1.703999e-07   2.970171e+01   4.083872e+01   8.413074e-02   2.983563e+03   1.167759e+05  -8.994552e+04  -1.375457e+11   4.239807e+10   5.048273e+10   1.474304e+05   1.801806e-28  1.020628e-317  1.020628e-317
     1712000   1.711999e-07   2.970171e+01   4.083882e+01   8.405880e-02   2.873551e+03   1.168098e+05  -8.990506e+04  -1.374831e+11   4.237618e+10   5.066330e+10   1.474304e+05   1.801744e-28  1.020628e-317  1.020628e-317
     1720000   1.719999e-07   2.970172e+01   4.083891e+01   8.398690e-02   2.763590e+03   1.168437e+05  -8.986446e+04  -1.374203e+11   4.235422e+10   5.084378e+10   1.474304e+05   1.801682e-28  1.020628e-317  1.020628e-317
     1728000   1.727999e-07   2.970172e+01   4.083900e+01   8.391502e-02   2.653679e+03   1.168776e+05  -8.982371e+04  -1.373573e+11   4.233220e+10   5.102418e+10   1.474304e+05   1.801620e-28  1.020628e-317  1.020628e-317
     1736000   1.735999e-07   2.970172e+01   4.083910e+01   8.384318e-02   2.543818e+03   1.169115e+05  -8.978282e+04  -1.372941e+11   4.231011e+10   5.120448e+10   1.474304e+05   1.801558e-28  1.020628e-317  1.020628e-317
     1744000   1.743999e-07   2.970172e+01   4.083919e+01   8.377137e-02   2.434008e+03   1.169453e+05  -8.974178e+04  -1.372306e+11   4.228795e+10   5.138470e+10   1.474304e+05   1.801496e-28  1.020628e-317  1.020628e-317
     1752000   1.751999e-07   2.970172e+01   4.083928e+01   8.369959e-02   2.324249e+03   1.169791e+05  -8.970060e+04  -1.371670e+11   4.226573e+10   5.156482e+10   1.474304e+05   1.801434e-28  1.020628e-317  1.020628e-317
     1760000   1.759999e-07   2.970173e+01   4.083938e+01   8.362785e-02   2.214541e+03   1.170129e+05  -8.965928e+04  -1.371031e+11   4.224345e+10   5.174486e+10   1.474304e+05   1.801372e-28  1.020628e-317  1.020628e-317
     1768000   1.767999e-07   2.970173e+01   4.083947e+01   8.355614e-02   2.104884e+03   1.170467e+05  -8.961781e+04  -1.370390e+11   4.222110e+10   5.192480e+10   1.474304e+05   1.801310e-28  1.020628e-317  1.020628e-317
     1776000   1.775999e-07   2.970173e+01   4.083957e+01   8.348446e-02   1.995279e+03   1.170805e+05  -8.957620e+04  -1.369747e+11   4.219868e+10   5.210465e+10   1.474304e+05   1.801248e-28  1.020628e-317  1.020628e-317
     1784000   1.783999e-07   2.970173e+01   4.083966e+01   8.341282e-02   1.885725e+03   1.171142e+05  -8.953444e+04  -1.369102e+11   4.217620e+10   5.228441e+10   1.474304e+05   1.801186e-28  1.020628e-317  1.020628e-317
     1792000   1.791999e-07   2.970173e+01   4.083975e+01   8.334120e-02   1.776222e+03   1.171480e+05  -8.949254e+04  -1.368455e+11   4.215366e+10   5.246408e+10   1.474304e+05   1.801124e-28  1.020628e-317  1.020628e-317
     1800000   1.799999e-07   2.970173e+01   4.083985e+01   8.326963e-02   1.666772e+03   1.171817e+05  -8.945050e+04  -1.367806e+11   4.213104e+10   5.264366e+10   1.474304e+05   1.801062e-28  1.020628e-317  1.020628e-317
     1808000   1.807999e-07   2.970173e+01   4.083994e+01   8.319808e-02   1.557373e+03   1.172154e+05  -8.940831e+04  -1.367154e+11   4.210837e+10   5.282315e+10   1.474304e+05   1.801000e-28  1.020628e-317  1.020628e-317
     1816000   1.815999e-07   2.970174e+01   4.084003e+01   8.312657e-02   1.448027e+03   1.172490e+05  -8.936598e+04  -1.366500e+11   4.208563e+10   5.300254e+10   1.474304e+05   1.800938e-28  1.020628e-317  1.020628e-317
     1824000   1.823999e-07   2.970174e+01   4.084013e+01   8.305510e-02   1.338734e+03   1.172827e+05  -8.932351e+04  -1.365844e+11   4.206282e+10   5.318184e+10   1.474304e+05   1.800876e-28  1.020628e-317  1.020628e-317
     1832000   1.831999e-07   2.970174e+01   4.084022e+01   8.298366e-02   1.229492e+03   1.173163e+05  -8.928089e+04  -1.365186e+11   4.203995e+10   5.336105e+10   1.474304e+05   1.800814e-28  1.020628e-317  1.020628e-317
     1840000   1.839999e-07   2.970174e+01   4.084032e+01   8.291225e-02   1.120304e+03   1.173500e+05  -8.923813e+04  -1.364526e+11   4.201701e+10   5.354017e+10   1.474304e+05   1.800752e-28  1.020628e-317  1.020628e-317
     1848000   1.847999e-07   2.970174e+01   4.084041e+01   8.284088e-02   1.011168e+03   1.173836e+05  -8.919523e+04  -1.363864e+11   4.199401e+10   5.371919e+10   1.474304e+05   1.800690e-28  1.020628e-317  1.020628e-317
     1856000   1.855999e-07   2.970174e+01   4.084050e+01   8.276954e-02   9.020856e+02   1.174172e+05  -8.915218e+04  -1.363200e+11   4.197095e+10   5.389812e+10   1.474304e+05   1.800628e-28  1.020628e-317  1.020628e-317
     1864000   1.863999e-07   2.970174e+01   4.084060e+01   8.269823e-02   7.930563e+02   1.174507e+05  -8.910899e+04  -1.362533e+11   4.194782e+10   5.407695e+10   1.474304e+05   1.800566e-28  1.020628e-317  1.020628e-317
     1872000   1.871999e-07   2.970174e+01   4.084069e+01   8.262696e-02   6.840804e+02   1.174843e+05  -8.906566e+04  -1.361864e+11   4.192462e+10   5.425569e+10   1.474304e+05   1.800504e-28  1.020628e-317  1.020628e-317
     1880000   1.879999e-07   2.970174e+01   4.084079e+01   8.255573e-02   5.751581e+02   1.175178e+05  -8.902218e+04  -1.361193e+11   4.190136e+10   5.443434e+10   1.474304e+05   1.800442e-28  1.020628e-317  1.020628e-317
     1888000   1.887999e-07   2.970174e+01   4.084088e+01   8.248453e-02   4.662895e+02   1.175513e+05  -8.897856e+04  -1.360520e+11   4.187804e+10   5.461289e+10   1.474304e+05   1.800380e-28  1.020628e-317  1.020628e-317
     1896000   1.895999e-07   2.970174e+01   4.084097e+01   8.241336e-02   3.574749e+02   1.175848e+05  -8.893480e+04  -1.359845e+11   4.185465e+10   5.479135e+10   1.474304e+05   1.800318e-28  1.020628e-317  1.020628e-317
     1904000   1.903999e-07   2.970174e+01   4.084107e+01   8.234223e-02   2.487143e+02   1.176183e+05  -8.889090e+04  -1.359168e+11   4.183119e+10   5.496971e+10   1.474304e+05   1.800256e-28  1.020628e-317  1.020628e-317
     1912000   1.911999e-07   2.970174e+01   4.084116e+01   8.227114e-02   1.400080e+02   1.176517e+05  -8.884685e+04  -1.358489e+11   4.180767e+10   5.514797e+10   1.474304e+05   1.800194e-28  1.020628e-317  1.020628e-317
     1920000   1.919999e-07   2.970174e+01   4.084126e+01   8.220008e-02   3.135619e+01   1.176852e+05  -8.880266e+04  -1.357807e+11   4.178409e+10   5.532614e+10   1.474304e+05   1.800132e-28  1.020628e-317  1.020628e-317
     1928000   1.927999e-07   2.970174e+01   4.084135e+01   8.212905e-02  -7.724104e+01   1.177186e+05  -8.875833e+04  -1.357123e+11   4.176044e+10   5.550421e+10   1.474304e+05   1.800070e-28  1.020628e-317  1.020628e-317
     1936000   1.935999e-07   2.970174e+01   4.084144e+01   8.205806e-02  -1.857835e+02   1.177520e+05  -8.871385e+04  -1.356438e+11   4.173673e+10   5.568219e+10   1.474304e+05   1.800008e-28  1.020628e-317  1.020628e-317
     1944000   1.943999e-07   2.970174e+01   4.084154e+01   8.198711e-02  -2.942710e+02   1.177854e+05  -8.866924e+04  -1.355750e+11   4.171296e+10   5.586007e+10   1.474304e+05   1.799946e-28  1.020628e-317  1.020628e-317
     1952000   1.951999e-07   2.970174e+01   4.084163e+01   8.191619e-02  -4.027034e+02   1.178187e+05  -8.862448e+04  -1.355060e+11   4.168912e+10   5.603785e+10   1.474304e+05   1.799884e-28  1.020628e-317  1.020628e-317
     1960000   1.959999e-07   2.970174e+01   4.084173e+01   8.184531e-02  -5.110805e+02   1.178521e+05  -8.857958e+04  -1.354368e+11   4.166521e+10   5.621554e+10   1.474304e+05   1.799822e-28  1.020628e-317  1.020628e-317
     1968000   1.967999e-07   2.970174e+01   4.084182e+01   8.177446e-02  -6.194022e+02   1.178854e+05  -8.853453e+04  -1.353673e+11   4.164124e+10   5.639312e+10   1.474304e+05   1.799760e-28  1.020628e-317  1.020628e-317
     1976000   1.975999e-07   2.970174e+01   4.084192e+01   8.170366e-02  -7.276682e+02   1.179187e+05  -8.848935e+04  -1.352977e+11   4.161721e+10   5.657061e+10   1.474304e+05   1.799698e-28  1.020628e-317  1.020628e-317
     1984000   1.983999e-07   2.970174e+01   4.084201e+01   8.163288e-02  -8.358784e+02   1.179520e+05  -8.844402e+04  -1.352278e+11   4.159311e+10   5.674801e+10   1.474304e+05   1.799636e-28  1.020628e-317  1.020628e-317
     1992000   1.991999e-07   2.970174e+01   4.084210e+01   8.156214e-02  -9.440327e+02   1.179853e+05  -8.839855e+04  -1.351578e+11   4.156895e+10   5.692530e+10   1.474304e+05   1.799574e-28  1.020628e-317  1.020628e-317
     2000000   1.999999e-07   2.970174e+01   4.084220e+01   8.149144e-02  -1.052131e+03   1.180185e+05  -8.835294e+04  -1.350875e+11   4.154472e+10   5.710249e+10   1.474304e+05   1.799513e-28  1.020628e-317  1.020628e-317
     2008000   2.007999e-07   2.970174e+01   4.084229e+01   8.142078e-02  -1.160173e+03   1.180517e+05  -8.830719e+04  -1.350170e+11   4.152043e+10   5.727959e+10   1.474304e+05   1.799451e-28  1.020628e-317  1.020628e-317
     2016000   2.015999e-07   2.970174e+01   4.084239e+01   8.135015e-02  -1.268158e+03   1.180849e+05  -8.826129e+04  -1.349463e+11   4.149608e+10   5.745659e+10   1.474304e+05   1.799389e-28  1.020628e-317  1.020628e-317
     2024000   2.023999e-07   2.970174e+01   4.084248e+01   8.127956e-02  -1.376087e+03   1.181181e+05  -8.821526e+04  -1.348754e+11   4.147166e+10   5.763348e+10   1.474304e+05   1.799327e-28  1.020628e-317  1.020628e-317
     2032000   2.031999e-07   2.970173e+01   4.084258e+01   8.120901e-02  -1.483959e+03   1.181513e+05  -8.816908e+04  -1.348043e+11   4.144718e+10   5.781028e+10   1.474304e+05   1.799265e-28  1.020628e-317  1.020628e-317
     2040000   2.039999e-07   2.970173e+01   4.084267e+01   8.113849e-02  -1.591773e+03   1.181844e+05  -8.812276e+04  -1.347329e+11   4.142263e+10   5.798698e+10   1.474304e+05   1.799203e-28  1.020628e-317  1.020628e-317
     2048000   2.047999e-07   2.970173e+01   4.084277e+01   8.106801e-02  -1.699531e+03   1.182176e+05  -8.807630e+04  -1.346614e+11   4.139803e+10   5.816358e+10   1.474304e+05   1.799141e-28  1.020628e-317  1.020628e-317
     2056000   2.055999e-07   2.970173e+01   4.084286e+01   8.099757e-02  -1.807232e+03   1.182507e+05  -8.802970e+04  -1.345896e+11   4.137335e+10   5.834007e+10   1.474304e+05   1.799079e-28  1.020628e-317  1.020628e-317
     2064000   2.063999e-07   2.970173e+01   4.084295e+01   8.092716e-02  -1.914875e+03   1.182838e+05  -8.798296e+04  -1.345177e+11   4.134862e+10   5.851647e+10   1.474304e+05   1.799017e-28  1.020628e-317  1.020628e-317
     2072000   2.071999e-07   2.970173e+01   4.084305e+01   8.085680e-02  -2.022460e+03   1.183168e+05  -8.793607e+04  -1.344455e+11   4.132381e+10   5.869276e+10   1.474304e+05   1.798955e-28  1.020628e-317  1.020628e-317
     2080000   2.079999e-07   2.970173e+01   4.084314e+01   8.078647e-02  -2.129987e+03   1.183499e+05  -8.788905e+04  -1.343731e+11   4.129895e+10   5.886896e+10   1.474304e+05   1.798893e-28  1.020628e-317  1.020628e-317
     2088000   2.087999e-07   2.970172e+01   4.084324e+01   8.071617e-02  -2.237457e+03   1.183829e+05  -8.784188e+04  -1.343005e+11   4.127402e+10   5.904505e+10   1.474304e+05   1.798831e-28  1.020628e-317  1.020628e-317
     2096000   2.095999e-07   2.970172e+01   4.084333e+01   8.064592e-02  -2.344868e+03   1.184159e+05  -8.779457e+04  -1.342277e+11   4.124903e+10   5.922104e+10   1.474304e+05   1.798769e-28  1.020628e-317  1.020628e-317
     2104000   2.103999e-07   2.970172e+01   4.084343e+01   8.057570e-02  -2.452221e+03   1.184489e+05  -8.774713e+04  -1.341547e+11   4.122398e+10   5.939692e+10   1.474304e+05   1.798707e-28  1.020628e-317  1.020628e-317
     2112000   2.111999e-07   2.970172e+01   4.084352e+01   8.050552e-02  -2.559515e+03   1.184819e+05  -8.769954e+04  -1.340815e+11   4.119886e+10   5.957271e+10   1.474304e+05   1.798645e-28  1.020628e-317  1.020628e-317
     2120000   2.119999e-07   2.970172e+01   4.084362e+01   8.043538e-02  -2.666751e+03   1.185148e+05  -8.765181e+04  -1.340080e+11   4.117368e+10   5.974839e+10   1.474304e+05   1.798583e-28  1.020628e-317  1.020628e-317
     2128000   2.127999e-07   2.970171e+01   4.084371e+01   8.036528e-02  -2.773928e+03   1.185478e+05  -8.760394e+04  -1.339344e+11   4.114843e+10   5.992397e+10   1.474304e+05   1.798521e-28  1.020628e-317  1.020628e-317
     2136000   2.135999e-07   2.970171e+01   4.084381e+01   8.029522e-02  -2.881046e+03   1.185807e+05  -8.755593e+04  -1.338605e+11   4.112312e+10   6.009944e+10   1.474304e+05   1.798459e-28  1.020628e-317  1.020628e-317
     2144000   2.143999e-07   2.970171e+01   4.084390e+01   8.022519e-02  -2.988105e+03   1.186135e+05  -8.750778e+04  -1.337865e+11   4.109775e+10   6.027482e+10   1.474304e+05   1.798397e-28  1.020628e-317  1.020628e-317
     2152000   2.151999e-07   2.970171e+01   4.084400e+01   8.015521e-02  -3.095105e+03   1.186464e+05  -8.745949e+04  -1.337122e+11   4.107231e+10   6.045008e+10   1.474304e+05   1.798335e-28  1.020628e-317  1.020628e-317
     2160000   2.159999e-07   2.970170e+01   4.084409e+01   8.008526e-02  -3.202044e+03   1.186793e+05  -8.741106e+04  -1.336377e+11   4.104682e+10   6.062525e+10   1.474304e+05   1.798274e-28  1.020628e-317  1.020628e-317
     2168000   2.167999e-07   2.970170e+01   4.084419e+01   8.001535e-02  -3.308925e+03   1.187121e+05  -8.736249e+04  -1.335630e+11   4.102125e+10   6.080031e+10   1.474304e+05   1.798212e-28  1.020628e-317  1.020628e-317
     2176000   2.175999e-07   2.970170e+01   4.084428e+01   7.994548e-02  -3.415745e+03   1.187449e+05  -8.731378e+04  -1.334881e+11   4.099563e+10   6.097526e+10   1.474304e+05   1.798150e-28  1.020628e-317  1.020628e-317
     2184000   2.183999e-07   2.970170e+01   4.084438e+01   7.987565e-02  -3.522506e+03   1.187777e+05  -8.726493e+04  -1.334130e+11   4.096994e+10   6.115011e+10   1.474304e+05   1.798088e-28  1.020628e-317  1.020628e-317
     2192000   2.191999e-07   2.970169e+01   4.084447e+01   7.980585e-02  -3.629206e+03   1.188104e+05  -8.721594e+04  -1.333377e+11   4.094419e+10   6.132486e+10   1.474304e+05   1.798026e-28  1.020628e-317  1.020628e-317
     2200000   2.199999e-07   2.970169e+01   4.084457e+01   7.973610e-02  -3.735846e+03   1.188432e+05  -8.716681e+04  -1.332621e+11   4.091838e+10   6.149950e+10   1.474304e+05   1.797964e-28  1.020628e-317  1.020628e-317
     2208000   2.207999e-07   2.970169e+01   4.084466e+01   7.966639e-02  -3.842425e+03   1.188759e+05  -8.711754e+04  -1.331864e+11   4.089250e+10   6.167403e+10   1.474304e+05   1.797902e-28  1.020628e-317  1.020628e-317
     2216000   2.215999e-07   2.970168e+01   4.084476e+01   7.959671e-02  -3.948944e+03   1.189086e+05  -8.706813e+04  -1.331104e+11   4.086656e+10   6.184846e+10   1.474304e+05   1.797840e-28  1.020628e-317  1.020628e-317
     2224000   2.223999e-07   2.970168e+01   4.084485e+01   7.952708e-02  -4.055402e+03   1.189413e+05  -8.701859e+04  -1.330343e+11   4.084056e+10   6.202278e+10   1.474304e+05   1.797778e-28  1.020628e-317  1.020628e-317
     2232000   2.231999e-07   2.970168e+01   4.084495e+01   7.945748e-02  -4.161799e+03   1.189740e+05  -8.696890e+04  -1.329579e+11   4.081449e+10   6.219699e+10   1.474304e+05   1.797716e-28  1.020628e-317  1.020628e-317
     2240000   2.239999e-07   2.970168e+01   4.084504e+01   7.938793e-02  -4.268134e+03   1.190066e+05  -8.691907e+04  -1.328814e+11   4.078836e+10   6.237110e+10   1.474304e+05   1.797654e-28  1.020628e-317  1.020628e-317
     2248000   2.247999e-07   2.970167e+01   4.084514e+01   7.931841e-02  -4.374409e+03   1.190392e+05  -8.686910e+04  -1.328046e+11   4.076217e+10   6.254510e+10   1.474304e+05   1.797592e-28  1.020628e-317  1.020628e-317
     2256000   2.255999e-07   2.970167e+01   4.084523e+01   7.924894e-02  -4.480622e+03   1.190718e+05  -8.681900e+04  -1.327276e+11   4.073592e+10   6.271900e+10   1.474304e+05   1.797530e-28  1.020628e-317  1.020628e-317
     2264000   2.263999e-07   2.970166e+01   4.084533e+01   7.917950e-02  -4.586773e+03   1.191044e+05  -8.676875e+04  -1.326504e+11   4.070960e+10   6.289278e+10   1.474304e+05   1.797469e-28  1.020628e-317  1.020628e-317
     2272000   2.271999e-07   2.970166e+01   4.084542e+01   7.911011e-02  -4.692862e+03   1.191370e+05  -8.671837e+04  -1.325730e+11   4.068323e+10   6.306646e+10   1.474304e+05   1.797407e-28  1.020628e-317  1.020628e-317
     2280000   2.279999e-07   2.970166e+01   4.084552e+01   7.904075e-02  -4.798890e+03   1.191695e+05  -8.666785e+04  -1.324954e+11   4.065678e+10   6.324003e+10   1.474304e+05   1.797345e-28  1.020628e-317  1.020628e-317
     2288000   2.287999e-07   2.970165e+01   4.084561e+01   7.897144e-02  -4.904855e+03   1.192020e+05  -8.661719e+04  -1.324176e+11   4.063028e+10   6.341349e+10   1.474304e+05   1.797283e-28  1.020628e-317  1.020628e-317
     2296000   2.295999e-07   2.970165e+01   4.084571e+01   7.890216e-02  -5.010758e+03   1.192345e+05  -8.656639e+04  -1.323395e+11   4.060372e+10   6.358684e+10   1.474304e+05   1.797221e-28  1.020628e-317  1.020628e-317
     2304000   2.303999e-07   2.970164e+01   4.084581e+01   7.883293e-02  -5.116598e+03   1.192670e+05  -8.651545e+04  -1.322613e+11   4.057709e+10   6.376008e+10   1.474304e+05   1.797159e-28  1.020628e-317  1.020628e-317
     2312000   2.311999e-07   2.970164e+01   4.084590e+01   7.876374e-02  -5.222376e+03   1.192994e+05  -8.646437e+04  -1.321829e+11   4.055040e+10   6.393322e+10   1.474304e+05   1.797097e-28  1.020628e-317  1.020628e-317
     2320000   2.319999e-07   2.970164e+01   4.084600e+01   7.869459e-02  -5.328091e+03   1.193319e+05  -8.641315e+04  -1.321042e+11   4.052364e+10   6.410624e+10   1.474304e+05   1.797035e-28  1.020628e-317  1.020628e-317
     2328000   2.327999e-07   2.970163e+01   4.084609e+01   7.862548e-02  -5.433742e+03   1.193643e+05  -8.636180e+04  -1.320254e+11   4.049683e+10   6.427916e+10   1.474304e+05   1.796973e-28  1.020628e-317  1.020628e-317
     2336000   2.335999e-07   2.970163e+01   4.084619e+01   7.855641e-02  -5.539331e+03   1.193967e+05  -8.631031e+04  -1.319463e+11   4.046995e+10   6.445196e+10   1.474304e+05   1.796912e-28  1.020628e-317  1.020628e-317
     2344000   2.343999e-07   2.970162e+01   4.084628e+01   7.848738e-02  -5.644857e+03   1.194290e+05  -8.625868e+04  -1.318671e+11   4.044301e+10   6.462466e+10   1.474304e+05   1.796850e-28  1.020628e-317  1.020628e-317
     2352000   2.351999e-07   2.970162e+01   4.084638e+01   7.841840e-02  -5.750318e+03   1.194614e+05  -8.620691e+04  -1.317876e+11   4.041601e+10   6.479724e+10   1.474304e+05   1.796788e-28  1.020628e-317  1.020628e-317
     2360000   2.359999e-07   2.970161e+01   4.084647e+01   7.834945e-02  -5.855717e+03   1.194937e+05  -8.615500e+04  -1.317079e+11   4.038894e+10   6.496971e+10   1.474304e+05   1.796726e-28  1.020628e-317  1.020628e-317
     2368000   2.367999e-07   2.970161e+01   4.084657e+01   7.828055e-02  -5.961051e+03   1.195260e+05  -8.610296e+04  -1.316281e+11   4.036182e+10   6.514208e+10   1.474304e+05   1.796664e-28  1.020628e-317  1.020628e-317
     2376000   2.375999e-07   2.970160e+01   4.084666e+01   7.821169e-02  -6.066321e+03   1.195583e+05  -8.605077e+04  -1.315480e+11   4.033463e+10   6.531433e+10   1.474304e+05   1.796602e-28  1.020628e-317  1.020628e-317
     2384000   2.383999e-07   2.970160e+01   4.084676e+01   7.814287e-02  -6.171528e+03   1.195905e+05  -8.599845e+04  -1.314677e+11   4.030738e+10   6.548647e+10   1.474304e+05   1.796540e-28  1.020628e-317  1.020628e-317
     2392000   2.391999e-07   2.970159e+01   4.084686e+01   7.807409e-02  -6.276670e+03   1.196228e+05  -8.594600e+04  -1.313872e+11   4.028007e+10   6.565849e+10   1.474304e+05   1.796478e-28  1.020628e-317  1.020628e-317
     2400000   2.399999e-07   2.970159e+01   4.084695e+01   7.800535e-02  -6.381747e+03   1.196550e+05  -8.589340e+04  -1.313065e+11   4.025269e+10   6.583041e+10   1.474304e+05   1.796416e-28  1.020628e-317  1.020628e-317
     2408000   2.407999e-07   2.970158e+01   4.084705e+01   7.793666e-02  -6.486760e+03   1.196872e+05  -8.584067e+04  -1.312256e+11   4.022526e+10   6.600221e+10   1.474304e+05   1.796355e-28  1.020628e-317  1.020628e-317
     2416000   2.415999e-07   2.970158e+01   4.084714e+01   7.786801e-02  -6.591708e+03   1.197193e+05  -8.578780e+04  -1.311445e+11   4.019776e+10   6.617390e+10   1.474304e+05   1.796293e-28  1.020628e-317  1.020628e-317
     2424000   2.423999e-07   2.970157e+01   4.084724e+01   7.779940e-02  -6.696591e+03   1.197515e+05  -8.573479e+04  -1.310632e+11   4.017020e+10   6.634548e+10   1.474304e+05   1.796231e-28  1.020628e-317  1.020628e-317
     2432000   2.431999e-07   2.970157e+01   4.084733e+01   7.773083e-02  -6.801409e+03   1.197836e+05  -8.568164e+04  -1.309816e+11   4.014258e+10   6.651694e+10   1.474304e+05   1.796169e-28  1.020628e-317  1.020628e-317
     2440000   2.439999e-07   2.970156e+01   4.084743e+01   7.766231e-02  -6.906162e+03   1.198157e+05  -8.562836e+04  -1.308999e+11   4.011490e+10   6.668829e+10   1.474304e+05   1.796107e-28  1.020628e-317  1.020628e-317
     2448000   2.447999e-07   2.970156e+01   4.084753e+01   7.759383e-02  -7.010849e+03   1.198478e+05  -8.557494e+04  -1.308180e+11   4.008716e+10   6.685952e+10   1.474304e+05   1.796045e-28  1.020628e-317  1.020628e-317
     2456000   2.455999e-07   2.970155e+01   4.084762e+01   7.752539e-02  -7.115470e+03   1.198798e+05  -8.552139e+04  -1.307359e+11   4.005935e+10   6.703065e+10   1.474304e+05   1.795983e-28  1.020628e-317  1.020628e-317
     2464000   2.463999e-07   2.970155e+01   4.084772e+01   7.745699e-02  -7.220026e+03   1.199119e+05  -8.546769e+04  -1.306535e+11   4.003149e+10   6.720165e+10   1.474304e+05   1.795922e-28  1.020628e-317  1.020628e-317
     2472000   2.471999e-07   2.970154e+01   4.084781e+01   7.738864e-02  -7.324516e+03   1.199439e+05  -8.541386e+04  -1.305710e+11   4.000356e+10   6.737255e+10   1.474304e+05   1.795860e-28  1.020628e-317  1.020628e-317
     2480000   2.479999e-07   2.970153e+01   4.084791e+01   7.732033e-02  -7.428940e+03   1.199759e+05  -8.535990e+04  -1.304882e+11   3.997557e+10   6.754333e+10   1.474304e+05   1.795798e-28  1.020628e-317  1.020628e-317
     2488000   2.487999e-07   2.970153e+01   4.084801e+01   7.725207e-02  -7.533297e+03   1.200079e+05  -8.530579e+04  -1.304053e+11   3.994752e+10   6.771399e+10   1.474304e+05   1.795736e-28  1.020628e-317  1.020628e-317
     2496000   2.495999e-07   2.970152e+01   4.084810e+01   7.718384e-02  -7.637588e+03   1.200398e+05  -8.525155e+04  -1.303221e+11   3.991941e+10   6.788454e+10   1.474304e+05   1.795674e-28  1.020628e-317  1.020628e-317
     2504000   2.503999e-07   2.970152e+01   4.084820e+01   7.711566e-02  -7.741812e+03   1.200717e+05  -8.519718e+04  -1.302388e+11   3.989123e+10   6.805497e+10   1.474304e+05   1.795612e-28  1.020628e-317  1.020628e-317
     2512000   2.511999e-07   2.970151e+01   4.084829e+01   7.704753e-02  -7.845970e+03   1.201036e+05  -8.514267e+04  -1.301552e+11   3.986300e+10   6.822528e+10   1.474304e+05   1.795550e-28  1.020628e-317  1.020628e-317
     2520000   2.519999e-07   2.970150e+01   4.084839e+01   7.697943e-02  -7.950061e+03   1.201355e+05  -8.508802e+04  -1.300715e+11   3.983470e+10   6.839548e+10   1.474304e+05   1.795489e-28  1.020628e-317  1.020628e-317
     2528000   2.527999e-07   2.970150e+01   4.084849e+01   7.691139e-02  -8.054084e+03   1.201674e+05  -8.503323e+04  -1.299875e+11   3.980635e+10   6.856557e+10   1.474304e+05   1.795427e-28  1.020628e-317  1.020628e-317
     2536000   2.535999e-07   2.970149e+01   4.084858e+01   7.684338e-02  -8.158041e+03   1.201992e+05  -8.497831e+04  -1.299033e+11   3.977793e+10   6.873554e+10   1.474304e+05   1.795365e-28  1.020628e-317  1.020628e-317
     2544000   2.543999e-07   2.970148e+01   4.084868e+01   7.677542e-02  -8.261930e+03   1.202310e+05  -8.492326e+04  -1.298190e+11   3.974945e+10   6.890539e+10   1.474304e+05   1.795303e-28  1.020628e-317  1.020628e-317
     2552000   2.551999e-07   2.970148e+01   4.084878e+01   7.670750e-02  -8.365751e+03   1.202628e+05  -8.486807e+04  -1.297344e+11   3.972091e+10   6.907512e+10   1.474304e+05   1.795241e-28  1.020628e-317  1.020628e-317
     2560000   2.559999e-07   2.970147e+01   4.084887e+01   7.663963e-02  -8.469505e+03   1.202946e+05  -8.481274e+04  -1.296496e+11   3.969231e+10   6.924473e+10   1.474304e+05   1.795179e-28  1.020628e-317  1.020628e-317
     2568000   2.567999e-07   2.970146e+01   4.084897e+01   7.657180e-02  -8.573190e+03   1.203263e+05  -8.475727e+04  -1.295647e+11   3.966365e+10   6.941423e+10   1.474304e+05   1.795118e-28  1.020628e-317  1.020628e-317
     2576000   2.575999e-07   2.970146e+01   4.084906e+01   7.650402e-02  -8.676808e+03   1.203580e+05  -8.470167e+04  -1.294795e+11   3.963493e+10   6.958361e+10   1.474304e+05   1.795056e-28  1.020628e-317  1.020628e-317
     2584000   2.583999e-07   2.970145e+01   4.084916e+01   7.643628e-02  -8.780357e+03   1.203897e+05  -8.464594e+04  -1.293941e+11   3.960615e+10   6.975287e+10   1.474304e+05   1.794994e-28  1.020628e-317  1.020628e-317
     2592000   2.591999e-07   2.970144e+01   4.084926e+01   7.636859e-02  -8.883839e+03   1.204214e+05  -8.459007e+04  -1.293085e+11   3.957731e+10   6.992202e+10   1.474304e+05   1.794932e-28  1.020628e-317  1.020628e-317
     2600000   2.599999e-07   2.970144e+01   4.084935e+01   7.630094e-02  -8.987251e+03   1.204530e+05  -8.453406e+04  -1.292228e+11   3.954840e+10   7.009104e+10   1.474304e+05   1.794870e-28  1.020628e-317  1.020628e-317
     2608000   2.607999e-07   2.970143e+01   4.084945e+01   7.623333e-02  -9.090595e+03   1.204847e+05  -8.447792e+04  -1.291368e+11   3.951944e+10   7.025994e+10   1.474304e+05   1.794808e-28  1.020628e-317  1.020628e-317
     2616000   2.615999e-07   2.970142e+01   4.084955e+01   7.616577e-02  -9.193870e+03   1.205163e+05  -8.442165e+04  -1.290506e+11   3.949041e+10   7.042873e+10   1.474304e+05   1.794747e-28  1.020628e-317  1.020628e-317
     2624000   2.623999e-07   2.970141e+01   4.084964e+01   7.609826e-02  -9.297076e+03   1.205479e+05  -8.436524e+04  -1.289642e+11   3.946133e+10   7.059740e+10   1.474304e+05   1.794685e-28  1.020628e-317  1.020628e-317
     2632000   2.631999e-07   2.970141e+01   4.084974e+01   7.603079e-02  -9.400213e+03   1.205794e+05  -8.430869e+04  -1.288776e+11   3.943218e+10   7.076594e+10   1.474304e+05   1.794623e-28  1.020628e-317  1.020628e-317
     2640000   2.639999e-07   2.970140e+01   4.084984e+01   7.596336e-02  -9.503280e+03   1.206109e+05  -8.425201e+04  -1.287908e+11   3.940298e+10   7.093437e+10   1.474304e+05   1.794561e-28  1.020628e-317  1.020628e-317
     2648000   2.647999e-07   2.970139e+01   4.084993e+01   7.589598e-02  -9.606278e+03   1.206425e+05  -8.419520e+04  -1.287039e+11   3.937371e+10   7.110268e+10   1.474304e+05   1.794499e-28  1.020628e-317  1.020628e-317
     2656000   2.655999e-07   2.970138e+01   4.085003e+01   7.582865e-02  -9.709206e+03   1.206739e+05  -8.413825e+04  -1.286167e+11   3.934438e+10   7.127086e+10   1.474304e+05   1.794437e-28  1.020628e-317  1.020628e-317
     2664000   2.663999e-07   2.970138e+01   4.085012e+01   7.576136e-02  -9.812064e+03   1.207054e+05  -8.408116e+04  -1.285293e+11   3.931500e+10   7.143893e+10   1.474304e+05   1.794376e-28  1.020628e-317  1.020628e-317
     2672000   2.671999e-07   2.970137e+01   4.085022e+01   7.569412e-02  -9.914853e+03   1.207369e+05  -8.402395e+04  -1.284417e+11   3.928555e+10   7.160687e+10   1.474304e+05   1.794314e-28  1.020628e-317  1.020628e-317
     2680000   2.679999e-07   2.970136e+01   4.085032e+01   7.562693e-02  -1.001757e+04   1.207683e+05  -8.396659e+04  -1.283539e+11   3.925604e+10   7.177469e+10   1.474304e+05   1.794252e-28  1.020628e-317  1.020628e-317
     2688000   2.687999e-07   2.970135e+01   4.085041e+01   7.555978e-02  -1.012022e+04   1.207997e+05  -8.390911e+04  -1.282659e+11   3.922648e+10   7.194239e+10   1.474304e+05   1.794190e-28  1.020628e-317  1.020628e-317
     2696000   2.695999e-07   2.970134e+01   4.085051e+01   7.549267e-02  -1.022280e+04   1.208310e+05  -8.385149e+04  -1.281777e+11   3.919685e+10   7.210997e+10   1.474304e+05   1.794128e-28  1.020628e-317  1.020628e-317
     2704000   2.703999e-07   2.970134e+01   4.085061e+01   7.542561e-02  -1.032530e+04   1.208624e+05  -8.379373e+04  -1.280893e+11   3.916716e+10   7.227743e+10   1.474304e+05   1.794067e-28  1.020628e-317  1.020628e-317
     2712000   2.711999e-07   2.970133e+01   4.085070e+01   7.535860e-02  -1.042774e+04   1.208937e+05  -8.373584e+04  -1.280008e+11   3.913742e+10   7.244476e+10   1.474304e+05   1.794005e-28  1.020628e-317  1.020628e-317
     2720000   2.719999e-07   2.970132e+01   4.085080e+01   7.529164e-02  -1.053010e+04   1.209250e+05  -8.367782e+04  -1.279120e+11   3.910761e+10   7.261197e+10   1.474304e+05   1.793943e-28  1.020628e-317  1.020628e-317
     2728000   2.727999e-07   2.970131e+01   4.085090e+01   7.522472e-02  -1.063240e+04   1.209563e+05  -8.361966e+04  -1.278230e+11   3.907774e+10   7.277906e+10   1.474304e+05   1.793881e-28  1.020628e-317  1.020628e-317
     2736000   2.735999e-07   2.970130e+01   4.085099e+01   7.515784e-02  -1.073462e+04   1.209875e+05  -8.356137e+04  -1.277338e+11   3.904782e+10   7.294603e+10   1.474304e+05   1.793819e-28  1.020628e-317  1.020628e-317
     2744000   2.743999e-07   2.970129e+01   4.085109e+01   7.509102e-02  -1.083677e+04   1.210187e+05  -8.350295e+04  -1.276444e+11   3.901783e+10   7.311287e+10   1.474304e+05   1.793758e-28  1.020628e-317  1.020628e-317
     2752000   2.751999e-07   2.970128e+01   4.085119e+01   7.502424e-02  -1.093885e+04   1.210499e+05  -8.344439e+04  -1.275549e+11   3.898778e+10   7.327959e+10   1.474304e+05   1.793696e-28  1.020628e-317  1.020628e-317
     2760000   2.759999e-07   2.970128e+01   4.085129e+01   7.495751e-02  -1.104086e+04   1.210811e+05  -8.338570e+04  -1.274651e+11   3.895768e+10   7.344618e+10   1.474304e+05   1.793634e-28  1.020628e-317  1.020628e-317
     2768000   2.767999e-07   2.970127e+01   4.085138e+01   7.489082e-02  -1.114280e+04   1.211123e+05  -8.332688e+04  -1.273751e+11   3.892751e+10   7.361265e+10   1.474304e+05   1.793572e-28  1.020628e-317  1.020628e-317
     2776000   2.775999e-07   2.970126e+01   4.085148e+01   7.482418e-02  -1.124466e+04   1.211434e+05  -8.326792e+04  -1.272849e+11   3.889729e+10   7.377900e+10   1.474304e+05   1.793511e-28  1.020628e-317  1.020628e-317
     2784000   2.783999e-07   2.970125e+01   4.085158e+01   7.475759e-02  -1.134645e+04   1.211745e+05  -8.320883e+04  -1.271946e+11   3.886701e+10   7.394522e+10   1.474304e+05   1.793449e-28  1.020628e-317  1.020628e-317
     2792000   2.791999e-07   2.970124e+01   4.085167e+01   7.469105e-02  -1.144817e+04   1.212056e+05  -8.314961e+04  -1.271040e+11   3.883666e+10   7.411132e+10   1.474304e+05   1.793387e-28  1.020628e-317  1.020628e-317
     2800000   2.799999e-07   2.970123e+01   4.085177e+01   7.462455e-02  -1.154982e+04   1.212367e+05  -8.309025e+04  -1.270132e+11   3.880626e+10   7.427729e+10   1.474304e+05   1.793325e-28  1.020628e-317  1.020628e-317
     2808000   2.807999e-07   2.970122e+01   4.085187e+01   7.455811e-02  -1.165139e+04   1.212677e+05  -8.303077e+04  -1.269223e+11   3.877580e+10   7.444313e+10   1.474304e+05   1.793263e-28  1.020628e-317  1.020628e-317
     2816000   2.815999e-07   2.970121e+01   4.085196e+01   7.449171e-02  -1.175289e+04   1.212987e+05  -8.297114e+04  -1.268311e+11   3.874528e+10   7.460885e+10   1.474304e+05   1.793202e-28  1.020628e-317  1.020628e-317
     2824000   2.823999e-07   2.970120e+01   4.085206e+01   7.442535e-02  -1.185432e+04   1.213297e+05  -8.291139e+04  -1.267397e+11   3.871470e+10   7.477445e+10   1.474304e+05   1.793140e-28  1.020628e-317  1.020628e-317
     2832000   2.831999e-07   2.970119e+01   4.085216e+01   7.435905e-02  -1.195568e+04   1.213606e+05  -8.285151e+04  -1.266482e+11   3.868406e+10   7.493991e+10   1.474304e+05   1.793078e-28  1.020628e-317  1.020628e-317
     2840000   2.839999e-07   2.970118e+01   4.085226e+01   7.429279e-02  -1.205696e+04   1.213916e+05  -8.279149e+04  -1.265564e+11   3.865336e+10   7.510526e+10   1.474304e+05   1.793016e-28  1.020628e-317  1.020628e-317
     2848000   2.847999e-07   2.970117e+01   4.085235e+01   7.422658e-02  -1.215817e+04   1.214225e+05  -8.273134e+04  -1.264645e+11   3.862260e+10   7.527047e+10   1.474304e+05   1.792955e-28  1.020628e-317  1.020628e-317
     2856000   2.855999e-07   2.970116e+01   4.085245e+01   7.416042e-02  -1.225930e+04   1.214534e+05  -8.267105e+04  -1.263723e+11   3.859179e+10   7.543556e+10   1.474304e+05   1.792893e-28  1.020628e-317  1.020628e-317
     2864000   2.863999e-07   2.970115e+01   4.085255e+01   7.409431e-02  -1.236036e+04   1.214842e+05  -8.261064e+04  -1.262800e+11   3.856091e+10   7.560052e+10   1.474304e+05   1.792831e-28  1.020628e-317  1.020628e-317
     2872000   2.871999e-07   2.970114e+01   4.085264e+01   7.402824e-02  -1.246135e+04   1.215151e+05  -8.255009e+04  -1.261875e+11   3.852998e+10   7.576535e+10   1.474304e+05   1.792769e-28  1.020628e-317  1.020628e-317
     2880000   2.879999e-07   2.970113e+01   4.085274e+01   7.396223e-02  -1.256226e+04   1.215459e+05  -8.248942e+04  -1.260947e+11   3.849899e+10   7.593006e+10   1.474304e+05   1.792708e-28  1.020628e-317  1.020628e-317
     2888000   2.887999e-07   2.970112e+01   4.085284e+01   7.389626e-02  -1.266310e+04   1.215767e+05  -8.242861e+04  -1.260018e+11   3.846793e+10   7.609463e+10   1.474304e+05   1.792646e-28  1.020628e-317  1.020628e-317
     2896000   2.895999e-07   2.970111e+01   4.085294e+01   7.383034e-02  -1.276387e+04   1.216074e+05  -8.236766e+04  -1.259087e+11   3.843682e+10   7.625908e+10   1.474304e+05   1.792584e-28  1.020628e-317  1.020628e-317
     2904000   2.903999e-07   2.970110e+01   4.085303e+01   7.376447e-02  -1.286456e+04   1.216382e+05  -8.230659e+04  -1.258154e+11   3.840565e+10   7.642340e+10   1.474304e+05   1.792522e-28  1.020628e-317  1.020628e-317
     2912000   2.911999e-07   2.970109e+01   4.085313e+01   7.369865e-02  -1.296517e+04   1.216689e+05  -8.224539e+04  -1.257218e+11   3.837443e+10   7.658759e+10   1.474304e+05   1.792461e-28  1.020628e-317  1.020628e-317
     2920000   2.919999e-07   2.970108e+01   4.085323e+01   7.363288e-02  -1.306571e+04   1.216996e+05  -8.218405e+04  -1.256281e+11   3.834314e+10   7.675166e+10   1.474304e+05   1.792399e-28  1.020628e-317  1.020628e-317
     2928000   2.927999e-07   2.970107e+01   4.085332e+01   7.356716e-02  -1.316618e+04   1.217302e+05  -8.212258e+04  -1.255342e+11   3.831180e+10   7.691559e+10   1.474304e+05   1.792337e-28  1.020628e-317  1.020628e-317
     2936000   2.935999e-07   2.970106e+01   4.085342e+01   7.350148e-02  -1.326657e+04   1.217609e+05  -8.206099e+04  -1.254401e+11   3.828039e+10   7.707939e+10   1.474304e+05   1.792275e-28  1.020628e-317  1.020628e-317
     2944000   2.943999e-07   2.970105e+01   4.085352e+01   7.343586e-02  -1.336688e+04   1.217915e+05  -8.199926e+04  -1.253458e+11   3.824893e+10   7.724307e+10   1.474304e+05   1.792214e-28  1.020628e-317  1.020628e-317
     2952000   2.951999e-07   2.970104e+01   4.085362e+01   7.337028e-02  -1.346712e+04   1.218221e+05  -8.193740e+04  -1.252513e+11   3.821741e+10   7.740661e+10   1.474304e+05   1.792152e-28  1.020628e-317  1.020628e-317
     2960000   2.959999e-07   2.970103e+01   4.085371e+01   7.330476e-02  -1.356728e+04   1.218526e+05  -8.187541e+04  -1.251567e+11   3.818583e+10   7.757002e+10   1.474304e+05   1.792090e-28  1.020628e-317  1.020628e-317
     2968000   2.967999e-07   2.970102e+01   4.085381e+01   7.323928e-02  -1.366737e+04   1.218832e+05  -8.181329e+04  -1.250618e+11   3.815420e+10   7.773331e+10   1.474304e+05   1.792028e-28  1.020628e-317  1.020628e-317
     2976000   2.975999e-07   2.970101e+01   4.085391e+01   7.317386e-02  -1.376738e+04   1.219137e+05  -8.175103e+04  -1.249667e+11   3.812250e+10   7.789646e+10   1.474304e+05   1.791967e-28  1.020628e-317  1.020628e-317
     2984000   2.983999e-07   2.970100e+01   4.085401e+01   7.310848e-02  -1.386732e+04   1.219442e+05  -8.168865e+04  -1.248714e+11   3.809075e+10   7.805948e+10   1.474304e+05   1.791905e-28  1.020628e-317  1.020628e-317
     2992000   2.991999e-07   2.970099e+01   4.085410e+01   7.304316e-02  -1.396717e+04   1.219746e+05  -8.162614e+04  -1.247760e+11   3.805894e+10   7.822237e+10   1.474304e+05   1.791843e-28  1.020628e-317  1.020628e-317
     3000000   2.999999e-07   2.970097e+01   4.085420e+01   7.297788e-02  -1.406696e+04   1.220050e+05  -8.156350e+04  -1.246803e+11   3.802707e+10   7.838513e+10   1.474304e+05   1.791782e-28  1.020628e-317  1.020628e-317
     3008000   3.007999e-07   2.970096e+01   4.085430e+01   7.291265e-02  -1.416666e+04   1.220355e+05  -8.150072e+04  -1.245845e+11   3.799514e+10   7.854776e+10   1.474304e+05   1.791720e-28  1.020628e-317  1.020628e-317
     3016000   3.015999e-07   2.970095e+01   4.085440e+01   7.284748e-02  -1.426629e+04   1.220658e+05  -8.143782e+04  -1.244884e+11   3.796316e+10   7.871025e+10   1.474304e+05   1.791658e-28  1.020628e-317  1.020628e-317
     3024000   3.023999e-07   2.970094e+01   4.085450e+01   7.278235e-02  -1.436584e+04   1.220962e+05  -8.137479e+04  -1.243922e+11   3.793112e+10   7.887261e+10   1.474304e+05   1.791596e-28  1.020628e-317  1.020628e-317
     3032000   3.031999e-07   2.970093e+01   4.085459e+01   7.271728e-02  -1.446532e+04   1.221265e+05  -8.131162e+04  -1.242958e+11   3.789902e+10   7.903484e+10   1.474304e+05   1.791535e-28  1.020628e-317  1.020628e-317
     3040000   3.039999e-07   2.970092e+01   4.085469e+01   7.265226e-02  -1.456472e+04   1.221568e+05  -8.124833e+04  -1.241992e+11   3.786686e+10   7.919694e+10   1.474304e+05   1.791473e-28  1.020628e-317  1.020628e-317
     3048000   3.047999e-07   2.970091e+01   4.085479e+01   7.258728e-02  -1.466404e+04   1.221871e+05  -8.118491e+04  -1.241023e+11   3.783464e+10   7.935891e+10   1.474304e+05   1.791411e-28  1.020628e-317  1.020628e-317
     3056000   3.055999e-07   2.970089e+01   4.085489e+01   7.252236e-02  -1.476328e+04   1.222174e+05  -8.112136e+04  -1.240053e+11   3.780237e+10   7.952074e+10   1.474304e+05   1.791350e-28  1.020628e-317  1.020628e-317
     3064000   3.063999e-07   2.970088e+01   4.085498e+01   7.245749e-02  -1.486245e+04   1.222476e+05  -8.105767e+04  -1.239081e+11   3.777004e+10   7.968243e+10   1.474304e+05   1.791288e-28  1.020628e-317  1.020628e-317
     3072000   3.071999e-07   2.970087e+01   4.085508e+01   7.239267e-02  -1.496153e+04   1.222778e+05  -8.099386e+04  -1.238108e+11   3.773765e+10   7.984400e+10   1.474304e+05   1.791226e-28  1.020628e-317  1.020628e-317
     3080000   3.079999e-07   2.970086e+01   4.085518e+01   7.232790e-02  -1.506054e+04   1.223080e+05  -8.092992e+04  -1.237132e+11   3.770521e+10   8.000543e+10   1.474304e+05   1.791164e-28  1.020628e-317  1.020628e-317
     3088000   3.087999e-07   2.970085e+01   4.085528e+01   7.226318e-02  -1.515948e+04   1.223381e+05  -8.086586e+04  -1.236154e+11   3.767270e+10   8.016672e+10   1.474304e+05   1.791103e-28  1.020628e-317  1.020628e-317
     3096000   3.095999e-07   2.970083e+01   4.085538e+01   7.219851e-02  -1.525833e+04   1.223683e+05  -8.080166e+04  -1.235174e+11   3.764014e+10   8.032788e+10   1.474304e+05   1.791041e-28  1.020628e-317  1.020628e-317
     3104000   3.103999e-07   2.970082e+01   4.085547e+01   7.213390e-02  -1.535710e+04   1.223984e+05  -8.073733e+04  -1.234193e+11   3.760753e+10   8.048891e+10   1.474304e+05   1.790979e-28  1.020628e-317  1.020628e-317
     3112000   3.111999e-07   2.970081e+01   4.085557e+01   7.206933e-02  -1.545580e+04   1.224284e+05  -8.067288e+04  -1.233209e+11   3.757485e+10   8.064980e+10   1.474304e+05   1.790918e-28  1.020628e-317  1.020628e-317
     3120000   3.119999e-07   2.970080e+01   4.085567e+01   7.200482e-02  -1.555442e+04   1.224585e+05  -8.060829e+04  -1.232224e+11   3.754212e+10   8.081056e+10   1.474304e+05   1.790856e-28  1.020628e-317  1.020628e-317
     3128000   3.127999e-07   2.970078e+01   4.085577e+01   7.194036e-02  -1.565296e+04   1.224885e+05  -8.054358e+04  -1.231237e+11   3.750933e+10   8.097118e+10   1.474304e+05   1.790794e-28  1.020628e-317  1.020628e-317
     3136000   3.135999e-07   2.970077e+01   4.085587e+01   7.187595e-02  -1.575141e+04   1.225185e+05  -8.047874e+04  -1.230248e+11   3.747648e+10   8.113166e+10   1.474304e+05   1.790733e-28  1.020628e-317  1.020628e-317
     3144000   3.143999e-07   2.970076e+01   4.085596e+01   7.181159e-02  -1.584979e+04   1.225485e+05  -8.041377e+04  -1.229257e+11   3.744358e+10   8.129201e+10   1.474304e+05   1.790671e-28  1.020628e-317  1.020628e-317
     3152000   3.151999e-07   2.970075e+01   4.085606e+01   7.174729e-02  -1.594810e+04   1.225784e+05  -8.034867e+04  -1.228264e+11   3.741062e+10   8.145223e+10   1.474304e+05   1.790609e-28  1.020628e-317  1.020628e-317
     3160000   3.159999e-07   2.970073e+01   4.085616e+01   7.168304e-02  -1.604632e+04   1.226083e+05  -8.028344e+04  -1.227269e+11   3.737760e+10   8.161230e+10   1.474304e+05   1.790548e-28  1.020628e-317  1.020628e-317
     3168000   3.167999e-07   2.970072e+01   4.085626e+01   7.161883e-02  -1.614446e+04   1.226382e+05  -8.021809e+04  -1.226272e+11   3.734453e+10   8.177224e+10   1.474304e+05   1.790486e-28  1.020628e-317  1.020628e-317
     3176000   3.175999e-07   2.970071e+01   4.085636e+01   7.155469e-02  -1.624252e+04   1.226681e+05  -8.015261e+04  -1.225273e+11   3.731140e+10   8.193205e+10   1.474304e+05   1.790424e-28  1.020628e-317  1.020628e-317
     3184000   3.183999e-07   2.970069e+01   4.085645e+01   7.149059e-02  -1.634050e+04   1.226979e+05  -8.008700e+04  -1.224273e+11   3.727821e+10   8.209171e+10   1.474304e+05   1.790363e-28  1.020628e-317  1.020628e-317
     3192000   3.191999e-07   2.970068e+01   4.085655e+01   7.142655e-02  -1.643840e+04   1.227277e+05  -8.002126e+04  -1.223270e+11   3.724497e+10   8.225124e+10   1.474304e+05   1.790301e-28  1.020628e-317  1.020628e-317
     3200000   3.199999e-07   2.970067e+01   4.085665e+01   7.136256e-02  -1.653623e+04   1.227575e+05  -7.995540e+04  -1.222266e+11   3.721167e+10   8.241063e+10   1.474304e+05   1.790239e-28  1.020628e-317  1.020628e-317
     3208000   3.207999e-07   2.970065e+01   4.085675e+01   7.129862e-02  -1.663397e+04   1.227873e+05  -7.988940e+04  -1.221259e+11   3.717831e+10   8.256988e+10   1.474304e+05   1.790178e-28  1.020628e-317  1.020628e-317
     3216000   3.215999e-07   2.970064e+01   4.085685e+01   7.123473e-02  -1.673163e+04   1.228170e+05  -7.982329e+04  -1.220251e+11   3.714489e+10   8.272900e+10   1.474304e+05   1.790116e-28  1.020628e-317  1.020628e-317
     3224000   3.223999e-07   2.970063e+01   4.085694e+01   7.117090e-02  -1.682921e+04   1.228467e+05  -7.975704e+04  -1.219241e+11   3.711142e+10   8.288797e+10   1.474304e+05   1.790054e-28  1.020628e-317  1.020628e-317
     3232000   3.231999e-07   2.970061e+01   4.085704e+01   7.110712e-02  -1.692671e+04   1.228764e+05  -7.969066e+04  -1.218229e+11   3.707790e+10   8.304681e+10   1.474304e+05   1.789993e-28  1.020628e-317  1.020628e-317
     3240000   3.239999e-07   2.970060e+01   4.085714e+01   7.104340e-02  -1.702412e+04   1.229060e+05  -7.962416e+04  -1.217216e+11   3.704431e+10   8.320551e+10   1.474304e+05   1.789931e-28  1.020628e-317  1.020628e-317
     3248000   3.247999e-07   2.970059e+01   4.085724e+01   7.097972e-02  -1.712146e+04   1.229356e+05  -7.955754e+04  -1.216200e+11   3.701067e+10   8.336407e+10   1.474304e+05   1.789869e-28  1.020628e-317  1.020628e-317
     3256000   3.255999e-07   2.970057e+01   4.085734e+01   7.091610e-02  -1.721872e+04   1.229652e+05  -7.949078e+04  -1.215182e+11   3.697698e+10   8.352249e+10   1.474304e+05   1.789808e-28  1.020628e-317  1.020628e-317
     3264000   3.263999e-07   2.970056e+01   4.085744e+01   7.085254e-02  -1.731589e+04   1.229948e+05  -7.942390e+04  -1.214163e+11   3.694323e+10   8.368077e+10   1.474304e+05   1.789746e-28  1.020628e-317  1.020628e-317
     3272000   3.271999e-07   2.970055e+01   4.085753e+01   7.078903e-02  -1.741298e+04   1.230243e+05  -7.935689e+04  -1.213141e+11   3.690942e+10   8.383891e+10   1.474304e+05   1.789684e-28  1.020628e-317  1.020628e-317
     3280000   3.279999e-07   2.970053e+01   4.085763e+01   7.072557e-02  -1.750999e+04   1.230538e+05  -7.928976e+04  -1.212118e+11   3.687556e+10   8.399691e+10   1.474304e+05   1.789623e-28  1.020628e-317  1.020628e-317
     3288000   3.287999e-07   2.970052e+01   4.085773e+01   7.066216e-02  -1.760692e+04   1.230833e+05  -7.922250e+04  -1.211093e+11   3.684164e+10   8.415477e+10   1.474304e+05   1.789561e-28  1.020628e-317  1.020628e-317
     3296000   3.295999e-07   2.970050e+01   4.085783e+01   7.059881e-02  -1.770377e+04   1.231128e+05  -7.915511e+04  -1.210066e+11   3.680766e+10   8.431249e+10   1.474304e+05   1.789499e-28  1.020628e-317  1.020628e-317
     3304000   3.303999e-07   2.970049e+01   4.085793e+01   7.053551e-02  -1.780053e+04   1.231422e+05  -7.908760e+04  -1.209037e+11   3.677363e+10   8.447007e+10   1.474304e+05   1.789438e-28  1.020628e-317  1.020628e-317
     3312000   3.311999e-07   2.970048e+01   4.085803e+01   7.047227e-02  -1.789721e+04   1.231716e+05  -7.901996e+04  -1.208007e+11   3.673954e+10   8.462751e+10   1.474304e+05   1.789376e-28  1.020628e-317  1.020628e-317
     3320000   3.319999e-07   2.970046e+01   4.085813e+01   7.040908e-02  -1.799381e+04   1.232010e+05  -7.895219e+04  -1.206974e+11   3.670540e+10   8.478480e+10   1.474304e+05   1.789315e-28  1.020628e-317  1.020628e-317
     3328000   3.327999e-07   2.970045e+01   4.085822e+01   7.034595e-02  -1.809033e+04   1.232304e+05  -7.888430e+04  -1.205940e+11   3.667120e+10   8.494196e+10   1.474304e+05   1.789253e-28  1.020628e-317  1.020628e-317
     3336000   3.335999e-07   2.970043e+01   4.085832e+01   7.028287e-02  -1.818676e+04   1.232597e+05  -7.881629e+04  -1.204903e+11   3.663694e+10   8.509897e+10   1.474304e+05   1.789191e-28  1.020628e-317  1.020628e-317
     3344000   3.343999e-07   2.970042e+01   4.085842e+01   7.021984e-02  -1.828311e+04   1.232890e+05  -7.874814e+04  -1.203865e+11   3.660263e+10   8.525584e+10   1.474304e+05   1.789130e-28  1.020628e-317  1.020628e-317
     3352000   3.351999e-07   2.970040e+01   4.085852e+01   7.015687e-02  -1.837938e+04   1.233182e+05  -7.867988e+04  -1.202825e+11   3.656827e+10   8.541257e+10   1.474304e+05   1.789068e-28  1.020628e-317  1.020628e-317
     3360000   3.359999e-07   2.970039e+01   4.085862e+01   7.009395e-02  -1.847556e+04   1.233475e+05  -7.861148e+04  -1.201783e+11   3.653385e+10   8.556916e+10   1.474304e+05   1.789006e-28  1.020628e-317  1.020628e-317
     3368000   3.367999e-07   2.970037e+01   4.085872e+01   7.003109e-02  -1.857167e+04   1.233767e+05  -7.854297e+04  -1.200740e+11   3.649937e+10   8.572560e+10   1.474304e+05   1.788945e-28  1.020628e-317  1.020628e-317
     3376000   3.375999e-07   2.970036e+01   4.085882e+01   6.996829e-02  -1.866768e+04   1.234059e+05  -7.847432e+04  -1.199694e+11   3.646484e+10   8.588190e+10   1.474304e+05   1.788883e-28  1.020628e-317  1.020628e-317
     3384000   3.383999e-07   2.970034e+01   4.085892e+01   6.990553e-02  -1.876362e+04   1.234350e+05  -7.840555e+04  -1.198647e+11   3.643025e+10   8.603806e+10   1.474304e+05   1.788822e-28  1.020628e-317  1.020628e-317
     3392000   3.391999e-07   2.970033e+01   4.085901e+01   6.984284e-02  -1.885947e+04   1.234642e+05  -7.833666e+04  -1.197597e+11   3.639561e+10   8.619408e+10   1.474304e+05   1.788760e-28  1.020628e-317  1.020628e-317
     3400000   3.399999e-07   2.970031e+01   4.085911e+01   6.978020e-02  -1.895523e+04   1.234933e+05  -7.826764e+04  -1.196546e+11   3.636091e+10   8.634995e+10   1.474304e+05   1.788698e-28  1.020628e-317  1.020628e-317
     3408000   3.407999e-07   2.970030e+01   4.085921e+01   6.971761e-02  -1.905091e+04   1.235224e+05  -7.819850e+04  -1.195493e+11   3.632616e+10   8.650567e+10   1.474304e+05   1.788637e-28  1.020628e-317  1.020628e-317
     3416000   3.415999e-07   2.970028e+01   4.085931e+01   6.965508e-02  -1.914651e+04   1.235514e+05  -7.812924e+04  -1.194438e+11   3.629135e+10   8.666126e+10   1.474304e+05   1.788575e-28  1.020628e-317  1.020628e-317
     3424000   3.423999e-07   2.970027e+01   4.085941e+01   6.959260e-02  -1.924202e+04   1.235804e+05  -7.805984e+04  -1.193382e+11   3.625649e+10   8.681669e+10   1.474304e+05   1.788514e-28  1.020628e-317  1.020628e-317
     3432000   3.431999e-07   2.970025e+01   4.085951e+01   6.953018e-02  -1.933745e+04   1.236094e+05  -7.799033e+04  -1.192323e+11   3.622157e+10   8.697199e+10   1.474304e+05   1.788452e-28  1.020628e-317  1.020628e-317
     3440000   3.439999e-07   2.970024e+01   4.085961e+01   6.946782e-02  -1.943280e+04   1.236384e+05  -7.792069e+04  -1.191263e+11   3.618660e+10   8.712714e+10   1.474304e+05   1.788390e-28  1.020628e-317  1.020628e-317
     3448000   3.447999e-07   2.970022e+01   4.085971e+01   6.940551e-02  -1.952805e+04   1.236673e+05  -7.785093e+04  -1.190201e+11   3.615157e+10   8.728214e+10   1.474304e+05   1.788329e-28  1.020628e-317  1.020628e-317
     3456000   3.455999e-07   2.970021e+01   4.085980e+01   6.934326e-02  -1.962323e+04   1.236962e+05  -7.778104e+04  -1.189137e+11   3.611649e+10   8.743700e+10   1.474304e+05   1.788267e-28  1.020628e-317  1.020628e-317
     3464000   3.463999e-07   2.970019e+01   4.085990e+01   6.928106e-02  -1.971832e+04   1.237251e+05  -7.771103e+04  -1.188071e+11   3.608135e+10   8.759171e+10   1.474304e+05   1.788206e-28  1.020628e-317  1.020628e-317
     3472000   3.471999e-07   2.970017e+01   4.086000e+01   6.921892e-02  -1.981332e+04   1.237539e+05  -7.764089e+04  -1.187003e+11   3.604616e+10   8.774628e+10   1.474304e+05   1.788144e-28  1.020628e-317  1.020628e-317
     3480000   3.479999e-07   2.970016e+01   4.086010e+01   6.915683e-02  -1.990824e+04   1.237828e+05  -7.757063e+04  -1.185934e+11   3.601091e+10   8.790070e+10   1.474304e+05   1.788082e-28  1.020628e-317  1.020628e-317
     3488000   3.487999e-07   2.970014e+01   4.086020e+01   6.909481e-02  -2.000307e+04   1.238116e+05  -7.750025e+04  -1.184862e+11   3.597561e+10   8.805497e+10   1.474304e+05   1.788021e-28  1.020628e-317  1.020628e-317
     3496000   3.495999e-07   2.970013e+01   4.086030e+01   6.903283e-02  -2.009781e+04   1.238403e+05  -7.742974e+04  -1.183789e+11   3.594026e+10   8.820910e+10   1.474304e+05   1.787959e-28  1.020628e-317  1.020628e-317
     3504000   3.503999e-07   2.970011e+01   4.086040e+01   6.897092e-02  -2.019247e+04   1.238691e+05  -7.735912e+04  -1.182714e+11   3.590485e+10   8.836308e+10   1.474304e+05   1.787898e-28  1.020628e-317  1.020628e-317
     3512000   3.511999e-07   2.970009e+01   4.086050e+01   6.890906e-02  -2.028705e+04   1.238978e+05  -7.728836e+04  -1.181637e+11   3.586938e+10   8.851692e+10   1.474304e+05   1.787836e-28  1.020628e-317  1.020628e-317
     3520000   3.519999e-07   2.970008e+01   4.086060e+01   6.884726e-02  -2.038154e+04   1.239265e+05  -7.721749e+04  -1.180559e+11   3.583386e+10   8.867061e+10   1.474304e+05   1.787775e-28  1.020628e-317  1.020628e-317
     3528000   3.527999e-07   2.970006e+01   4.086070e+01   6.878551e-02  -2.047594e+04   1.239551e+05  -7.714649e+04  -1.179478e+11   3.579829e+10   8.882415e+10   1.474304e+05   1.787713e-28  1.020628e-317  1.020628e-317
     3536000   3.535999e-07   2.970004e+01   4.086080e+01   6.872382e-02  -2.057025e+04   1.239837e+05  -7.707537e+04  -1.178396e+11   3.576266e+10   8.897754e+10   1.474304e+05   1.787651e-28  1.020628e-317  1.020628e-317
     3544000   3.543999e-07   2.970003e+01   4.086089e+01   6.866219e-02  -2.066448e+04   1.240123e+05  -7.700413e+04  -1.177312e+11   3.572698e+10   8.913078e+10   1.474304e+05   1.787590e-28  1.020628e-317  1.020628e-317
     3552000   3.551999e-07   2.970001e+01   4.086099e+01   6.860062e-02  -2.075862e+04   1.240409e+05  -7.693276e+04  -1.176226e+11   3.569125e+10   8.928388e+10   1.474304e+05   1.787528e-28  1.020628e-317  1.020628e-317
     3560000   3.559999e-07   2.969999e+01   4.086109e+01   6.853910e-02  -2.085266e+04   1.240694e+05  -7.686127e+04  -1.174627e+11   3.565926e+10   8.942905e+10   1.474304e+05   1.786449e-28  1.020628e-317  1.020628e-317
     3568000   3.567999e-07   2.969998e+01   4.086119e+01   6.847764e-02  -2.094659e+04   1.240980e+05  -7.678967e+04  -1.173537e+11   3.562345e+10   8.958177e+10   1.474304e+05   1.786387e-28  1.020628e-317  1.020628e-317
     3576000   3.575999e-07   2.969996e+01   4.086129e+01   6.841623e-02  -2.104043e+04   1.241264e+05  -7.671794e+04  -1.172445e+11   3.558759e+10   8.973434e+10   1.474304e+05   1.786325e-28  1.020628e-317  1.020628e-317
     3584000   3.583999e-07   2.969994e+01   4.086139e+01   6.835489e-02  -2.113418e+04   1.241549e+05  -7.664609e+04  -1.171352e+11   3.555168e+10   8.988676e+10   1.474304e+05   1.786263e-28  1.020628e-317  1.020628e-317
     3592000   3.591999e-07   2.969993e+01   4.086149e+01   6.829360e-02  -2.122785e+04   1.241833e+05  -7.657412e+04  -1.170257e+11   3.551571e+10   9.003903e+10   1.474304e+05   1.786200e-28  1.020628e-317  1.020628e-317
     3600000   3.599999e-07   2.969991e+01   4.086159e+01   6.823237e-02  -2.132142e+04   1.242117e+05  -7.650203e+04  -1.169160e+11   3.547969e+10   9.019116e+10   1.474304e+05   1.786138e-28  1.020628e-317  1.020628e-317
     3608000   3.607999e-07   2.969989e+01   4.086169e+01   6.817120e-02  -2.141491e+04   1.242401e+05  -7.642982e+04  -1.168061e+11   3.544362e+10   9.034313e+10   1.474304e+05   1.786076e-28  1.020628e-317  1.020628e-317
     3616000   3.615999e-07   2.969988e+01   4.086179e+01   6.811008e-02  -2.150831e+04   1.242684e+05  -7.635748e+04  -1.166961e+11   3.540749e+10   9.049495e+10   1.474304e+05   1.786014e-28  1.020628e-317  1.020628e-317
     3624000   3.623999e-07   2.969986e+01   4.086189e+01   6.804903e-02  -2.160163e+04   1.242967e+05  -7.628503e+04  -1.165858e+11   3.537131e+10   9.064662e+10   1.474304e+05   1.785952e-28  1.020628e-317  1.020628e-317
     3632000   3.631999e-07   2.969984e+01   4.086199e+01   6.798803e-02  -2.169485e+04   1.243250e+05  -7.621245e+04  -1.164754e+11   3.533508e+10   9.079814e+10   1.474304e+05   1.785890e-28  1.020628e-317  1.020628e-317
     3640000   3.639999e-07   2.969982e+01   4.086209e+01   6.792709e-02  -2.178799e+04   1.243533e+05  -7.613975e+04  -1.163648e+11   3.529879e+10   9.094951e+10   1.474304e+05   1.785828e-28  1.020628e-317  1.020628e-317
     3648000   3.647999e-07   2.969981e+01   4.086219e+01   6.786620e-02  -2.188103e+04   1.243815e+05  -7.606693e+04  -1.162541e+11   3.526245e+10   9.110073e+10   1.474304e+05   1.785766e-28  1.020628e-317  1.020628e-317
     3656000   3.655999e-07   2.969979e+01   4.086229e+01   6.780538e-02  -2.197399e+04   1.244097e+05  -7.599399e+04  -1.161431e+11   3.522606e+10   9.125180e+10   1.474304e+05   1.785703e-28  1.020628e-317  1.020628e-317
     3664000   3.663999e-07   2.969977e+01   4.086239e+01   6.774461e-02  -2.206686e+04   1.244379e+05  -7.592093e+04  -1.160320e+11   3.518961e+10   9.140272e+10   1.474304e+05   1.785641e-28  1.020628e-317  1.020628e-317
     3672000   3.671999e-07   2.969975e+01   4.086248e+01   6.768391e-02  -2.215964e+04   1.244660e+05  -7.584774e+04  -1.159207e+11   3.515311e+10   9.155348e+10   1.474304e+05   1.785579e-28  1.020628e-317  1.020628e-317
     3680000   3.679999e-07   2.969974e+01   4.086258e+01   6.762326e-02  -2.225234e+04   1.244941e+05  -7.577444e+04  -1.158092e+11   3.511655e+10   9.170410e+10   1.474304e+05   1.785517e-28  1.020628e-317  1.020628e-317
     3688000   3.687999e-07   2.969972e+01   4.086268e+01   6.756267e-02  -2.234494e+04   1.245222e+05  -7.570102e+04  -1.156975e+11   3.507995e+10   9.185456e+10   1.474304e+05   1.785455e-28  1.020628e-317  1.020628e-317
     3696000   3.695999e-07   2.969970e+01   4.086278e+01   6.750213e-02  -2.243745e+04   1.245502e+05  -7.562747e+04  -1.155857e+11   3.504329e+10   9.200487e+10   1.474304e+05   1.785393e-28  1.020628e-317  1.020628e-317
     3704000   3.703999e-07   2.969968e+01   4.086288e+01   6.744166e-02  -2.252988e+04   1.245783e+05  -7.555381e+04  -1.154737e+11   3.500658e+10   9.215502e+10   1.474304e+05   1.785331e-28  1.020628e-317  1.020628e-317
     3712000   3.711999e-07   2.969966e+01   4.086298e+01   6.738125e-02  -2.262221e+04   1.246062e+05  -7.548003e+04  -1.153615e+11   3.496981e+10   9.230503e+10   1.474304e+05   1.785269e-28  1.020628e-317  1.020628e-317
     3720000   3.719999e-07   2.969965e+01   4.086308e+01   6.732089e-02  -2.271445e+04   1.246342e+05  -7.540612e+04  -1.152491e+11   3.493299e+10   9.245488e+10   1.474304e+05   1.785207e-28  1.020628e-317  1.020628e-317
     3728000   3.727999e-07   2.969963e+01   4.086318e+01   6.726060e-02  -2.280661e+04   1.246621e+05  -7.533210e+04  -1.151366e+11   3.489612e+10   9.260458e+10   1.474304e+05   1.785145e-28  1.020628e-317  1.020628e-317
     3736000   3.735999e-07   2.969961e+01   4.086328e+01   6.720036e-02  -2.289867e+04   1.246900e+05  -7.525795e+04  -1.150238e+11   3.485920e+10   9.275412e+10   1.474304e+05   1.785083e-28  1.020628e-317  1.020628e-317
     3744000   3.743999e-07   2.969959e+01   4.086338e+01   6.714019e-02  -2.299065e+04   1.247179e+05  -7.518369e+04  -1.149109e+11   3.482222e+10   9.290351e+10   1.474304e+05   1.785020e-28  1.020628e-317  1.020628e-317
     3752000   3.751999e-07   2.969957e+01   4.086348e+01   6.708007e-02  -2.308253e+04   1.247458e+05  -7.510931e+04  -1.147978e+11   3.478519e+10   9.305275e+10   1.474304e+05   1.784958e-28  1.020628e-317  1.020628e-317
     3760000   3.759999e-07   2.969955e+01   4.086358e+01   6.702001e-02  -2.317432e+04   1.247736e+05  -7.503481e+04  -1.146846e+11   3.474811e+10   9.320183e+10   1.474304e+05   1.784896e-28  1.020628e-317  1.020628e-317
     3768000   3.767999e-07   2.969954e+01   4.086368e+01   6.696001e-02  -2.326602e+04   1.248014e+05  -7.496019e+04  -1.145712e+11   3.471098e+10   9.335076e+10   1.474304e+05   1.784834e-28  1.020628e-317  1.020628e-317
     3776000   3.775999e-07   2.969952e+01   4.086378e+01   6.690008e-02  -2.335764e+04   1.248291e+05  -7.488545e+04  -1.144575e+11   3.467379e+10   9.349953e+10   1.474304e+05   1.784772e-28  1.020628e-317  1.020628e-317
     3784000   3.783999e-07   2.969950e+01   4.086388e+01   6.684020e-02  -2.344916e+04   1.248568e+05  -7.481059e+04  -1.143438e+11   3.463655e+10   9.364815e+10   1.474304e+05   1.784710e-28  1.020628e-317  1.020628e-317
     3792000   3.791999e-07   2.969948e+01   4.086398e+01   6.678038e-02  -2.354059e+04   1.248845e+05  -7.473561e+04  -1.142298e+11   3.459926e+10   9.379661e+10   1.474304e+05   1.784648e-28  1.020628e-317  1.020628e-317
     3800000   3.799999e-07   2.969946e+01   4.086408e+01   6.672062e-02  -2.363192e+04   1.249122e+05  -7.466051e+04  -1.141157e+11   3.456192e+10   9.394492e+10   1.474304e+05   1.784586e-28  1.020628e-317  1.020628e-317
     3808000   3.807999e-07   2.969944e+01   4.086418e+01   6.666092e-02  -2.372317e+04   1.249398e+05  -7.458530e+04  -1.140014e+11   3.452453e+10   9.409307e+10   1.474304e+05   1.784524e-28  1.020628e-317  1.020628e-317
     3816000   3.815999e-07   2.969942e+01   4.086428e+01   6.660128e-02  -2.381433e+04   1.249674e+05  -7.450996e+04  -1.138869e+11   3.448708e+10   9.424107e+10   1.474304e+05   1.784462e-28  1.020628e-317  1.020628e-317
     3824000   3.823999e-07   2.969940e+01   4.086438e+01   6.654171e-02  -2.390539e+04   1.249950e+05  -7.443451e+04  -1.137722e+11   3.444958e+10   9.438891e+10   1.474304e+05   1.784400e-28  1.020628e-317  1.020628e-317
     3832000   3.831999e-07   2.969938e+01   4.086448e+01   6.648219e-02  -2.399636e+04   1.250225e+05  -7.435894e+04  -1.136574e+11   3.441203e+10   9.453659e+10   1.474304e+05   1.784338e-28  1.020628e-317  1.020628e-317
     3840000   3.839999e-07   2.969937e+01   4.086458e+01   6.642273e-02  -2.408724e+04   1.250501e+05  -7.428325e+04  -1.135424e+11   3.437443e+10   9.468412e+10   1.474304e+05   1.784276e-28  1.020628e-317  1.020628e-317
     3848000   3.847999e-07   2.969935e+01   4.086468e+01   6.636333e-02  -2.417803e+04   1.250775e+05  -7.420745e+04  -1.134272e+11   3.433677e+10   9.483149e+10   1.474304e+05   1.784214e-28  1.020628e-317  1.020628e-317
     3856000   3.855999e-07   2.969933e+01   4.086478e+01   6.630400e-02  -2.426873e+04   1.251050e+05  -7.413152e+04  -1.133118e+11   3.429907e+10   9.497871e+10   1.474304e+05   1.784152e-28  1.020628e-317  1.020628e-317
     3864000   3.863999e-07   2.969931e+01   4.086488e+01   6.624472e-02  -2.435933e+04   1.251324e+05  -7.405548e+04  -1.131963e+11   3.426131e+10   9.512577e+10   1.474304e+05   1.784090e-28  1.020628e-317  1.020628e-317
     3872000   3.871999e-07   2.969929e+01   4.086498e+01   6.618551e-02  -2.444984e+04   1.251598e+05  -7.397932e+04  -1.130806e+11   3.422350e+10   9.527267e+10   1.474304e+05   1.784028e-28  1.020628e-317  1.020628e-317
     3880000   3.879999e-07   2.969927e+01   4.086508e+01   6.612636e-02  -2.454026e+04   1.251872e+05  -7.390304e+04  -1.129647e+11   3.418564e+10   9.541941e+10   1.474304e+05   1.783966e-28  1.020628e-317  1.020628e-317
     3888000   3.887999e-07   2.969925e+01   4.086518e+01   6.606727e-02  -2.463058e+04   1.252145e+05  -7.382665e+04  -1.128487e+11   3.414773e+10   9.556600e+10   1.474304e+05   1.783904e-28  1.020628e-317  1.020628e-317
     3896000   3.895999e-07   2.969923e+01   4.086528e+01   6.600823e-02  -2.472082e+04   1.252418e+05  -7.375014e+04  -1.127324e+11   3.410976e+10   9.571242e+10   1.474304e+05   1.783842e-28  1.020628e-317  1.020628e-317
     3904000   3.903999e-07   2.969921e+01   4.086538e+01   6.594927e-02  -2.481095e+04   1.252691e+05  -7.367351e+04  -1.126160e+11   3.407175e+10   9.585869e+10   1.474304e+05   1.783780e-28  1.020628e-317  1.020628e-317
     3912000   3.911999e-07   2.969919e+01   4.086548e+01   6.589036e-02  -2.490100e+04   1.252963e+05  -7.359676e+04  -1.124995e+11   3.403368e+10   9.600480e+10   1.474304e+05   1.783718e-28  1.020628e-317  1.020628e-317
     3920000   3.919999e-07   2.969917e+01   4.086558e+01   6.583151e-02  -2.499095e+04   1.253235e+05  -7.351990e+04  -1.123827e+11   3.399557e+10   9.615076e+10   1.474304e+05   1.783656e-28  1.020628e-317  1.020628e-317
     3928000   3.927999e-07   2.969915e+01   4.086568e+01   6.577273e-02  -2.508081e+04   1.253507e+05  -7.344292e+04  -1.122658e+11   3.395740e+10   9.629655e+10   1.474304e+05   1.783594e-28  1.020628e-317  1.020628e-317
     3936000   3.935999e-07   2.969913e+01   4.086578e+01   6.571400e-02  -2.517058e+04   1.253779e+05  -7.336583e+04  -1.121487e+11   3.391918e+10   9.644219e+10   1.474304e+05   1.783532e-28  1.020628e-317  1.020628e-317
     3944000   3.943999e-07   2.969911e+01   4.086588e+01   6.565534e-02  -2.526025e+04   1.254050e+05  -7.328862e+04  -1.120315e+11   3.388091e+10   9.658766e+10   1.474304e+05   1.783470e-28  1.020628e-317  1.020628e-317
     3952000   3.951999e-07   2.969909e+01   4.086598e+01   6.559674e-02  -2.534983e+04   1.254321e+05  -7.321129e+04  -1.119141e+11   3.384258e+10   9.673298e+10   1.474304e+05   1.783408e-28  1.020628e-317  1.020628e-317
     3960000   3.959999e-07   2.969907e+01   4.086608e+01   6.553820e-02  -2.543931e+04   1.254591e+05  -7.313384e+04  -1.117964e+11   3.380421e+10   9.687813e+10   1.474304e+05   1.783346e-28  1.020628e-317  1.020628e-317
     3968000   3.967999e-07   2.969905e+01   4.086618e+01   6.547973e-02  -2.552870e+04   1.254862e+05  -7.305628e+04  -1.116787e+11   3.376579e+10   9.702313e+10   1.474304e+05   1.783284e-28  1.020628e-317  1.020628e-317
     3976000   3.975999e-07   2.969903e+01   4.086628e+01   6.542131e-02  -2.561800e+04   1.255132e+05  -7.297861e+04  -1.115607e+11   3.372731e+10   9.716797e+10   1.474304e+05   1.783222e-28  1.020628e-317  1.020628e-317
     3984000   3.983999e-07   2.969901e+01   4.086639e+01   6.536296e-02  -2.570720e+04   1.255401e+05  -7.290081e+04  -1.114426e+11   3.368879e+10   9.731264e+10   1.474304e+05   1.783160e-28  1.020628e-317  1.020628e-317
     3992000   3.991999e-07   2.969899e+01   4.086649e+01   6.530467e-02  -2.579631e+04   1.255671e+05  -7.282291e+04  -1.113243e+11   3.365021e+10   9.745716e+10   1.474304e+05   1.783098e-28  1.020628e-317  1.020628e-317
     4000000   3.999999e-07   2.969897e+01   4.086659e+01   6.524644e-02  -2.588532e+04   1.255940e+05  -7.274488e+04  -1.112059e+11   3.361159e+10   9.760151e+10   1.474304e+05   1.783036e-28  1.020628e-317  1.020628e-317
     4008000   4.007999e-07   2.969894e+01   4.086669e+01   6.518828e-02  -2.597424e+04   1.256209e+05  -7.266674e+04  -1.110873e+11   3.357291e+10   9.774570e+10   1.474304e+05   1.782974e-28  1.020628e-317  1.020628e-317
     4016000   4.015999e-07   2.969892e+01   4.086679e+01   6.513018e-02  -2.606306e+04   1.256477e+05  -7.258849e+04  -1.109685e+11   3.353418e+10   9.788974e+10   1.474304e+05   1.782912e-28  1.020628e-317  1.020628e-317
     4024000   4.023999e-07   2.969890e+01   4.086689e+01   6.507214e-02  -2.615179e+04   1.256745e+05  -7.251012e+04  -1.108495e+11   3.349541e+10   9.803361e+10   1.474304e+05   1.782850e-28  1.020628e-317  1.020628e-317
     4032000   4.031999e-07   2.969888e+01   4.086699e+01   6.501416e-02  -2.624042e+04   1.257013e+05  -7.243164e+04  -1.107304e+11   3.345658e+10   9.817732e+10   1.474304e+05   1.782788e-28  1.020628e-317  1.020628e-317
     4040000   4.039999e-07   2.969886e+01   4.086709e+01   6.495625e-02  -2.632895e+04   1.257280e+05  -7.235304e+04  -1.106111e+11   3.341770e+10   9.832086e+10   1.474304e+05   1.782726e-28  1.020628e-317  1.020628e-317
     4048000   4.047999e-07   2.969884e+01   4.086719e+01   6.489840e-02  -2.641740e+04   1.257548e+05  -7.227432e+04  -1.104916e+11   3.337877e+10   9.846425e+10   1.474304e+05   1.782664e-28  1.020628e-317  1.020628e-317
     4056000   4.055999e-07   2.969882e+01   4.086729e+01   6.484061e-02  -2.650574e+04   1.257814e+05  -7.219549e+04  -1.103719e+11   3.333979e+10   9.860747e+10   1.474304e+05   1.782602e-28  1.020628e-317  1.020628e-317
     4064000   4.063999e-07   2.969880e+01   4.086739e+01   6.478288e-02  -2.659399e+04   1.258081e+05  -7.211655e+04  -1.102521e+11   3.330077e+10   9.875053e+10   1.474304e+05   1.782540e-28  1.020628e-317  1.020628e-317
     4072000   4.071999e-07   2.969878e+01   4.086749e+01   6.472522e-02  -2.668214e+04   1.258347e+05  -7.203749e+04  -1.101321e+11   3.326169e+10   9.889343e+10   1.474304e+05   1.782478e-28  1.020628e-317  1.020628e-317
     4080000   4.079999e-07   2.969875e+01   4.086759e+01   6.466762e-02  -2.677020e+04   1.258613e+05  -7.195832e+04  -1.100120e+11   3.322256e+10   9.903617e+10   1.474304e+05   1.782416e-28  1.020628e-317  1.020628e-317
     4088000   4.087999e-07   2.969873e+01   4.086769e+01   6.461009e-02  -2.685816e+04   1.258879e+05  -7.187904e+04  -1.098917e+11   3.318338e+10   9.917874e+10   1.474304e+05   1.782354e-28  1.020628e-317  1.020628e-317
     4096000   4.095999e-07   2.969871e+01   4.086779e+01   6.455262e-02  -2.694603e+04   1.259144e+05  -7.179964e+04  -1.097712e+11   3.314415e+10   9.932115e+10   1.474304e+05   1.782292e-28  1.020628e-317  1.020628e-317
     4104000   4.103999e-07   2.969869e+01   4.086789e+01   6.449521e-02  -2.703380e+04   1.259409e+05  -7.172012e+04  -1.096505e+11   3.310488e+10   9.946339e+10   1.474304e+05   1.782230e-28  1.020628e-317  1.020628e-317
     4112000   4.111999e-07   2.969867e+01   4.086799e+01   6.443786e-02  -2.712147e+04   1.259674e+05  -7.164049e+04  -1.095297e+11   3.306555e+10   9.960547e+10   1.474304e+05   1.782168e-28  1.020628e-317  1.020628e-317
     4120000   4.119999e-07   2.969865e+01   4.086810e+01   6.438058e-02  -2.720905e+04   1.259938e+05  -7.156075e+04  -1.094087e+11   3.302617e+10   9.974739e+10   1.474304e+05   1.782106e-28  1.020628e-317  1.020628e-317
     4128000   4.127999e-07   2.969863e+01   4.086820e+01   6.432337e-02  -2.729652e+04   1.260202e+05  -7.148090e+04  -1.092876e+11   3.298675e+10   9.988914e+10   1.474304e+05   1.782044e-28  1.020628e-317  1.020628e-317
     4136000   4.135999e-07   2.969860e+01   4.086830e+01   6.426621e-02  -2.738391e+04   1.260466e+05  -7.140093e+04  -1.091663e+11   3.294727e+10   1.000307e+11   1.474304e+05   1.781982e-28  1.020628e-317  1.020628e-317
     4144000   4.143999e-07   2.969858e+01   4.086840e+01   6.420913e-02  -2.747119e+04   1.260729e+05  -7.132085e+04  -1.090448e+11   3.290774e+10   1.001722e+11   1.474304e+05   1.781920e-28  1.020628e-317  1.020628e-317
     4152000   4.151999e-07   2.969856e+01   4.086850e+01   6.415210e-02  -2.755838e+04   1.260992e+05  -7.124065e+04  -1.089231e+11   3.286817e+10   1.003134e+11   1.474304e+05   1.781858e-28  1.020628e-317  1.020628e-317
     4160000   4.159999e-07   2.969854e+01   4.086860e+01   6.409514e-02  -2.764547e+04   1.261255e+05  -7.116035e+04  -1.088013e+11   3.282854e+10   1.004545e+11   1.474304e+05   1.781797e-28  1.020628e-317  1.020628e-317
     4168000   4.167999e-07   2.969852e+01   4.086870e+01   6.403824e-02  -2.773246e+04   1.261518e+05  -7.107993e+04  -1.086793e+11   3.278887e+10   1.005954e+11   1.474304e+05   1.781735e-28  1.020628e-317  1.020628e-317
     4176000   4.175999e-07   2.969849e+01   4.086880e+01   6.398141e-02  -2.781935e+04   1.261780e+05  -7.099939e+04  -1.085572e+11   3.274915e+10   1.007362e+11   1.474304e+05   1.781673e-28  1.020628e-317  1.020628e-317
     4184000   4.183999e-07   2.969847e+01   4.086890e+01   6.392465e-02  -2.790615e+04   1.262042e+05  -7.091875e+04  -1.084348e+11   3.270938e+10   1.008768e+11   1.474304e+05   1.781611e-28  1.020628e-317  1.020628e-317
     4192000   4.191999e-07   2.969845e+01   4.086900e+01   6.386794e-02  -2.799285e+04   1.262303e+05  -7.083799e+04  -1.083123e+11   3.266956e+10   1.010172e+11   1.474304e+05   1.781549e-28  1.020628e-317  1.020628e-317
     4200000   4.199999e-07   2.969843e+01   4.086910e+01   6.381131e-02  -2.807945e+04   1.262564e+05  -7.075712e+04  -1.081897e+11   3.262969e+10   1.011575e+11   1.474304e+05   1.781487e-28  1.020628e-317  1.020628e-317
     4208000   4.207999e-07   2.969840e+01   4.086921e+01   6.375473e-02  -2.816595e+04   1.262825e+05  -7.067614e+04  -1.080669e+11   3.258977e+10   1.012976e+11   1.474304e+05   1.781425e-28  1.020628e-317  1.020628e-317
     4216000   4.215999e-07   2.969838e+01   4.086931e+01   6.369822e-02  -2.825236e+04   1.263086e+05  -7.059505e+04  -1.079439e+11   3.254980e+10   1.014375e+11   1.474304e+05   1.781363e-28  1.020628e-317  1.020628e-317
     4224000   4.223999e-07   2.969836e+01   4.086941e+01   6.364178e-02  -2.833866e+04   1.263346e+05  -7.051384e+04  -1.078208e+11   3.250979e+10   1.015773e+11   1.474304e+05   1.781301e-28  1.020628e-317  1.020628e-317
     4232000   4.231999e-07   2.969834e+01   4.086951e+01   6.358540e-02  -2.842487e+04   1.263606e+05  -7.043252e+04  -1.076974e+11   3.246972e+10   1.017169e+11   1.474304e+05   1.781239e-28  1.020628e-317  1.020628e-317
     4240000   4.239999e-07   2.969831e+01   4.086961e+01   6.352909e-02  -2.851098e+04   1.263866e+05  -7.035109e+04  -1.075740e+11   3.242961e+10   1.018563e+11   1.474304e+05   1.781177e-28  1.020628e-317  1.020628e-317
     4248000   4.247999e-07   2.969829e+01   4.086971e+01   6.347284e-02  -2.859699e+04   1.264125e+05  -7.026955e+04  -1.074503e+11   3.238945e+10   1.019956e+11   1.474304e+05   1.781116e-28  1.020628e-317  1.020628e-317
     4256000   4.255999e-07   2.969827e+01   4.086981e+01   6.341666e-02  -2.868290e+04   1.264384e+05  -7.018790e+04  -1.073265e+11   3.234924e+10   1.021347e+11   1.474304e+05   1.781054e-28  1.020628e-317  1.020628e-317
     4264000   4.263999e-07   2.969824e+01   4.086991e+01   6.336054e-02  -2.876871e+04   1.264642e+05  -7.010614e+04  -1.072026e+11   3.230898e+10   1.022736e+11   1.474304e+05   1.780992e-28  1.020628e-317  1.020628e-317
     4272000   4.271999e-07   2.969822e+01   4.087001e+01   6.330449e-02  -2.885442e+04   1.264901e+05  -7.002426e+04  -1.070784e+11   3.226867e+10   1.024124e+11   1.474304e+05   1.780930e-28  1.020628e-317  1.020628e-317
     4280000   4.279999e-07   2.969820e+01   4.087012e+01   6.324850e-02  -2.894004e+04   1.265159e+05  -6.994228e+04  -1.069541e+11   3.222832e+10   1.025510e+11   1.474304e+05   1.780868e-28  1.020628e-317  1.020628e-317
     4288000   4.287999e-07   2.969817e+01   4.087022e+01   6.319258e-02  -2.902555e+04   1.265416e+05  -6.986018e+04  -1.068297e+11   3.218791e+10   1.026894e+11   1.474304e+05   1.780806e-28  1.020628e-317  1.020628e-317
