     timestep     time              x             y              z              vx             vy             vz             ax             ay             az         v_magnitude      ELoss        Electronic      Nuclear
           0   0.000000e+00   1.306896e+01   2.004595e+01   1.000000e-01  -9.532138e+04  -4.389036e+04   1.035528e+05   0.000000e+00   0.000000e+00   0.000000e+00   1.474304e+05   0.000000e+00   0.000000e+00   0.000000e+00
        8000   7.999000e-09   1.306820e+01   2.004561e+01   1.008287e-01  -9.607131e+04  -4.208377e+04   1.036097e+05  -9.376184e+10   2.258712e+11   4.804071e+09   1.474304e+05   4.633844e-26   0.000000e+00   0.000000e+00
       16000   1.599900e-08   1.306743e+01   2.004528e+01   1.016577e-01  -9.682148e+04  -4.027663e+04   1.036297e+05  -9.377415e+10   2.259000e+11   1.852648e+08   1.474304e+05   4.633246e-26   0.000000e+00   0.000000e+00
       24000   2.399900e-08   1.306665e+01   2.004497e+01   1.024867e-01  -9.757161e+04  -3.846959e+04   1.036127e+05  -9.375278e+10   2.258483e+11  -4.432445e+09   1.474304e+05   4.632647e-26   0.000000e+00   0.000000e+00
       32000   3.199900e-08   1.306586e+01   2.004467e+01   1.033154e-01  -9.832144e+04  -3.666327e+04   1.035588e+05  -9.369774e+10   2.257163e+11  -9.047413e+09   1.474304e+05   4.632048e-26   0.000000e+00   0.000000e+00
       40000   3.999900e-08   1.306508e+01   2.004438e+01   1.041435e-01  -9.907069e+04  -3.485834e+04   1.034679e+05  -9.360908e+10   2.255039e+11  -1.365799e+10   1.474304e+05   4.631448e-26   0.000000e+00   0.000000e+00
       48000   4.799900e-08   1.306428e+01   2.004411e+01   1.049707e-01  -9.981909e+04  -3.305543e+04   1.033402e+05  -9.348684e+10   2.252113e+11  -1.826254e+10   1.474304e+05   4.630847e-26   0.000000e+00   0.000000e+00
       56000   5.599900e-08   1.306348e+01   2.004385e+01   1.057968e-01  -1.005664e+05  -3.125517e+04   1.031757e+05  -9.333108e+10   2.248387e+11  -2.285943e+10   1.474304e+05   4.630244e-26   0.000000e+00   0.000000e+00
       64000   6.399900e-08   1.306267e+01   2.004361e+01   1.066215e-01  -1.013123e+05  -2.945822e+04   1.029745e+05  -9.314186e+10   2.243861e+11  -2.744700e+10   1.474304e+05   4.629639e-26   0.000000e+00   0.000000e+00
       72000   7.199900e-08   1.306186e+01   2.004338e+01   1.074443e-01  -1.020566e+05  -2.766521e+04   1.027366e+05  -9.291926e+10   2.238537e+11  -3.202364e+10   1.474304e+05   4.629031e-26   0.000000e+00   0.000000e+00
       80000   7.999900e-08   1.306104e+01   2.004316e+01   1.082652e-01  -1.027989e+05  -2.587677e+04   1.024622e+05  -9.266339e+10   2.232419e+11  -3.658772e+10   1.474304e+05   4.628420e-26   0.000000e+00   0.000000e+00
       88000   8.799900e-08   1.306021e+01   2.004296e+01   1.090836e-01  -1.035391e+05  -2.409355e+04   1.021512e+05  -9.237435e+10   2.225508e+11  -4.113761e+10   1.474304e+05   4.627806e-26   0.000000e+00   0.000000e+00
       96000   9.599900e-08   1.305938e+01   2.004278e+01   1.098995e-01  -1.042768e+05  -2.231617e+04   1.018040e+05  -9.205226e+10   2.217807e+11  -4.567170e+10   1.474304e+05   4.627188e-26   0.000000e+00   0.000000e+00
      104000   1.039990e-07   1.305854e+01   2.004261e+01   1.107124e-01  -1.050118e+05  -2.054527e+04   1.014205e+05  -9.169726e+10   2.209319e+11  -5.018838e+10   1.474304e+05   4.626565e-26   0.000000e+00   0.000000e+00
      112000   1.119990e-07   1.305770e+01   2.004245e+01   1.115221e-01  -1.057439e+05  -1.878147e+04   1.010010e+05  -9.130947e+10   2.200047e+11  -5.468605e+10   1.474304e+05   4.625938e-26   0.000000e+00   0.000000e+00
      120000   1.199990e-07   1.305685e+01   2.004231e+01   1.123283e-01  -1.064727e+05  -1.702540e+04   1.005456e+05  -9.088907e+10   2.189995e+11  -5.916310e+10   1.474304e+05   4.625306e-26   0.000000e+00   0.000000e+00
      128000   1.279990e-07   1.305600e+01   2.004218e+01   1.131307e-01  -1.071980e+05  -1.527769e+04   1.000545e+05  -9.043623e+10   2.179167e+11  -6.361796e+10   1.474304e+05   4.624668e-26   0.000000e+00   0.000000e+00
      136000   1.359990e-07   1.305514e+01   2.004206e+01   1.139291e-01  -1.079196e+05  -1.353894e+04   9.952778e+04  -8.995111e+10   2.167567e+11  -6.804905e+10   1.474304e+05   4.624025e-26   0.000000e+00   0.000000e+00
      144000   1.439990e-07   1.305427e+01   2.004196e+01   1.147231e-01  -1.086372e+05  -1.180978e+04   9.896575e+04  -8.943391e+10   2.155199e+11  -7.245479e+10   1.474304e+05   4.623375e-26   0.000000e+00   0.000000e+00
      152000   1.519990e-07   1.305340e+01   2.004187e+01   1.155125e-01  -1.093505e+05  -1.009083e+04   9.836858e+04  -8.888485e+10   2.142068e+11  -7.683363e+10   1.474304e+05   4.622719e-26   0.000000e+00   0.000000e+00
      160000   1.599990e-07   1.305252e+01   2.004180e+01   1.162969e-01  -1.100592e+05  -8.382679e+03   9.773648e+04  -8.830412e+10   2.128179e+11  -8.118401e+10   1.474304e+05   4.622056e-26   0.000000e+00   0.000000e+00
      168000   1.679990e-07   1.305164e+01   2.004174e+01   1.170761e-01  -1.107632e+05  -6.685943e+03   9.706971e+04  -8.769197e+10   2.113537e+11  -8.550441e+10   1.474304e+05   4.621386e-26   0.000000e+00   0.000000e+00
      176000   1.759990e-07   1.305075e+01   2.004169e+01   1.178499e-01  -1.114622e+05  -5.001221e+03   9.636849e+04  -8.704863e+10   2.098147e+11  -8.979329e+10   1.474304e+05   4.620708e-26   0.000000e+00   0.000000e+00
      184000   1.839990e-07   1.304985e+01   2.004166e+01   1.186179e-01  -1.121559e+05  -3.329107e+03   9.563310e+04  -8.637434e+10   2.082016e+11  -9.404913e+10   1.474304e+05   4.620022e-26   0.000000e+00   0.000000e+00
      192000   1.919990e-07   1.304895e+01   2.004164e+01   1.193800e-01  -1.128441e+05  -1.670194e+03   9.486379e+04  -8.566938e+10   2.065148e+11  -9.827044e+10   1.474304e+05   4.619328e-26   0.000000e+00   0.000000e+00
      200000   1.999990e-07   1.304805e+01   2.004163e+01   1.201357e-01  -1.135266e+05  -2.506653e+01   9.406086e+04  -8.493402e+10   2.047551e+11  -1.024557e+11   1.474304e+05   4.618625e-26   0.000000e+00   0.000000e+00
      208000   2.079990e-07   1.304714e+01   2.004164e+01   1.208848e-01  -1.142030e+05   1.605693e+03   9.322460e+04  -8.416853e+10   2.029231e+11  -1.066035e+11   1.474304e+05   4.617913e-26   0.000000e+00   0.000000e+00
      216000   2.159990e-07   1.304622e+01   2.004166e+01   1.216272e-01  -1.148732e+05   3.221510e+03   9.235531e+04  -8.337322e+10   2.010194e+11  -1.107123e+11   1.474304e+05   4.617193e-26   0.000000e+00   0.000000e+00
      224000   2.239990e-07   1.304530e+01   2.004169e+01   1.223624e-01  -1.155369e+05   4.821813e+03   9.145330e+04  -8.254839e+10   1.990448e+11  -1.147808e+11   1.474304e+05   4.616463e-26   0.000000e+00   0.000000e+00
      232000   2.319990e-07   1.304437e+01   2.004174e+01   1.230904e-01  -1.161939e+05   6.406038e+03   9.051892e+04  -8.169435e+10   1.970000e+11  -1.188073e+11   1.474304e+05   4.615724e-26   0.000000e+00   0.000000e+00
      240000   2.399990e-07   1.304344e+01   2.004179e+01   1.238107e-01  -1.168439e+05   7.973625e+03   8.955250e+04  -8.081144e+10   1.948857e+11  -1.227907e+11   1.474304e+05   4.614974e-26   0.000000e+00   0.000000e+00
      248000   2.479990e-07   1.304250e+01   2.004186e+01   1.245231e-01  -1.174868e+05   9.524023e+03   8.855439e+04  -7.989999e+10   1.927027e+11  -1.267293e+11   1.474304e+05   4.614215e-26   0.000000e+00   0.000000e+00
      256000   2.559990e-07   1.304156e+01   2.004195e+01   1.252274e-01  -1.181222e+05   1.105669e+04   8.752495e+04  -7.896035e+10   1.904518e+11  -1.306220e+11   1.474304e+05   4.613445e-26   0.000000e+00   0.000000e+00
      264000   2.639990e-07   1.304061e+01   2.004204e+01   1.259234e-01  -1.187501e+05   1.257107e+04   8.646456e+04  -7.799288e+10   1.881338e+11  -1.344672e+11   1.474304e+05   4.612665e-26   0.000000e+00   0.000000e+00
      272000   2.719990e-07   1.303966e+01   2.004215e+01   1.266108e-01  -1.193700e+05   1.406665e+04   8.537360e+04  -7.699794e+10   1.857496e+11  -1.382636e+11   1.474304e+05   4.611874e-26   0.000000e+00   0.000000e+00
      280000   2.799990e-07   1.303870e+01   2.004226e+01   1.272893e-01  -1.199820e+05   1.554289e+04   8.425247e+04  -7.597592e+10   1.833001e+11  -1.420100e+11   1.474304e+05   4.611073e-26   0.000000e+00   0.000000e+00
      288000   2.879990e-07   1.303774e+01   2.004240e+01   1.279588e-01  -1.205856e+05   1.699927e+04   8.310157e+04  -7.492720e+10   1.807860e+11  -1.457050e+11   1.474304e+05   4.610260e-26   0.000000e+00   0.000000e+00
      296000   2.959990e-07   1.303677e+01   2.004254e+01   1.286189e-01  -1.211807e+05   1.843529e+04   8.192133e+04  -7.385217e+10   1.782084e+11  -1.493472e+11   1.474304e+05   4.609437e-26   0.000000e+00   0.000000e+00
      304000   3.039990e-07   1.303580e+01   2.004269e+01   1.292694e-01  -1.217672e+05   1.985044e+04   8.071216e+04  -7.275125e+10   1.755681e+11  -1.529355e+11   1.474304e+05   4.608602e-26   0.000000e+00   0.000000e+00
      312000   3.119990e-07   1.303483e+01   2.004285e+01   1.299102e-01  -1.223447e+05   2.124422e+04   7.947450e+04  -7.162485e+10   1.728662e+11  -1.564686e+11   1.474304e+05   4.607756e-26   0.000000e+00   0.000000e+00
      320000   3.199990e-07   1.303385e+01   2.004303e+01   1.305409e-01  -1.229131e+05   2.261613e+04   7.820881e+04  -7.047340e+10   1.701035e+11  -1.599452e+11   1.474304e+05   4.606899e-26   0.000000e+00   0.000000e+00
      328000   3.279990e-07   1.303286e+01   2.004322e+01   1.311615e-01  -1.234722e+05   2.396571e+04   7.691553e+04  -6.929732e+10   1.672812e+11  -1.633642e+11   1.474304e+05   4.606030e-26   0.000000e+00   0.000000e+00
      336000   3.359990e-07   1.303187e+01   2.004341e+01   1.317715e-01  -1.240218e+05   2.529247e+04   7.559513e+04  -6.809706e+10   1.644001e+11  -1.667243e+11   1.474304e+05   4.605150e-26   0.000000e+00   0.000000e+00
      344000   3.439990e-07   1.303088e+01   2.004362e+01   1.323709e-01  -1.245617e+05   2.659596e+04   7.424810e+04  -6.687307e+10   1.614615e+11  -1.700243e+11   1.474304e+05   4.604258e-26   0.000000e+00   0.000000e+00
      352000   3.519990e-07   1.302988e+01   2.004384e+01   1.329594e-01  -1.250917e+05   2.787570e+04   7.287490e+04  -6.562581e+10   1.584662e+11  -1.732632e+11   1.474304e+05   4.603354e-26   0.000000e+00   0.000000e+00
      360000   3.599990e-07   1.302887e+01   2.004407e+01   1.335368e-01  -1.256116e+05   2.913126e+04   7.147605e+04  -6.435574e+10   1.554154e+11  -1.764398e+11   1.474304e+05   4.602439e-26   0.000000e+00   0.000000e+00
      368000   3.679990e-07   1.302787e+01   2.004430e+01   1.341030e-01  -1.261213e+05   3.036220e+04   7.005203e+04  -6.306334e+10   1.523102e+11  -1.795529e+11   1.474304e+05   4.601513e-26   0.000000e+00   0.000000e+00
      376000   3.759990e-07   1.302686e+01   2.004455e+01   1.346576e-01  -1.266206e+05   3.156808e+04   6.860337e+04  -6.174910e+10   1.491518e+11  -1.826016e+11   1.474304e+05   4.600575e-26   0.000000e+00   0.000000e+00
      384000   3.839990e-07   1.302584e+01   2.004481e+01   1.352006e-01  -1.271092e+05   3.274849e+04   6.713058e+04  -6.041350e+10   1.459411e+11  -1.855847e+11   1.474304e+05   4.599626e-26   0.000000e+00   0.000000e+00
      392000   3.919990e-07   1.302482e+01   2.004508e+01   1.357316e-01  -1.275871e+05   3.390300e+04   6.563419e+04  -5.905703e+10   1.426795e+11  -1.885012e+11   1.474304e+05   4.598665e-26   0.000000e+00   0.000000e+00
      400000   3.999990e-07   1.302380e+01   2.004535e+01   1.362506e-01  -1.280541e+05   3.503122e+04   6.411474e+04  -5.768021e+10   1.393680e+11  -1.913501e+11   1.474305e+05   4.597692e-26   0.000000e+00   0.000000e+00
      408000   4.079990e-07   1.302277e+01   2.004564e+01   1.367574e-01  -1.285100e+05   3.613276e+04   6.257277e+04  -5.628354e+10   1.360079e+11  -1.941304e+11   1.474305e+05   4.596709e-26   0.000000e+00   0.000000e+00
      416000   4.159990e-07   1.302174e+01   2.004593e+01   1.372517e-01  -1.289546e+05   3.720722e+04   6.100884e+04  -5.486754e+10   1.326004e+11  -1.968412e+11   1.474305e+05   4.595714e-26   0.000000e+00   0.000000e+00
      424000   4.239990e-07   1.302071e+01   2.004623e+01   1.377335e-01  -1.293878e+05   3.825423e+04   5.942350e+04  -5.343274e+10   1.291466e+11  -1.994815e+11   1.474305e+05   4.594709e-26   0.000000e+00   0.000000e+00
      432000   4.319990e-07   1.301967e+01   2.004654e+01   1.382025e-01  -1.298095e+05   3.927344e+04   5.781732e+04  -5.197966e+10   1.256478e+11  -2.020505e+11   1.474305e+05   4.593692e-26   0.000000e+00   0.000000e+00
      440000   4.399990e-07   1.301863e+01   2.004686e+01   1.386585e-01  -1.302194e+05   4.026448e+04   5.619088e+04  -5.050885e+10   1.221054e+11  -2.045471e+11   1.474305e+05   4.592665e-26   0.000000e+00   0.000000e+00
      448000   4.479990e-07   1.301759e+01   2.004719e+01   1.391015e-01  -1.306175e+05   4.122701e+04   5.454476e+04  -4.902084e+10   1.185204e+11  -2.069707e+11   1.474305e+05   4.591627e-26   0.000000e+00   0.000000e+00
      456000   4.559990e-07   1.301654e+01   2.004752e+01   1.395312e-01  -1.310037e+05   4.216069e+04   5.287954e+04  -4.751618e+10   1.148943e+11  -2.093202e+11   1.474305e+05   4.590579e-26   0.000000e+00   0.000000e+00
      464000   4.639990e-07   1.301549e+01   2.004786e+01   1.399475e-01  -1.313778e+05   4.306521e+04   5.119583e+04  -4.599542e+10   1.112283e+11  -2.115951e+11   1.474305e+05   4.589521e-26   0.000000e+00   0.000000e+00
      472000   4.719990e-07   1.301444e+01   2.004821e+01   1.403503e-01  -1.317396e+05   4.394024e+04   4.949422e+04  -4.445913e+10   1.075237e+11  -2.137944e+11   1.474305e+05   4.588453e-26   0.000000e+00   0.000000e+00
      480000   4.799990e-07   1.301339e+01   2.004856e+01   1.407394e-01  -1.320891e+05   4.478548e+04   4.777532e+04  -4.290786e+10   1.037819e+11  -2.159174e+11   1.474305e+05   4.587375e-26   0.000000e+00   0.000000e+00
      488000   4.879990e-07   1.301233e+01   2.004893e+01   1.411146e-01  -1.324261e+05   4.560065e+04   4.603975e+04  -4.134219e+10   1.000041e+11  -2.179634e+11   1.474305e+05   4.586287e-26   0.000000e+00   0.000000e+00
      496000   4.959990e-07   1.301127e+01   2.004929e+01   1.414759e-01  -1.327505e+05   4.638545e+04   4.428811e+04  -3.976268e+10   9.619181e+10  -2.199316e+11   1.474305e+05   4.585190e-26   0.000000e+00   0.000000e+00
      504000   5.039990e-07   1.301020e+01   2.004967e+01   1.418232e-01  -1.330622e+05   4.713963e+04   4.252105e+04  -3.816992e+10   9.234629e+10  -2.218216e+11   1.474305e+05   4.584085e-26   0.000000e+00   0.000000e+00
      512000   5.119990e-07   1.300914e+01   2.005005e+01   1.421562e-01  -1.333612e+05   4.786291e+04   4.073918e+04  -3.656448e+10   8.846893e+10  -2.236325e+11   1.474305e+05   4.582970e-26   0.000000e+00   0.000000e+00
      520000   5.199990e-07   1.300807e+01   2.005043e+01   1.424750e-01  -1.336472e+05   4.855504e+04   3.894314e+04  -3.494694e+10   8.456111e+10  -2.253638e+11   1.474305e+05   4.581847e-26   0.000000e+00   0.000000e+00
      528000   5.279990e-07   1.300700e+01   2.005082e+01   1.427793e-01  -1.339203e+05   4.921580e+04   3.713357e+04  -3.331791e+10   8.062423e+10  -2.270148e+11   1.474305e+05   4.580716e-26   0.000000e+00   0.000000e+00
      536000   5.359990e-07   1.300593e+01   2.005122e+01   1.430691e-01  -1.341803e+05   4.984495e+04   3.531111e+04  -3.167796e+10   7.665969e+10  -2.285852e+11   1.474305e+05   4.579577e-26   0.000000e+00   0.000000e+00
      544000   5.439990e-07   1.300485e+01   2.005162e+01   1.433442e-01  -1.344271e+05   5.044228e+04   3.347642e+04  -3.002769e+10   7.266889e+10  -2.300742e+11   1.474305e+05   4.578431e-26   0.000000e+00   0.000000e+00
      552000   5.519990e-07   1.300378e+01   2.005203e+01   1.436047e-01  -1.346607e+05   5.100759e+04   3.163014e+04  -2.836770e+10   6.865326e+10  -2.314815e+11   1.474305e+05   4.577277e-26   0.000000e+00   0.000000e+00
      560000   5.599990e-07   1.300270e+01   2.005244e+01   1.438503e-01  -1.348810e+05   5.154067e+04   2.977294e+04  -2.669860e+10   6.461423e+10  -2.328065e+11   1.474305e+05   4.576117e-26   0.000000e+00   0.000000e+00
      568000   5.679990e-07   1.300162e+01   2.005285e+01   1.440810e-01  -1.350879e+05   5.204135e+04   2.790546e+04  -2.502097e+10   6.055322e+10  -2.340489e+11   1.474305e+05   4.574950e-26   0.000000e+00   0.000000e+00
      576000   5.759990e-07   1.300054e+01   2.005327e+01   1.442968e-01  -1.352813e+05   5.250946e+04   2.602837e+04  -2.333543e+10   5.647169e+10  -2.352082e+11   1.474305e+05   4.573777e-26   0.000000e+00   0.000000e+00
      584000   5.839990e-07   1.299945e+01   2.005369e+01   1.444974e-01  -1.354612e+05   5.294465e+04   2.414269e+04  -2.164658e+10   5.232420e+10  -2.361999e+11   1.474305e+05   4.569153e-26   0.000000e+00   0.000000e+00
      592000   5.919990e-07   1.299837e+01   2.005412e+01   1.446830e-01  -1.356276e+05   5.334679e+04   2.224907e+04  -1.994823e+10   4.820920e+10  -2.371910e+11   1.474305e+05   4.567979e-26   0.000000e+00   0.000000e+00
      600000   5.999990e-07   1.299728e+01   2.005455e+01   1.448534e-01  -1.357804e+05   5.371595e+04   2.034785e+04  -1.824378e+10   4.407809e+10  -2.380981e+11   1.474305e+05   4.566802e-26   0.000000e+00   0.000000e+00
      608000   6.079990e-07   1.299620e+01   2.005498e+01   1.450086e-01  -1.359195e+05   5.405200e+04   1.843972e+04  -1.653385e+10   3.993231e+10  -2.389209e+11   1.474305e+05   4.565621e-26   0.000000e+00   0.000000e+00
      616000   6.159990e-07   1.299511e+01   2.005541e+01   1.451484e-01  -1.360449e+05   5.435483e+04   1.652534e+04  -1.481904e+10   3.577335e+10  -2.396592e+11   1.474305e+05   4.564436e-26   0.000000e+00   0.000000e+00
      624000   6.239990e-07   1.299402e+01   2.005585e+01   1.452730e-01  -1.361566e+05   5.462434e+04   1.460540e+04  -1.309997e+10   3.160267e+10  -2.403127e+11   1.474305e+05   4.563248e-26   0.000000e+00   0.000000e+00
      632000   6.319990e-07   1.299293e+01   2.005628e+01   1.453821e-01  -1.362545e+05   5.486044e+04   1.268057e+04  -1.137725e+10   2.742174e+10  -2.408812e+11   1.474305e+05   4.562058e-26   0.000000e+00   0.000000e+00
      640000   6.399990e-07   1.299184e+01   2.005672e+01   1.454758e-01  -1.363386e+05   5.506306e+04   1.075153e+04  -9.651480e+09   2.323205e+10  -2.413646e+11   1.474305e+05   4.560866e-26   0.000000e+00   0.000000e+00
      648000   6.479990e-07   1.299075e+01   2.005717e+01   1.455541e-01  -1.364089e+05   5.523213e+04   8.818961e+03  -7.923289e+09   1.903508e+10  -2.417627e+11   1.474305e+05   4.559672e-26   0.000000e+00   0.000000e+00
      656000   6.559990e-07   1.298966e+01   2.005761e+01   1.456169e-01  -1.364654e+05   5.536760e+04   6.883551e+03  -6.193284e+09   1.483230e+10  -2.420755e+11   1.474305e+05   4.558476e-26   0.000000e+00   0.000000e+00
      664000   6.639990e-07   1.298857e+01   2.005805e+01   1.456642e-01  -1.365080e+05   5.546943e+04   4.945980e+03  -4.462079e+09   1.062521e+10  -2.423028e+11   1.474305e+05   4.557279e-26   0.000000e+00   0.000000e+00
      672000   6.719990e-07   1.298747e+01   2.005850e+01   1.456961e-01  -1.365368e+05   5.553759e+04   3.006934e+03  -2.730286e+09   6.415281e+09  -2.424446e+11   1.474305e+05   4.556082e-26   0.000000e+00   0.000000e+00
      680000   6.799990e-07   1.298638e+01   2.005894e+01   1.457124e-01  -1.365517e+05   5.557207e+04   1.067095e+03  -9.985162e+08   2.204007e+09  -2.425009e+11   1.474305e+05   4.554885e-26   0.000000e+00   0.000000e+00
      688000   6.879990e-07   1.298529e+01   2.005938e+01   1.457131e-01  -1.365527e+05   5.557285e+04  -8.728520e+02   7.326193e+08  -2.007129e+09  -2.424716e+11   1.474305e+05   4.553687e-26   0.000000e+00   0.000000e+00
      696000   6.959990e-07   1.298420e+01   2.005983e+01   1.456984e-01  -1.365400e+05   5.553995e+04  -2.812223e+03   2.462511e+09  -6.216642e+09  -2.423570e+11   1.474305e+05   4.552491e-26   0.000000e+00   0.000000e+00
      704000   7.039990e-07   1.298310e+01   2.006027e+01   1.456681e-01  -1.365133e+05   5.547339e+04  -4.750336e+03   4.190550e+09  -1.042305e+10  -2.421569e+11   1.474305e+05   4.551295e-26   0.000000e+00   0.000000e+00
      712000   7.119990e-07   1.298201e+01   2.006072e+01   1.456224e-01  -1.364729e+05   5.537319e+04  -6.686506e+03   5.916131e+09  -1.462487e+10  -2.418716e+11   1.474305e+05   4.550101e-26   0.000000e+00   0.000000e+00
      720000   7.199990e-07   1.298092e+01   2.006116e+01   1.455612e-01  -1.364187e+05   5.523940e+04  -8.620054e+03   7.638647e+09  -1.882062e+10  -2.415011e+11   1.474305e+05   4.548909e-26   0.000000e+00   0.000000e+00
      728000   7.279990e-07   1.297983e+01   2.006160e+01   1.454845e-01  -1.363507e+05   5.507208e+04  -1.055030e+04   9.357496e+09  -2.300883e+10  -2.410457e+11   1.474305e+05   4.547719e-26   0.000000e+00   0.000000e+00
      736000   7.359990e-07   1.297874e+01   2.006204e+01   1.453924e-01  -1.362690e+05   5.487128e+04  -1.247656e+04   1.107208e+10  -2.718801e+10  -2.405055e+11   1.474305e+05   4.546531e-26   0.000000e+00   0.000000e+00
      744000   7.439990e-07   1.297765e+01   2.006248e+01   1.452849e-01  -1.361736e+05   5.463709e+04  -1.439816e+04   1.278179e+10  -3.135671e+10  -2.398807e+11   1.474305e+05   4.545347e-26   0.000000e+00   0.000000e+00
      752000   7.519990e-07   1.297656e+01   2.006291e+01   1.451620e-01  -1.360645e+05   5.436960e+04  -1.631442e+04   1.448604e+10  -3.551346e+10  -2.391716e+11   1.474305e+05   4.544166e-26   0.000000e+00   0.000000e+00
      760000   7.599990e-07   1.297547e+01   2.006335e+01   1.450239e-01  -1.359418e+05   5.406891e+04  -1.822468e+04   1.618424e+10  -3.965680e+10  -2.383785e+11   1.474305e+05   4.542989e-26   0.000000e+00   0.000000e+00
      768000   7.679990e-07   1.297439e+01   2.006378e+01   1.448704e-01  -1.358056e+05   5.373513e+04  -2.012826e+04   1.787579e+10  -4.378526e+10  -2.375018e+11   1.474305e+05   4.541817e-26   0.000000e+00   0.000000e+00
      776000   7.759990e-07   1.297330e+01   2.006421e+01   1.447018e-01  -1.356558e+05   5.336839e+04  -2.202449e+04   1.956010e+10  -4.789740e+10  -2.365416e+11   1.474305e+05   4.540649e-26   0.000000e+00   0.000000e+00
      784000   7.839990e-07   1.297222e+01   2.006463e+01   1.445181e-01  -1.354926e+05   5.296881e+04  -2.391270e+04   2.123660e+10  -5.199179e+10  -2.354985e+11   1.474305e+05   4.539486e-26   0.000000e+00   0.000000e+00
      792000   7.919990e-07   1.297113e+01   2.006505e+01   1.443192e-01  -1.353160e+05   5.253656e+04  -2.579224e+04   2.290471e+10  -5.606697e+10  -2.343728e+11   1.474305e+05   4.538328e-26   0.000000e+00   0.000000e+00
      800000   7.999990e-07   1.297005e+01   2.006547e+01   1.441054e-01  -1.351262e+05   5.207179e+04  -2.766244e+04   2.456383e+10  -6.012153e+10  -2.331649e+11   1.474305e+05   4.537176e-26   0.000000e+00   0.000000e+00
      808000   8.079990e-07   1.296897e+01   2.006589e+01   1.438767e-01  -1.349230e+05   5.157467e+04  -2.952266e+04   2.621342e+10  -6.415404e+10  -2.318753e+11   1.474305e+05   4.536030e-26   0.000000e+00   0.000000e+00
      816000   8.159990e-07   1.296789e+01   2.006630e+01   1.436331e-01  -1.347068e+05   5.104539e+04  -3.137223e+04   2.785289e+10  -6.816308e+10  -2.305045e+11   1.474305e+05   4.534890e-26   0.000000e+00   0.000000e+00
      824000   8.239990e-07   1.296681e+01   2.006670e+01   1.433747e-01  -1.344774e+05   5.048413e+04  -3.321052e+04   2.948168e+10  -7.214727e+10  -2.290531e+11   1.474305e+05   4.533757e-26   0.000000e+00   0.000000e+00
      832000   8.319990e-07   1.296574e+01   2.006711e+01   1.431017e-01  -1.342351e+05   4.989110e+04  -3.503687e+04   3.109923e+10  -7.610519e+10  -2.275214e+11   1.474305e+05   4.532632e-26   0.000000e+00   0.000000e+00
      840000   8.399990e-07   1.296467e+01   2.006750e+01   1.428142e-01  -1.339799e+05   4.926651e+04  -3.685064e+04   3.270500e+10  -8.003546e+10  -2.259102e+11   1.474305e+05   4.531513e-26   0.000000e+00   0.000000e+00
      848000   8.479990e-07   1.296360e+01   2.006789e+01   1.425122e-01  -1.337118e+05   4.861060e+04  -3.865122e+04   3.429842e+10  -8.393672e+10  -2.242201e+11   1.474305e+05   4.530403e-26   0.000000e+00   0.000000e+00
      856000   8.559990e-07   1.296253e+01   2.006828e+01   1.421958e-01  -1.334311e+05   4.792360e+04  -4.043795e+04   3.587895e+10  -8.780760e+10  -2.224515e+11   1.474305e+05   4.529300e-26   0.000000e+00   0.000000e+00
      864000   8.639990e-07   1.296146e+01   2.006866e+01   1.418652e-01  -1.331378e+05   4.720576e+04  -4.221023e+04   3.744606e+10  -9.164674e+10  -2.206053e+11   1.474305e+05   4.528206e-26   0.000000e+00   0.000000e+00
      872000   8.719990e-07   1.296040e+01   2.006904e+01   1.415205e-01  -1.328320e+05   4.645734e+04  -4.396743e+04   3.899921e+10  -9.545281e+10  -2.186820e+11   1.474305e+05   4.527120e-26   0.000000e+00   0.000000e+00
      880000   8.799990e-07   1.295934e+01   2.006940e+01   1.411618e-01  -1.325139e+05   4.567861e+04  -4.570894e+04   4.053787e+10  -9.922447e+10  -2.166824e+11   1.474305e+05   4.526043e-26   0.000000e+00   0.000000e+00
      888000   8.879990e-07   1.295828e+01   2.006977e+01   1.407892e-01  -1.321835e+05   4.486984e+04  -4.743415e+04   4.206152e+10  -1.029604e+11  -2.146073e+11   1.474305e+05   4.524975e-26   0.000000e+00   0.000000e+00
      896000   8.959990e-07   1.295722e+01   2.007012e+01   1.404029e-01  -1.318409e+05   4.403133e+04  -4.914245e+04   4.356964e+10  -1.066593e+11  -2.124573e+11   1.474306e+05   4.523916e-26   0.000000e+00   0.000000e+00
      904000   9.039990e-07   1.295617e+01   2.007047e+01   1.400029e-01  -1.314864e+05   4.316339e+04  -5.083326e+04   4.506172e+10  -1.103199e+11  -2.102333e+11   1.474306e+05   4.522867e-26   0.000000e+00   0.000000e+00
      912000   9.119990e-07   1.295512e+01   2.007081e+01   1.395896e-01  -1.311200e+05   4.226632e+04  -5.250599e+04   4.653725e+10  -1.139410e+11  -2.079360e+11   1.474306e+05   4.521827e-26   0.000000e+00   0.000000e+00
      920000   9.199990e-07   1.295407e+01   2.007115e+01   1.391629e-01  -1.307418e+05   4.134044e+04  -5.416005e+04   4.799575e+10  -1.175212e+11  -2.055664e+11   1.474306e+05   4.520798e-26   0.000000e+00   0.000000e+00
      928000   9.279990e-07   1.295303e+01   2.007147e+01   1.387231e-01  -1.303521e+05   4.038609e+04  -5.579486e+04   4.943671e+10  -1.210592e+11  -2.031253e+11   1.474306e+05   4.519779e-26   0.000000e+00   0.000000e+00
      936000   9.359990e-07   1.295198e+01   2.007179e+01   1.382702e-01  -1.299509e+05   3.940360e+04  -5.740986e+04   5.085965e+10  -1.245540e+11  -2.006135e+11   1.474306e+05   4.518770e-26   0.000000e+00   0.000000e+00
      944000   9.439990e-07   1.295095e+01   2.007210e+01   1.378046e-01  -1.295384e+05   3.839334e+04  -5.900449e+04   5.226409e+10  -1.280042e+11  -1.980320e+11   1.474306e+05   4.517771e-26   0.000000e+00   0.000000e+00
      952000   9.519990e-07   1.294991e+01   2.007241e+01   1.373262e-01  -1.291147e+05   3.735565e+04  -6.057818e+04   5.364956e+10  -1.314087e+11  -1.953816e+11   1.474306e+05   4.516783e-26   0.000000e+00   0.000000e+00
      960000   9.599990e-07   1.294888e+01   2.007270e+01   1.368354e-01  -1.286800e+05   3.629092e+04  -6.213041e+04   5.501560e+10  -1.347663e+11  -1.926635e+11   1.474306e+05   4.515806e-26   0.000000e+00   0.000000e+00
      968000   9.679990e-07   1.294785e+01   2.007299e+01   1.363322e-01  -1.282345e+05   3.519952e+04  -6.366062e+04   5.636175e+10  -1.380758e+11  -1.898785e+11   1.474306e+05   4.514840e-26   0.000000e+00   0.000000e+00
      976000   9.759990e-07   1.294683e+01   2.007326e+01   1.358169e-01  -1.277783e+05   3.408183e+04  -6.516829e+04   5.768756e+10  -1.413361e+11  -1.870276e+11   1.474306e+05   4.513885e-26   0.000000e+00   0.000000e+00
      984000   9.839990e-07   1.294581e+01   2.007353e+01   1.352896e-01  -1.273116e+05   3.293827e+04  -6.665289e+04   5.899259e+10  -1.445460e+11  -1.841120e+11   1.474306e+05   4.512940e-26   0.000000e+00   0.000000e+00
      992000   9.919990e-07   1.294479e+01   2.007379e+01   1.347505e-01  -1.268345e+05   3.176923e+04  -6.811390e+04   6.027640e+10  -1.477045e+11  -1.811325e+11   1.474306e+05   4.512007e-26   0.000000e+00   0.000000e+00
     1000000   9.999990e-07   1.294378e+01   2.007404e+01   1.341998e-01  -1.263472e+05   3.057514e+04  -6.955084e+04   6.153856e+10  -1.508104e+11  -1.780903e+11   1.474306e+05   4.511085e-26   0.000000e+00   0.000000e+00
     1008000   1.007999e-06   1.294277e+01   2.007428e+01   1.336377e-01  -1.258499e+05   2.935641e+04  -7.096318e+04   6.277867e+10  -1.538627e+11  -1.749866e+11   1.474306e+05   4.510174e-26   0.000000e+00   0.000000e+00
     1016000   1.015999e-06   1.294177e+01   2.007451e+01   1.330645e-01  -1.253428e+05   2.811348e+04  -7.235046e+04   6.399630e+10  -1.568602e+11  -1.718223e+11   1.474306e+05   4.509275e-26   0.000000e+00   0.000000e+00
     1024000   1.023999e-06   1.294076e+01   2.007473e+01   1.324802e-01  -1.248260e+05   2.684679e+04  -7.371218e+04   6.519106e+10  -1.598021e+11  -1.685986e+11   1.474306e+05   4.508386e-26   0.000000e+00   0.000000e+00
     1032000   1.031999e-06   1.293977e+01   2.007494e+01   1.318851e-01  -1.242998e+05   2.555679e+04  -7.504788e+04   6.636254e+10  -1.626872e+11  -1.653168e+11   1.474306e+05   4.507509e-26   0.000000e+00   0.000000e+00
     1040000   1.039999e-06   1.293878e+01   2.007514e+01   1.312795e-01  -1.237643e+05   2.424394e+04  -7.635709e+04   6.751037e+10  -1.655146e+11  -1.619779e+11   1.474306e+05   4.506644e-26   0.000000e+00   0.000000e+00
     1048000   1.047999e-06   1.293779e+01   2.007533e+01   1.306635e-01  -1.232197e+05   2.290871e+04  -7.763937e+04   6.863417e+10  -1.682834e+11  -1.585831e+11   1.474306e+05   4.505789e-26   0.000000e+00   0.000000e+00
     1056000   1.055999e-06   1.293680e+01   2.007551e+01   1.300373e-01  -1.226662e+05   2.155157e+04  -7.889427e+04   6.973356e+10  -1.709924e+11  -1.551338e+11   1.474306e+05   4.504946e-26   0.000000e+00   0.000000e+00
     1064000   1.063999e-06   1.293583e+01   2.007567e+01   1.294013e-01  -1.221040e+05   2.017299e+04  -8.012136e+04   7.080819e+10  -1.736409e+11  -1.516310e+11   1.474306e+05   4.504113e-26   0.000000e+00   0.000000e+00
     1072000   1.071999e-06   1.293485e+01   2.007583e+01   1.287555e-01  -1.215334e+05   1.877347e+04  -8.132022e+04   7.185771e+10  -1.762279e+11  -1.480760e+11   1.474306e+05   4.503292e-26   0.000000e+00   0.000000e+00
     1080000   1.079999e-06   1.293388e+01   2.007597e+01   1.281002e-01  -1.209544e+05   1.735351e+04  -8.249044e+04   7.288177e+10  -1.787525e+11  -1.444702e+11   1.474306e+05   4.502482e-26   0.000000e+00   0.000000e+00
     1088000   1.087999e-06   1.293292e+01   2.007611e+01   1.274357e-01  -1.203673e+05   1.591360e+04  -8.363161e+04   7.388003e+10  -1.812139e+11  -1.408147e+11   1.474306e+05   4.501682e-26   0.000000e+00   0.000000e+00
     1096000   1.095999e-06   1.293196e+01   2.007623e+01   1.267622e-01  -1.197724e+05   1.445426e+04  -8.474334e+04   7.485218e+10  -1.836111e+11  -1.371110e+11   1.474306e+05   4.500893e-26   0.000000e+00   0.000000e+00
     1104000   1.103999e-06   1.293100e+01   2.007634e+01   1.260799e-01  -1.191697e+05   1.297599e+04  -8.582526e+04   7.579790e+10  -1.859435e+11  -1.333602e+11   1.474306e+05   4.500115e-26   0.000000e+00   0.000000e+00
     1112000   1.111999e-06   1.293005e+01   2.007644e+01   1.253891e-01  -1.185597e+05   1.147933e+04  -8.687698e+04   7.671688e+10  -1.882102e+11  -1.295638e+11   1.474306e+05   4.499347e-26   0.000000e+00   0.000000e+00
     1120000   1.119999e-06   1.292910e+01   2.007652e+01   1.246899e-01  -1.179423e+05   9.964803e+03  -8.789816e+04   7.760883e+10  -1.904105e+11  -1.257231e+11   1.474306e+05   4.498589e-26   0.000000e+00   0.000000e+00
     1128000   1.127999e-06   1.292816e+01   2.007659e+01   1.239828e-01  -1.173180e+05   8.432941e+03  -8.888843e+04   7.847345e+10  -1.925435e+11  -1.218394e+11   1.474306e+05   4.497842e-26   0.000000e+00   0.000000e+00
     1136000   1.135999e-06   1.292723e+01   2.007666e+01   1.232678e-01  -1.166868e+05   6.884286e+03  -8.984747e+04   7.931047e+10  -1.946086e+11  -1.179141e+11   1.474306e+05   4.497104e-26   0.000000e+00   0.000000e+00
     1144000   1.143999e-06   1.292629e+01   2.007670e+01   1.225453e-01  -1.160491e+05   5.319385e+03  -9.077495e+04   8.011963e+10  -1.966050e+11  -1.139487e+11   1.474306e+05   4.496376e-26   0.000000e+00   0.000000e+00
     1152000   1.151999e-06   1.292537e+01   2.007674e+01   1.218155e-01  -1.154050e+05   3.738789e+03  -9.167054e+04   8.090065e+10  -1.985322e+11  -1.099444e+11   1.474306e+05   4.495657e-26   0.000000e+00   0.000000e+00
     1160000   1.159999e-06   1.292445e+01   2.007676e+01   1.210787e-01  -1.147548e+05   2.143055e+03  -9.253396e+04   8.165329e+10  -2.003893e+11  -1.059028e+11   1.474306e+05   4.494948e-26   0.000000e+00   0.000000e+00
     1168000   1.167999e-06   1.292353e+01   2.007678e+01   1.203350e-01  -1.140986e+05   5.327459e+02  -9.336489e+04   8.237732e+10  -2.021759e+11  -1.018253e+11   1.474306e+05   4.494248e-26   0.000000e+00   0.000000e+00
     1176000   1.175999e-06   1.292262e+01   2.007677e+01   1.195849e-01  -1.134368e+05  -1.091571e+03  -9.416306e+04   8.307250e+10  -2.038913e+11  -9.771321e+10   1.474306e+05   4.493556e-26   0.000000e+00   0.000000e+00
     1184000   1.183999e-06   1.292172e+01   2.007676e+01   1.188285e-01  -1.127695e+05  -2.729325e+03  -9.492821e+04   8.373861e+10  -2.055349e+11  -9.356809e+10   1.474306e+05   4.492873e-26   0.000000e+00   0.000000e+00
     1192000   1.191999e-06   1.292082e+01   2.007673e+01   1.180661e-01  -1.120971e+05  -4.379939e+03  -9.566007e+04   8.437545e+10  -2.071062e+11  -8.939138e+10   1.474306e+05   4.492198e-26   0.000000e+00   0.000000e+00
     1200000   1.199999e-06   1.291992e+01   2.007669e+01   1.172980e-01  -1.114196e+05  -6.042832e+03  -9.635839e+04   8.498280e+10  -2.086047e+11  -8.518455e+10   1.474306e+05   4.491530e-26   0.000000e+00   0.000000e+00
     1208000   1.207999e-06   1.291904e+01   2.007663e+01   1.165245e-01  -1.107374e+05  -7.717421e+03  -9.702294e+04   8.556049e+10  -2.100299e+11  -8.094908e+10   1.474306e+05   4.490871e-26   0.000000e+00   0.000000e+00
     1216000   1.215999e-06   1.291815e+01   2.007656e+01   1.157458e-01  -1.100507e+05  -9.403115e+03  -9.765350e+04   8.610833e+10  -2.113812e+11  -7.668646e+10   1.474306e+05   4.490219e-26   0.000000e+00   0.000000e+00
     1224000   1.223999e-06   1.291727e+01   2.007648e+01   1.149621e-01  -1.093598e+05  -1.109932e+04  -9.824985e+04   8.662615e+10  -2.126583e+11  -7.239818e+10   1.474306e+05   4.489573e-26   0.000000e+00   0.000000e+00
     1232000   1.231999e-06   1.291640e+01   2.007639e+01   1.141739e-01  -1.086648e+05  -1.280545e+04  -9.881180e+04   8.711380e+10  -2.138607e+11  -6.808577e+10   1.474306e+05   4.488935e-26   0.000000e+00   0.000000e+00
     1240000   1.239999e-06   1.291554e+01   2.007628e+01   1.133812e-01  -1.079660e+05  -1.452090e+04  -9.933916e+04   8.757111e+10  -2.149881e+11  -6.375072e+10   1.474306e+05   4.488302e-26   0.000000e+00   0.000000e+00
     1248000   1.247999e-06   1.291468e+01   2.007615e+01   1.125845e-01  -1.072637e+05  -1.624506e+04  -9.983175e+04   8.799796e+10  -2.160400e+11  -5.939458e+10   1.474306e+05   4.487676e-26   0.000000e+00   0.000000e+00
     1256000   1.255999e-06   1.291382e+01   2.007602e+01   1.117840e-01  -1.065581e+05  -1.797734e+04  -1.002894e+05   8.839421e+10  -2.170162e+11  -5.501885e+10   1.474306e+05   4.487055e-26   0.000000e+00   0.000000e+00
     1264000   1.263999e-06   1.291297e+01   2.007587e+01   1.109800e-01  -1.058495e+05  -1.971712e+04  -1.007120e+05   8.875974e+10  -2.179162e+11  -5.062508e+10   1.474306e+05   4.486440e-26   0.000000e+00   0.000000e+00
     1272000   1.271999e-06   1.291213e+01   2.007570e+01   1.101727e-01  -1.051381e+05  -2.146379e+04  -1.010994e+05   8.909445e+10  -2.187399e+11  -4.621481e+10   1.474306e+05   4.485829e-26   0.000000e+00   0.000000e+00
     1280000   1.279999e-06   1.291129e+01   2.007552e+01   1.093625e-01  -1.044241e+05  -2.321675e+04  -1.014514e+05   8.939824e+10  -2.194870e+11  -4.178958e+10   1.474306e+05   4.485223e-26   0.000000e+00   0.000000e+00
     1288000   1.287999e-06   1.291046e+01   2.007533e+01   1.085496e-01  -1.037078e+05  -2.497538e+04  -1.017680e+05   8.967102e+10  -2.201572e+11  -3.735094e+10   1.474306e+05   4.484622e-26   0.000000e+00   0.000000e+00
     1296000   1.295999e-06   1.290963e+01   2.007512e+01   1.077343e-01  -1.029894e+05  -2.673906e+04  -1.020490e+05   8.991271e+10  -2.207504e+11  -3.290044e+10   1.474306e+05   4.484024e-26   0.000000e+00   0.000000e+00
     1304000   1.303999e-06   1.290881e+01   2.007490e+01   1.069169e-01  -1.022693e+05  -2.850718e+04  -1.022943e+05   9.012324e+10  -2.212663e+11  -2.843965e+10   1.474306e+05   4.483429e-26   0.000000e+00   0.000000e+00
     1312000   1.311999e-06   1.290799e+01   2.007467e+01   1.060977e-01  -1.015475e+05  -3.027912e+04  -1.025040e+05   9.030255e+10  -2.217048e+11  -2.397012e+10   1.474306e+05   4.482837e-26   0.000000e+00   0.000000e+00
     1320000   1.319999e-06   1.290718e+01   2.007442e+01   1.052769e-01  -1.008245e+05  -3.205425e+04  -1.026778e+05   9.045061e+10  -2.220659e+11  -1.949340e+10   1.474306e+05   4.482248e-26   0.000000e+00   0.000000e+00
     1328000   1.327999e-06   1.290638e+01   2.007415e+01   1.044549e-01  -1.001004e+05  -3.383197e+04  -1.028159e+05   9.056737e+10  -2.223493e+11  -1.501108e+10   1.474306e+05   4.481662e-26   0.000000e+00   0.000000e+00
     1336000   1.335999e-06   1.290558e+01   2.007388e+01   1.036320e-01  -9.937550e+04  -3.561163e+04  -1.029180e+05   9.065281e+10  -2.225550e+11  -1.052470e+10   1.474306e+05   4.481077e-26   0.000000e+00   0.000000e+00
     1344000   1.343999e-06   1.290479e+01   2.007358e+01   1.028083e-01  -9.865004e+04  -3.739264e+04  -1.029842e+05   9.070691e+10  -2.226830e+11  -6.035828e+09   1.474306e+05   4.480493e-26   0.000000e+00   0.000000e+00
     1352000   1.351999e-06   1.290400e+01   2.007328e+01   1.019843e-01  -9.792428e+04  -3.917435e+04  -1.030146e+05   9.072967e+10  -2.227332e+11  -1.546038e+09   1.474306e+05   4.479911e-26   0.000000e+00   0.000000e+00
     1360000   1.359999e-06   1.290322e+01   2.007296e+01   1.011602e-01  -9.719845e+04  -4.095616e+04  -1.030090e+05   9.072109e+10  -2.227058e+11   2.943111e+09   1.474306e+05   4.479329e-26   0.000000e+00   0.000000e+00
     1368000   1.367999e-06   1.290245e+01   2.007262e+01   1.003363e-01  -9.647282e+04  -4.273744e+04  -1.029675e+05   9.068119e+10  -2.226007e+11   7.430055e+09   1.474306e+05   4.478747e-26   0.000000e+00   0.000000e+00
     1376000   1.375999e-06   1.290168e+01   2.007227e+01   9.951283e-02  -9.574758e+04  -4.451777e+04  -1.028901e+05   9.062175e+10  -2.224598e+11   1.192090e+10   1.474306e+05   4.479788e-26   0.000000e+00   0.000000e+00
     1384000   1.383999e-06   1.290092e+01   2.007191e+01   9.869014e-02  -9.502300e+04  -4.629645e+04  -1.027768e+05   9.051955e+10  -2.221985e+11   1.639968e+10   1.474306e+05   4.479180e-26   0.000000e+00   0.000000e+00
     1392000   1.391999e-06   1.290016e+01   2.007153e+01   9.786849e-02  -9.429935e+04  -4.807274e+04  -1.026277e+05   9.038611e+10  -2.218598e+11   2.087157e+10   1.474306e+05   4.478571e-26   0.000000e+00   0.000000e+00
     1400000   1.399999e-06   1.289941e+01   2.007114e+01   9.704819e-02  -9.357651e+04  -4.984655e+04  -1.024429e+05   9.028420e+10  -2.215302e+11   2.532121e+10   1.474306e+05   4.481745e-26   0.000000e+00   0.000000e+00
     1408000   1.407999e-06   1.289866e+01   2.007074e+01   9.622950e-02  -9.285499e+04  -5.161687e+04  -1.022225e+05   9.008861e+10  -2.210358e+11   2.977756e+10   1.474307e+05   4.481081e-26   0.000000e+00   0.000000e+00
     1416000   1.415999e-06   1.289792e+01   2.007032e+01   9.541272e-02  -9.213517e+04  -5.338292e+04  -1.019665e+05   8.986192e+10  -2.204643e+11   3.422229e+10   1.474307e+05   4.480415e-26   0.000000e+00   0.000000e+00
     1424000   1.423999e-06   1.289719e+01   2.006988e+01   9.459813e-02  -9.141729e+04  -5.514409e+04  -1.016750e+05   8.960423e+10  -2.198162e+11   3.865387e+10   1.474307e+05   4.479745e-26   0.000000e+00   0.000000e+00
     1432000   1.431999e-06   1.289646e+01   2.006943e+01   9.378602e-02  -9.070159e+04  -5.689977e+04  -1.013481e+05   8.931563e+10  -2.190917e+11   4.307075e+10   1.474307e+05   4.479073e-26   0.000000e+00   0.000000e+00
     1440000   1.439999e-06   1.289574e+01   2.006897e+01   9.297666e-02  -8.998832e+04  -5.864935e+04  -1.009859e+05   8.899623e+10  -2.182909e+11   4.747141e+10   1.474307e+05   4.478397e-26   0.000000e+00   0.000000e+00
     1448000   1.447999e-06   1.289502e+01   2.006850e+01   9.217034e-02  -8.927773e+04  -6.039222e+04  -1.005886e+05   8.864614e+10  -2.174144e+11   5.185432e+10   1.474307e+05   4.477717e-26   0.000000e+00   0.000000e+00
     1456000   1.455999e-06   1.289431e+01   2.006801e+01   9.136733e-02  -8.857006e+04  -6.212778e+04  -1.001563e+05   8.826550e+10  -2.164623e+11   5.621797e+10   1.474307e+05   4.477033e-26   0.000000e+00   0.000000e+00
     1464000   1.463999e-06   1.289360e+01   2.006750e+01   9.056793e-02  -8.786556e+04  -6.385542e+04  -9.968916e+04   8.785445e+10  -2.154351e+11   6.056083e+10   1.474307e+05   4.476344e-26   0.000000e+00   0.000000e+00
     1472000   1.471999e-06   1.289290e+01   2.006698e+01   8.977240e-02  -8.716447e+04  -6.557454e+04  -9.918737e+04   8.741314e+10  -2.143331e+11   6.488142e+10   1.474307e+05   4.475651e-26   0.000000e+00   0.000000e+00
     1480000   1.479999e-06   1.289221e+01   2.006645e+01   8.898102e-02  -8.646703e+04  -6.728455e+04  -9.865112e+04   8.694172e+10  -2.131568e+11   6.917823e+10   1.474307e+05   4.474952e-26   0.000000e+00   0.000000e+00
     1488000   1.487999e-06   1.289152e+01   2.006591e+01   8.819407e-02  -8.577349e+04  -6.898485e+04  -9.808058e+04   8.644036e+10  -2.119066e+11   7.344978e+10   1.474307e+05   4.474248e-26   0.000000e+00   0.000000e+00
     1496000   1.495999e-06   1.289083e+01   2.006535e+01   8.741182e-02  -8.508407e+04  -7.067486e+04  -9.747599e+04   8.590925e+10  -2.105830e+11   7.769460e+10   1.474307e+05   4.473538e-26   0.000000e+00   0.000000e+00
     1504000   1.503999e-06   1.289016e+01   2.006478e+01   8.663455e-02  -8.439902e+04  -7.235398e+04  -9.683754e+04   8.534857e+10  -2.091865e+11   8.191122e+10   1.474307e+05   4.472822e-26   0.000000e+00   0.000000e+00
     1512000   1.511999e-06   1.288948e+01   2.006419e+01   8.586251e-02  -8.371857e+04  -7.402165e+04  -9.616548e+04   8.475852e+10  -2.077175e+11   8.609819e+10   1.474307e+05   4.472099e-26   0.000000e+00   0.000000e+00
     1520000   1.519999e-06   1.288882e+01   2.006359e+01   8.509599e-02  -8.304296e+04  -7.567727e+04  -9.546005e+04   8.413930e+10  -2.061767e+11   9.025405e+10   1.474307e+05   4.471370e-26   0.000000e+00   0.000000e+00
     1528000   1.527999e-06   1.288816e+01   2.006298e+01   8.433524e-02  -8.237242e+04  -7.732028e+04  -9.472150e+04   8.349115e+10  -2.045646e+11   9.437740e+10   1.474307e+05   4.470633e-26   0.000000e+00   0.000000e+00
     1536000   1.535999e-06   1.288750e+01   2.006235e+01   8.358053e-02  -8.170718e+04  -7.895011e+04  -9.395010e+04   8.281427e+10  -2.028818e+11   9.846679e+10   1.474307e+05   4.469890e-26   0.000000e+00   0.000000e+00
     1544000   1.543999e-06   1.288685e+01   2.006172e+01   8.283213e-02  -8.104747e+04  -8.056620e+04  -9.314612e+04   8.210892e+10  -2.011289e+11   1.025208e+11   1.474307e+05   4.469139e-26   0.000000e+00   0.000000e+00
     1552000   1.551999e-06   1.288620e+01   2.006107e+01   8.209028e-02  -8.039351e+04  -8.216799e+04  -9.230986e+04   8.137534e+10  -1.993066e+11   1.065381e+11   1.474307e+05   4.468380e-26   0.000000e+00   0.000000e+00
     1560000   1.559999e-06   1.288556e+01   2.006040e+01   8.135525e-02  -7.974554e+04  -8.375492e+04  -9.144161e+04   8.061377e+10  -1.974155e+11   1.105173e+11   1.474307e+05   4.467613e-26   0.000000e+00   0.000000e+00
     1568000   1.567999e-06   1.288493e+01   2.005973e+01   8.062730e-02  -7.910377e+04  -8.532646e+04  -9.054168e+04   7.982450e+10  -1.954564e+11   1.144569e+11   1.474307e+05   4.466838e-26   0.000000e+00   0.000000e+00
     1576000   1.575999e-06   1.288430e+01   2.005904e+01   7.990667e-02  -7.846842e+04  -8.688204e+04  -8.961040e+04   7.900779e+10  -1.934298e+11   1.183558e+11   1.474307e+05   4.466055e-26   0.000000e+00   0.000000e+00
     1584000   1.583999e-06   1.288367e+01   2.005834e+01   7.919362e-02  -7.783971e+04  -8.842115e+04  -8.864810e+04   7.816392e+10  -1.913367e+11   1.222124e+11   1.474307e+05   4.465263e-26   0.000000e+00   0.000000e+00
     1592000   1.591999e-06   1.288305e+01   2.005762e+01   7.848838e-02  -7.721787e+04  -8.994325e+04  -8.765512e+04   7.729319e+10  -1.891777e+11   1.260255e+11   1.474307e+05   4.464462e-26   0.000000e+00   0.000000e+00
     1600000   1.599999e-06   1.288244e+01   2.005690e+01   7.779121e-02  -7.660309e+04  -9.144782e+04  -8.663181e+04   7.639590e+10  -1.869535e+11   1.297938e+11   1.474307e+05   4.463653e-26   0.000000e+00   0.000000e+00
     1608000   1.607999e-06   1.288183e+01   2.005616e+01   7.710235e-02  -7.599560e+04  -9.293434e+04  -8.557853e+04   7.547236e+10  -1.846651e+11   1.335160e+11   1.474307e+05   4.462834e-26   0.000000e+00   0.000000e+00
     1616000   1.615999e-06   1.288122e+01   2.005541e+01   7.642204e-02  -7.539561e+04  -9.440229e+04  -8.449567e+04   7.452288e+10  -1.823133e+11   1.371909e+11   1.474307e+05   4.462006e-26   0.000000e+00   0.000000e+00
     1624000   1.623999e-06   1.288062e+01   2.005465e+01   7.575050e-02  -7.480331e+04  -9.585118e+04  -8.338361e+04   7.354780e+10  -1.798988e+11   1.408171e+11   1.474307e+05   4.461168e-26   0.000000e+00   0.000000e+00
     1632000   1.631999e-06   1.288002e+01   2.005388e+01   7.508798e-02  -7.421891e+04  -9.728051e+04  -8.224273e+04   7.254745e+10  -1.774226e+11   1.443934e+11   1.474307e+05   4.460321e-26   0.000000e+00   0.000000e+00
     1640000   1.639999e-06   1.287943e+01   2.005309e+01   7.443469e-02  -7.364262e+04  -9.868978e+04  -8.107344e+04   7.152217e+10  -1.748856e+11   1.479187e+11   1.474307e+05   4.459465e-26   0.000000e+00   0.000000e+00
     1648000   1.647999e-06   1.287884e+01   2.005230e+01   7.379088e-02  -7.307462e+04  -1.000785e+05  -7.987617e+04   7.047233e+10  -1.722886e+11   1.513917e+11   1.474307e+05   4.458599e-26   0.000000e+00   0.000000e+00
     1656000   1.655999e-06   1.287826e+01   2.005149e+01   7.315675e-02  -7.251512e+04  -1.014462e+05  -7.865132e+04   6.939826e+10  -1.696326e+11   1.548112e+11   1.474307e+05   4.457723e-26   0.000000e+00   0.000000e+00
     1664000   1.663999e-06   1.287768e+01   2.005067e+01   7.253253e-02  -7.196431e+04  -1.027925e+05  -7.739933e+04   6.830036e+10  -1.669185e+11   1.581760e+11   1.474307e+05   4.456837e-26   0.000000e+00   0.000000e+00
     1672000   1.671999e-06   1.287711e+01   2.004985e+01   7.191843e-02  -7.142238e+04  -1.041168e+05  -7.612065e+04   6.717899e+10  -1.641474e+11   1.614851e+11   1.474307e+05   4.455941e-26   0.000000e+00   0.000000e+00
     1680000   1.679999e-06   1.287654e+01   2.004901e+01   7.131467e-02  -7.088951e+04  -1.054187e+05  -7.481572e+04   6.603454e+10  -1.613201e+11   1.647373e+11   1.474307e+05   4.455035e-26   0.000000e+00   0.000000e+00
     1688000   1.687999e-06   1.287598e+01   2.004816e+01   7.072145e-02  -7.036589e+04  -1.066977e+05  -7.348500e+04   6.486740e+10  -1.584378e+11   1.679315e+11   1.474307e+05   4.454120e-26   0.000000e+00   0.000000e+00
     1696000   1.695999e-06   1.287542e+01   2.004730e+01   7.013897e-02  -6.985170e+04  -1.079535e+05  -7.212897e+04   6.367797e+10  -1.555014e+11   1.710666e+11   1.474307e+05   4.453194e-26   0.000000e+00   0.000000e+00
     1704000   1.703999e-06   1.287486e+01   2.004643e+01   6.956745e-02  -6.934710e+04  -1.091856e+05  -7.074809e+04   6.246666e+10  -1.525120e+11   1.741415e+11   1.474307e+05   4.452258e-26   0.000000e+00   0.000000e+00
     1712000   1.711999e-06   1.287431e+01   2.004555e+01   6.900707e-02  -6.885229e+04  -1.103936e+05  -6.934286e+04   6.123389e+10  -1.494707e+11   1.771552e+11   1.474307e+05   4.451313e-26   0.000000e+00   0.000000e+00
     1720000   1.719999e-06   1.287376e+01   2.004467e+01   6.845803e-02  -6.836742e+04  -1.115770e+05  -6.791377e+04   5.998006e+10  -1.463784e+11   1.801068e+11   1.474307e+05   4.450357e-26   0.000000e+00   0.000000e+00
     1728000   1.727999e-06   1.287321e+01   2.004377e+01   6.792051e-02  -6.789266e+04  -1.127355e+05  -6.646132e+04   5.870563e+10  -1.432365e+11   1.829951e+11   1.474307e+05   4.449391e-26   0.000000e+00   0.000000e+00
     1736000   1.735999e-06   1.287267e+01   2.004286e+01   6.739471e-02  -6.742818e+04  -1.138687e+05  -6.498602e+04   5.741101e+10  -1.400458e+11   1.858192e+11   1.474307e+05   4.448416e-26   0.000000e+00   0.000000e+00
     1744000   1.743999e-06   1.287213e+01   2.004195e+01   6.688079e-02  -6.697414e+04  -1.149761e+05  -6.348838e+04   5.609666e+10  -1.368077e+11   1.885783e+11   1.474307e+05   4.447431e-26   0.000000e+00   0.000000e+00
     1752000   1.751999e-06   1.287160e+01   2.004102e+01   6.637895e-02  -6.653069e+04  -1.160575e+05  -6.196894e+04   5.476302e+10  -1.335231e+11   1.912712e+11   1.474307e+05   4.446436e-26   0.000000e+00   0.000000e+00
     1760000   1.759999e-06   1.287107e+01   2.004009e+01   6.588935e-02  -6.609798e+04  -1.171124e+05  -6.042822e+04   5.341056e+10  -1.301933e+11   1.938972e+11   1.474307e+05   4.445432e-26   0.000000e+00   0.000000e+00
     1768000   1.767999e-06   1.287054e+01   2.003915e+01   6.541215e-02  -6.567617e+04  -1.181404e+05  -5.886676e+04   5.203972e+10  -1.268195e+11   1.964553e+11   1.474307e+05   4.444418e-26   0.000000e+00   0.000000e+00
     1776000   1.775999e-06   1.287002e+01   2.003820e+01   6.494753e-02  -6.526540e+04  -1.191414e+05  -5.728511e+04   5.065099e+10  -1.234029e+11   1.989448e+11   1.474307e+05   4.443395e-26   0.000000e+00   0.000000e+00
     1784000   1.783999e-06   1.286950e+01   2.003724e+01   6.449565e-02  -6.486580e+04  -1.201148e+05  -5.568383e+04   4.924483e+10  -1.199446e+11   2.013646e+11   1.474307e+05   4.442363e-26   0.000000e+00   0.000000e+00
     1792000   1.791999e-06   1.286898e+01   2.003628e+01   6.405664e-02  -6.447753e+04  -1.210604e+05  -5.406347e+04   4.782174e+10  -1.164459e+11   2.037142e+11   1.474307e+05   4.441322e-26   0.000000e+00   0.000000e+00
     1800000   1.799999e-06   1.286847e+01   2.003531e+01   6.363068e-02  -6.410070e+04  -1.219778e+05  -5.242459e+04   4.638218e+10  -1.129080e+11   2.059926e+11   1.474307e+05   4.440272e-26   0.000000e+00   0.000000e+00
     1808000   1.807999e-06   1.286795e+01   2.003433e+01   6.321790e-02  -6.373546e+04  -1.228668e+05  -5.076777e+04   4.492667e+10  -1.093321e+11   2.081991e+11   1.474307e+05   4.439213e-26   0.000000e+00   0.000000e+00
     1816000   1.815999e-06   1.286745e+01   2.003334e+01   6.281844e-02  -6.338192e+04  -1.237270e+05  -4.909359e+04   4.345569e+10  -1.057196e+11   2.103330e+11   1.474307e+05   4.438145e-26   0.000000e+00   0.000000e+00
     1824000   1.823999e-06   1.286694e+01   2.003235e+01   6.243245e-02  -6.304021e+04  -1.245582e+05  -4.740264e+04   4.196974e+10  -1.020716e+11   2.123936e+11   1.474307e+05   4.437069e-26   0.000000e+00   0.000000e+00
     1832000   1.831999e-06   1.286644e+01   2.003135e+01   6.206004e-02  -6.271044e+04  -1.253601e+05  -4.569549e+04   4.046935e+10  -9.838952e+10   2.143802e+11   1.474307e+05   4.435986e-26   0.000000e+00   0.000000e+00
     1840000   1.839999e-06   1.286594e+01   2.003034e+01   6.170136e-02  -6.239274e+04  -1.261323e+05  -4.397275e+04   3.895501e+10  -9.467457e+10   2.162921e+11   1.474307e+05   4.434894e-26   0.000000e+00   0.000000e+00
     1848000   1.847999e-06   1.286544e+01   2.002933e+01   6.135652e-02  -6.208720e+04  -1.268748e+05  -4.223502e+04   3.742725e+10  -9.092808e+10   2.181287e+11   1.474307e+05   4.433794e-26   0.000000e+00   0.000000e+00
     1856000   1.855999e-06   1.286494e+01   2.002831e+01   6.102564e-02  -6.179393e+04  -1.275871e+05  -4.048289e+04   3.588660e+10  -8.715136e+10   2.198894e+11   1.474307e+05   4.432688e-26   0.000000e+00   0.000000e+00
     1864000   1.863999e-06   1.286445e+01   2.002729e+01   6.070883e-02  -6.151305e+04  -1.282691e+05  -3.871699e+04   3.433357e+10  -8.334573e+10   2.215736e+11   1.474307e+05   4.431574e-26   0.000000e+00   0.000000e+00
     1872000   1.871999e-06   1.286396e+01   2.002626e+01   6.040620e-02  -6.124463e+04  -1.289206e+05  -3.693792e+04   3.276871e+10  -7.951252e+10   2.231808e+11   1.474307e+05   4.430453e-26   0.000000e+00   0.000000e+00
     1880000   1.879999e-06   1.286347e+01   2.002523e+01   6.011786e-02  -6.098878e+04  -1.295412e+05  -3.514630e+04   3.119254e+10  -7.565307e+10   2.247104e+11   1.474307e+05   4.429325e-26   0.000000e+00   0.000000e+00
     1888000   1.887999e-06   1.286298e+01   2.002419e+01   5.984389e-02  -6.074558e+04  -1.301309e+05  -3.334276e+04   2.960561e+10  -7.176873e+10   2.261620e+11   1.474307e+05   4.428191e-26   0.000000e+00   0.000000e+00
     1896000   1.895999e-06   1.286250e+01   2.002314e+01   5.958440e-02  -6.051512e+04  -1.306895e+05  -3.152792e+04   2.800846e+10  -6.786085e+10   2.275350e+11   1.474307e+05   4.427051e-26   0.000000e+00   0.000000e+00
     1904000   1.903999e-06   1.286201e+01   2.002210e+01   5.933947e-02  -6.029747e+04  -1.312166e+05  -2.970241e+04   2.640163e+10  -6.393081e+10   2.288291e+11   1.474307e+05   4.425906e-26   0.000000e+00   0.000000e+00
     1912000   1.911999e-06   1.286153e+01   2.002104e+01   5.910919e-02  -6.009272e+04  -1.317123e+05  -2.786686e+04   2.478569e+10  -5.997995e+10   2.300439e+11   1.474307e+05   4.424755e-26   0.000000e+00   0.000000e+00
     1920000   1.919999e-06   1.286105e+01   2.001999e+01   5.889363e-02  -5.990093e+04  -1.321763e+05  -2.602192e+04   2.316118e+10  -5.600968e+10   2.311788e+11   1.474308e+05   4.423598e-26   0.000000e+00   0.000000e+00
     1928000   1.927999e-06   1.286057e+01   2.001893e+01   5.869286e-02  -5.972216e+04  -1.326084e+05  -2.416822e+04   2.152866e+10  -5.202135e+10   2.322337e+11   1.474308e+05   4.422437e-26   0.000000e+00   0.000000e+00
     1936000   1.935999e-06   1.286010e+01   2.001787e+01   5.850696e-02  -5.955649e+04  -1.330086e+05  -2.230639e+04   1.988869e+10  -4.801637e+10   2.332081e+11   1.474308e+05   4.421272e-26   0.000000e+00   0.000000e+00
     1944000   1.943999e-06   1.285962e+01   2.001680e+01   5.833598e-02  -5.940396e+04  -1.333766e+05  -2.043710e+04   1.824183e+10  -4.399612e+10   2.341017e+11   1.474308e+05   4.420102e-26   0.000000e+00   0.000000e+00
     1952000   1.951999e-06   1.285915e+01   2.001573e+01   5.817998e-02  -5.926464e+04  -1.337125e+05  -1.856098e+04   1.658866e+10  -3.996201e+10   2.349143e+11   1.474308e+05   4.418929e-26   0.000000e+00   0.000000e+00
     1960000   1.959999e-06   1.285867e+01   2.001466e+01   5.803902e-02  -5.913856e+04  -1.340160e+05  -1.667869e+04   1.492973e+10  -3.591542e+10   2.356456e+11   1.474308e+05   4.417752e-26   0.000000e+00   0.000000e+00
     1968000   1.967999e-06   1.285820e+01   2.001359e+01   5.791314e-02  -5.902578e+04  -1.342871e+05  -1.479087e+04   1.326561e+10  -3.185776e+10   2.362955e+11   1.474308e+05   4.416572e-26   0.000000e+00   0.000000e+00
     1976000   1.975999e-06   1.285773e+01   2.001251e+01   5.780238e-02  -5.892633e+04  -1.345257e+05  -1.289818e+04   1.159689e+10  -2.779044e+10   2.368636e+11   1.474308e+05   4.415389e-26   0.000000e+00   0.000000e+00
     1984000   1.983999e-06   1.285726e+01   2.001144e+01   5.770678e-02  -5.884024e+04  -1.347317e+05  -1.100127e+04   9.924124e+09  -2.371487e+10   2.373499e+11   1.474308e+05   4.414204e-26   0.000000e+00   0.000000e+00
     1992000   1.991999e-06   1.285679e+01   2.001036e+01   5.762637e-02  -5.876755e+04  -1.349051e+05  -9.100798e+03   8.247898e+09  -1.963246e+10   2.377542e+11   1.474308e+05   4.413016e-26   0.000000e+00   0.000000e+00
     2000000   1.999999e-06   1.285632e+01   2.000928e+01   5.756117e-02  -5.870828e+04  -1.350458e+05  -7.197420e+03   6.568785e+09  -1.554462e+10   2.380764e+11   1.474308e+05   4.411827e-26   0.000000e+00   0.000000e+00
     2008000   2.007999e-06   1.285585e+01   2.000820e+01   5.751122e-02  -5.866246e+04  -1.351538e+05  -5.291793e+03   4.887363e+09  -1.145276e+10   2.383165e+11   1.474308e+05   4.410637e-26   0.000000e+00   0.000000e+00
     2016000   2.015999e-06   1.285538e+01   2.000712e+01   5.747651e-02  -5.863009e+04  -1.352290e+05  -3.384575e+03   3.204212e+09  -7.358291e+09   2.384743e+11   1.474308e+05   4.409446e-26   0.000000e+00   0.000000e+00
     2024000   2.023999e-06   1.285491e+01   2.000603e+01   5.745707e-02  -5.861120e+04  -1.352715e+05  -1.476423e+03   1.519910e+09  -3.262633e+09   2.385499e+11   1.474308e+05   4.408254e-26   0.000000e+00   0.000000e+00
     2032000   2.031999e-06   1.285444e+01   2.000495e+01   5.745289e-02  -5.860578e+04  -1.352812e+05   4.320047e+02  -1.649622e+08   8.328035e+08   2.385433e+11   1.474308e+05   4.407062e-26   0.000000e+00   0.000000e+00
     2040000   2.039999e-06   1.285397e+01   2.000387e+01   5.746398e-02  -5.861384e+04  -1.352582e+05   2.340051e+03  -1.849824e+09   4.926608e+09   2.384545e+11   1.474308e+05   4.405870e-26   0.000000e+00   0.000000e+00
     2048000   2.047999e-06   1.285350e+01   2.000279e+01   5.749033e-02  -5.863537e+04  -1.352024e+05   4.247058e+03  -3.534096e+09   9.017371e+09   2.382836e+11   1.474308e+05   4.404679e-26   0.000000e+00   0.000000e+00
     2056000   2.055999e-06   1.285303e+01   2.000171e+01   5.753192e-02  -5.867038e+04  -1.351139e+05   6.152369e+03  -5.217196e+09   1.310368e+10   2.380306e+11   1.474308e+05   4.403488e-26   0.000000e+00   0.000000e+00
     2064000   2.063999e-06   1.285256e+01   2.000063e+01   5.758876e-02  -5.871885e+04  -1.349928e+05   8.055329e+03  -6.898544e+09   1.718414e+10   2.376957e+11   1.474308e+05   4.402299e-26   0.000000e+00   0.000000e+00
     2072000   2.071999e-06   1.285209e+01   1.999955e+01   5.766080e-02  -5.878066e+04  -1.348390e+05   9.955122e+03  -8.549943e+09   2.124153e+10   2.372319e+11   1.474308e+05   4.399289e-26   0.000000e+00   0.000000e+00
     2080000   2.079999e-06   1.285162e+01   1.999847e+01   5.774803e-02  -5.885577e+04  -1.346528e+05   1.185105e+04  -1.022564e+10   2.530467e+10   2.367356e+11   1.474308e+05   4.398157e-26   0.000000e+00   0.000000e+00
     2088000   2.087999e-06   1.285115e+01   1.999739e+01   5.785041e-02  -5.894426e+04  -1.344342e+05   1.374267e+04  -1.189787e+10   2.935785e+10   2.361580e+11   1.474308e+05   4.397027e-26   0.000000e+00   0.000000e+00
     2096000   2.095999e-06   1.285068e+01   1.999632e+01   5.796790e-02  -5.904612e+04  -1.341831e+05   1.562936e+04  -1.356606e+10   3.339965e+10   2.354993e+11   1.474308e+05   4.395900e-26   0.000000e+00   0.000000e+00
     2104000   2.103999e-06   1.285021e+01   1.999525e+01   5.810046e-02  -5.916131e+04  -1.338998e+05   1.751045e+04  -1.522961e+10   3.742870e+10   2.347598e+11   1.474308e+05   4.394777e-26   0.000000e+00   0.000000e+00
     2112000   2.111999e-06   1.284973e+01   1.999418e+01   5.824805e-02  -5.928978e+04  -1.335843e+05   1.938530e+04  -1.688797e+10   4.144362e+10   2.339396e+11   1.474308e+05   4.393656e-26   0.000000e+00   0.000000e+00
     2120000   2.119999e-06   1.284926e+01   1.999311e+01   5.841061e-02  -5.943150e+04  -1.332368e+05   2.125327e+04  -1.854056e+10   4.544303e+10   2.330392e+11   1.474308e+05   4.392539e-26   0.000000e+00   0.000000e+00
     2128000   2.127999e-06   1.284878e+01   1.999204e+01   5.858808e-02  -5.958642e+04  -1.328573e+05   2.311371e+04  -2.018681e+10   4.942557e+10   2.320589e+11   1.474308e+05   4.391426e-26   0.000000e+00   0.000000e+00
     2136000   2.135999e-06   1.284831e+01   1.999098e+01   5.878041e-02  -5.975448e+04  -1.324460e+05   2.496600e+04  -2.182614e+10   5.338987e+10   2.309990e+11   1.474308e+05   4.390317e-26   0.000000e+00   0.000000e+00
     2144000   2.143999e-06   1.284783e+01   1.998992e+01   5.898751e-02  -5.993562e+04  -1.320031e+05   2.680948e+04  -2.345800e+10   5.733459e+10   2.298600e+11   1.474308e+05   4.389213e-26   0.000000e+00   0.000000e+00
     2152000   2.151999e-06   1.284735e+01   1.998887e+01   5.920933e-02  -6.012978e+04  -1.315287e+05   2.864355e+04  -2.508181e+10   6.125836e+10   2.286423e+11   1.474308e+05   4.388114e-26   0.000000e+00   0.000000e+00
     2160000   2.159999e-06   1.284687e+01   1.998782e+01   5.944578e-02  -6.033691e+04  -1.310230e+05   3.046755e+04  -2.669701e+10   6.515987e+10   2.273462e+11   1.474308e+05   4.387021e-26   0.000000e+00   0.000000e+00
     2168000   2.167999e-06   1.284638e+01   1.998677e+01   5.969678e-02  -6.055691e+04  -1.304862e+05   3.228088e+04  -2.830305e+10   6.903777e+10   2.259724e+11   1.474308e+05   4.385932e-26   0.000000e+00   0.000000e+00
     2176000   2.175999e-06   1.284590e+01   1.998573e+01   5.996225e-02  -6.078973e+04  -1.299185e+05   3.408290e+04  -2.989938e+10   7.289075e+10   2.245212e+11   1.474308e+05   4.384850e-26   0.000000e+00   0.000000e+00
     2184000   2.183999e-06   1.284541e+01   1.998470e+01   6.024208e-02  -6.103528e+04  -1.293200e+05   3.587301e+04  -3.148542e+10   7.671749e+10   2.229933e+11   1.474308e+05   4.383773e-26   0.000000e+00   0.000000e+00
     2192000   2.191999e-06   1.284492e+01   1.998366e+01   6.053618e-02  -6.129347e+04  -1.286910e+05   3.765059e+04  -3.306065e+10   8.051669e+10   2.213891e+11   1.474308e+05   4.382703e-26   0.000000e+00   0.000000e+00
     2200000   2.199999e-06   1.284443e+01   1.998264e+01   6.084445e-02  -6.156422e+04  -1.280318e+05   3.941503e+04  -3.462451e+10   8.428706e+10   2.197093e+11   1.474308e+05   4.381640e-26   0.000000e+00   0.000000e+00
     2208000   2.207999e-06   1.284393e+01   1.998161e+01   6.116679e-02  -6.184743e+04  -1.273425e+05   4.116574e+04  -3.617646e+10   8.802733e+10   2.179545e+11   1.474308e+05   4.380583e-26   0.000000e+00   0.000000e+00
     2216000   2.215999e-06   1.284344e+01   1.998060e+01   6.150307e-02  -6.214301e+04  -1.266235e+05   4.290211e+04  -3.771595e+10   9.173621e+10   2.161253e+11   1.474308e+05   4.379533e-26   0.000000e+00   0.000000e+00
     2224000   2.223999e-06   1.284294e+01   1.997959e+01   6.185318e-02  -6.245085e+04  -1.258748e+05   4.462354e+04  -3.924247e+10   9.541246e+10   2.142223e+11   1.474308e+05   4.378491e-26   0.000000e+00   0.000000e+00
     2232000   2.231999e-06   1.284244e+01   1.997859e+01   6.221700e-02  -6.277086e+04  -1.250969e+05   4.632947e+04  -4.075548e+10   9.905483e+10   2.122463e+11   1.474308e+05   4.377457e-26   0.000000e+00   0.000000e+00
     2240000   2.239999e-06   1.284194e+01   1.997759e+01   6.259441e-02  -6.310291e+04  -1.242900e+05   4.801929e+04  -4.225445e+10   1.026621e+11   2.101979e+11   1.474308e+05   4.376430e-26   0.000000e+00   0.000000e+00
     2248000   2.247999e-06   1.284143e+01   1.997660e+01   6.298527e-02  -6.344689e+04  -1.234544e+05   4.969244e+04  -4.373887e+10   1.062330e+11   2.080779e+11   1.474308e+05   4.375411e-26   0.000000e+00   0.000000e+00
     2256000   2.255999e-06   1.284092e+01   1.997561e+01   6.338944e-02  -6.380269e+04  -1.225904e+05   5.134834e+04  -4.520821e+10   1.097664e+11   2.058870e+11   1.474308e+05   4.374400e-26   0.000000e+00   0.000000e+00
     2264000   2.263999e-06   1.284041e+01   1.997464e+01   6.380679e-02  -6.417018e+04  -1.216983e+05   5.298644e+04  -4.666198e+10   1.132610e+11   2.036260e+11   1.474308e+05   4.373397e-26   0.000000e+00   0.000000e+00
     2272000   2.271999e-06   1.283989e+01   1.997367e+01   6.423718e-02  -6.454924e+04  -1.207783e+05   5.460617e+04  -4.809966e+10   1.167157e+11   2.012957e+11   1.474308e+05   4.372403e-26   0.000000e+00   0.000000e+00
     2280000   2.279999e-06   1.283938e+01   1.997270e+01   6.468044e-02  -6.493973e+04  -1.198309e+05   5.620699e+04  -4.952075e+10   1.201293e+11   1.988970e+11   1.474308e+05   4.371418e-26   0.000000e+00   0.000000e+00
     2288000   2.287999e-06   1.283886e+01   1.997175e+01   6.513644e-02  -6.534153e+04  -1.188564e+05   5.778834e+04  -5.092478e+10   1.235007e+11   1.964307e+11   1.474308e+05   4.370441e-26   0.000000e+00   0.000000e+00
     2296000   2.295999e-06   1.283833e+01   1.997080e+01   6.560500e-02  -6.575448e+04  -1.178550e+05   5.934970e+04  -5.231123e+10   1.268287e+11   1.938976e+11   1.474308e+05   4.369474e-26   0.000000e+00   0.000000e+00
     2304000   2.303999e-06   1.283780e+01   1.996986e+01   6.608598e-02  -6.617846e+04  -1.168272e+05   6.089052e+04  -5.367965e+10   1.301123e+11   1.912987e+11   1.474308e+05   4.368515e-26   0.000000e+00   0.000000e+00
     2312000   2.311999e-06   1.283727e+01   1.996893e+01   6.657919e-02  -6.661331e+04  -1.157734e+05   6.241030e+04  -5.502954e+10   1.333502e+11   1.886348e+11   1.474308e+05   4.367565e-26   0.000000e+00   0.000000e+00
     2320000   2.319999e-06   1.283674e+01   1.996801e+01   6.708448e-02  -6.705888e+04  -1.146938e+05   6.390851e+04  -5.636045e+10   1.365414e+11   1.859070e+11   1.474308e+05   4.366625e-26   0.000000e+00   0.000000e+00
     2328000   2.327999e-06   1.283620e+01   1.996710e+01   6.760167e-02  -6.751503e+04  -1.135888e+05   6.538464e+04  -5.767190e+10   1.396849e+11   1.831161e+11   1.474308e+05   4.365694e-26   0.000000e+00   0.000000e+00
     2336000   2.335999e-06   1.283566e+01   1.996619e+01   6.813058e-02  -6.798158e+04  -1.124589e+05   6.683820e+04  -5.896345e+10   1.427796e+11   1.802633e+11   1.474308e+05   4.364772e-26   0.000000e+00   0.000000e+00
     2344000   2.343999e-06   1.283511e+01   1.996530e+01   6.867102e-02  -6.845839e+04  -1.113045e+05   6.826869e+04  -6.023465e+10   1.458245e+11   1.773493e+11   1.474308e+05   4.363860e-26   0.000000e+00   0.000000e+00
     2352000   2.351999e-06   1.283456e+01   1.996441e+01   6.922281e-02  -6.894528e+04  -1.101259e+05   6.967562e+04  -6.148506e+10   1.488185e+11   1.743754e+11   1.474308e+05   4.362957e-26   0.000000e+00   0.000000e+00
     2360000   2.359999e-06   1.283401e+01   1.996354e+01   6.978577e-02  -6.944209e+04  -1.089235e+05   7.105853e+04  -6.271424e+10   1.517606e+11   1.713424e+11   1.474308e+05   4.362064e-26   0.000000e+00   0.000000e+00
     2368000   2.367999e-06   1.283345e+01   1.996267e+01   7.035968e-02  -6.994865e+04  -1.076978e+05   7.241695e+04  -6.392177e+10   1.546498e+11   1.682516e+11   1.474308e+05   4.361180e-26   0.000000e+00   0.000000e+00
     2376000   2.375999e-06   1.283289e+01   1.996181e+01   7.094437e-02  -7.046478e+04  -1.064493e+05   7.375040e+04  -6.510722e+10   1.574853e+11   1.651039e+11   1.474308e+05   4.360305e-26   0.000000e+00   0.000000e+00
     2384000   2.383999e-06   1.283232e+01   1.996097e+01   7.153962e-02  -7.099031e+04  -1.051782e+05   7.505846e+04  -6.627019e+10   1.602660e+11   1.619005e+11   1.474308e+05   4.359440e-26   0.000000e+00   0.000000e+00
     2392000   2.391999e-06   1.283175e+01   1.996013e+01   7.214524e-02  -7.152505e+04  -1.038851e+05   7.634066e+04  -6.741028e+10   1.629910e+11   1.586425e+11   1.474308e+05   4.358585e-26   0.000000e+00   0.000000e+00
     2400000   2.399999e-06   1.283118e+01   1.995930e+01   7.276100e-02  -7.206881e+04  -1.025705e+05   7.759659e+04  -6.852709e+10   1.656594e+11   1.553310e+11   1.474308e+05   4.357739e-26   0.000000e+00   0.000000e+00
     2408000   2.407999e-06   1.283060e+01   1.995849e+01   7.338671e-02  -7.262142e+04  -1.012347e+05   7.882582e+04  -6.962024e+10   1.682703e+11   1.519672e+11   1.474308e+05   4.356902e-26   0.000000e+00   0.000000e+00
     2416000   2.415999e-06   1.283002e+01   1.995768e+01   7.402214e-02  -7.318267e+04  -9.987833e+04   8.002793e+04  -7.068933e+10   1.708229e+11   1.485523e+11   1.474308e+05   4.356074e-26   0.000000e+00   0.000000e+00
     2424000   2.423999e-06   1.282943e+01   1.995689e+01   7.466708e-02  -7.375238e+04  -9.850174e+04   8.120252e+04  -7.173402e+10   1.733163e+11   1.450874e+11   1.474308e+05   4.355256e-26   0.000000e+00   0.000000e+00
     2432000   2.431999e-06   1.282884e+01   1.995611e+01   7.532131e-02  -7.433035e+04  -9.710543e+04   8.234919e+04  -7.275393e+10   1.757497e+11   1.415737e+11   1.474308e+05   4.354447e-26   0.000000e+00   0.000000e+00
     2440000   2.439999e-06   1.282824e+01   1.995534e+01   7.598460e-02  -7.491638e+04  -9.568990e+04   8.346757e+04  -7.374872e+10   1.781223e+11   1.380126e+11   1.474309e+05   4.353647e-26   0.000000e+00   0.000000e+00
     2448000   2.447999e-06   1.282764e+01   1.995458e+01   7.665672e-02  -7.551027e+04  -9.425564e+04   8.455727e+04  -7.471803e+10   1.804332e+11   1.344051e+11   1.474309e+05   4.352855e-26   0.000000e+00   0.000000e+00
     2456000   2.455999e-06   1.282703e+01   1.995383e+01   7.733744e-02  -7.611180e+04  -9.280313e+04   8.561792e+04  -7.566154e+10   1.826818e+11   1.307526e+11   1.474309e+05   4.352073e-26   0.000000e+00   0.000000e+00
     2464000   2.463999e-06   1.282642e+01   1.995309e+01   7.802652e-02  -7.672078e+04  -9.133289e+04   8.664919e+04  -7.657893e+10   1.848673e+11   1.270563e+11   1.474309e+05   4.351299e-26   0.000000e+00   0.000000e+00
     2472000   2.471999e-06   1.282580e+01   1.995237e+01   7.872374e-02  -7.733700e+04  -8.984542e+04   8.765071e+04  -7.746986e+10   1.869890e+11   1.233176e+11   1.474309e+05   4.350534e-26   0.000000e+00   0.000000e+00
     2480000   2.479999e-06   1.282518e+01   1.995166e+01   7.942885e-02  -7.796023e+04  -8.834124e+04   8.862215e+04  -7.833405e+10   1.890461e+11   1.195376e+11   1.474309e+05   4.349776e-26   0.000000e+00   0.000000e+00
     2488000   2.487999e-06   1.282456e+01   1.995095e+01   8.014162e-02  -7.859027e+04  -8.682086e+04   8.956320e+04  -7.917119e+10   1.910381e+11   1.157178e+11   1.474309e+05   4.349027e-26   0.000000e+00   0.000000e+00
     2496000   2.495999e-06   1.282393e+01   1.995027e+01   8.086178e-02  -7.922690e+04  -8.528480e+04   9.047353e+04  -7.998100e+10   1.929642e+11   1.118595e+11   1.474309e+05   4.348286e-26   0.000000e+00   0.000000e+00
     2504000   2.503999e-06   1.282329e+01   1.994959e+01   8.158911e-02  -7.986989e+04  -8.373361e+04   9.135285e+04  -8.076319e+10   1.948238e+11   1.079639e+11   1.474309e+05   4.347553e-26   0.000000e+00   0.000000e+00
     2512000   2.511999e-06   1.282265e+01   1.994893e+01   8.232335e-02  -8.051903e+04  -8.216780e+04   9.220086e+04  -8.151750e+10   1.966163e+11   1.040324e+11   1.474309e+05   4.346827e-26   0.000000e+00   0.000000e+00
     2520000   2.519999e-06   1.282200e+01   1.994828e+01   8.306424e-02  -8.117410e+04  -8.058792e+04   9.301727e+04  -8.224368e+10   1.983412e+11   1.000664e+11   1.474309e+05   4.346109e-26   0.000000e+00   0.000000e+00
     2528000   2.527999e-06   1.282135e+01   1.994764e+01   8.381154e-02  -8.183486e+04  -7.899452e+04   9.380183e+04  -8.294148e+10   1.999979e+11   9.606729e+10   1.474309e+05   4.345397e-26   0.000000e+00   0.000000e+00
     2536000   2.535999e-06   1.282069e+01   1.994701e+01   8.456498e-02  -8.250109e+04  -7.738814e+04   9.455426e+04  -8.361065e+10   2.015858e+11   9.203640e+10   1.474309e+05   4.344692e-26   0.000000e+00   0.000000e+00
     2544000   2.543999e-06   1.282003e+01   1.994640e+01   8.532432e-02  -8.317255e+04  -7.576933e+04   9.527432e+04  -8.425097e+10   2.031044e+11   8.797513e+10   1.474309e+05   4.343994e-26   0.000000e+00   0.000000e+00
     2552000   2.551999e-06   1.281936e+01   1.994580e+01   8.608929e-02  -8.384902e+04  -7.413865e+04   9.596178e+04  -8.486223e+10   2.045533e+11   8.388489e+10   1.474309e+05   4.343303e-26   0.000000e+00   0.000000e+00
     2560000   2.559999e-06   1.281869e+01   1.994521e+01   8.685962e-02  -8.453027e+04  -7.249667e+04   9.661640e+04  -8.544422e+10   2.059319e+11   7.976709e+10   1.474309e+05   4.342617e-26   0.000000e+00   0.000000e+00
     2568000   2.567999e-06   1.281801e+01   1.994464e+01   8.763506e-02  -8.521605e+04  -7.084393e+04   9.723798e+04  -8.599674e+10   2.072399e+11   7.562315e+10   1.474309e+05   4.341937e-26   0.000000e+00   0.000000e+00
     2576000   2.575999e-06   1.281732e+01   1.994408e+01   8.841534e-02  -8.590614e+04  -6.918102e+04   9.782630e+04  -8.651961e+10   2.084768e+11   7.145448e+10   1.474309e+05   4.341263e-26   0.000000e+00   0.000000e+00
     2584000   2.583999e-06   1.281663e+01   1.994353e+01   8.920019e-02  -8.660029e+04  -6.750849e+04   9.838119e+04  -8.701265e+10   2.096423e+11   6.726253e+10   1.474309e+05   4.340593e-26   0.000000e+00   0.000000e+00
     2592000   2.591999e-06   1.281594e+01   1.994300e+01   8.998935e-02  -8.729826e+04  -6.582693e+04   9.890244e+04  -8.747570e+10   2.107359e+11   6.304874e+10   1.474309e+05   4.339929e-26   0.000000e+00   0.000000e+00
     2600000   2.599999e-06   1.281524e+01   1.994248e+01   9.078254e-02  -8.799982e+04  -6.413691e+04   9.938991e+04  -8.790861e+10   2.117573e+11   5.881455e+10   1.474309e+05   4.339269e-26   0.000000e+00   0.000000e+00
     2608000   2.607999e-06   1.281453e+01   1.994197e+01   9.157950e-02  -8.870472e+04  -6.243901e+04   9.984342e+04  -8.831123e+10   2.127062e+11   5.456142e+10   1.474309e+05   4.338614e-26   0.000000e+00   0.000000e+00
     2616000   2.615999e-06   1.281382e+01   1.994148e+01   9.237994e-02  -8.941272e+04  -6.073380e+04   1.002628e+05  -8.868343e+10   2.135824e+11   5.029082e+10   1.474309e+05   4.337963e-26   0.000000e+00   0.000000e+00
     2624000   2.623999e-06   1.281310e+01   1.994100e+01   9.318361e-02  -9.012357e+04  -5.902188e+04   1.006480e+05  -8.902509e+10   2.143855e+11   4.600419e+10   1.474309e+05   4.337315e-26   0.000000e+00   0.000000e+00
     2632000   2.631999e-06   1.281238e+01   1.994054e+01   9.399022e-02  -9.083704e+04  -5.730383e+04   1.009989e+05  -8.933610e+10   2.151153e+11   4.170302e+10   1.474309e+05   4.336670e-26   0.000000e+00   0.000000e+00
     2640000   2.639999e-06   1.281165e+01   1.994008e+01   9.479950e-02  -9.155287e+04  -5.558023e+04   1.013152e+05  -8.961637e+10   2.157716e+11   3.738879e+10   1.474309e+05   4.336029e-26   0.000000e+00   0.000000e+00
     2648000   2.647999e-06   1.281091e+01   1.993965e+01   9.561117e-02  -9.227082e+04  -5.385168e+04   1.015970e+05  -8.986580e+10   2.163541e+11   3.306295e+10   1.474309e+05   4.335390e-26   0.000000e+00   0.000000e+00
     2656000   2.655999e-06   1.281017e+01   1.993922e+01   9.642496e-02  -9.299064e+04  -5.211876e+04   1.018442e+05  -9.008431e+10   2.168628e+11   2.872701e+10   1.474309e+05   4.334753e-26   0.000000e+00   0.000000e+00
     2664000   2.663999e-06   1.280942e+01   1.993881e+01   9.724059e-02  -9.371209e+04  -5.038207e+04   1.020567e+05  -9.027185e+10   2.172975e+11   2.438244e+10   1.474309e+05   4.334119e-26   0.000000e+00   0.000000e+00
     2672000   2.671999e-06   1.280867e+01   1.993842e+01   9.805777e-02  -9.443491e+04  -4.864220e+04   1.022343e+05  -9.042836e+10   2.176580e+11   2.003073e+10   1.474309e+05   4.333486e-26   0.000000e+00   0.000000e+00
     2680000   2.679999e-06   1.280791e+01   1.993803e+01   9.887624e-02  -9.515886e+04  -4.689974e+04   1.023771e+05  -9.055379e+10   2.179443e+11   1.567336e+10   1.474309e+05   4.332854e-26   0.000000e+00   0.000000e+00
     2688000   2.687999e-06   1.280715e+01   1.993767e+01   9.969572e-02  -9.588368e+04  -4.515529e+04   1.024851e+05  -9.064812e+10   2.181564e+11   1.131183e+10   1.474309e+05   4.332223e-26   0.000000e+00   0.000000e+00
     2696000   2.695999e-06   1.280638e+01   1.993731e+01   1.005159e-01  -9.660917e+04  -4.340940e+04   1.025581e+05  -9.071725e+10   2.183020e+11   6.945299e+09   1.474309e+05   4.331945e-26   0.000000e+00   0.000000e+00
     2704000   2.703999e-06   1.280560e+01   1.993697e+01   1.013366e-01  -9.733506e+04  -4.166268e+04   1.025962e+05  -9.074912e+10   2.183654e+11   2.579758e+09   1.474309e+05   4.331316e-26   0.000000e+00   0.000000e+00
     2712000   2.711999e-06   1.280482e+01   1.993665e+01   1.021574e-01  -9.806108e+04  -3.991575e+04   1.025994e+05  -9.074986e+10   2.183545e+11  -1.785496e+09   1.474309e+05   4.330688e-26   0.000000e+00   0.000000e+00
     2720000   2.719999e-06   1.280403e+01   1.993633e+01   1.029780e-01  -9.878697e+04  -3.816920e+04   1.025676e+05  -9.071949e+10   2.182692e+11  -6.148976e+09   1.474309e+05   4.330059e-26   0.000000e+00   0.000000e+00
     2728000   2.727999e-06   1.280324e+01   1.993603e+01   1.037983e-01  -9.951251e+04  -3.642364e+04   1.025010e+05  -9.065802e+10   2.181097e+11  -1.050919e+10   1.474309e+05   4.329429e-26   0.000000e+00   0.000000e+00
     2736000   2.735999e-06   1.280244e+01   1.993575e+01   1.046180e-01  -1.002374e+05  -3.467965e+04   1.023995e+05  -9.056550e+10   2.178760e+11  -1.486466e+10   1.474309e+05   4.328798e-26   0.000000e+00   0.000000e+00
     2744000   2.743999e-06   1.280164e+01   1.993548e+01   1.054366e-01  -1.009615e+05  -3.293782e+04   1.022632e+05  -9.044196e+10   2.175682e+11  -1.921391e+10   1.474309e+05   4.328166e-26   0.000000e+00   0.000000e+00
     2752000   2.751999e-06   1.280083e+01   1.993522e+01   1.062541e-01  -1.016844e+05  -3.119875e+04   1.020921e+05  -9.028746e+10   2.171865e+11  -2.355544e+10   1.474309e+05   4.327532e-26   0.000000e+00   0.000000e+00
     2760000   2.759999e-06   1.280001e+01   1.993498e+01   1.070700e-01  -1.024060e+05  -2.946304e+04   1.018863e+05  -9.010207e+10   2.167310e+11  -2.788778e+10   1.474309e+05   4.326895e-26   0.000000e+00   0.000000e+00
     2768000   2.767999e-06   1.279919e+01   1.993475e+01   1.078842e-01  -1.031261e+05  -2.773099e+04   1.016458e+05  -8.990482e+10   2.162347e+11  -3.222046e+10   1.474309e+05   4.327674e-26   0.000000e+00   0.000000e+00
     2776000   2.775999e-06   1.279836e+01   1.993454e+01   1.086963e-01  -1.038444e+05  -2.600348e+04   1.013708e+05  -8.965796e+10   2.156315e+11  -3.653174e+10   1.474309e+05   4.327021e-26   0.000000e+00   0.000000e+00
     2784000   2.783999e-06   1.279753e+01   1.993434e+01   1.095060e-01  -1.045606e+05  -2.428109e+04   1.010613e+05  -8.938047e+10   2.149550e+11  -4.082940e+10   1.474309e+05   4.326364e-26   0.000000e+00   0.000000e+00
     2792000   2.791999e-06   1.279669e+01   1.993415e+01   1.103132e-01  -1.052744e+05  -2.256439e+04   1.007176e+05  -8.907245e+10   2.142056e+11  -4.511201e+10   1.474309e+05   4.325705e-26   0.000000e+00   0.000000e+00
     2800000   2.799999e-06   1.279584e+01   1.993397e+01   1.111174e-01  -1.059856e+05  -2.085399e+04   1.003396e+05  -8.873404e+10   2.133836e+11  -4.937810e+10   1.474309e+05   4.325042e-26   0.000000e+00   0.000000e+00
     2808000   2.807999e-06   1.279499e+01   1.993381e+01   1.119185e-01  -1.066940e+05  -1.915045e+04   9.992756e+04  -8.836535e+10   2.124892e+11  -5.362622e+10   1.474309e+05   4.324375e-26   0.000000e+00   0.000000e+00
     2816000   2.815999e-06   1.279413e+01   1.993367e+01   1.127162e-01  -1.073994e+05  -1.745435e+04   9.948162e+04  -8.796654e+10   2.115228e+11  -5.785494e+10   1.474309e+05   4.323703e-26   0.000000e+00   0.000000e+00
     2824000   2.823999e-06   1.279327e+01   1.993354e+01   1.135101e-01  -1.081014e+05  -1.576628e+04   9.900193e+04  -8.753775e+10   2.104847e+11  -6.206282e+10   1.474309e+05   4.323027e-26   0.000000e+00   0.000000e+00
     2832000   2.831999e-06   1.279240e+01   1.993342e+01   1.143001e-01  -1.087999e+05  -1.408679e+04   9.848867e+04  -8.707915e+10   2.093754e+11  -6.624845e+10   1.474309e+05   4.322346e-26   0.000000e+00   0.000000e+00
     2840000   2.839999e-06   1.279153e+01   1.993331e+01   1.150858e-01  -1.094946e+05  -1.241646e+04   9.794201e+04  -8.659091e+10   2.081951e+11  -7.041040e+10   1.474309e+05   4.321660e-26   0.000000e+00   0.000000e+00
     2848000   2.847999e-06   1.279065e+01   1.993322e+01   1.158671e-01  -1.101853e+05  -1.075586e+04   9.736216e+04  -8.607322e+10   2.069444e+11  -7.454726e+10   1.474309e+05   4.320968e-26   0.000000e+00   0.000000e+00
     2856000   2.855999e-06   1.278977e+01   1.993314e+01   1.166436e-01  -1.108717e+05  -9.105539e+03   9.674932e+04  -8.552627e+10   2.056237e+11  -7.865765e+10   1.474309e+05   4.320271e-26   0.000000e+00   0.000000e+00
     2864000   2.863999e-06   1.278888e+01   1.993307e+01   1.174150e-01  -1.115536e+05  -7.466065e+03   9.610371e+04  -8.495028e+10   2.042335e+11  -8.274016e+10   1.474309e+05   4.319567e-26   0.000000e+00   0.000000e+00
     2872000   2.871999e-06   1.278798e+01   1.993302e+01   1.181811e-01  -1.122308e+05  -5.837989e+03   9.542555e+04  -8.434544e+10   2.027742e+11  -8.679342e+10   1.474309e+05   4.318857e-26   0.000000e+00   0.000000e+00
     2880000   2.879999e-06   1.278708e+01   1.993298e+01   1.189417e-01  -1.129031e+05  -4.221862e+03   9.471509e+04  -8.371199e+10   2.012464e+11  -9.081607e+10   1.474309e+05   4.318141e-26   0.000000e+00   0.000000e+00
     2888000   2.887999e-06   1.278618e+01   1.993295e+01   1.196965e-01  -1.135702e+05  -2.618229e+03   9.397258e+04  -8.305017e+10   1.996507e+11  -9.480674e+10   1.474309e+05   4.317418e-26   0.000000e+00   0.000000e+00
     2896000   2.895999e-06   1.278527e+01   1.993294e+01   1.204452e-01  -1.142318e+05  -1.027632e+03   9.319827e+04  -8.236022e+10   1.979875e+11  -9.876410e+10   1.474309e+05   4.316687e-26   0.000000e+00   0.000000e+00
     2904000   2.903999e-06   1.278435e+01   1.993293e+01   1.211876e-01  -1.148878e+05   5.493911e+02   9.239244e+04  -8.164239e+10   1.962575e+11  -1.026868e+11   1.474309e+05   4.315949e-26   0.000000e+00   0.000000e+00
     2912000   2.911999e-06   1.278343e+01   1.993294e+01   1.219234e-01  -1.155380e+05   2.112310e+03   9.155537e+04  -8.089695e+10   1.944613e+11  -1.065735e+11   1.474309e+05   4.315204e-26   0.000000e+00   0.000000e+00
     2920000   2.919999e-06   1.278250e+01   1.993297e+01   1.226524e-01  -1.161821e+05   3.660596e+03   9.068736e+04  -8.012417e+10   1.925996e+11  -1.104230e+11   1.474309e+05   4.314451e-26   0.000000e+00   0.000000e+00
     2928000   2.927999e-06   1.278157e+01   1.993300e+01   1.233743e-01  -1.168199e+05   5.193728e+03   8.978870e+04  -7.932435e+10   1.906729e+11  -1.142339e+11   1.474309e+05   4.313689e-26   0.000000e+00   0.000000e+00
     2936000   2.935999e-06   1.278063e+01   1.993305e+01   1.240889e-01  -1.174512e+05   6.711189e+03   8.885972e+04  -7.849776e+10   1.886820e+11  -1.180049e+11   1.474309e+05   4.312920e-26   0.000000e+00   0.000000e+00
     2944000   2.943999e-06   1.277969e+01   1.993311e+01   1.247960e-01  -1.180758e+05   8.212468e+03   8.790073e+04  -7.764471e+10   1.866276e+11  -1.217348e+11   1.474309e+05   4.312142e-26   0.000000e+00   0.000000e+00
     2952000   2.951999e-06   1.277874e+01   1.993318e+01   1.254952e-01  -1.186935e+05   9.697060e+03   8.691207e+04  -7.676551e+10   1.845103e+11  -1.254224e+11   1.474309e+05   4.311356e-26   0.000000e+00   0.000000e+00
     2960000   2.959999e-06   1.277779e+01   1.993327e+01   1.261865e-01  -1.193040e+05   1.116447e+04   8.589409e+04  -7.586049e+10   1.823309e+11  -1.290663e+11   1.474309e+05   4.310561e-26   0.000000e+00   0.000000e+00
     2968000   2.967999e-06   1.277683e+01   1.993336e+01   1.268695e-01  -1.199072e+05   1.261419e+04   8.484713e+04  -7.492997e+10   1.800903e+11  -1.326654e+11   1.474310e+05   4.309757e-26   0.000000e+00   0.000000e+00
     2976000   2.975999e-06   1.277587e+01   1.993347e+01   1.275440e-01  -1.205028e+05   1.404575e+04   8.377156e+04  -7.397429e+10   1.777890e+11  -1.362185e+11   1.474310e+05   4.308944e-26   0.000000e+00   0.000000e+00
     2984000   2.983999e-06   1.277491e+01   1.993359e+01   1.282097e-01  -1.210907e+05   1.545865e+04   8.266775e+04  -7.299380e+10   1.754281e+11  -1.397243e+11   1.474310e+05   4.308122e-26   0.000000e+00   0.000000e+00
     2992000   2.991999e-06   1.277393e+01   1.993371e+01   1.288666e-01  -1.216707e+05   1.685244e+04   8.153609e+04  -7.198885e+10   1.730082e+11  -1.431818e+11   1.474310e+05   4.307291e-26   0.000000e+00   0.000000e+00
     3000000   2.999999e-06   1.277296e+01   1.993386e+01   1.295142e-01  -1.222425e+05   1.822663e+04   8.037697e+04  -7.095980e+10   1.705303e+11  -1.465897e+11   1.474310e+05   4.306451e-26   0.000000e+00   0.000000e+00
     3008000   3.007999e-06   1.277198e+01   1.993401e+01   1.301525e-01  -1.228059e+05   1.958077e+04   7.919079e+04  -6.990703e+10   1.679951e+11  -1.499469e+11   1.474310e+05   4.305601e-26   0.000000e+00   0.000000e+00
     3016000   3.015999e-06   1.277099e+01   1.993417e+01   1.307812e-01  -1.233609e+05   2.091440e+04   7.797796e+04  -6.883091e+10   1.654036e+11  -1.532524e+11   1.474310e+05   4.304741e-26   0.000000e+00   0.000000e+00
     3024000   3.023999e-06   1.277000e+01   1.993434e+01   1.314001e-01  -1.239072e+05   2.222707e+04   7.673889e+04  -6.773183e+10   1.627567e+11  -1.565049e+11   1.474310e+05   4.303873e-26   0.000000e+00   0.000000e+00
     3032000   3.031999e-06   1.276901e+01   1.993452e+01   1.320090e-01  -1.244446e+05   2.351836e+04   7.547402e+04  -6.661019e+10   1.600553e+11  -1.597034e+11   1.474310e+05   4.302994e-26   0.000000e+00   0.000000e+00
     3040000   3.039999e-06   1.276801e+01   1.993472e+01   1.326076e-01  -1.249729e+05   2.478781e+04   7.418378e+04  -6.546639e+10   1.573002e+11  -1.628469e+11   1.474310e+05   4.302106e-26   0.000000e+00   0.000000e+00
     3048000   3.047999e-06   1.276701e+01   1.993492e+01   1.331959e-01  -1.254920e+05   2.603502e+04   7.286862e+04  -6.430083e+10   1.544926e+11  -1.659342e+11   1.474310e+05   4.301208e-26   0.000000e+00   0.000000e+00
     3056000   3.055999e-06   1.276601e+01   1.993513e+01   1.337735e-01  -1.260016e+05   2.725955e+04   7.152898e+04  -6.311394e+10   1.516332e+11  -1.689645e+11   1.474310e+05   4.300301e-26   0.000000e+00   0.000000e+00
     3064000   3.063999e-06   1.276500e+01   1.993536e+01   1.343403e-01  -1.265017e+05   2.846101e+04   7.016534e+04  -6.190613e+10   1.487232e+11  -1.719366e+11   1.474310e+05   4.299384e-26   0.000000e+00   0.000000e+00
     3072000   3.071999e-06   1.276398e+01   1.993559e+01   1.348960e-01  -1.269921e+05   2.963899e+04   6.877815e+04  -6.067785e+10   1.457635e+11  -1.748496e+11   1.474310e+05   4.298457e-26   0.000000e+00   0.000000e+00
     3080000   3.079999e-06   1.276296e+01   1.993583e+01   1.354406e-01  -1.274725e+05   3.079309e+04   6.736790e+04  -5.942951e+10   1.427552e+11  -1.777025e+11   1.474310e+05   4.297521e-26   0.000000e+00   0.000000e+00
     3088000   3.087999e-06   1.276194e+01   1.993608e+01   1.359739e-01  -1.279429e+05   3.192294e+04   6.593507e+04  -5.816158e+10   1.396992e+11  -1.804945e+11   1.474310e+05   4.296575e-26   0.000000e+00   0.000000e+00
     3096000   3.095999e-06   1.276092e+01   1.993634e+01   1.364955e-01  -1.284031e+05   3.302815e+04   6.448015e+04  -5.687450e+10   1.365967e+11  -1.832244e+11   1.474310e+05   4.295619e-26   0.000000e+00   0.000000e+00
     3104000   3.103999e-06   1.275989e+01   1.993661e+01   1.370055e-01  -1.288528e+05   3.410836e+04   6.300364e+04  -5.556872e+10   1.334486e+11  -1.858916e+11   1.474310e+05   4.294655e-26   0.000000e+00   0.000000e+00
     3112000   3.111999e-06   1.275885e+01   1.993689e+01   1.375035e-01  -1.292921e+05   3.516321e+04   6.150605e+04  -5.424471e+10   1.302562e+11  -1.884950e+11   1.474310e+05   4.293680e-26   0.000000e+00   0.000000e+00
     3120000   3.119999e-06   1.275782e+01   1.993717e+01   1.379895e-01  -1.297207e+05   3.619234e+04   5.998789e+04  -5.290294e+10   1.270204e+11  -1.910338e+11   1.474310e+05   4.292697e-26   0.000000e+00   0.000000e+00
     3128000   3.127999e-06   1.275678e+01   1.993747e+01   1.384633e-01  -1.301385e+05   3.719542e+04   5.844969e+04  -5.154388e+10   1.237424e+11  -1.935072e+11   1.474310e+05   4.291704e-26   0.000000e+00   0.000000e+00
     3136000   3.135999e-06   1.275574e+01   1.993777e+01   1.389247e-01  -1.305454e+05   3.817211e+04   5.689195e+04  -5.016800e+10   1.204233e+11  -1.959144e+11   1.474310e+05   4.290702e-26   0.000000e+00   0.000000e+00
     3144000   3.143999e-06   1.275469e+01   1.993808e+01   1.393735e-01  -1.309411e+05   3.912208e+04   5.531523e+04  -4.877580e+10   1.170642e+11  -1.982546e+11   1.474310e+05   4.289691e-26   0.000000e+00   0.000000e+00
     3152000   3.151999e-06   1.275364e+01   1.993839e+01   1.398097e-01  -1.313257e+05   4.004503e+04   5.372006e+04  -4.736777e+10   1.136664e+11  -2.005270e+11   1.474310e+05   4.288672e-26   0.000000e+00   0.000000e+00
     3160000   3.159999e-06   1.275259e+01   1.993872e+01   1.402330e-01  -1.316990e+05   4.094064e+04   5.210698e+04  -4.594439e+10   1.102309e+11  -2.027309e+11   1.474310e+05   4.287644e-26   0.000000e+00   0.000000e+00
     3168000   3.167999e-06   1.275153e+01   1.993905e+01   1.406433e-01  -1.320608e+05   4.180862e+04   5.047655e+04  -4.450617e+10   1.067589e+11  -2.048656e+11   1.474310e+05   4.286607e-26   0.000000e+00   0.000000e+00
     3176000   3.175999e-06   1.275048e+01   1.993939e+01   1.410406e-01  -1.324110e+05   4.264869e+04   4.882931e+04  -4.305361e+10   1.032517e+11  -2.069303e+11   1.474310e+05   4.285562e-26   0.000000e+00   0.000000e+00
     3184000   3.183999e-06   1.274942e+01   1.993973e+01   1.414246e-01  -1.327496e+05   4.346055e+04   4.716585e+04  -4.158722e+10   9.971035e+10  -2.089244e+11   1.474310e+05   4.284509e-26   0.000000e+00   0.000000e+00
     3192000   3.191999e-06   1.274835e+01   1.994008e+01   1.417952e-01  -1.330764e+05   4.424396e+04   4.548671e+04  -4.010751e+10   9.613616e+10  -2.108473e+11   1.474310e+05   4.283447e-26   0.000000e+00   0.000000e+00
     3200000   3.199999e-06   1.274729e+01   1.994044e+01   1.421523e-01  -1.333913e+05   4.499864e+04   4.379248e+04  -3.861500e+10   9.253032e+10  -2.126984e+11   1.474310e+05   4.282379e-26   0.000000e+00   0.000000e+00
     3208000   3.207999e-06   1.274622e+01   1.994080e+01   1.424958e-01  -1.336942e+05   4.572436e+04   4.208373e+04  -3.711020e+10   8.889406e+10  -2.144769e+11   1.474310e+05   4.281302e-26   0.000000e+00   0.000000e+00
     3216000   3.215999e-06   1.274515e+01   1.994117e+01   1.428256e-01  -1.339850e+05   4.642087e+04   4.036104e+04  -3.559365e+10   8.522863e+10  -2.161824e+11   1.474310e+05   4.280218e-26   0.000000e+00   0.000000e+00
     3224000   3.223999e-06   1.274407e+01   1.994154e+01   1.431416e-01  -1.342637e+05   4.708794e+04   3.862500e+04  -3.406587e+10   8.153526e+10  -2.178144e+11   1.474310e+05   4.279128e-26   0.000000e+00   0.000000e+00
     3232000   3.231999e-06   1.274300e+01   1.994192e+01   1.434436e-01  -1.345301e+05   4.772536e+04   3.687621e+04  -3.252739e+10   7.781522e+10  -2.193722e+11   1.474310e+05   4.278030e-26   0.000000e+00   0.000000e+00
     3240000   3.239999e-06   1.274192e+01   1.994231e+01   1.437316e-01  -1.347841e+05   4.833291e+04   3.511525e+04  -3.097874e+10   7.406978e+10  -2.208555e+11   1.474310e+05   4.276926e-26   0.000000e+00   0.000000e+00
     3248000   3.247999e-06   1.274084e+01   1.994270e+01   1.440054e-01  -1.350257e+05   4.891041e+04   3.334272e+04  -2.942046e+10   7.030020e+10  -2.222637e+11   1.474310e+05   4.275815e-26   0.000000e+00   0.000000e+00
     3256000   3.255999e-06   1.273976e+01   1.994309e+01   1.442650e-01  -1.352548e+05   4.945765e+04   3.155923e+04  -2.785309e+10   6.650778e+10  -2.235963e+11   1.474310e+05   4.274698e-26   0.000000e+00   0.000000e+00
     3264000   3.263999e-06   1.273868e+01   1.994349e+01   1.445103e-01  -1.354713e+05   4.997447e+04   2.976538e+04  -2.627717e+10   6.269380e+10  -2.248531e+11   1.474310e+05   4.273576e-26   0.000000e+00   0.000000e+00
     3272000   3.271999e-06   1.273759e+01   1.994389e+01   1.447412e-01  -1.356752e+05   5.046069e+04   2.796178e+04  -2.469323e+10   5.885956e+10  -2.260335e+11   1.474310e+05   4.272448e-26   0.000000e+00   0.000000e+00
     3280000   3.279999e-06   1.273651e+01   1.994430e+01   1.449577e-01  -1.358664e+05   5.091617e+04   2.614905e+04  -2.310184e+10   5.500636e+10  -2.271372e+11   1.474310e+05   4.271315e-26   0.000000e+00   0.000000e+00
     3288000   3.287999e-06   1.273542e+01   1.994470e+01   1.451596e-01  -1.360448e+05   5.134074e+04   2.432779e+04  -2.150353e+10   5.113551e+10  -2.281639e+11   1.474310e+05   4.270177e-26   0.000000e+00   0.000000e+00
     3296000   3.295999e-06   1.273433e+01   1.994512e+01   1.453469e-01  -1.362104e+05   5.173429e+04   2.249863e+04  -1.989885e+10   4.724833e+10  -2.291133e+11   1.474310e+05   4.269034e-26   0.000000e+00   0.000000e+00
     3304000   3.303999e-06   1.273324e+01   1.994553e+01   1.455195e-01  -1.363632e+05   5.209667e+04   2.066218e+04  -1.828835e+10   4.334612e+10  -2.299850e+11   1.474310e+05   4.267887e-26   0.000000e+00   0.000000e+00
     3312000   3.311999e-06   1.273215e+01   1.994595e+01   1.456775e-01  -1.365030e+05   5.242779e+04   1.881908e+04  -1.667259e+10   3.943023e+10  -2.307788e+11   1.474310e+05   4.266736e-26   0.000000e+00   0.000000e+00
     3320000   3.319999e-06   1.273106e+01   1.994637e+01   1.458206e-01  -1.366299e+05   5.272752e+04   1.696993e+04  -1.505212e+10   3.550196e+10  -2.314945e+11   1.474310e+05   4.265581e-26   0.000000e+00   0.000000e+00
     3328000   3.327999e-06   1.272996e+01   1.994679e+01   1.459490e-01  -1.367438e+05   5.299578e+04   1.511537e+04  -1.342749e+10   3.156266e+10  -2.321319e+11   1.474310e+05   4.264423e-26   0.000000e+00   0.000000e+00
     3336000   3.335999e-06   1.272887e+01   1.994722e+01   1.460625e-01  -1.368447e+05   5.323249e+04   1.325603e+04  -1.179926e+10   2.761366e+10  -2.326907e+11   1.474310e+05   4.263262e-26   0.000000e+00   0.000000e+00
     3344000   3.343999e-06   1.272777e+01   1.994765e+01   1.461611e-01  -1.369326e+05   5.343758e+04   1.139253e+04  -1.016797e+10   2.365630e+10  -2.331709e+11   1.474310e+05   4.262098e-26   0.000000e+00   0.000000e+00
     3352000   3.351999e-06   1.272668e+01   1.994807e+01   1.462447e-01  -1.370074e+05   5.361097e+04   9.525504e+03  -8.534186e+09   1.969190e+10  -2.335723e+11   1.474310e+05   4.260932e-26   0.000000e+00   0.000000e+00
     3360000   3.359999e-06   1.272558e+01   1.994850e+01   1.463135e-01  -1.370692e+05   5.375263e+04   7.655583e+03  -6.898462e+09   1.572183e+10  -2.338948e+11   1.474310e+05   4.259763e-26   0.000000e+00   0.000000e+00
     3368000   3.367999e-06   1.272449e+01   1.994893e+01   1.463672e-01  -1.371178e+05   5.386250e+04   5.783397e+03  -5.261352e+09   1.174741e+10  -2.341383e+11   1.474310e+05   4.258593e-26   0.000000e+00   0.000000e+00
     3376000   3.375999e-06   1.272339e+01   1.994936e+01   1.464060e-01  -1.371533e+05   5.394057e+04   3.909580e+03  -3.623410e+09   7.769991e+09  -2.343028e+11   1.474310e+05   4.257422e-26   0.000000e+00   0.000000e+00
     3384000   3.383999e-06   1.272229e+01   1.994980e+01   1.464298e-01  -1.371758e+05   5.398682e+04   2.034763e+03  -1.985190e+09   3.790917e+09  -2.343883e+11   1.474310e+05   4.256250e-26   0.000000e+00   0.000000e+00
     3392000   3.391999e-06   1.272119e+01   1.995023e+01   1.464386e-01  -1.371851e+05   5.400122e+04   1.595785e+02  -3.472455e+08  -1.884699e+08  -2.343947e+11   1.474310e+05   4.255077e-26   0.000000e+00   0.000000e+00
     3400000   3.399999e-06   1.272010e+01   1.995066e+01   1.464323e-01  -1.371813e+05   5.398380e+04  -1.715341e+03   1.289872e+09  -4.166826e+09  -2.343221e+11   1.474310e+05   4.253903e-26   0.000000e+00   0.000000e+00
     3408000   3.407999e-06   1.271900e+01   1.995109e+01   1.464111e-01  -1.371645e+05   5.393456e+04  -3.589364e+03   2.925610e+09  -8.142810e+09  -2.341706e+11   1.474310e+05   4.252730e-26   0.000000e+00   0.000000e+00
     3416000   3.415999e-06   1.271790e+01   1.995152e+01   1.463749e-01  -1.371345e+05   5.385352e+04  -5.461860e+03   4.559419e+09  -1.211508e+10  -2.339402e+11   1.474310e+05   4.251557e-26   0.000000e+00   0.000000e+00
     3424000   3.423999e-06   1.271680e+01   1.995195e+01   1.463237e-01  -1.370915e+05   5.374073e+04  -7.332197e+03   6.190751e+09  -1.608230e+10  -2.336310e+11   1.474310e+05   4.250384e-26   0.000000e+00   0.000000e+00
     3432000   3.431999e-06   1.271571e+01   1.995238e+01   1.462576e-01  -1.370355e+05   5.359622e+04  -9.199746e+03   7.819058e+09  -2.004313e+10  -2.332433e+11   1.474310e+05   4.249213e-26   0.000000e+00   0.000000e+00
     3440000   3.439999e-06   1.271461e+01   1.995281e+01   1.461765e-01  -1.369664e+05   5.342005e+04  -1.106388e+04   9.443796e+09  -2.399624e+10  -2.327771e+11   1.474310e+05   4.248043e-26   0.000000e+00   0.000000e+00
     3448000   3.447999e-06   1.271352e+01   1.995324e+01   1.460806e-01  -1.368844e+05   5.321230e+04  -1.292397e+04   1.106442e+10  -2.794030e+10  -2.322327e+11   1.474310e+05   4.246874e-26   0.000000e+00   0.000000e+00
     3456000   3.455999e-06   1.271242e+01   1.995366e+01   1.459698e-01  -1.367894e+05   5.297303e+04  -1.477939e+04   1.268039e+10  -3.187398e+10  -2.316102e+11   1.474310e+05   4.245708e-26   0.000000e+00   0.000000e+00
     3464000   3.463999e-06   1.271133e+01   1.995409e+01   1.458441e-01  -1.366815e+05   5.270234e+04  -1.662953e+04   1.429117e+10  -3.579596e+10  -2.309100e+11   1.474310e+05   4.244544e-26   0.000000e+00   0.000000e+00
     3472000   3.471999e-06   1.271023e+01   1.995451e+01   1.457037e-01  -1.365608e+05   5.240033e+04  -1.847375e+04   1.589622e+10  -3.970492e+10  -2.301322e+11   1.474310e+05   4.243382e-26   0.000000e+00   0.000000e+00
     3480000   3.479999e-06   1.270914e+01   1.995492e+01   1.455486e-01  -1.364272e+05   5.206710e+04  -2.031144e+04   1.749500e+10  -4.359954e+10  -2.292773e+11   1.474310e+05   4.242224e-26   0.000000e+00   0.000000e+00
     3488000   3.487999e-06   1.270805e+01   1.995534e+01   1.453787e-01  -1.362809e+05   5.170277e+04  -2.214198e+04   1.908700e+10  -4.747853e+10  -2.283454e+11   1.474310e+05   4.241069e-26   0.000000e+00   0.000000e+00
     3496000   3.495999e-06   1.270696e+01   1.995575e+01   1.451943e-01  -1.361218e+05   5.130748e+04  -2.396476e+04   2.067167e+10  -5.134057e+10  -2.273370e+11   1.474311e+05   4.239917e-26   0.000000e+00   0.000000e+00
     3504000   3.503999e-06   1.270587e+01   1.995616e+01   1.449953e-01  -1.359501e+05   5.088137e+04  -2.577916e+04   2.224850e+10  -5.518438e+10  -2.262524e+11   1.474311e+05   4.238770e-26   0.000000e+00   0.000000e+00
     3512000   3.511999e-06   1.270479e+01   1.995656e+01   1.447819e-01  -1.357659e+05   5.042458e+04  -2.758459e+04   2.381696e+10  -5.900867e+10  -2.250920e+11   1.474311e+05   4.237626e-26   0.000000e+00   0.000000e+00
     3520000   3.519999e-06   1.270370e+01   1.995697e+01   1.445540e-01  -1.355691e+05   4.993728e+04  -2.938044e+04   2.537654e+10  -6.281214e+10  -2.238563e+11   1.474311e+05   4.236488e-26   0.000000e+00   0.000000e+00
     3528000   3.527999e-06   1.270262e+01   1.995736e+01   1.443118e-01  -1.353599e+05   4.941964e+04  -3.116609e+04   2.692672e+10  -6.659354e+10  -2.225457e+11   1.474311e+05   4.235353e-26   0.000000e+00   0.000000e+00
     3536000   3.535999e-06   1.270154e+01   1.995776e+01   1.440554e-01  -1.351383e+05   4.887184e+04  -3.294097e+04   2.846699e+10  -7.035159e+10  -2.211607e+11   1.474311e+05   4.234224e-26   0.000000e+00   0.000000e+00
     3544000   3.543999e-06   1.270046e+01   1.995815e+01   1.437848e-01  -1.349044e+05   4.829408e+04  -3.470446e+04   2.999685e+10  -7.408504e+10  -2.197017e+11   1.474311e+05   4.233101e-26   0.000000e+00   0.000000e+00
     3552000   3.551999e-06   1.269938e+01   1.995853e+01   1.435001e-01  -1.346584e+05   4.768671e+04  -3.645541e+04   3.149382e+10  -7.775569e+10  -2.180438e+11   1.474311e+05   4.227188e-26   0.000000e+00   0.000000e+00
     3560000   3.559999e-06   1.269830e+01   1.995891e+01   1.432015e-01  -1.344005e+05   4.704994e+04  -3.819340e+04   3.300015e+10  -8.143181e+10  -2.164419e+11   1.474311e+05   4.226129e-26   0.000000e+00   0.000000e+00
     3568000   3.567999e-06   1.269723e+01   1.995928e+01   1.428891e-01  -1.341305e+05   4.638387e+04  -3.991829e+04   3.449463e+10  -8.507972e+10  -2.147678e+11   1.474311e+05   4.225077e-26   0.000000e+00   0.000000e+00
     3576000   3.575999e-06   1.269616e+01   1.995965e+01   1.425629e-01  -1.338486e+05   4.568874e+04  -4.162950e+04   3.597679e+10  -8.869822e+10  -2.130222e+11   1.474311e+05   4.224032e-26   0.000000e+00   0.000000e+00
     3584000   3.583999e-06   1.269509e+01   1.996001e+01   1.422230e-01  -1.335549e+05   4.496478e+04  -4.332645e+04   3.744613e+10  -9.228608e+10  -2.112056e+11   1.474311e+05   4.222994e-26   0.000000e+00   0.000000e+00
     3592000   3.591999e-06   1.269402e+01   1.996037e+01   1.418697e-01  -1.332495e+05   4.421224e+04  -4.500860e+04   3.890218e+10  -9.584213e+10  -2.093188e+11   1.474311e+05   4.221964e-26   0.000000e+00   0.000000e+00
     3600000   3.599999e-06   1.269295e+01   1.996072e+01   1.415029e-01  -1.329325e+05   4.343139e+04  -4.667537e+04   4.034447e+10  -9.936518e+10  -2.073623e+11   1.474311e+05   4.220942e-26   0.000000e+00   0.000000e+00
     3608000   3.607999e-06   1.269189e+01   1.996106e+01   1.411229e-01  -1.326040e+05   4.262249e+04  -4.832621e+04   4.177252e+10  -1.028541e+11  -2.053369e+11   1.474311e+05   4.219927e-26   0.000000e+00   0.000000e+00
     3616000   3.615999e-06   1.269083e+01   1.996140e+01   1.407298e-01  -1.322642e+05   4.178582e+04  -4.996057e+04   4.318589e+10  -1.063076e+11  -2.032433e+11   1.474311e+05   4.218920e-26   0.000000e+00   0.000000e+00
     3624000   3.623999e-06   1.268978e+01   1.996173e+01   1.403236e-01  -1.319131e+05   4.092166e+04  -5.157792e+04   4.458410e+10  -1.097247e+11  -2.010821e+11   1.474311e+05   4.217922e-26   0.000000e+00   0.000000e+00
     3632000   3.631999e-06   1.268872e+01   1.996206e+01   1.399046e-01  -1.315509e+05   4.003032e+04  -5.317771e+04   4.596672e+10  -1.131041e+11  -1.988542e+11   1.474311e+05   4.216932e-26   0.000000e+00   0.000000e+00
     3640000   3.639999e-06   1.268767e+01   1.996237e+01   1.394728e-01  -1.311776e+05   3.911210e+04  -5.475941e+04   4.733329e+10  -1.164448e+11  -1.965603e+11   1.474311e+05   4.215950e-26   0.000000e+00   0.000000e+00
     3648000   3.647999e-06   1.268662e+01   1.996268e+01   1.390285e-01  -1.307936e+05   3.816730e+04  -5.632249e+04   4.868337e+10  -1.197457e+11  -1.942012e+11   1.474311e+05   4.214977e-26   0.000000e+00   0.000000e+00
     3656000   3.655999e-06   1.268558e+01   1.996298e+01   1.385717e-01  -1.303988e+05   3.719627e+04  -5.786645e+04   5.001653e+10  -1.230057e+11  -1.917778e+11   1.474311e+05   4.214013e-26   0.000000e+00   0.000000e+00
     3664000   3.663999e-06   1.268454e+01   1.996328e+01   1.381027e-01  -1.299933e+05   3.619932e+04  -5.939077e+04   5.133234e+10  -1.262237e+11  -1.892908e+11   1.474311e+05   4.213058e-26   0.000000e+00   0.000000e+00
     3672000   3.671999e-06   1.268350e+01   1.996356e+01   1.376215e-01  -1.295775e+05   3.517680e+04  -6.089494e+04   5.263039e+10  -1.293985e+11  -1.867412e+11   1.474311e+05   4.212111e-26   0.000000e+00   0.000000e+00
     3680000   3.679999e-06   1.268246e+01   1.996384e+01   1.371284e-01  -1.291513e+05   3.412906e+04  -6.237846e+04   5.391025e+10  -1.325293e+11  -1.841298e+11   1.474311e+05   4.211174e-26   0.000000e+00   0.000000e+00
     3688000   3.687999e-06   1.268143e+01   1.996411e+01   1.366235e-01  -1.287150e+05   3.305645e+04  -6.384085e+04   5.517152e+10  -1.356149e+11  -1.814575e+11   1.474311e+05   4.210246e-26   0.000000e+00   0.000000e+00
     3696000   3.695999e-06   1.268040e+01   1.996437e+01   1.361070e-01  -1.282686e+05   3.195934e+04  -6.528162e+04   5.641379e+10  -1.386544e+11  -1.787253e+11   1.474311e+05   4.209328e-26   0.000000e+00   0.000000e+00
     3704000   3.703999e-06   1.267938e+01   1.996462e+01   1.355791e-01  -1.278124e+05   3.083810e+04  -6.670029e+04   5.763667e+10  -1.416466e+11  -1.759340e+11   1.474311e+05   4.208418e-26   0.000000e+00   0.000000e+00
     3712000   3.711999e-06   1.267836e+01   1.996486e+01   1.350399e-01  -1.273465e+05   2.969312e+04  -6.809640e+04   5.883978e+10  -1.445908e+11  -1.730847e+11   1.474311e+05   4.207518e-26   0.000000e+00   0.000000e+00
     3720000   3.719999e-06   1.267734e+01   1.996510e+01   1.344896e-01  -1.268710e+05   2.852478e+04  -6.946949e+04   6.002272e+10  -1.474858e+11  -1.701782e+11   1.474311e+05   4.206628e-26   0.000000e+00   0.000000e+00
     3728000   3.727999e-06   1.267633e+01   1.996532e+01   1.339284e-01  -1.263862e+05   2.733348e+04  -7.081910e+04   6.118512e+10  -1.503307e+11  -1.672157e+11   1.474311e+05   4.205746e-26   0.000000e+00   0.000000e+00
     3736000   3.735999e-06   1.267532e+01   1.996553e+01   1.333565e-01  -1.258921e+05   2.611962e+04  -7.214479e+04   6.232663e+10  -1.531246e+11  -1.641981e+11   1.474311e+05   4.204875e-26   0.000000e+00   0.000000e+00
     3744000   3.743999e-06   1.267431e+01   1.996574e+01   1.327742e-01  -1.253890e+05   2.488362e+04  -7.344613e+04   6.344687e+10  -1.558666e+11  -1.611265e+11   1.474311e+05   4.204012e-26   0.000000e+00   0.000000e+00
     3752000   3.751999e-06   1.267331e+01   1.996593e+01   1.321815e-01  -1.248770e+05   2.362589e+04  -7.472267e+04   6.454549e+10  -1.585557e+11  -1.580019e+11   1.474311e+05   4.203159e-26   0.000000e+00   0.000000e+00
     3760000   3.759999e-06   1.267232e+01   1.996611e+01   1.315787e-01  -1.243563e+05   2.234687e+04  -7.597401e+04   6.562215e+10  -1.611912e+11  -1.548253e+11   1.474311e+05   4.202316e-26   0.000000e+00   0.000000e+00
     3768000   3.767999e-06   1.267132e+01   1.996629e+01   1.309659e-01  -1.238271e+05   2.104698e+04  -7.719974e+04   6.667650e+10  -1.637720e+11  -1.515979e+11   1.474311e+05   4.201482e-26   0.000000e+00   0.000000e+00
     3776000   3.775999e-06   1.267034e+01   1.996645e+01   1.303435e-01  -1.232896e+05   1.972666e+04  -7.839945e+04   6.770823e+10  -1.662975e+11  -1.483208e+11   1.474311e+05   4.200657e-26   0.000000e+00   0.000000e+00
     3784000   3.783999e-06   1.266935e+01   1.996660e+01   1.297116e-01  -1.227438e+05   1.838637e+04  -7.957274e+04   6.871700e+10  -1.687667e+11  -1.449950e+11   1.474311e+05   4.199842e-26   0.000000e+00   0.000000e+00
     3792000   3.791999e-06   1.266837e+01   1.996675e+01   1.290704e-01  -1.221901e+05   1.702654e+04  -8.071924e+04   6.970250e+10  -1.711789e+11  -1.416217e+11   1.474311e+05   4.199035e-26   0.000000e+00   0.000000e+00
     3800000   3.799999e-06   1.266740e+01   1.996688e+01   1.284202e-01  -1.216287e+05   1.564766e+04  -8.183856e+04   7.066443e+10  -1.735333e+11  -1.382021e+11   1.474311e+05   4.198238e-26   0.000000e+00   0.000000e+00
     3808000   3.807999e-06   1.266643e+01   1.996700e+01   1.277611e-01  -1.210596e+05   1.425017e+04  -8.293035e+04   7.160247e+10  -1.758290e+11  -1.347373e+11   1.474311e+05   4.197450e-26   0.000000e+00   0.000000e+00
     3816000   3.815999e-06   1.266546e+01   1.996710e+01   1.270934e-01  -1.204831e+05   1.283455e+04  -8.399424e+04   7.251635e+10  -1.780654e+11  -1.312285e+11   1.474311e+05   4.196671e-26   0.000000e+00   0.000000e+00
     3824000   3.823999e-06   1.266450e+01   1.996720e+01   1.264173e-01  -1.198994e+05   1.140128e+04  -8.502988e+04   7.340578e+10  -1.802418e+11  -1.276769e+11   1.474311e+05   4.195900e-26   0.000000e+00   0.000000e+00
     3832000   3.831999e-06   1.266354e+01   1.996729e+01   1.257330e-01  -1.193087e+05   9.950839e+03  -8.603695e+04   7.427047e+10  -1.823574e+11  -1.240836e+11   1.474311e+05   4.195138e-26   0.000000e+00   0.000000e+00
     3840000   3.839999e-06   1.266259e+01   1.996736e+01   1.250408e-01  -1.187111e+05   8.483722e+03  -8.701511e+04   7.511018e+10  -1.844115e+11  -1.204499e+11   1.474311e+05   4.194385e-26   0.000000e+00   0.000000e+00
     3848000   3.847999e-06   1.266164e+01   1.996742e+01   1.243408e-01  -1.181070e+05   7.000419e+03  -8.796404e+04   7.592463e+10  -1.864035e+11  -1.167771e+11   1.474311e+05   4.193640e-26   0.000000e+00   0.000000e+00
     3856000   3.855999e-06   1.266070e+01   1.996747e+01   1.236334e-01  -1.174964e+05   5.501431e+03  -8.888344e+04   7.671358e+10  -1.883328e+11  -1.130663e+11   1.474311e+05   4.192904e-26   0.000000e+00   0.000000e+00
     3864000   3.863999e-06   1.265976e+01   1.996751e+01   1.229188e-01  -1.168796e+05   3.987262e+03  -8.977300e+04   7.747678e+10  -1.901986e+11  -1.093189e+11   1.474311e+05   4.192175e-26   0.000000e+00   0.000000e+00
     3872000   3.871999e-06   1.265883e+01   1.996754e+01   1.221971e-01  -1.162568e+05   2.458422e+03  -9.063244e+04   7.821401e+10  -1.920005e+11  -1.055360e+11   1.474311e+05   4.191454e-26   0.000000e+00   0.000000e+00
     3880000   3.879999e-06   1.265790e+01   1.996755e+01   1.214687e-01  -1.156283e+05   9.154244e+02  -9.146148e+04   7.892503e+10  -1.937378e+11  -1.017190e+11   1.474311e+05   4.190741e-26   0.000000e+00   0.000000e+00
     3888000   3.887999e-06   1.265698e+01   1.996755e+01   1.207338e-01  -1.149941e+05  -6.412117e+02  -9.225985e+04   7.960963e+10  -1.954101e+11  -9.786915e+10   1.474311e+05   4.190036e-26   0.000000e+00   0.000000e+00
     3896000   3.895999e-06   1.265606e+01   1.996754e+01   1.199926e-01  -1.143546e+05  -2.210963e+03  -9.302730e+04   8.026761e+10  -1.970166e+11  -9.398774e+10   1.474311e+05   4.189337e-26   0.000000e+00   0.000000e+00
     3904000   3.903999e-06   1.265515e+01   1.996752e+01   1.192455e-01  -1.137099e+05  -3.793303e+03  -9.376357e+04   8.089876e+10  -1.985570e+11  -9.007609e+10   1.474311e+05   4.188646e-26   0.000000e+00   0.000000e+00
     3912000   3.911999e-06   1.265424e+01   1.996748e+01   1.184925e-01  -1.130603e+05  -5.387700e+03  -9.446844e+04   8.150289e+10  -2.000308e+11  -8.613550e+10   1.474311e+05   4.187962e-26   0.000000e+00   0.000000e+00
     3920000   3.919999e-06   1.265334e+01   1.996743e+01   1.177341e-01  -1.124059e+05  -6.993619e+03  -9.514166e+04   8.207982e+10  -2.014375e+11  -8.216731e+10   1.474311e+05   4.187284e-26   0.000000e+00   0.000000e+00
     3928000   3.927999e-06   1.265244e+01   1.996737e+01   1.169703e-01  -1.117471e+05  -8.610521e+03  -9.578304e+04   8.262939e+10  -2.027766e+11  -7.817285e+10   1.474311e+05   4.186612e-26   0.000000e+00   0.000000e+00
     3936000   3.935999e-06   1.265155e+01   1.996729e+01   1.162016e-01  -1.110839e+05  -1.023786e+04  -9.639236e+04   8.315142e+10  -2.040477e+11  -7.415346e+10   1.474311e+05   4.185947e-26   0.000000e+00   0.000000e+00
     3944000   3.943999e-06   1.265067e+01   1.996720e+01   1.154281e-01  -1.104167e+05  -1.187510e+04  -9.696943e+04   8.364576e+10  -2.052505e+11  -7.011048e+10   1.474311e+05   4.185288e-26   0.000000e+00   0.000000e+00
     3952000   3.951999e-06   1.264979e+01   1.996710e+01   1.146502e-01  -1.097457e+05  -1.352169e+04  -9.751406e+04   8.411226e+10  -2.063845e+11  -6.604528e+10   1.474311e+05   4.184634e-26   0.000000e+00   0.000000e+00
     3960000   3.959999e-06   1.264891e+01   1.996699e+01   1.138680e-01  -1.090710e+05  -1.517707e+04  -9.802609e+04   8.455080e+10  -2.074494e+11  -6.195921e+10   1.474311e+05   4.183985e-26   0.000000e+00   0.000000e+00
     3968000   3.967999e-06   1.264804e+01   1.996686e+01   1.130819e-01  -1.083929e+05  -1.684069e+04  -9.850536e+04   8.496123e+10  -2.084449e+11  -5.785365e+10   1.474311e+05   4.183342e-26   0.000000e+00   0.000000e+00
     3976000   3.975999e-06   1.264718e+01   1.996672e+01   1.122920e-01  -1.077117e+05  -1.851200e+04  -9.895170e+04   8.534345e+10  -2.093706e+11  -5.372997e+10   1.474311e+05   4.182703e-26   0.000000e+00   0.000000e+00
     3984000   3.983999e-06   1.264632e+01   1.996656e+01   1.114987e-01  -1.070275e+05  -2.019044e+04  -9.936499e+04   8.569734e+10  -2.102263e+11  -4.958954e+10   1.474311e+05   4.182069e-26   0.000000e+00   0.000000e+00
     3992000   3.991999e-06   1.264546e+01   1.996639e+01   1.107023e-01  -1.063406e+05  -2.187544e+04  -9.974509e+04   8.602280e+10  -2.110118e+11  -4.543376e+10   1.474311e+05   4.181438e-26   0.000000e+00   0.000000e+00
     4000000   3.999999e-06   1.264462e+01   1.996621e+01   1.099029e-01  -1.056512e+05  -2.356644e+04  -1.000919e+05   8.631974e+10  -2.117268e+11  -4.126401e+10   1.474311e+05   4.180812e-26   0.000000e+00   0.000000e+00
     4008000   4.007999e-06   1.264377e+01   1.996602e+01   1.091009e-01  -1.049596e+05  -2.526288e+04  -1.004053e+05   8.658808e+10  -2.123710e+11  -3.708168e+10   1.474311e+05   4.180189e-26   0.000000e+00   0.000000e+00
     4016000   4.015999e-06   1.264294e+01   1.996581e+01   1.082965e-01  -1.042659e+05  -2.696419e+04  -1.006852e+05   8.682774e+10  -2.129444e+11  -3.288818e+10   1.474311e+05   4.179570e-26   0.000000e+00   0.000000e+00
     4024000   4.023999e-06   1.264211e+01   1.996559e+01   1.074900e-01  -1.035704e+05  -2.866980e+04  -1.009315e+05   8.703866e+10  -2.134467e+11  -2.868489e+10   1.474311e+05   4.178953e-26   0.000000e+00   0.000000e+00
     4032000   4.031999e-06   1.264128e+01   1.996535e+01   1.066817e-01  -1.028733e+05  -3.037915e+04  -1.011441e+05   8.722079e+10  -2.138778e+11  -2.447323e+10   1.474311e+05   4.178340e-26   0.000000e+00   0.000000e+00
     4040000   4.039999e-06   1.264046e+01   1.996510e+01   1.058718e-01  -1.021749e+05  -3.209166e+04  -1.013230e+05   8.737407e+10  -2.142376e+11  -2.025459e+10   1.474312e+05   4.177728e-26   0.000000e+00   0.000000e+00
     4048000   4.047999e-06   1.263964e+01   1.996484e+01   1.050606e-01  -1.014754e+05  -3.380676e+04  -1.014681e+05   8.749848e+10  -2.145260e+11  -1.603038e+10   1.474312e+05   4.177119e-26   0.000000e+00   0.000000e+00
     4056000   4.055999e-06   1.263884e+01   1.996456e+01   1.042484e-01  -1.007750e+05  -3.552388e+04  -1.015795e+05   8.759399e+10  -2.147429e+11  -1.180200e+10   1.474312e+05   4.176511e-26   0.000000e+00   0.000000e+00
     4064000   4.063999e-06   1.263803e+01   1.996427e+01   1.034354e-01  -1.000740e+05  -3.724245e+04  -1.016570e+05   8.766057e+10  -2.148883e+11  -7.570863e+09   1.474312e+05   4.175904e-26   0.000000e+00   0.000000e+00
     4072000   4.071999e-06   1.263723e+01   1.996396e+01   1.026220e-01  -9.937255e+04  -3.896190e+04  -1.017006e+05   8.769822e+10  -2.149622e+11  -3.338375e+09   1.474312e+05   4.175299e-26   0.000000e+00   0.000000e+00
     4080000   4.079999e-06   1.263644e+01   1.996364e+01   1.018083e-01  -9.867091e+04  -4.068166e+04  -1.017104e+05   8.770694e+10  -2.149645e+11   8.940588e+08   1.474312e+05   4.174694e-26   0.000000e+00   0.000000e+00
     4088000   4.087999e-06   1.263566e+01   1.996331e+01   1.009947e-01  -9.796932e+04  -4.240114e+04  -1.016863e+05   8.768673e+10  -2.148953e+11   5.125033e+09   1.474312e+05   4.174090e-26   0.000000e+00   0.000000e+00
     4096000   4.095999e-06   1.263487e+01   1.996297e+01   1.001814e-01  -9.726800e+04  -4.411979e+04  -1.016284e+05   8.763762e+10  -2.147547e+11   9.353142e+09   1.474312e+05   4.173485e-26   0.000000e+00   0.000000e+00
     4104000   4.103999e-06   1.263410e+01   1.996261e+01   9.936872e-02  -9.656702e+04  -4.583732e+04  -1.015367e+05   8.758768e+10  -2.145895e+11   1.357217e+10   1.474312e+05   4.174804e-26   0.000000e+00   0.000000e+00
     4112000   4.111999e-06   1.263333e+01   1.996223e+01   9.855691e-02  -9.586673e+04  -4.755295e+04  -1.014112e+05   8.748076e+10  -2.143052e+11   1.779189e+10   1.474312e+05   4.174162e-26   0.000000e+00   0.000000e+00
     4120000   4.119999e-06   1.263257e+01   1.996184e+01   9.774623e-02  -9.516740e+04  -4.926602e+04  -1.012520e+05   8.734502e+10  -2.139498e+11   2.200450e+10   1.474312e+05   4.173519e-26   0.000000e+00   0.000000e+00
     4128000   4.127999e-06   1.263181e+01   1.996144e+01   9.693697e-02  -9.446928e+04  -5.097596e+04  -1.010592e+05   8.718050e+10  -2.135233e+11   2.620862e+10   1.474312e+05   4.172874e-26   0.000000e+00   0.000000e+00
     4136000   4.135999e-06   1.263105e+01   1.996103e+01   9.612938e-02  -9.377259e+04  -5.268220e+04  -1.008327e+05   8.698728e+10  -2.130260e+11   3.040286e+10   1.474312e+05   4.172228e-26   0.000000e+00   0.000000e+00
     4144000   4.143999e-06   1.263031e+01   1.996060e+01   9.532373e-02  -9.307756e+04  -5.438418e+04  -1.005727e+05   8.676541e+10  -2.124580e+11   3.458581e+10   1.474312e+05   4.171581e-26   0.000000e+00   0.000000e+00
     4152000   4.151999e-06   1.262957e+01   1.996016e+01   9.452030e-02  -9.238442e+04  -5.608134e+04  -1.002794e+05   8.651500e+10  -2.118197e+11   3.875611e+10   1.474312e+05   4.170931e-26   0.000000e+00   0.000000e+00
     4160000   4.159999e-06   1.262883e+01   1.995970e+01   9.371935e-02  -9.169340e+04  -5.777311e+04  -9.995268e+04   8.623612e+10  -2.111111e+11   4.291237e+10   1.474312e+05   4.170279e-26   0.000000e+00   0.000000e+00
     4168000   4.167999e-06   1.262810e+01   1.995923e+01   9.292115e-02  -9.100472e+04  -5.945893e+04  -9.959281e+04   8.592888e+10  -2.103326e+11   4.705323e+10   1.474312e+05   4.169624e-26   0.000000e+00   0.000000e+00
     4176000   4.175999e-06   1.262737e+01   1.995875e+01   9.212595e-02  -9.031861e+04  -6.113824e+04  -9.919987e+04   8.559338e+10  -2.094844e+11   5.117731e+10   1.474312e+05   4.168967e-26   0.000000e+00   0.000000e+00
     4184000   4.183999e-06   1.262665e+01   1.995826e+01   9.133404e-02  -8.963530e+04  -6.281050e+04  -9.877402e+04   8.522976e+10  -2.085670e+11   5.528325e+10   1.474312e+05   4.168306e-26   0.000000e+00   0.000000e+00
     4192000   4.191999e-06   1.262594e+01   1.995775e+01   9.054566e-02  -8.895501e+04  -6.447513e+04  -9.831539e+04   8.483812e+10  -2.075806e+11   5.936970e+10   1.474312e+05   4.167641e-26   0.000000e+00   0.000000e+00
     4200000   4.199999e-06   1.262523e+01   1.995723e+01   8.976108e-02  -8.827797e+04  -6.613160e+04  -9.782415e+04   8.441862e+10  -2.065255e+11   6.343531e+10   1.474312e+05   4.166973e-26   0.000000e+00   0.000000e+00
     4208000   4.207999e-06   1.262453e+01   1.995669e+01   8.898056e-02  -8.760439e+04  -6.777936e+04  -9.730048e+04   8.397139e+10  -2.054022e+11   6.747875e+10   1.474312e+05   4.166301e-26   0.000000e+00   0.000000e+00
     4216000   4.215999e-06   1.262383e+01   1.995614e+01   8.820436e-02  -8.693450e+04  -6.941785e+04  -9.674455e+04   8.349659e+10  -2.042111e+11   7.149869e+10   1.474312e+05   4.165624e-26   0.000000e+00   0.000000e+00
     4224000   4.223999e-06   1.262314e+01   1.995558e+01   8.743273e-02  -8.626852e+04  -7.104655e+04  -9.615656e+04   8.299438e+10  -2.029526e+11   7.549379e+10   1.474312e+05   4.164943e-26   0.000000e+00   0.000000e+00
     4232000   4.231999e-06   1.262245e+01   1.995500e+01   8.666594e-02  -8.560666e+04  -7.266492e+04  -9.553672e+04   8.246493e+10  -2.016270e+11   7.946275e+10   1.474312e+05   4.164257e-26   0.000000e+00   0.000000e+00
     4240000   4.239999e-06   1.262177e+01   1.995442e+01   8.590423e-02  -8.494915e+04  -7.427241e+04  -9.488523e+04   8.190843e+10  -2.002350e+11   8.340427e+10   1.474312e+05   4.163566e-26   0.000000e+00   0.000000e+00
     4248000   4.247999e-06   1.262109e+01   1.995382e+01   8.514786e-02  -8.429620e+04  -7.586850e+04  -9.420232e+04   8.132505e+10  -1.987770e+11   8.731705e+10   1.474312e+05   4.162869e-26   0.000000e+00   0.000000e+00
     4256000   4.255999e-06   1.262042e+01   1.995320e+01   8.439707e-02  -8.364802e+04  -7.745266e+04  -9.348823e+04   8.071500e+10  -1.972535e+11   9.119981e+10   1.474312e+05   4.162167e-26   0.000000e+00   0.000000e+00
     4264000   4.263999e-06   1.261975e+01   1.995258e+01   8.365213e-02  -8.300483e+04  -7.902438e+04  -9.274320e+04   8.007848e+10  -1.956651e+11   9.505127e+10   1.474312e+05   4.161459e-26   0.000000e+00   0.000000e+00
     4272000   4.271999e-06   1.261909e+01   1.995194e+01   8.291326e-02  -8.236683e+04  -8.058313e+04  -9.196749e+04   7.941570e+10  -1.940123e+11   9.887017e+10   1.474312e+05   4.160746e-26   0.000000e+00   0.000000e+00
     4280000   4.279999e-06   1.261843e+01   1.995129e+01   8.218073e-02  -8.173425e+04  -8.212840e+04  -9.116137e+04   7.872689e+10  -1.922956e+11   1.026553e+11   1.474312e+05   4.160026e-26   0.000000e+00   0.000000e+00
     4288000   4.287999e-06   1.261778e+01   1.995062e+01   8.145476e-02  -8.110727e+04  -8.365969e+04  -9.032510e+04   7.801227e+10  -1.905157e+11   1.064053e+11   1.474312e+05   4.159299e-26   0.000000e+00   0.000000e+00
