     timestep     time              x             y              z              vx             vy             vz             ax             ay             az         v_magnitude      ELoss        Electronic      Nuclear
           0   0.000000e+00   1.277504e+01   3.695410e+01   1.000000e-01  -1.553092e+05   1.286410e+05  -1.203986e+05   0.000000e+00   0.000000e+00   0.000000e+00   2.348729e+05   0.000000e+00   0.000000e+00   0.000000e+00
        8000   7.999000e-09   1.277380e+01   3.695512e+01   9.903775e-02  -1.563838e+05   1.275563e+05  -1.201614e+05  -1.341708e+11  -1.354544e+11   3.082562e+10   2.348729e+05   7.331732e-26   0.000000e+00   0.000000e+00
       16000   1.599900e-08   1.277254e+01   3.695614e+01   9.807747e-02  -1.574559e+05   1.264738e+05  -1.199054e+05  -1.338317e+11  -1.351552e+11   3.318409e+10   2.348729e+05   7.327629e-26   0.000000e+00   0.000000e+00
       24000   2.399900e-08   1.277128e+01   3.695715e+01   9.711931e-02  -1.585251e+05   1.253938e+05  -1.196305e+05  -1.334722e+11  -1.348352e+11   3.553566e+10   2.348729e+05   7.323527e-26   0.000000e+00   0.000000e+00
       32000   3.199900e-08   1.277001e+01   3.695815e+01   9.616343e-02  -1.595914e+05   1.243165e+05  -1.193368e+05  -1.330925e+11  -1.344946e+11   3.787998e+10   2.348729e+05   7.319425e-26   0.000000e+00   0.000000e+00
       40000   3.999900e-08   1.276872e+01   3.695914e+01   9.520997e-02  -1.606545e+05   1.232420e+05  -1.190244e+05  -1.326925e+11  -1.341333e+11   4.021669e+10   2.348729e+05   7.315325e-26   0.000000e+00   0.000000e+00
       48000   4.799900e-08   1.276744e+01   3.696012e+01   9.425909e-02  -1.617144e+05   1.221704e+05  -1.186934e+05  -1.322725e+11  -1.337514e+11   4.254543e+10   2.348729e+05   7.311225e-26   0.000000e+00   0.000000e+00
       56000   5.599900e-08   1.276614e+01   3.696109e+01   9.331093e-02  -1.627708e+05   1.211020e+05  -1.183437e+05  -1.318324e+11  -1.333491e+11   4.486586e+10   2.348729e+05   7.307127e-26   0.000000e+00   0.000000e+00
       64000   6.399900e-08   1.276483e+01   3.696206e+01   9.236564e-02  -1.638237e+05   1.200369e+05  -1.179755e+05  -1.313725e+11  -1.329264e+11   4.717762e+10   2.348729e+05   7.303029e-26   0.000000e+00   0.000000e+00
       72000   7.199900e-08   1.276352e+01   3.696301e+01   9.142337e-02  -1.648727e+05   1.189753e+05  -1.175889e+05  -1.308926e+11  -1.324834e+11   4.948036e+10   2.348729e+05   7.298933e-26   0.000000e+00   0.000000e+00
       80000   7.999900e-08   1.276219e+01   3.696396e+01   9.048427e-02  -1.659179e+05   1.179172e+05  -1.171839e+05  -1.303931e+11  -1.320202e+11   5.177375e+10   2.348729e+05   7.294837e-26   0.000000e+00   0.000000e+00
       88000   8.799900e-08   1.276086e+01   3.696490e+01   8.954848e-02  -1.669590e+05   1.168630e+05  -1.167605e+05  -1.298738e+11  -1.315369e+11   5.405742e+10   2.348729e+05   7.290743e-26   0.000000e+00   0.000000e+00
       96000   9.599900e-08   1.275952e+01   3.696583e+01   8.861615e-02  -1.679958e+05   1.158127e+05  -1.163190e+05  -1.293351e+11  -1.310335e+11   5.633105e+10   2.348729e+05   7.286650e-26   0.000000e+00   0.000000e+00
      104000   1.039990e-07   1.275817e+01   3.696675e+01   8.768742e-02  -1.690283e+05   1.147665e+05  -1.158593e+05  -1.287769e+11  -1.305103e+11   5.859429e+10   2.348729e+05   7.282558e-26   0.000000e+00   0.000000e+00
      112000   1.119990e-07   1.275682e+01   3.696767e+01   8.676245e-02  -1.700562e+05   1.137246e+05  -1.153815e+05  -1.281994e+11  -1.299673e+11   6.084680e+10   2.348729e+05   7.278467e-26   0.000000e+00   0.000000e+00
      120000   1.199990e-07   1.275545e+01   3.696857e+01   8.584137e-02  -1.710794e+05   1.126871e+05  -1.148857e+05  -1.276027e+11  -1.294045e+11   6.308825e+10   2.348729e+05   7.274377e-26   0.000000e+00   0.000000e+00
      128000   1.279990e-07   1.275408e+01   3.696947e+01   8.492432e-02  -1.720978e+05   1.116542e+05  -1.143721e+05  -1.269869e+11  -1.288222e+11   6.531830e+10   2.348729e+05   7.270288e-26   0.000000e+00   0.000000e+00
      136000   1.359990e-07   1.275270e+01   3.697036e+01   8.401146e-02  -1.731111e+05   1.106260e+05  -1.138407e+05  -1.263521e+11  -1.282204e+11   6.753663e+10   2.348729e+05   7.266201e-26   0.000000e+00   0.000000e+00
      144000   1.439990e-07   1.275131e+01   3.697124e+01   8.310292e-02  -1.741194e+05   1.096027e+05  -1.132915e+05  -1.256984e+11  -1.275992e+11   6.974290e+10   2.348729e+05   7.262115e-26   0.000000e+00   0.000000e+00
      152000   1.519990e-07   1.274991e+01   3.697211e+01   8.219884e-02  -1.751223e+05   1.085844e+05  -1.127248e+05  -1.250260e+11  -1.269588e+11   7.193678e+10   2.348729e+05   7.258030e-26   0.000000e+00   0.000000e+00
      160000   1.599990e-07   1.274851e+01   3.697298e+01   8.129937e-02  -1.761197e+05   1.075714e+05  -1.121406e+05  -1.243350e+11  -1.262992e+11   7.411796e+10   2.348729e+05   7.253947e-26   0.000000e+00   0.000000e+00
      168000   1.679990e-07   1.274710e+01   3.697383e+01   8.040464e-02  -1.771116e+05   1.065637e+05  -1.115390e+05  -1.236255e+11  -1.256207e+11   7.628610e+10   2.348729e+05   7.249865e-26   0.000000e+00   0.000000e+00
      176000   1.759990e-07   1.274567e+01   3.697468e+01   7.951479e-02  -1.780977e+05   1.055615e+05  -1.109200e+05  -1.228977e+11  -1.249233e+11   7.844090e+10   2.348729e+05   7.245784e-26   0.000000e+00   0.000000e+00
      184000   1.839990e-07   1.274425e+01   3.697552e+01   7.862996e-02  -1.790779e+05   1.045650e+05  -1.102839e+05  -1.221516e+11  -1.242071e+11   8.058203e+10   2.348729e+05   7.241705e-26   0.000000e+00   0.000000e+00
      192000   1.919990e-07   1.274281e+01   3.697635e+01   7.775029e-02  -1.800521e+05   1.035743e+05  -1.096308e+05  -1.213875e+11  -1.234723e+11   8.270918e+10   2.348729e+05   7.237627e-26   0.000000e+00   0.000000e+00
      200000   1.999990e-07   1.274136e+01   3.697718e+01   7.687592e-02  -1.810200e+05   1.025895e+05  -1.089606e+05  -1.206053e+11  -1.227191e+11   8.482204e+10   2.348729e+05   7.233551e-26   0.000000e+00   0.000000e+00
      208000   2.079990e-07   1.273991e+01   3.697800e+01   7.600697e-02  -1.819817e+05   1.016108e+05  -1.082737e+05  -1.198054e+11  -1.219475e+11   8.692030e+10   2.348729e+05   7.229476e-26   0.000000e+00   0.000000e+00
      216000   2.159990e-07   1.273845e+01   3.697880e+01   7.514358e-02  -1.829369e+05   1.006384e+05  -1.075699e+05  -1.189879e+11  -1.211577e+11   8.900365e+10   2.348729e+05   7.225402e-26   0.000000e+00   0.000000e+00
      224000   2.239990e-07   1.273699e+01   3.697961e+01   7.428589e-02  -1.838855e+05   9.967233e+04  -1.068496e+05  -1.181528e+11  -1.203498e+11   9.107180e+10   2.348729e+05   7.221330e-26   0.000000e+00   0.000000e+00
      232000   2.319990e-07   1.273551e+01   3.698040e+01   7.343403e-02  -1.848273e+05   9.871282e+04  -1.061128e+05  -1.173003e+11  -1.195241e+11   9.312443e+10   2.348729e+05   7.217260e-26   0.000000e+00   0.000000e+00
      240000   2.399990e-07   1.273403e+01   3.698119e+01   7.258813e-02  -1.857622e+05   9.775999e+04  -1.053597e+05  -1.164306e+11  -1.186806e+11   9.516125e+10   2.348729e+05   7.213191e-26   0.000000e+00   0.000000e+00
      248000   2.479990e-07   1.273254e+01   3.698196e+01   7.174832e-02  -1.866901e+05   9.681398e+04  -1.045903e+05  -1.155438e+11  -1.178194e+11   9.718197e+10   2.348729e+05   7.209124e-26   0.000000e+00   0.000000e+00
      256000   2.559990e-07   1.273104e+01   3.698273e+01   7.091473e-02  -1.876109e+05   9.587493e+04  -1.038048e+05  -1.146402e+11  -1.169408e+11   9.918630e+10   2.348729e+05   7.205058e-26   0.000000e+00   0.000000e+00
      264000   2.639990e-07   1.272954e+01   3.698350e+01   7.008749e-02  -1.885243e+05   9.494297e+04  -1.030034e+05  -1.137198e+11  -1.160449e+11   1.011739e+11   2.348729e+05   7.200994e-26   0.000000e+00   0.000000e+00
      272000   2.719990e-07   1.272803e+01   3.698425e+01   6.926672e-02  -1.894303e+05   9.401825e+04  -1.021861e+05  -1.127827e+11  -1.151318e+11   1.031446e+11   2.348729e+05   7.196932e-26   0.000000e+00   0.000000e+00
      280000   2.799990e-07   1.272651e+01   3.698500e+01   6.845255e-02  -1.903288e+05   9.310091e+04  -1.013531e+05  -1.118293e+11  -1.142018e+11   1.050980e+11   2.348729e+05   7.192871e-26   0.000000e+00   0.000000e+00
      288000   2.879990e-07   1.272498e+01   3.698574e+01   6.764511e-02  -1.912196e+05   9.219107e+04  -1.005045e+05  -1.108596e+11  -1.132549e+11   1.070339e+11   2.348729e+05   7.188812e-26   0.000000e+00   0.000000e+00
      296000   2.959990e-07   1.272345e+01   3.698648e+01   6.684452e-02  -1.921025e+05   9.128887e+04  -9.964059e+04  -1.098738e+11  -1.122914e+11   1.089520e+11   2.348729e+05   7.184754e-26   0.000000e+00   0.000000e+00
      304000   3.039990e-07   1.272191e+01   3.698720e+01   6.605090e-02  -1.929775e+05   9.039445e+04  -9.876136e+04  -1.088721e+11  -1.113114e+11   1.108520e+11   2.348729e+05   7.180699e-26   0.000000e+00   0.000000e+00
      312000   3.119990e-07   1.272036e+01   3.698792e+01   6.526438e-02  -1.938444e+05   8.950794e+04  -9.786701e+04  -1.078546e+11  -1.103150e+11   1.127337e+11   2.348729e+05   7.176644e-26   0.000000e+00   0.000000e+00
      320000   3.199990e-07   1.271880e+01   3.698864e+01   6.448507e-02  -1.947031e+05   8.862946e+04  -9.695767e+04  -1.068215e+11  -1.093025e+11   1.145967e+11   2.348729e+05   7.172592e-26   0.000000e+00   0.000000e+00
      328000   3.279990e-07   1.271724e+01   3.698934e+01   6.371310e-02  -1.955535e+05   8.775914e+04  -9.603351e+04  -1.057730e+11  -1.082740e+11   1.164408e+11   2.348729e+05   7.168541e-26   0.000000e+00   0.000000e+00
      336000   3.359990e-07   1.271568e+01   3.699004e+01   6.294857e-02  -1.963955e+05   8.689712e+04  -9.509467e+04  -1.047093e+11  -1.072297e+11   1.182658e+11   2.348729e+05   7.164492e-26   0.000000e+00   0.000000e+00
      344000   3.439990e-07   1.271410e+01   3.699073e+01   6.219162e-02  -1.972288e+05   8.604351e+04  -9.414130e+04  -1.036306e+11  -1.061698e+11   1.200715e+11   2.348729e+05   7.160445e-26   0.000000e+00   0.000000e+00
      352000   3.519990e-07   1.271252e+01   3.699142e+01   6.144235e-02  -1.980535e+05   8.519844e+04  -9.317357e+04  -1.025370e+11  -1.050944e+11   1.218574e+11   2.348729e+05   7.156399e-26   0.000000e+00   0.000000e+00
      360000   3.599990e-07   1.271093e+01   3.699209e+01   6.070088e-02  -1.988694e+05   8.436204e+04  -9.219164e+04  -1.014287e+11  -1.040038e+11   1.236235e+11   2.348729e+05   7.152356e-26   0.000000e+00   0.000000e+00
      368000   3.679990e-07   1.270934e+01   3.699277e+01   5.996732e-02  -1.996763e+05   8.353442e+04  -9.119565e+04  -1.003059e+11  -1.028981e+11   1.253694e+11   2.348729e+05   7.148314e-26   0.000000e+00   0.000000e+00
      376000   3.759990e-07   1.270774e+01   3.699343e+01   5.924179e-02  -2.004742e+05   8.271571e+04  -9.018578e+04  -9.916876e+10  -1.017775e+11   1.270949e+11   2.348729e+05   7.144273e-26   0.000000e+00   0.000000e+00
      384000   3.839990e-07   1.270613e+01   3.699409e+01   5.852439e-02  -2.012630e+05   8.190602e+04  -8.916219e+04  -9.801753e+10  -1.006422e+11   1.287997e+11   2.348729e+05   7.140235e-26   0.000000e+00   0.000000e+00
      392000   3.919990e-07   1.270452e+01   3.699474e+01   5.781523e-02  -2.020425e+05   8.110548e+04  -8.812504e+04  -9.685238e+10  -9.949235e+10   1.304837e+11   2.348729e+05   7.136198e-26   0.000000e+00   0.000000e+00
      400000   3.999990e-07   1.270290e+01   3.699539e+01   5.711442e-02  -2.028126e+05   8.031419e+04  -8.707450e+04  -9.567349e+10  -9.832821e+10   1.321466e+11   2.348729e+05   7.132163e-26   0.000000e+00   0.000000e+00
      408000   4.079990e-07   1.270127e+01   3.699603e+01   5.642207e-02  -2.035732e+05   7.953226e+04  -8.601075e+04  -9.448107e+10  -9.714994e+10   1.337882e+11   2.348729e+05   7.128129e-26   0.000000e+00   0.000000e+00
      416000   4.159990e-07   1.269964e+01   3.699666e+01   5.573828e-02  -2.043242e+05   7.875996e+04  -8.493401e+04  -9.323078e+10  -9.588208e+10   1.353709e+11   2.348729e+05   7.117628e-26   0.000000e+00   0.000000e+00
      424000   4.239990e-07   1.269800e+01   3.699729e+01   5.506316e-02  -2.050652e+05   7.799772e+04  -8.384464e+04  -9.201307e+10  -9.467611e+10   1.369690e+11   2.348729e+05   7.113666e-26   0.000000e+00   0.000000e+00
      432000   4.319990e-07   1.269636e+01   3.699791e+01   5.439680e-02  -2.057963e+05   7.724518e+04  -8.274256e+04  -9.078242e+10  -9.345661e+10   1.385452e+11   2.348729e+05   7.109707e-26   0.000000e+00   0.000000e+00
      440000   4.399990e-07   1.269471e+01   3.699852e+01   5.373931e-02  -2.065176e+05   7.650245e+04  -8.162797e+04  -8.953902e+10  -9.222377e+10   1.400991e+11   2.348729e+05   7.105752e-26   0.000000e+00   0.000000e+00
      448000   4.479990e-07   1.269306e+01   3.699913e+01   5.309079e-02  -2.072289e+05   7.576963e+04  -8.050104e+04  -8.828308e+10  -9.097780e+10   1.416307e+11   2.348729e+05   7.101800e-26   0.000000e+00   0.000000e+00
      456000   4.559990e-07   1.269140e+01   3.699974e+01   5.245133e-02  -2.079301e+05   7.504684e+04  -7.936194e+04  -8.701480e+10  -8.971890e+10   1.431397e+11   2.348729e+05   7.097850e-26   0.000000e+00   0.000000e+00
      464000   4.639990e-07   1.268973e+01   3.700033e+01   5.182103e-02  -2.086213e+05   7.433374e+04  -7.821076e+04  -8.577648e+10  -8.854241e+10   1.446486e+11   2.348729e+05   7.099926e-26   0.000000e+00   0.000000e+00
      472000   4.719990e-07   1.268806e+01   3.700092e+01   5.119999e-02  -2.093024e+05   7.363054e+04  -7.704770e+04  -8.448282e+10  -8.725664e+10   1.461130e+11   2.348729e+05   7.095892e-26   0.000000e+00   0.000000e+00
      480000   4.799990e-07   1.268638e+01   3.700151e+01   5.058830e-02  -2.099730e+05   7.293767e+04  -7.587301e+04  -8.317746e+10  -8.595854e+10   1.475541e+11   2.348729e+05   7.091862e-26   0.000000e+00   0.000000e+00
      488000   4.879990e-07   1.268470e+01   3.700209e+01   4.998605e-02  -2.106332e+05   7.225523e+04  -7.468689e+04  -8.186059e+10  -8.464834e+10   1.489717e+11   2.348729e+05   7.087835e-26   0.000000e+00   0.000000e+00
      496000   4.959990e-07   1.268301e+01   3.700267e+01   4.939334e-02  -2.112828e+05   7.158333e+04  -7.348953e+04  -8.053244e+10  -8.332624e+10   1.503658e+11   2.348729e+05   7.083812e-26   0.000000e+00   0.000000e+00
      504000   5.039990e-07   1.268132e+01   3.700324e+01   4.881025e-02  -2.119217e+05   7.092204e+04  -7.228110e+04  -7.919321e+10  -8.199246e+10   1.517360e+11   2.348729e+05   7.079793e-26   0.000000e+00   0.000000e+00
      512000   5.119990e-07   1.267962e+01   3.700380e+01   4.823687e-02  -2.125498e+05   7.027148e+04  -7.106181e+04  -7.784313e+10  -8.064723e+10   1.530823e+11   2.348729e+05   7.075777e-26   0.000000e+00   0.000000e+00
      520000   5.199990e-07   1.267792e+01   3.700436e+01   4.767329e-02  -2.131671e+05   6.963172e+04  -6.983185e+04  -7.648240e+10  -7.929074e+10   1.544044e+11   2.348729e+05   7.071764e-26   0.000000e+00   0.000000e+00
      528000   5.279990e-07   1.267621e+01   3.700492e+01   4.711959e-02  -2.137735e+05   6.900286e+04  -6.859141e+04  -7.511125e+10  -7.792323e+10   1.557022e+11   2.348729e+05   7.067755e-26   0.000000e+00   0.000000e+00
      536000   5.359990e-07   1.267450e+01   3.700547e+01   4.657585e-02  -2.143689e+05   6.838498e+04  -6.734068e+04  -7.372990e+10  -7.654491e+10   1.569755e+11   2.348729e+05   7.063750e-26   0.000000e+00   0.000000e+00
      544000   5.439990e-07   1.267278e+01   3.700601e+01   4.604216e-02  -2.149532e+05   6.777817e+04  -6.607986e+04  -7.233856e+10  -7.515601e+10   1.582242e+11   2.348729e+05   7.059748e-26   0.000000e+00   0.000000e+00
      552000   5.519990e-07   1.267106e+01   3.700655e+01   4.551860e-02  -2.155263e+05   6.718251e+04  -6.480916e+04  -7.093746e+10  -7.375675e+10   1.594480e+11   2.348729e+05   7.055749e-26   0.000000e+00   0.000000e+00
      560000   5.599990e-07   1.266933e+01   3.700709e+01   4.500524e-02  -2.160881e+05   6.659809e+04  -6.352876e+04  -6.952683e+10  -7.234735e+10   1.606468e+11   2.348729e+05   7.051754e-26   0.000000e+00   0.000000e+00
      568000   5.679990e-07   1.266760e+01   3.700762e+01   4.450217e-02  -2.166387e+05   6.602498e+04  -6.223887e+04  -6.810687e+10  -7.092804e+10   1.618205e+11   2.348729e+05   7.047762e-26   0.000000e+00   0.000000e+00
      576000   5.759990e-07   1.266586e+01   3.700814e+01   4.400945e-02  -2.171778e+05   6.546327e+04  -6.093970e+04  -6.667783e+10  -6.949904e+10   1.629689e+11   2.348729e+05   7.043774e-26   0.000000e+00   0.000000e+00
      584000   5.839990e-07   1.266412e+01   3.700866e+01   4.352715e-02  -2.177055e+05   6.491302e+04  -5.963144e+04  -6.523992e+10  -6.806059e+10   1.640919e+11   2.348729e+05   7.039789e-26   0.000000e+00   0.000000e+00
      592000   5.919990e-07   1.266238e+01   3.700918e+01   4.305537e-02  -2.182216e+05   6.437432e+04  -5.831430e+04  -6.379338e+10  -6.661291e+10   1.651893e+11   2.348729e+05   7.035808e-26   0.000000e+00   0.000000e+00
      600000   5.999990e-07   1.266063e+01   3.700969e+01   4.259415e-02  -2.187262e+05   6.384724e+04  -5.698848e+04  -6.233842e+10  -6.515623e+10   1.662610e+11   2.348729e+05   7.031830e-26   0.000000e+00   0.000000e+00
      608000   6.079990e-07   1.265888e+01   3.701020e+01   4.214357e-02  -2.192190e+05   6.333185e+04  -5.565419e+04  -6.087529e+10  -6.369079e+10   1.673069e+11   2.348729e+05   7.027855e-26   0.000000e+00   0.000000e+00
      616000   6.159990e-07   1.265713e+01   3.701071e+01   4.170370e-02  -2.197001e+05   6.282821e+04  -5.431163e+04  -5.940420e+10  -6.221681e+10   1.683268e+11   2.348729e+05   7.023883e-26   0.000000e+00   0.000000e+00
      624000   6.239990e-07   1.265537e+01   3.701121e+01   4.127461e-02  -2.201695e+05   6.233640e+04  -5.296103e+04  -5.792540e+10  -6.073452e+10   1.693207e+11   2.348729e+05   7.019915e-26   0.000000e+00   0.000000e+00
      632000   6.319990e-07   1.265360e+01   3.701170e+01   4.085635e-02  -2.206269e+05   6.185649e+04  -5.160257e+04  -5.643910e+10  -5.924417e+10   1.702883e+11   2.348729e+05   7.015949e-26   0.000000e+00   0.000000e+00
      640000   6.399990e-07   1.265184e+01   3.701220e+01   4.044899e-02  -2.210725e+05   6.138852e+04  -5.023648e+04  -5.494555e+10  -5.774598e+10   1.712296e+11   2.348729e+05   7.011987e-26   0.000000e+00   0.000000e+00
      648000   6.479990e-07   1.265007e+01   3.701269e+01   4.005258e-02  -2.215060e+05   6.093257e+04  -4.886297e+04  -5.344498e+10  -5.624019e+10   1.721445e+11   2.348729e+05   7.008028e-26   0.000000e+00   0.000000e+00
      656000   6.559990e-07   1.264829e+01   3.701317e+01   3.966720e-02  -2.219276e+05   6.048870e+04  -4.748224e+04  -5.193762e+10  -5.472704e+10   1.730328e+11   2.348729e+05   7.004072e-26   0.000000e+00   0.000000e+00
      664000   6.639990e-07   1.264652e+01   3.701365e+01   3.929289e-02  -2.223370e+05   6.005696e+04  -4.609451e+04  -5.042370e+10  -5.320676e+10   1.738945e+11   2.348729e+05   7.000119e-26   0.000000e+00   0.000000e+00
      672000   6.719990e-07   1.264473e+01   3.701413e+01   3.892971e-02  -2.227343e+05   5.963741e+04  -4.470000e+04  -4.890346e+10  -5.167959e+10   1.747295e+11   2.348729e+05   6.996169e-26   0.000000e+00   0.000000e+00
      680000   6.799990e-07   1.264295e+01   3.701461e+01   3.857771e-02  -2.231195e+05   5.923011e+04  -4.329891e+04  -4.737714e+10  -5.014577e+10   1.755376e+11   2.348729e+05   6.992222e-26   0.000000e+00   0.000000e+00
      688000   6.879990e-07   1.264116e+01   3.701508e+01   3.823694e-02  -2.234924e+05   5.883510e+04  -4.189147e+04  -4.584497e+10  -4.860554e+10   1.763188e+11   2.348729e+05   6.988278e-26   0.000000e+00   0.000000e+00
      696000   6.959990e-07   1.263938e+01   3.701555e+01   3.790746e-02  -2.238530e+05   5.845243e+04  -4.047788e+04  -4.430719e+10  -4.705913e+10   1.770730e+11   2.348729e+05   6.984337e-26   0.000000e+00   0.000000e+00
      704000   7.039990e-07   1.263758e+01   3.701602e+01   3.758931e-02  -2.242013e+05   5.808217e+04  -3.905837e+04  -4.276403e+10  -4.550679e+10   1.778000e+11   2.348729e+05   6.980398e-26   0.000000e+00   0.000000e+00
      712000   7.119990e-07   1.263579e+01   3.701648e+01   3.728254e-02  -2.245372e+05   5.772434e+04  -3.763315e+04  -4.121574e+10  -4.394876e+10   1.785000e+11   2.348729e+05   6.976463e-26   0.000000e+00   0.000000e+00
      720000   7.199990e-07   1.263399e+01   3.701694e+01   3.698719e-02  -2.248607e+05   5.737900e+04  -3.620244e+04  -3.966254e+10  -4.238528e+10   1.791726e+11   2.348729e+05   6.972530e-26   0.000000e+00   0.000000e+00
      728000   7.279990e-07   1.263219e+01   3.701740e+01   3.670331e-02  -2.251718e+05   5.704619e+04  -3.476646e+04  -3.810469e+10  -4.081659e+10   1.798180e+11   2.348729e+05   6.968599e-26   0.000000e+00   0.000000e+00
      736000   7.359990e-07   1.263039e+01   3.701785e+01   3.643094e-02  -2.254704e+05   5.672595e+04  -3.332543e+04  -3.654242e+10  -3.924293e+10   1.804359e+11   2.348729e+05   6.964671e-26   0.000000e+00   0.000000e+00
      744000   7.439990e-07   1.262858e+01   3.701830e+01   3.617012e-02  -2.257564e+05   5.641832e+04  -3.187956e+04  -3.497596e+10  -3.766454e+10   1.810264e+11   2.348729e+05   6.960746e-26   0.000000e+00   0.000000e+00
      752000   7.519990e-07   1.262678e+01   3.701875e+01   3.592088e-02  -2.260300e+05   5.612333e+04  -3.042908e+04  -3.340557e+10  -3.608167e+10   1.815895e+11   2.348729e+05   6.956823e-26   0.000000e+00   0.000000e+00
      760000   7.599990e-07   1.262497e+01   3.701920e+01   3.568327e-02  -2.262909e+05   5.584103e+04  -2.897420e+04  -3.183147e+10  -3.449456e+10   1.821249e+11   2.348729e+05   6.952903e-26   0.000000e+00   0.000000e+00
      768000   7.679990e-07   1.262316e+01   3.701965e+01   3.545731e-02  -2.265392e+05   5.557143e+04  -2.751515e+04  -3.025390e+10  -3.290345e+10   1.826328e+11   2.348729e+05   6.948985e-26   0.000000e+00   0.000000e+00
      776000   7.759990e-07   1.262134e+01   3.702009e+01   3.524303e-02  -2.267750e+05   5.531458e+04  -2.605215e+04  -2.867311e+10  -3.130858e+10   1.831130e+11   2.348729e+05   6.945069e-26   0.000000e+00   0.000000e+00
      784000   7.839990e-07   1.261953e+01   3.702053e+01   3.504048e-02  -2.269980e+05   5.507051e+04  -2.458542e+04  -2.708934e+10  -2.971021e+10   1.835655e+11   2.348729e+05   6.941156e-26   0.000000e+00   0.000000e+00
      792000   7.919990e-07   1.261771e+01   3.702097e+01   3.484968e-02  -2.272084e+05   5.483923e+04  -2.311518e+04  -2.550283e+10  -2.810856e+10   1.839904e+11   2.348729e+05   6.937244e-26   0.000000e+00   0.000000e+00
      800000   7.999990e-07   1.261589e+01   3.702141e+01   3.467065e-02  -2.274060e+05   5.462078e+04  -2.164165e+04  -2.391382e+10  -2.650389e+10   1.843874e+11   2.348729e+05   6.933335e-26   0.000000e+00   0.000000e+00
      808000   8.079990e-07   1.261407e+01   3.702185e+01   3.450342e-02  -2.275910e+05   5.441518e+04  -2.016505e+04  -2.232254e+10  -2.489644e+10   1.847567e+11   2.348729e+05   6.929428e-26   0.000000e+00   0.000000e+00
      816000   8.159990e-07   1.261225e+01   3.702228e+01   3.434801e-02  -2.277632e+05   5.422244e+04  -1.868561e+04  -2.072924e+10  -2.328645e+10   1.850982e+11   2.348729e+05   6.925523e-26   0.000000e+00   0.000000e+00
      824000   8.239990e-07   1.261043e+01   3.702271e+01   3.420446e-02  -2.279227e+05   5.404260e+04  -1.720355e+04  -1.913415e+10  -2.167417e+10   1.854119e+11   2.348729e+05   6.921620e-26   0.000000e+00   0.000000e+00
      832000   8.319990e-07   1.260860e+01   3.702315e+01   3.407276e-02  -2.280693e+05   5.387567e+04  -1.571910e+04  -1.753753e+10  -2.005984e+10   1.856977e+11   2.348729e+05   6.917719e-26   0.000000e+00   0.000000e+00
      840000   8.399990e-07   1.260678e+01   3.702358e+01   3.395296e-02  -2.282032e+05   5.372165e+04  -1.423246e+04  -1.593960e+10  -1.844370e+10   1.859557e+11   2.348729e+05   6.913820e-26   0.000000e+00   0.000000e+00
      848000   8.479990e-07   1.260495e+01   3.702401e+01   3.384505e-02  -2.283244e+05   5.358057e+04  -1.274388e+04  -1.434062e+10  -1.682600e+10   1.861859e+11   2.348729e+05   6.909922e-26   0.000000e+00   0.000000e+00
      856000   8.559990e-07   1.260313e+01   3.702443e+01   3.374906e-02  -2.284327e+05   5.345244e+04  -1.125356e+04  -1.274080e+10  -1.520698e+10   1.863881e+11   2.348729e+05   6.906027e-26   0.000000e+00   0.000000e+00
      864000   8.639990e-07   1.260130e+01   3.702486e+01   3.366500e-02  -2.285282e+05   5.333726e+04  -9.761742e+03  -1.114041e+10  -1.358689e+10   1.865626e+11   2.348729e+05   6.902132e-26   0.000000e+00   0.000000e+00
      872000   8.719990e-07   1.259947e+01   3.702529e+01   3.359287e-02  -2.286109e+05   5.323507e+04  -8.268672e+03  -9.537324e+09  -1.195805e+10   1.866943e+11   2.348729e+05   6.897101e-26   0.000000e+00   0.000000e+00
      880000   8.799990e-07   1.259764e+01   3.702571e+01   3.353270e-02  -2.286808e+05   5.314589e+04  -6.774620e+03  -7.937130e+09  -1.033836e+10   1.868139e+11   2.348729e+05   6.893285e-26   0.000000e+00   0.000000e+00
      888000   8.879990e-07   1.259581e+01   3.702614e+01   3.348448e-02  -2.287379e+05   5.306966e+04  -5.279724e+03  -6.337046e+09  -8.718307e+09   1.869056e+11   2.348730e+05   6.889469e-26   0.000000e+00   0.000000e+00
      896000   8.959990e-07   1.259398e+01   3.702656e+01   3.344823e-02  -2.287822e+05   5.300640e+04  -3.784204e+03  -4.737310e+09  -7.098125e+09   1.869696e+11   2.348730e+05   6.885654e-26   0.000000e+00   0.000000e+00
      904000   9.039990e-07   1.259215e+01   3.702699e+01   3.342394e-02  -2.288137e+05   5.295609e+04  -2.288284e+03  -3.138160e+09  -5.478059e+09   1.870059e+11   2.348730e+05   6.881838e-26   0.000000e+00   0.000000e+00
      912000   9.119990e-07   1.259032e+01   3.702741e+01   3.341162e-02  -2.288324e+05   5.291875e+04  -7.921838e+02  -1.539833e+09  -3.858349e+09   1.870144e+11   2.348730e+05   6.878023e-26   0.000000e+00   0.000000e+00
      920000   9.199990e-07   1.258849e+01   3.702783e+01   3.341126e-02  -2.288384e+05   5.289436e+04   7.038733e+02   5.743353e+07  -2.239237e+09   1.869952e+11   2.348730e+05   6.874207e-26   0.000000e+00   0.000000e+00
      928000   9.279990e-07   1.258666e+01   3.702826e+01   3.342288e-02  -2.288315e+05   5.288292e+04   2.199666e+03   1.653404e+09  -6.209609e+08   1.869484e+11   2.348730e+05   6.870391e-26   0.000000e+00   0.000000e+00
      936000   9.359990e-07   1.258483e+01   3.702868e+01   3.344646e-02  -2.288119e+05   5.288442e+04   3.694974e+03   3.247842e+09   9.962385e+08   1.868739e+11   2.348730e+05   6.866575e-26   0.000000e+00   0.000000e+00
      944000   9.439990e-07   1.258300e+01   3.702910e+01   3.348199e-02  -2.287796e+05   5.289886e+04   5.189576e+03   4.840513e+09   2.612123e+09   1.867719e+11   2.348730e+05   6.862759e-26   0.000000e+00   0.000000e+00
      952000   9.519990e-07   1.258117e+01   3.702953e+01   3.352949e-02  -2.287345e+05   5.292621e+04   6.683251e+03   6.431181e+09   4.226454e+09   1.866423e+11   2.348730e+05   6.858943e-26   0.000000e+00   0.000000e+00
      960000   9.599990e-07   1.257934e+01   3.702995e+01   3.358892e-02  -2.286767e+05   5.296648e+04   8.175779e+03   8.019614e+09   5.838994e+09   1.864853e+11   2.348730e+05   6.855126e-26   0.000000e+00   0.000000e+00
      968000   9.679990e-07   1.257751e+01   3.703037e+01   3.366029e-02  -2.286062e+05   5.301963e+04   9.666942e+03   9.605577e+09   7.449506e+09   1.863008e+11   2.348730e+05   6.851308e-26   0.000000e+00   0.000000e+00
      976000   9.759990e-07   1.257568e+01   3.703080e+01   3.374359e-02  -2.285230e+05   5.308567e+04   1.115652e+04   1.118884e+10   9.057753e+09   1.860889e+11   2.348730e+05   6.847490e-26   0.000000e+00   0.000000e+00
      984000   9.839990e-07   1.257385e+01   3.703122e+01   3.383879e-02  -2.284271e+05   5.316455e+04   1.264429e+04   1.276916e+10   1.066350e+10   1.858497e+11   2.348730e+05   6.843671e-26   0.000000e+00   0.000000e+00
      992000   9.919990e-07   1.257202e+01   3.703165e+01   3.394589e-02  -2.283187e+05   5.325628e+04   1.413004e+04   1.434633e+10   1.226651e+10   1.855833e+11   2.348730e+05   6.839852e-26   0.000000e+00   0.000000e+00
     1000000   9.999990e-07   1.257020e+01   3.703207e+01   3.406487e-02  -2.281976e+05   5.336081e+04   1.561355e+04   1.592009e+10   1.386656e+10   1.852897e+11   2.348730e+05   6.836032e-26   0.000000e+00   0.000000e+00
     1008000   1.007999e-06   1.256837e+01   3.703250e+01   3.419570e-02  -2.280640e+05   5.347813e+04   1.709461e+04   1.749023e+10   1.546340e+10   1.849691e+11   2.348730e+05   6.832211e-26   0.000000e+00   0.000000e+00
     1016000   1.015999e-06   1.256655e+01   3.703293e+01   3.433838e-02  -2.279178e+05   5.360822e+04   1.857298e+04   1.905652e+10   1.705680e+10   1.846214e+11   2.348730e+05   6.828389e-26   0.000000e+00   0.000000e+00
     1024000   1.023999e-06   1.256473e+01   3.703336e+01   3.449286e-02  -2.277591e+05   5.375103e+04   2.004847e+04   2.061873e+10   1.864654e+10   1.842468e+11   2.348730e+05   6.824566e-26   0.000000e+00   0.000000e+00
     1032000   1.031999e-06   1.256291e+01   3.703379e+01   3.465914e-02  -2.275879e+05   5.390655e+04   2.152086e+04   2.217663e+10   2.023239e+10   1.838453e+11   2.348730e+05   6.820742e-26   0.000000e+00   0.000000e+00
     1040000   1.039999e-06   1.256109e+01   3.703422e+01   3.483719e-02  -2.274043e+05   5.407474e+04   2.298993e+04   2.373000e+10   2.181410e+10   1.834170e+11   2.348730e+05   6.816918e-26   0.000000e+00   0.000000e+00
     1048000   1.047999e-06   1.255927e+01   3.703466e+01   3.502697e-02  -2.272082e+05   5.425557e+04   2.445546e+04   2.527860e+10   2.339147e+10   1.829621e+11   2.348730e+05   6.813091e-26   0.000000e+00   0.000000e+00
     1056000   1.055999e-06   1.255745e+01   3.703509e+01   3.522847e-02  -2.269998e+05   5.444900e+04   2.591725e+04   2.682223e+10   2.496424e+10   1.824807e+11   2.348730e+05   6.809264e-26   0.000000e+00   0.000000e+00
     1064000   1.063999e-06   1.255563e+01   3.703553e+01   3.544164e-02  -2.267791e+05   5.465499e+04   2.737508e+04   2.836065e+10   2.653221e+10   1.819727e+11   2.348730e+05   6.805435e-26   0.000000e+00   0.000000e+00
     1072000   1.071999e-06   1.255382e+01   3.703596e+01   3.566646e-02  -2.265460e+05   5.487350e+04   2.882874e+04   2.989364e+10   2.809514e+10   1.814384e+11   2.348730e+05   6.801605e-26   0.000000e+00   0.000000e+00
     1080000   1.079999e-06   1.255201e+01   3.703640e+01   3.590289e-02  -2.263008e+05   5.510450e+04   3.027803e+04   3.142099e+10   2.965282e+10   1.808779e+11   2.348730e+05   6.797774e-26   0.000000e+00   0.000000e+00
     1088000   1.087999e-06   1.255020e+01   3.703685e+01   3.615089e-02  -2.260433e+05   5.534793e+04   3.172272e+04   3.294247e+10   3.120501e+10   1.802912e+11   2.348730e+05   6.793941e-26   0.000000e+00   0.000000e+00
     1096000   1.095999e-06   1.254839e+01   3.703729e+01   3.641044e-02  -2.257737e+05   5.560376e+04   3.316262e+04   3.445787e+10   3.275149e+10   1.796785e+11   2.348730e+05   6.790107e-26   0.000000e+00   0.000000e+00
     1104000   1.103999e-06   1.254659e+01   3.703774e+01   3.668148e-02  -2.254920e+05   5.587194e+04   3.459751e+04   3.596697e+10   3.429205e+10   1.790399e+11   2.348730e+05   6.786271e-26   0.000000e+00   0.000000e+00
     1112000   1.111999e-06   1.254479e+01   3.703818e+01   3.696398e-02  -2.251983e+05   5.615242e+04   3.602719e+04   3.746955e+10   3.582646e+10   1.783755e+11   2.348730e+05   6.782433e-26   0.000000e+00   0.000000e+00
     1120000   1.119999e-06   1.254299e+01   3.703863e+01   3.725790e-02  -2.248925e+05   5.644515e+04   3.745145e+04   3.896540e+10   3.735451e+10   1.776855e+11   2.348730e+05   6.778594e-26   0.000000e+00   0.000000e+00
     1128000   1.127999e-06   1.254119e+01   3.703909e+01   3.756319e-02  -2.245748e+05   5.675008e+04   3.887008e+04   4.045430e+10   3.887597e+10   1.769700e+11   2.348730e+05   6.774753e-26   0.000000e+00   0.000000e+00
     1136000   1.135999e-06   1.253939e+01   3.703954e+01   3.787981e-02  -2.242453e+05   5.706715e+04   4.028290e+04   4.193605e+10   4.039064e+10   1.762291e+11   2.348730e+05   6.770910e-26   0.000000e+00   0.000000e+00
     1144000   1.143999e-06   1.253760e+01   3.704000e+01   3.820770e-02  -2.239039e+05   5.739631e+04   4.168968e+04   4.341043e+10   4.189829e+10   1.754629e+11   2.348730e+05   6.767065e-26   0.000000e+00   0.000000e+00
     1152000   1.151999e-06   1.253581e+01   3.704046e+01   3.854683e-02  -2.235507e+05   5.773750e+04   4.309024e+04   4.487724e+10   4.339872e+10   1.746716e+11   2.348730e+05   6.763219e-26   0.000000e+00   0.000000e+00
     1160000   1.159999e-06   1.253402e+01   3.704092e+01   3.889713e-02  -2.231859e+05   5.809067e+04   4.448436e+04   4.633627e+10   4.489171e+10   1.738554e+11   2.348730e+05   6.759370e-26   0.000000e+00   0.000000e+00
     1168000   1.167999e-06   1.253224e+01   3.704139e+01   3.925856e-02  -2.228094e+05   5.845575e+04   4.587185e+04   4.778731e+10   4.637705e+10   1.730143e+11   2.348730e+05   6.755519e-26   0.000000e+00   0.000000e+00
     1176000   1.175999e-06   1.253046e+01   3.704186e+01   3.963106e-02  -2.224213e+05   5.883268e+04   4.725252e+04   4.923015e+10   4.785454e+10   1.721486e+11   2.348730e+05   6.751667e-26   0.000000e+00   0.000000e+00
     1184000   1.183999e-06   1.252868e+01   3.704233e+01   4.001458e-02  -2.220217e+05   5.922140e+04   4.862617e+04   5.066460e+10   4.932396e+10   1.712584e+11   2.348730e+05   6.747812e-26   0.000000e+00   0.000000e+00
     1192000   1.191999e-06   1.252691e+01   3.704281e+01   4.040906e-02  -2.216107e+05   5.962185e+04   4.999259e+04   5.209045e+10   5.078512e+10   1.703439e+11   2.348730e+05   6.743955e-26   0.000000e+00   0.000000e+00
     1200000   1.199999e-06   1.252513e+01   3.704329e+01   4.081444e-02  -2.211883e+05   6.003394e+04   5.135160e+04   5.350751e+10   5.223780e+10   1.694052e+11   2.348730e+05   6.740096e-26   0.000000e+00   0.000000e+00
     1208000   1.207999e-06   1.252337e+01   3.704377e+01   4.123066e-02  -2.207546e+05   6.045763e+04   5.270301e+04   5.491557e+10   5.368180e+10   1.684424e+11   2.348730e+05   6.736235e-26   0.000000e+00   0.000000e+00
     1216000   1.215999e-06   1.252160e+01   3.704425e+01   4.165767e-02  -2.203096e+05   6.089283e+04   5.404662e+04   5.631443e+10   5.511692e+10   1.674558e+11   2.348730e+05   6.732371e-26   0.000000e+00   0.000000e+00
     1224000   1.223999e-06   1.251984e+01   3.704474e+01   4.209539e-02  -2.198536e+05   6.133948e+04   5.538224e+04   5.770391e+10   5.654297e+10   1.664456e+11   2.348730e+05   6.728505e-26   0.000000e+00   0.000000e+00
     1232000   1.231999e-06   1.251808e+01   3.704523e+01   4.254376e-02  -2.193864e+05   6.179750e+04   5.670968e+04   5.908381e+10   5.795974e+10   1.654118e+11   2.348730e+05   6.724637e-26   0.000000e+00   0.000000e+00
     1240000   1.239999e-06   1.251633e+01   3.704573e+01   4.300272e-02  -2.189082e+05   6.226681e+04   5.802876e+04   6.045393e+10   5.936704e+10   1.643547e+11   2.348730e+05   6.720766e-26   0.000000e+00   0.000000e+00
     1248000   1.247999e-06   1.251458e+01   3.704623e+01   4.347220e-02  -2.184192e+05   6.274734e+04   5.933930e+04   6.181410e+10   6.076467e+10   1.632745e+11   2.348730e+05   6.716893e-26   0.000000e+00   0.000000e+00
     1256000   1.255999e-06   1.251284e+01   3.704673e+01   4.395213e-02  -2.179193e+05   6.323902e+04   6.064109e+04   6.316411e+10   6.215245e+10   1.621714e+11   2.348730e+05   6.713017e-26   0.000000e+00   0.000000e+00
     1264000   1.263999e-06   1.251110e+01   3.704724e+01   4.444243e-02  -2.174086e+05   6.374176e+04   6.193398e+04   6.450378e+10   6.353017e+10   1.610454e+11   2.348730e+05   6.709139e-26   0.000000e+00   0.000000e+00
     1272000   1.271999e-06   1.250936e+01   3.704775e+01   4.494305e-02  -2.168872e+05   6.425548e+04   6.321776e+04   6.583294e+10   6.489766e+10   1.598969e+11   2.348730e+05   6.705259e-26   0.000000e+00   0.000000e+00
     1280000   1.279999e-06   1.250763e+01   3.704827e+01   4.545389e-02  -2.163553e+05   6.478009e+04   6.449227e+04   6.715139e+10   6.625472e+10   1.587261e+11   2.348730e+05   6.701376e-26   0.000000e+00   0.000000e+00
     1288000   1.287999e-06   1.250590e+01   3.704879e+01   4.597490e-02  -2.158128e+05   6.531552e+04   6.575732e+04   6.845895e+10   6.760117e+10   1.575330e+11   2.348730e+05   6.697490e-26   0.000000e+00   0.000000e+00
     1296000   1.295999e-06   1.250417e+01   3.704932e+01   4.650598e-02  -2.152600e+05   6.586168e+04   6.701273e+04   6.975545e+10   6.893682e+10   1.563180e+11   2.348730e+05   6.693602e-26   0.000000e+00   0.000000e+00
     1304000   1.303999e-06   1.250245e+01   3.704984e+01   4.704707e-02  -2.146968e+05   6.641849e+04   6.825834e+04   7.104070e+10   7.026149e+10   1.550811e+11   2.348730e+05   6.689711e-26   0.000000e+00   0.000000e+00
     1312000   1.311999e-06   1.250074e+01   3.705038e+01   4.759809e-02  -2.141233e+05   6.698584e+04   6.949397e+04   7.231454e+10   7.157501e+10   1.538227e+11   2.348730e+05   6.685818e-26   0.000000e+00   0.000000e+00
     1320000   1.319999e-06   1.249903e+01   3.705092e+01   4.815895e-02  -2.135397e+05   6.756373e+04   7.071967e+04   7.359792e+10   7.289351e+10   1.525905e+11   2.348730e+05   6.685854e-26   0.000000e+00   0.000000e+00
     1328000   1.327999e-06   1.249732e+01   3.705146e+01   4.872958e-02  -2.129459e+05   6.815205e+04   7.193520e+04   7.484906e+10   7.418430e+10   1.512892e+11   2.348730e+05   6.681947e-26   0.000000e+00   0.000000e+00
     1336000   1.335999e-06   1.249562e+01   3.705201e+01   4.930989e-02  -2.123421e+05   6.875065e+04   7.314024e+04   7.608825e+10   7.546340e+10   1.499669e+11   2.348730e+05   6.678038e-26   0.000000e+00   0.000000e+00
     1344000   1.343999e-06   1.249392e+01   3.705256e+01   4.989979e-02  -2.117285e+05   6.935943e+04   7.433461e+04   7.731535e+10   7.673062e+10   1.486239e+11   2.348730e+05   6.674127e-26   0.000000e+00   0.000000e+00
     1352000   1.351999e-06   1.249223e+01   3.705312e+01   5.049921e-02  -2.111051e+05   6.997831e+04   7.551816e+04   7.853018e+10   7.798581e+10   1.472604e+11   2.348730e+05   6.670213e-26   0.000000e+00   0.000000e+00
     1360000   1.359999e-06   1.249055e+01   3.705368e+01   5.110805e-02  -2.104720e+05   7.060718e+04   7.669073e+04   7.973257e+10   7.922880e+10   1.458767e+11   2.348730e+05   6.666296e-26   0.000000e+00   0.000000e+00
     1368000   1.367999e-06   1.248886e+01   3.705425e+01   5.172623e-02  -2.098294e+05   7.124594e+04   7.785214e+04   8.092237e+10   8.045942e+10   1.444728e+11   2.348730e+05   6.662377e-26   0.000000e+00   0.000000e+00
     1376000   1.375999e-06   1.248719e+01   3.705482e+01   5.235366e-02  -2.091773e+05   7.189450e+04   7.900224e+04   8.209942e+10   8.167750e+10   1.430492e+11   2.348730e+05   6.658455e-26   0.000000e+00   0.000000e+00
     1384000   1.383999e-06   1.248552e+01   3.705540e+01   5.299024e-02  -2.085159e+05   7.255275e+04   8.014087e+04   8.326355e+10   8.288289e+10   1.416059e+11   2.348730e+05   6.654531e-26   0.000000e+00   0.000000e+00
     1392000   1.391999e-06   1.248385e+01   3.705598e+01   5.363588e-02  -2.078451e+05   7.322059e+04   8.126788e+04   8.441463e+10   8.407543e+10   1.401433e+11   2.348730e+05   6.650604e-26   0.000000e+00   0.000000e+00
     1400000   1.399999e-06   1.248219e+01   3.705657e+01   5.429049e-02  -2.071653e+05   7.389792e+04   8.238311e+04   8.555249e+10   8.525495e+10   1.386616e+11   2.348730e+05   6.646675e-26   0.000000e+00   0.000000e+00
     1408000   1.407999e-06   1.248054e+01   3.705716e+01   5.495398e-02  -2.064763e+05   7.458463e+04   8.348641e+04   8.667698e+10   8.642131e+10   1.371609e+11   2.348730e+05   6.642743e-26   0.000000e+00   0.000000e+00
     1416000   1.415999e-06   1.247889e+01   3.705776e+01   5.562624e-02  -2.057785e+05   7.528063e+04   8.457763e+04   8.778795e+10   8.757435e+10   1.356417e+11   2.348730e+05   6.638809e-26   0.000000e+00   0.000000e+00
     1424000   1.423999e-06   1.247724e+01   3.705837e+01   5.630719e-02  -2.050718e+05   7.598579e+04   8.565663e+04   8.888526e+10   8.871392e+10   1.341040e+11   2.348730e+05   6.634872e-26   0.000000e+00   0.000000e+00
     1432000   1.431999e-06   1.247561e+01   3.705898e+01   5.699672e-02  -2.043563e+05   7.670001e+04   8.672325e+04   8.996877e+10   8.983987e+10   1.325481e+11   2.348730e+05   6.630933e-26   0.000000e+00   0.000000e+00
     1440000   1.439999e-06   1.247398e+01   3.705959e+01   5.769473e-02  -2.036323e+05   7.742319e+04   8.777735e+04   9.103833e+10   9.095205e+10   1.309743e+11   2.348730e+05   6.626991e-26   0.000000e+00   0.000000e+00
     1448000   1.447999e-06   1.247235e+01   3.706022e+01   5.840112e-02  -2.028997e+05   7.815521e+04   8.881879e+04   9.209380e+10   9.205033e+10   1.293829e+11   2.348730e+05   6.623046e-26   0.000000e+00   0.000000e+00
     1456000   1.455999e-06   1.247073e+01   3.706084e+01   5.911579e-02  -2.021588e+05   7.889596e+04   8.984743e+04   9.313505e+10   9.313455e+10   1.277740e+11   2.348730e+05   6.619099e-26   0.000000e+00   0.000000e+00
     1464000   1.463999e-06   1.246911e+01   3.706148e+01   5.983865e-02  -2.014096e+05   7.964533e+04   9.086312e+04   9.416193e+10   9.420458e+10   1.261480e+11   2.348730e+05   6.615150e-26   0.000000e+00   0.000000e+00
     1472000   1.471999e-06   1.246751e+01   3.706212e+01   6.056957e-02  -2.006523e+05   8.040320e+04   9.186575e+04   9.517433e+10   9.526029e+10   1.245050e+11   2.348730e+05   6.611198e-26   0.000000e+00   0.000000e+00
     1480000   1.479999e-06   1.246590e+01   3.706277e+01   6.130846e-02  -1.998869e+05   8.116945e+04   9.285516e+04   9.617211e+10   9.630153e+10   1.228454e+11   2.348730e+05   6.607244e-26   0.000000e+00   0.000000e+00
     1488000   1.487999e-06   1.246431e+01   3.706342e+01   6.205522e-02  -1.991136e+05   8.194398e+04   9.383123e+04   9.715513e+10   9.732817e+10   1.211695e+11   2.348730e+05   6.603287e-26   0.000000e+00   0.000000e+00
     1496000   1.495999e-06   1.246272e+01   3.706408e+01   6.280973e-02  -1.983324e+05   8.272667e+04   9.479383e+04   9.812328e+10   9.834009e+10   1.194774e+11   2.348730e+05   6.599328e-26   0.000000e+00   0.000000e+00
     1504000   1.503999e-06   1.246113e+01   3.706474e+01   6.357188e-02  -1.975436e+05   8.351739e+04   9.574282e+04   9.907644e+10   9.933715e+10   1.177694e+11   2.348730e+05   6.595366e-26   0.000000e+00   0.000000e+00
     1512000   1.511999e-06   1.245956e+01   3.706541e+01   6.434157e-02  -1.967472e+05   8.431602e+04   9.667809e+04   1.000145e+11   1.003192e+11   1.160458e+11   2.348730e+05   6.591402e-26   0.000000e+00   0.000000e+00
     1520000   1.519999e-06   1.245799e+01   3.706609e+01   6.511869e-02  -1.959434e+05   8.512245e+04   9.759951e+04   1.009373e+11   1.012862e+11   1.143069e+11   2.348730e+05   6.587436e-26   0.000000e+00   0.000000e+00
     1528000   1.527999e-06   1.245642e+01   3.706677e+01   6.590313e-02  -1.951323e+05   8.593656e+04   9.850696e+04   1.018447e+11   1.022380e+11   1.125529e+11   2.348730e+05   6.583468e-26   0.000000e+00   0.000000e+00
     1536000   1.535999e-06   1.245486e+01   3.706747e+01   6.669477e-02  -1.943140e+05   8.675822e+04   9.940032e+04   1.027367e+11   1.031744e+11   1.107841e+11   2.348730e+05   6.579497e-26   0.000000e+00   0.000000e+00
     1544000   1.543999e-06   1.245331e+01   3.706816e+01   6.749350e-02  -1.934885e+05   8.758731e+04   1.002795e+05   1.036131e+11   1.040953e+11   1.090008e+11   2.348730e+05   6.575524e-26   0.000000e+00   0.000000e+00
     1552000   1.551999e-06   1.245177e+01   3.706887e+01   6.829920e-02  -1.926562e+05   8.842371e+04   1.011443e+05   1.044738e+11   1.050007e+11   1.072033e+11   2.348730e+05   6.571549e-26   0.000000e+00   0.000000e+00
     1560000   1.559999e-06   1.245023e+01   3.706958e+01   6.911177e-02  -1.918170e+05   8.926728e+04   1.019947e+05   1.053187e+11   1.058904e+11   1.053918e+11   2.348730e+05   6.567571e-26   0.000000e+00   0.000000e+00
     1568000   1.567999e-06   1.244870e+01   3.707030e+01   6.993108e-02  -1.909711e+05   9.011791e+04   1.028305e+05   1.061477e+11   1.067643e+11   1.035666e+11   2.348730e+05   6.563592e-26   0.000000e+00   0.000000e+00
     1576000   1.575999e-06   1.244718e+01   3.707102e+01   7.075702e-02  -1.901187e+05   9.097547e+04   1.036517e+05   1.069607e+11   1.076223e+11   1.017279e+11   2.348730e+05   6.559610e-26   0.000000e+00   0.000000e+00
     1584000   1.583999e-06   1.244566e+01   3.707175e+01   7.158946e-02  -1.892598e+05   9.183983e+04   1.044581e+05   1.077576e+11   1.084643e+11   9.987616e+10   2.348730e+05   6.555627e-26   0.000000e+00   0.000000e+00
     1592000   1.591999e-06   1.244415e+01   3.707249e+01   7.242831e-02  -1.883946e+05   9.271086e+04   1.052497e+05   1.085383e+11   1.092902e+11   9.801154e+10   2.348730e+05   6.551641e-26   0.000000e+00   0.000000e+00
     1600000   1.599999e-06   1.244264e+01   3.707323e+01   7.327342e-02  -1.875232e+05   9.358843e+04   1.060263e+05   1.093028e+11   1.100999e+11   9.613435e+10   2.348730e+05   6.547653e-26   0.000000e+00   0.000000e+00
     1608000   1.607999e-06   1.244115e+01   3.707399e+01   7.412469e-02  -1.866458e+05   9.447241e+04   1.067878e+05   1.100508e+11   1.108933e+11   9.424488e+10   2.348730e+05   6.543664e-26   0.000000e+00   0.000000e+00
     1616000   1.615999e-06   1.243966e+01   3.707475e+01   7.498198e-02  -1.857625e+05   9.536268e+04   1.075342e+05   1.107824e+11   1.116703e+11   9.234340e+10   2.348730e+05   6.539672e-26   0.000000e+00   0.000000e+00
     1624000   1.623999e-06   1.243817e+01   3.707551e+01   7.584519e-02  -1.848733e+05   9.625909e+04   1.082653e+05   1.114974e+11   1.124308e+11   9.043021e+10   2.348730e+05   6.535679e-26   0.000000e+00   0.000000e+00
     1632000   1.631999e-06   1.243670e+01   3.707629e+01   7.671419e-02  -1.839785e+05   9.716153e+04   1.089810e+05   1.121958e+11   1.131747e+11   8.850560e+10   2.348730e+05   6.531684e-26   0.000000e+00   0.000000e+00
     1640000   1.639999e-06   1.243523e+01   3.707707e+01   7.758885e-02  -1.830782e+05   9.806984e+04   1.096813e+05   1.128775e+11   1.139020e+11   8.656985e+10   2.348730e+05   6.527688e-26   0.000000e+00   0.000000e+00
     1648000   1.647999e-06   1.243377e+01   3.707786e+01   7.846905e-02  -1.821725e+05   9.898391e+04   1.103661e+05   1.135423e+11   1.146125e+11   8.462326e+10   2.348730e+05   6.523689e-26   0.000000e+00   0.000000e+00
     1656000   1.655999e-06   1.243232e+01   3.707865e+01   7.935466e-02  -1.812616e+05   9.990360e+04   1.110353e+05   1.141903e+11   1.153062e+11   8.266612e+10   2.348730e+05   6.519689e-26   0.000000e+00   0.000000e+00
     1664000   1.663999e-06   1.243087e+01   3.707945e+01   8.024557e-02  -1.803455e+05   1.008288e+05   1.116887e+05   1.148214e+11   1.159829e+11   8.069871e+10   2.348730e+05   6.515688e-26   0.000000e+00   0.000000e+00
     1672000   1.671999e-06   1.242943e+01   3.708026e+01   8.114164e-02  -1.794245e+05   1.017593e+05   1.123264e+05   1.154354e+11   1.166427e+11   7.872135e+10   2.348730e+05   6.511685e-26   0.000000e+00   0.000000e+00
     1680000   1.679999e-06   1.242800e+01   3.708108e+01   8.204275e-02  -1.784986e+05   1.026950e+05   1.129482e+05   1.160323e+11   1.172855e+11   7.673431e+10   2.348730e+05   6.507680e-26   0.000000e+00   0.000000e+00
     1688000   1.687999e-06   1.242657e+01   3.708191e+01   8.294877e-02  -1.775680e+05   1.036358e+05   1.135541e+05   1.166121e+11   1.179111e+11   7.473789e+10   2.348730e+05   6.503674e-26   0.000000e+00   0.000000e+00
     1696000   1.695999e-06   1.242516e+01   3.708274e+01   8.385957e-02  -1.766329e+05   1.045815e+05   1.141440e+05   1.171746e+11   1.185195e+11   7.273240e+10   2.348730e+05   6.499667e-26   0.000000e+00   0.000000e+00
     1704000   1.703999e-06   1.242375e+01   3.708358e+01   8.477503e-02  -1.756933e+05   1.055321e+05   1.147178e+05   1.177199e+11   1.191107e+11   7.071813e+10   2.348730e+05   6.495659e-26   0.000000e+00   0.000000e+00
     1712000   1.711999e-06   1.242235e+01   3.708443e+01   8.569502e-02  -1.747494e+05   1.064873e+05   1.152755e+05   1.182478e+11   1.196845e+11   6.869537e+10   2.348730e+05   6.491649e-26   0.000000e+00   0.000000e+00
     1720000   1.719999e-06   1.242095e+01   3.708528e+01   8.661940e-02  -1.738014e+05   1.074470e+05   1.158169e+05   1.187583e+11   1.202409e+11   6.666444e+10   2.348730e+05   6.487639e-26   0.000000e+00   0.000000e+00
     1728000   1.727999e-06   1.241957e+01   3.708615e+01   8.754804e-02  -1.728493e+05   1.084111e+05   1.163421e+05   1.192514e+11   1.207799e+11   6.462562e+10   2.348730e+05   6.483627e-26   0.000000e+00   0.000000e+00
     1736000   1.735999e-06   1.241819e+01   3.708702e+01   8.848083e-02  -1.718934e+05   1.093794e+05   1.168509e+05   1.197270e+11   1.213014e+11   6.257921e+10   2.348730e+05   6.479614e-26   0.000000e+00   0.000000e+00
     1744000   1.743999e-06   1.241682e+01   3.708790e+01   8.941761e-02  -1.709337e+05   1.103518e+05   1.173433e+05   1.201850e+11   1.218053e+11   6.052553e+10   2.348730e+05   6.475600e-26   0.000000e+00   0.000000e+00
     1752000   1.751999e-06   1.241545e+01   3.708878e+01   9.035828e-02  -1.699705e+05   1.113282e+05   1.178193e+05   1.206255e+11   1.222917e+11   5.846487e+10   2.348730e+05   6.471586e-26   0.000000e+00   0.000000e+00
     1760000   1.759999e-06   1.241410e+01   3.708968e+01   9.130268e-02  -1.690038e+05   1.123085e+05   1.182788e+05   1.210483e+11   1.227603e+11   5.639752e+10   2.348730e+05   6.467571e-26   0.000000e+00   0.000000e+00
     1768000   1.767999e-06   1.241275e+01   3.709058e+01   9.225069e-02  -1.680338e+05   1.132924e+05   1.187217e+05   1.214535e+11   1.232113e+11   5.432381e+10   2.348730e+05   6.463555e-26   0.000000e+00   0.000000e+00
     1776000   1.775999e-06   1.241141e+01   3.709149e+01   9.320218e-02  -1.670606e+05   1.142798e+05   1.191479e+05   1.218409e+11   1.236445e+11   5.224402e+10   2.348730e+05   6.459538e-26   0.000000e+00   0.000000e+00
     1784000   1.783999e-06   1.241008e+01   3.709241e+01   9.415701e-02  -1.660843e+05   1.152706e+05   1.195575e+05   1.222106e+11   1.240600e+11   5.015846e+10   2.348730e+05   6.455521e-26   0.000000e+00   0.000000e+00
     1792000   1.791999e-06   1.240875e+01   3.709334e+01   9.511506e-02  -1.651052e+05   1.162647e+05   1.199504e+05   1.225625e+11   1.244576e+11   4.806744e+10   2.348730e+05   6.451503e-26   0.000000e+00   0.000000e+00
     1800000   1.799999e-06   1.240743e+01   3.709427e+01   9.607618e-02  -1.641234e+05   1.172619e+05   1.203266e+05   1.228966e+11   1.248374e+11   4.597126e+10   2.348730e+05   6.447485e-26   0.000000e+00   0.000000e+00
     1808000   1.807999e-06   1.240612e+01   3.709521e+01   9.704024e-02  -1.631389e+05   1.182621e+05   1.206860e+05   1.232128e+11   1.251992e+11   4.387022e+10   2.348730e+05   6.443466e-26   0.000000e+00   0.000000e+00
     1816000   1.815999e-06   1.240482e+01   3.709616e+01   9.800711e-02  -1.621520e+05   1.192650e+05   1.210285e+05   1.235112e+11   1.255432e+11   4.176463e+10   2.348730e+05   6.439448e-26   0.000000e+00   0.000000e+00
     1824000   1.823999e-06   1.240353e+01   3.709712e+01   9.897665e-02  -1.611628e+05   1.202707e+05   1.213542e+05   1.237917e+11   1.258692e+11   3.965480e+10   2.348730e+05   6.435429e-26   0.000000e+00   0.000000e+00
     1832000   1.831999e-06   1.240224e+01   3.709809e+01   9.994873e-02  -1.601714e+05   1.212789e+05   1.216630e+05   1.240543e+11   1.261773e+11   3.754102e+10   2.348730e+05   6.431410e-26   0.000000e+00   0.000000e+00
     1840000   1.839999e-06   1.240097e+01   3.709906e+01   1.009232e-01  -1.591781e+05   1.222895e+05   1.219546e+05   1.242817e+11   1.264712e+11   3.539730e+10   2.348730e+05   6.426371e-26   0.000000e+00   0.000000e+00
     1848000   1.847999e-06   1.239970e+01   3.710004e+01   1.019000e-01  -1.581829e+05   1.233024e+05   1.222293e+05   1.245082e+11   1.267426e+11   3.327709e+10   2.348730e+05   6.422333e-26   0.000000e+00   0.000000e+00
     1856000   1.855999e-06   1.239844e+01   3.710103e+01   1.028788e-01  -1.571860e+05   1.243174e+05   1.224871e+05   1.247171e+11   1.269963e+11   3.115400e+10   2.348730e+05   6.418336e-26   0.000000e+00   0.000000e+00
     1864000   1.863999e-06   1.239718e+01   3.710203e+01   1.038597e-01  -1.561875e+05   1.253343e+05   1.227278e+05   1.249080e+11   1.272321e+11   2.902817e+10   2.348730e+05   6.414338e-26   0.000000e+00   0.000000e+00
     1872000   1.871999e-06   1.239594e+01   3.710304e+01   1.048424e-01  -1.551875e+05   1.263530e+05   1.229515e+05   1.250810e+11   1.274498e+11   2.689991e+10   2.348730e+05   6.410340e-26   0.000000e+00   0.000000e+00
     1880000   1.879999e-06   1.239470e+01   3.710405e+01   1.058269e-01  -1.541863e+05   1.273735e+05   1.231582e+05   1.252361e+11   1.276494e+11   2.476951e+10   2.348730e+05   6.406341e-26   0.000000e+00   0.000000e+00
     1888000   1.887999e-06   1.239347e+01   3.710508e+01   1.068129e-01  -1.531838e+05   1.283954e+05   1.233478e+05   1.253731e+11   1.278310e+11   2.263729e+10   2.348730e+05   6.402342e-26   0.000000e+00   0.000000e+00
     1896000   1.895999e-06   1.239225e+01   3.710611e+01   1.078004e-01  -1.521803e+05   1.294187e+05   1.235204e+05   1.254922e+11   1.279945e+11   2.050355e+10   2.348730e+05   6.398343e-26   0.000000e+00   0.000000e+00
     1904000   1.903999e-06   1.239104e+01   3.710715e+01   1.087892e-01  -1.511760e+05   1.304432e+05   1.236759e+05   1.255934e+11   1.281399e+11   1.836858e+10   2.348730e+05   6.394344e-26   0.000000e+00   0.000000e+00
     1912000   1.911999e-06   1.238983e+01   3.710820e+01   1.097792e-01  -1.501709e+05   1.314689e+05   1.238143e+05   1.256766e+11   1.282672e+11   1.623271e+10   2.348730e+05   6.390344e-26   0.000000e+00   0.000000e+00
     1920000   1.919999e-06   1.238863e+01   3.710925e+01   1.107702e-01  -1.491652e+05   1.324955e+05   1.239356e+05   1.257418e+11   1.283765e+11   1.409622e+10   2.348730e+05   6.386345e-26   0.000000e+00   0.000000e+00
     1928000   1.927999e-06   1.238744e+01   3.711032e+01   1.117621e-01  -1.481591e+05   1.335229e+05   1.240398e+05   1.257891e+11   1.284678e+11   1.195943e+10   2.348730e+05   6.382346e-26   0.000000e+00   0.000000e+00
     1936000   1.935999e-06   1.238626e+01   3.711139e+01   1.127548e-01  -1.471526e+05   1.345509e+05   1.241269e+05   1.258185e+11   1.285409e+11   9.822632e+09   2.348730e+05   6.378348e-26   0.000000e+00   0.000000e+00
     1944000   1.943999e-06   1.238509e+01   3.711247e+01   1.137481e-01  -1.461460e+05   1.355795e+05   1.241970e+05   1.258300e+11   1.285961e+11   7.686132e+09   2.348730e+05   6.374350e-26   0.000000e+00   0.000000e+00
     1952000   1.951999e-06   1.238392e+01   3.711356e+01   1.147419e-01  -1.451394e+05   1.366084e+05   1.242499e+05   1.258236e+11   1.286332e+11   5.550232e+09   2.348730e+05   6.370352e-26   0.000000e+00   0.000000e+00
     1960000   1.959999e-06   1.238277e+01   3.711465e+01   1.157360e-01  -1.441329e+05   1.376376e+05   1.242858e+05   1.257993e+11   1.286523e+11   3.415234e+09   2.348730e+05   6.366356e-26   0.000000e+00   0.000000e+00
     1968000   1.967999e-06   1.238162e+01   3.711576e+01   1.167304e-01  -1.431266e+05   1.386668e+05   1.243046e+05   1.257572e+11   1.286534e+11   1.281436e+09   2.348730e+05   6.362359e-26   0.000000e+00   0.000000e+00
     1976000   1.975999e-06   1.238048e+01   3.711687e+01   1.177249e-01  -1.421208e+05   1.396960e+05   1.243063e+05   1.256973e+11   1.286365e+11  -8.508591e+08   2.348730e+05   6.358364e-26   0.000000e+00   0.000000e+00
     1984000   1.983999e-06   1.237934e+01   3.711799e+01   1.187193e-01  -1.411155e+05   1.407249e+05   1.242909e+05   1.256196e+11   1.286017e+11  -2.981354e+09   2.348730e+05   6.354370e-26   0.000000e+00   0.000000e+00
     1992000   1.991999e-06   1.237822e+01   3.711912e+01   1.197135e-01  -1.401109e+05   1.417535e+05   1.242586e+05   1.255241e+11   1.285489e+11  -5.109749e+09   2.348730e+05   6.350376e-26   0.000000e+00   0.000000e+00
     2000000   1.999999e-06   1.237710e+01   3.712026e+01   1.207074e-01  -1.391072e+05   1.427817e+05   1.242092e+05   1.254110e+11   1.284783e+11  -7.235746e+09   2.348730e+05   6.346384e-26   0.000000e+00   0.000000e+00
     2008000   2.007999e-06   1.237599e+01   3.712141e+01   1.217008e-01  -1.381044e+05   1.438091e+05   1.241428e+05   1.252801e+11   1.283898e+11  -9.359049e+09   2.348730e+05   6.342394e-26   0.000000e+00   0.000000e+00
     2016000   2.015999e-06   1.237489e+01   3.712256e+01   1.226936e-01  -1.371028e+05   1.448359e+05   1.240595e+05   1.251316e+11   1.282835e+11  -1.147936e+10   2.348730e+05   6.338404e-26   0.000000e+00   0.000000e+00
     2024000   2.023999e-06   1.237380e+01   3.712373e+01   1.236857e-01  -1.361024e+05   1.458616e+05   1.239592e+05   1.249655e+11   1.281593e+11  -1.359639e+10   2.348730e+05   6.334416e-26   0.000000e+00   0.000000e+00
     2032000   2.031999e-06   1.237271e+01   3.712490e+01   1.246769e-01  -1.351034e+05   1.468864e+05   1.238419e+05   1.247818e+11   1.280174e+11  -1.570983e+10   2.348730e+05   6.330430e-26   0.000000e+00   0.000000e+00
     2040000   2.039999e-06   1.237164e+01   3.712608e+01   1.256671e-01  -1.341059e+05   1.479099e+05   1.237078e+05   1.245807e+11   1.278578e+11  -1.781940e+10   2.348730e+05   6.326445e-26   0.000000e+00   0.000000e+00
     2048000   2.047999e-06   1.237057e+01   3.712726e+01   1.266562e-01  -1.331101e+05   1.489320e+05   1.235568e+05   1.243620e+11   1.276805e+11  -1.992481e+10   2.348730e+05   6.322462e-26   0.000000e+00   0.000000e+00
     2056000   2.055999e-06   1.236951e+01   3.712846e+01   1.276440e-01  -1.321162e+05   1.499527e+05   1.233890e+05   1.241260e+11   1.274856e+11  -2.202576e+10   2.348730e+05   6.318481e-26   0.000000e+00   0.000000e+00
     2064000   2.063999e-06   1.236846e+01   3.712966e+01   1.286304e-01  -1.311241e+05   1.509718e+05   1.232044e+05   1.238726e+11   1.272731e+11  -2.412196e+10   2.348730e+05   6.314501e-26   0.000000e+00   0.000000e+00
     2072000   2.071999e-06   1.236741e+01   3.713087e+01   1.296152e-01  -1.301342e+05   1.519890e+05   1.230031e+05   1.236019e+11   1.270431e+11  -2.621312e+10   2.348730e+05   6.310524e-26   0.000000e+00   0.000000e+00
     2080000   2.079999e-06   1.236637e+01   3.713209e+01   1.305984e-01  -1.291466e+05   1.530044e+05   1.227850e+05   1.233139e+11   1.267956e+11  -2.829895e+10   2.348730e+05   6.306549e-26   0.000000e+00   0.000000e+00
     2088000   2.087999e-06   1.236534e+01   3.713332e+01   1.315797e-01  -1.281613e+05   1.540177e+05   1.225503e+05   1.230088e+11   1.265307e+11  -3.037918e+10   2.348730e+05   6.302577e-26   0.000000e+00   0.000000e+00
     2096000   2.095999e-06   1.236432e+01   3.713456e+01   1.325591e-01  -1.271785e+05   1.550288e+05   1.222990e+05   1.226865e+11   1.262484e+11  -3.245350e+10   2.348730e+05   6.298606e-26   0.000000e+00   0.000000e+00
     2104000   2.103999e-06   1.236331e+01   3.713580e+01   1.335365e-01  -1.261983e+05   1.560376e+05   1.220311e+05   1.223472e+11   1.259488e+11  -3.452164e+10   2.348730e+05   6.294639e-26   0.000000e+00   0.000000e+00
     2112000   2.111999e-06   1.236230e+01   3.713706e+01   1.345116e-01  -1.252210e+05   1.570440e+05   1.217466e+05   1.219909e+11   1.256320e+11  -3.658332e+10   2.348730e+05   6.290673e-26   0.000000e+00   0.000000e+00
     2120000   2.119999e-06   1.236131e+01   3.713832e+01   1.354844e-01  -1.242465e+05   1.580477e+05   1.214457e+05   1.216177e+11   1.252980e+11  -3.863825e+10   2.348730e+05   6.286711e-26   0.000000e+00   0.000000e+00
     2128000   2.127999e-06   1.236032e+01   3.713958e+01   1.364547e-01  -1.232751e+05   1.590487e+05   1.211284e+05   1.212276e+11   1.249468e+11  -4.068615e+10   2.348730e+05   6.282751e-26   0.000000e+00   0.000000e+00
     2136000   2.135999e-06   1.235933e+01   3.714086e+01   1.374224e-01  -1.223069e+05   1.600468e+05   1.207948e+05   1.208208e+11   1.245787e+11  -4.272675e+10   2.348730e+05   6.278794e-26   0.000000e+00   0.000000e+00
     2144000   2.143999e-06   1.235836e+01   3.714215e+01   1.383873e-01  -1.213420e+05   1.610419e+05   1.204448e+05   1.203972e+11   1.241935e+11  -4.475976e+10   2.348730e+05   6.274840e-26   0.000000e+00   0.000000e+00
     2152000   2.151999e-06   1.235739e+01   3.714344e+01   1.393494e-01  -1.203806e+05   1.620339e+05   1.200786e+05   1.199571e+11   1.237915e+11  -4.678491e+10   2.348730e+05   6.270889e-26   0.000000e+00   0.000000e+00
     2160000   2.159999e-06   1.235643e+01   3.714474e+01   1.403085e-01  -1.194228e+05   1.630225e+05   1.196963e+05   1.195004e+11   1.233726e+11  -4.880193e+10   2.348730e+05   6.266941e-26   0.000000e+00   0.000000e+00
     2168000   2.167999e-06   1.235548e+01   3.714605e+01   1.412645e-01  -1.184686e+05   1.640078e+05   1.192978e+05   1.190273e+11   1.229370e+11  -5.081054e+10   2.348730e+05   6.262997e-26   0.000000e+00   0.000000e+00
     2176000   2.175999e-06   1.235454e+01   3.714736e+01   1.422173e-01  -1.175184e+05   1.649895e+05   1.188833e+05   1.185378e+11   1.224847e+11  -5.281047e+10   2.348730e+05   6.259055e-26   0.000000e+00   0.000000e+00
     2184000   2.183999e-06   1.235360e+01   3.714869e+01   1.431666e-01  -1.165721e+05   1.659675e+05   1.184529e+05   1.180320e+11   1.220158e+11  -5.480145e+10   2.348730e+05   6.255117e-26   0.000000e+00   0.000000e+00
     2192000   2.191999e-06   1.235267e+01   3.715002e+01   1.441125e-01  -1.156299e+05   1.669417e+05   1.180065e+05   1.175101e+11   1.215305e+11  -5.678322e+10   2.348730e+05   6.251183e-26   0.000000e+00   0.000000e+00
     2200000   2.199999e-06   1.235175e+01   3.715136e+01   1.450547e-01  -1.146920e+05   1.679119e+05   1.175444e+05   1.169720e+11   1.210287e+11  -5.875551e+10   2.348730e+05   6.247252e-26   0.000000e+00   0.000000e+00
     2208000   2.207999e-06   1.235084e+01   3.715270e+01   1.459931e-01  -1.137584e+05   1.688781e+05   1.170665e+05   1.164180e+11   1.205106e+11  -6.071805e+10   2.348730e+05   6.243325e-26   0.000000e+00   0.000000e+00
     2216000   2.215999e-06   1.234993e+01   3.715406e+01   1.469277e-01  -1.128293e+05   1.698401e+05   1.165729e+05   1.158480e+11   1.199763e+11  -6.267058e+10   2.348730e+05   6.239401e-26   0.000000e+00   0.000000e+00
     2224000   2.223999e-06   1.234903e+01   3.715542e+01   1.478583e-01  -1.119049e+05   1.707977e+05   1.160638e+05   1.152622e+11   1.194258e+11  -6.461284e+10   2.348730e+05   6.235482e-26   0.000000e+00   0.000000e+00
     2232000   2.231999e-06   1.234814e+01   3.715679e+01   1.487847e-01  -1.109852e+05   1.717508e+05   1.155391e+05   1.146608e+11   1.188593e+11  -6.654457e+10   2.348730e+05   6.231566e-26   0.000000e+00   0.000000e+00
     2240000   2.239999e-06   1.234726e+01   3.715817e+01   1.497069e-01  -1.100703e+05   1.726994e+05   1.149991e+05   1.140437e+11   1.182768e+11  -6.846551e+10   2.348730e+05   6.227654e-26   0.000000e+00   0.000000e+00
     2248000   2.247999e-06   1.234638e+01   3.715955e+01   1.506246e-01  -1.091605e+05   1.736432e+05   1.144437e+05   1.134112e+11   1.176785e+11  -7.037541e+10   2.348730e+05   6.223747e-26   0.000000e+00   0.000000e+00
     2256000   2.255999e-06   1.234551e+01   3.716095e+01   1.515379e-01  -1.082558e+05   1.745822e+05   1.138731e+05   1.127632e+11   1.170645e+11  -7.227402e+10   2.348730e+05   6.219843e-26   0.000000e+00   0.000000e+00
     2264000   2.263999e-06   1.234465e+01   3.716235e+01   1.524466e-01  -1.073563e+05   1.755162e+05   1.132874e+05   1.121000e+11   1.164348e+11  -7.416108e+10   2.348730e+05   6.215944e-26   0.000000e+00   0.000000e+00
     2272000   2.271999e-06   1.234379e+01   3.716376e+01   1.533505e-01  -1.064622e+05   1.764451e+05   1.126866e+05   1.114216e+11   1.157895e+11  -7.603634e+10   2.348730e+05   6.212049e-26   0.000000e+00   0.000000e+00
     2280000   2.279999e-06   1.234294e+01   3.716517e+01   1.542495e-01  -1.055736e+05   1.773688e+05   1.120708e+05   1.107281e+11   1.151289e+11  -7.789956e+10   2.348730e+05   6.208158e-26   0.000000e+00   0.000000e+00
     2288000   2.287999e-06   1.234210e+01   3.716659e+01   1.551436e-01  -1.046906e+05   1.782871e+05   1.114402e+05   1.100197e+11   1.144529e+11  -7.975050e+10   2.348730e+05   6.204272e-26   0.000000e+00   0.000000e+00
     2296000   2.295999e-06   1.234127e+01   3.716802e+01   1.560325e-01  -1.038134e+05   1.792000e+05   1.107948e+05   1.092965e+11   1.137617e+11  -8.158890e+10   2.348730e+05   6.200390e-26   0.000000e+00   0.000000e+00
     2304000   2.303999e-06   1.234044e+01   3.716946e+01   1.569162e-01  -1.029419e+05   1.801073e+05   1.101348e+05   1.085586e+11   1.130554e+11  -8.341453e+10   2.348731e+05   6.196512e-26   0.000000e+00   0.000000e+00
     2312000   2.311999e-06   1.233962e+01   3.717091e+01   1.577946e-01  -1.020765e+05   1.810088e+05   1.094602e+05   1.078060e+11   1.123341e+11  -8.522714e+10   2.348731e+05   6.192640e-26   0.000000e+00   0.000000e+00
     2320000   2.319999e-06   1.233881e+01   3.717236e+01   1.586676e-01  -1.012171e+05   1.819046e+05   1.087712e+05   1.070390e+11   1.115980e+11  -8.702651e+10   2.348731e+05   6.188772e-26   0.000000e+00   0.000000e+00
     2328000   2.327999e-06   1.233800e+01   3.717382e+01   1.595349e-01  -1.003639e+05   1.827944e+05   1.080678e+05   1.062577e+11   1.108471e+11  -8.881240e+10   2.348731e+05   6.184909e-26   0.000000e+00   0.000000e+00
     2336000   2.335999e-06   1.233720e+01   3.717528e+01   1.603966e-01  -9.951699e+04   1.836781e+05   1.073502e+05   1.054622e+11   1.100816e+11  -9.058457e+10   2.348731e+05   6.181050e-26   0.000000e+00   0.000000e+00
     2344000   2.343999e-06   1.233641e+01   3.717675e+01   1.612525e-01  -9.867652e+04   1.845556e+05   1.066185e+05   1.046526e+11   1.093016e+11  -9.234280e+10   2.348731e+05   6.177197e-26   0.000000e+00   0.000000e+00
     2352000   2.351999e-06   1.233562e+01   3.717823e+01   1.621025e-01  -9.784259e+04   1.854269e+05   1.058728e+05   1.038290e+11   1.085073e+11  -9.408686e+10   2.348731e+05   6.173348e-26   0.000000e+00   0.000000e+00
     2360000   2.359999e-06   1.233484e+01   3.717972e+01   1.629464e-01  -9.701530e+04   1.862917e+05   1.051132e+05   1.029916e+11   1.076987e+11  -9.581651e+10   2.348731e+05   6.169504e-26   0.000000e+00   0.000000e+00
     2368000   2.367999e-06   1.233407e+01   3.718122e+01   1.637842e-01  -9.619476e+04   1.871500e+05   1.043398e+05   1.021405e+11   1.068759e+11  -9.753155e+10   2.348731e+05   6.165666e-26   0.000000e+00   0.000000e+00
     2376000   2.375999e-06   1.233330e+01   3.718272e+01   1.646158e-01  -9.538109e+04   1.880017e+05   1.035527e+05   1.012758e+11   1.060392e+11  -9.923175e+10   2.348731e+05   6.161832e-26   0.000000e+00   0.000000e+00
     2384000   2.383999e-06   1.233254e+01   3.718422e+01   1.654411e-01  -9.457438e+04   1.888466e+05   1.027521e+05   1.003977e+11   1.051886e+11  -1.009169e+11   2.348731e+05   6.158004e-26   0.000000e+00   0.000000e+00
     2392000   2.391999e-06   1.233179e+01   3.718574e+01   1.662598e-01  -9.377476e+04   1.896847e+05   1.019381e+05   9.950636e+10   1.043243e+11  -1.025867e+11   2.348731e+05   6.154181e-26   0.000000e+00   0.000000e+00
     2400000   2.399999e-06   1.233104e+01   3.718726e+01   1.670720e-01  -9.298232e+04   1.905158e+05   1.011108e+05   9.860185e+10   1.034463e+11  -1.042411e+11   2.348731e+05   6.150363e-26   0.000000e+00   0.000000e+00
     2408000   2.407999e-06   1.233030e+01   3.718879e+01   1.678776e-01  -9.219717e+04   1.913398e+05   1.002703e+05   9.768434e+10   1.025550e+11  -1.058798e+11   2.348731e+05   6.146550e-26   0.000000e+00   0.000000e+00
     2416000   2.415999e-06   1.232957e+01   3.719032e+01   1.686763e-01  -9.141940e+04   1.921566e+05   9.941672e+04   9.675397e+10   1.016503e+11  -1.075026e+11   2.348731e+05   6.142742e-26   0.000000e+00   0.000000e+00
     2424000   2.423999e-06   1.232884e+01   3.719186e+01   1.694682e-01  -9.064914e+04   1.929661e+05   9.855026e+04   9.581089e+10   1.007324e+11  -1.091092e+11   2.348731e+05   6.138940e-26   0.000000e+00   0.000000e+00
     2432000   2.431999e-06   1.232812e+01   3.719341e+01   1.702531e-01  -8.988646e+04   1.937683e+05   9.767101e+04   9.485524e+10   9.980153e+10  -1.106996e+11   2.348731e+05   6.135144e-26   0.000000e+00   0.000000e+00
     2440000   2.439999e-06   1.232740e+01   3.719496e+01   1.710309e-01  -8.913149e+04   1.945629e+05   9.677911e+04   9.388717e+10   9.885774e+10  -1.122734e+11   2.348731e+05   6.131352e-26   0.000000e+00   0.000000e+00
     2448000   2.447999e-06   1.232669e+01   3.719652e+01   1.718015e-01  -8.838430e+04   1.953500e+05   9.587468e+04   9.290683e+10   9.790121e+10  -1.138305e+11   2.348731e+05   6.127566e-26   0.000000e+00   0.000000e+00
     2456000   2.455999e-06   1.232599e+01   3.719809e+01   1.725649e-01  -8.764501e+04   1.961293e+05   9.495787e+04   9.191436e+10   9.693207e+10  -1.153707e+11   2.348731e+05   6.123786e-26   0.000000e+00   0.000000e+00
     2464000   2.463999e-06   1.232529e+01   3.719966e+01   1.733208e-01  -8.691371e+04   1.969009e+05   9.402880e+04   9.090993e+10   9.595048e+10  -1.168938e+11   2.348731e+05   6.120011e-26   0.000000e+00   0.000000e+00
     2472000   2.471999e-06   1.232460e+01   3.720124e+01   1.740693e-01  -8.619053e+04   1.976646e+05   9.308741e+04   8.988646e+10   9.496870e+10  -1.184323e+11   2.348731e+05   6.117961e-26   0.000000e+00   0.000000e+00
     2480000   2.479999e-06   1.232391e+01   3.720282e+01   1.748102e-01  -8.547554e+04   1.984203e+05   9.213398e+04   8.885804e+10   9.396262e+10  -1.199218e+11   2.348731e+05   6.114251e-26   0.000000e+00   0.000000e+00
     2488000   2.487999e-06   1.232323e+01   3.720441e+01   1.755434e-01  -8.476883e+04   1.991679e+05   9.116870e+04   8.781811e+10   9.294452e+10  -1.213936e+11   2.348731e+05   6.110546e-26   0.000000e+00   0.000000e+00
     2496000   2.495999e-06   1.232256e+01   3.720601e+01   1.762688e-01  -8.407049e+04   1.999074e+05   9.019173e+04   8.676681e+10   9.191455e+10  -1.228476e+11   2.348731e+05   6.106848e-26   0.000000e+00   0.000000e+00
     2504000   2.503999e-06   1.232189e+01   3.720761e+01   1.769864e-01  -8.338059e+04   2.006385e+05   8.920319e+04   8.570432e+10   9.087287e+10  -1.242836e+11   2.348731e+05   6.103156e-26   0.000000e+00   0.000000e+00
     2512000   2.511999e-06   1.232122e+01   3.720922e+01   1.776961e-01  -8.269925e+04   2.013613e+05   8.820324e+04   8.463079e+10   8.981963e+10  -1.257013e+11   2.348731e+05   6.099469e-26   0.000000e+00   0.000000e+00
     2520000   2.519999e-06   1.232056e+01   3.721083e+01   1.783977e-01  -8.202653e+04   2.020756e+05   8.719202e+04   8.354638e+10   8.875499e+10  -1.271007e+11   2.348731e+05   6.095789e-26   0.000000e+00   0.000000e+00
     2528000   2.527999e-06   1.231991e+01   3.721245e+01   1.790911e-01  -8.136253e+04   2.027814e+05   8.616967e+04   8.245126e+10   8.767910e+10  -1.284816e+11   2.348731e+05   6.092115e-26   0.000000e+00   0.000000e+00
     2536000   2.535999e-06   1.231926e+01   3.721408e+01   1.797763e-01  -8.070734e+04   2.034785e+05   8.513636e+04   8.134560e+10   8.659214e+10  -1.298437e+11   2.348731e+05   6.088447e-26   0.000000e+00   0.000000e+00
     2544000   2.543999e-06   1.231862e+01   3.721571e+01   1.804533e-01  -8.006103e+04   2.041668e+05   8.409222e+04   8.022954e+10   8.549426e+10  -1.311869e+11   2.348731e+05   6.084784e-26   0.000000e+00   0.000000e+00
     2552000   2.551999e-06   1.231798e+01   3.721734e+01   1.811218e-01  -7.942370e+04   2.048463e+05   8.303742e+04   7.910327e+10   8.438562e+10  -1.325111e+11   2.348731e+05   6.081128e-26   0.000000e+00   0.000000e+00
     2560000   2.559999e-06   1.231735e+01   3.721898e+01   1.817818e-01  -7.879541e+04   2.055170e+05   8.197210e+04   7.796695e+10   8.326639e+10  -1.338161e+11   2.348731e+05   6.077478e-26   0.000000e+00   0.000000e+00
     2568000   2.567999e-06   1.231672e+01   3.722063e+01   1.824333e-01  -7.817625e+04   2.061786e+05   8.089641e+04   7.682075e+10   8.213673e+10  -1.351017e+11   2.348731e+05   6.073834e-26   0.000000e+00   0.000000e+00
     2576000   2.575999e-06   1.231610e+01   3.722228e+01   1.830762e-01  -7.756630e+04   2.068311e+05   7.981052e+04   7.566484e+10   8.099681e+10  -1.363678e+11   2.348731e+05   6.070196e-26   0.000000e+00   0.000000e+00
     2584000   2.583999e-06   1.231548e+01   3.722394e+01   1.837103e-01  -7.696564e+04   2.074745e+05   7.871458e+04   7.449939e+10   7.984680e+10  -1.376143e+11   2.348731e+05   6.066564e-26   0.000000e+00   0.000000e+00
     2592000   2.591999e-06   1.231486e+01   3.722560e+01   1.843356e-01  -7.637434e+04   2.081086e+05   7.760874e+04   7.332457e+10   7.868686e+10  -1.388409e+11   2.348731e+05   6.062938e-26   0.000000e+00   0.000000e+00
     2600000   2.599999e-06   1.231426e+01   3.722727e+01   1.849520e-01  -7.579247e+04   2.087335e+05   7.649317e+04   7.214055e+10   7.751716e+10  -1.400476e+11   2.348731e+05   6.059318e-26   0.000000e+00   0.000000e+00
     2608000   2.607999e-06   1.231365e+01   3.722894e+01   1.855594e-01  -7.522012e+04   2.093489e+05   7.536803e+04   7.094752e+10   7.633789e+10  -1.412341e+11   2.348731e+05   6.055704e-26   0.000000e+00   0.000000e+00
     2616000   2.615999e-06   1.231305e+01   3.723062e+01   1.861578e-01  -7.465734e+04   2.099548e+05   7.423348e+04   6.974563e+10   7.514920e+10  -1.424005e+11   2.348731e+05   6.052096e-26   0.000000e+00   0.000000e+00
     2624000   2.623999e-06   1.231246e+01   3.723230e+01   1.867471e-01  -7.410421e+04   2.105512e+05   7.308968e+04   6.853508e+10   7.395127e+10  -1.435464e+11   2.348731e+05   6.048493e-26   0.000000e+00   0.000000e+00
     2632000   2.631999e-06   1.231187e+01   3.723399e+01   1.873272e-01  -7.356080e+04   2.111380e+05   7.193679e+04   6.731604e+10   7.274427e+10  -1.446719e+11   2.348731e+05   6.044897e-26   0.000000e+00   0.000000e+00
     2640000   2.639999e-06   1.231128e+01   3.723568e+01   1.878981e-01  -7.302718e+04   2.117151e+05   7.077498e+04   6.608868e+10   7.152839e+10  -1.457767e+11   2.348731e+05   6.041306e-26   0.000000e+00   0.000000e+00
     2648000   2.647999e-06   1.231070e+01   3.723738e+01   1.884596e-01  -7.250341e+04   2.122825e+05   6.960442e+04   6.485318e+10   7.030379e+10  -1.468607e+11   2.348731e+05   6.037722e-26   0.000000e+00   0.000000e+00
     2656000   2.655999e-06   1.231012e+01   3.723908e+01   1.890117e-01  -7.198955e+04   2.128400e+05   6.842527e+04   6.360972e+10   6.907065e+10  -1.479238e+11   2.348731e+05   6.034143e-26   0.000000e+00   0.000000e+00
     2664000   2.663999e-06   1.230955e+01   3.724078e+01   1.895544e-01  -7.148567e+04   2.133876e+05   6.723769e+04   6.235849e+10   6.782915e+10  -1.489660e+11   2.348731e+05   6.030570e-26   0.000000e+00   0.000000e+00
     2672000   2.671999e-06   1.230898e+01   3.724249e+01   1.900875e-01  -7.099183e+04   2.139252e+05   6.604187e+04   6.109967e+10   6.657947e+10  -1.499870e+11   2.348731e+05   6.027002e-26   0.000000e+00   0.000000e+00
     2680000   2.679999e-06   1.230841e+01   3.724420e+01   1.906111e-01  -7.050810e+04   2.144528e+05   6.483796e+04   5.983343e+10   6.532179e+10  -1.509867e+11   2.348731e+05   6.023441e-26   0.000000e+00   0.000000e+00
     2688000   2.687999e-06   1.230785e+01   3.724592e+01   1.911249e-01  -7.003452e+04   2.149703e+05   6.362613e+04   5.855996e+10   6.405629e+10  -1.519651e+11   2.348731e+05   6.019885e-26   0.000000e+00   0.000000e+00
     2696000   2.695999e-06   1.230729e+01   3.724764e+01   1.916291e-01  -6.957116e+04   2.154777e+05   6.240657e+04   5.727944e+10   6.278315e+10  -1.529221e+11   2.348731e+05   6.016334e-26   0.000000e+00   0.000000e+00
     2704000   2.703999e-06   1.230673e+01   3.724937e+01   1.921234e-01  -6.911807e+04   2.159748e+05   6.117944e+04   5.599205e+10   6.150255e+10  -1.538574e+11   2.348731e+05   6.012789e-26   0.000000e+00   0.000000e+00
     2712000   2.711999e-06   1.230618e+01   3.725110e+01   1.926079e-01  -6.867530e+04   2.164617e+05   5.994491e+04   5.469799e+10   6.021468e+10  -1.547711e+11   2.348731e+05   6.009250e-26   0.000000e+00   0.000000e+00
     2720000   2.719999e-06   1.230564e+01   3.725283e+01   1.930825e-01  -6.824292e+04   2.169383e+05   5.870316e+04   5.339744e+10   5.891971e+10  -1.556630e+11   2.348731e+05   6.005716e-26   0.000000e+00   0.000000e+00
     2728000   2.727999e-06   1.230509e+01   3.725457e+01   1.935471e-01  -6.782096e+04   2.174044e+05   5.745436e+04   5.209057e+10   5.761783e+10  -1.565331e+11   2.348731e+05   6.002188e-26   0.000000e+00   0.000000e+00
     2736000   2.735999e-06   1.230455e+01   3.725631e+01   1.940018e-01  -6.740949e+04   2.178601e+05   5.619869e+04   5.077758e+10   5.630923e+10  -1.573812e+11   2.348731e+05   5.998665e-26   0.000000e+00   0.000000e+00
     2744000   2.743999e-06   1.230401e+01   3.725806e+01   1.944463e-01  -6.700854e+04   2.183053e+05   5.493632e+04   4.945866e+10   5.499409e+10  -1.582072e+11   2.348731e+05   5.995148e-26   0.000000e+00   0.000000e+00
     2752000   2.751999e-06   1.230348e+01   3.725980e+01   1.948807e-01  -6.661817e+04   2.187400e+05   5.366743e+04   4.813400e+10   5.367260e+10  -1.590111e+11   2.348731e+05   5.991635e-26   0.000000e+00   0.000000e+00
     2760000   2.759999e-06   1.230295e+01   3.726156e+01   1.953050e-01  -6.623841e+04   2.191641e+05   5.239220e+04   4.680377e+10   5.234495e+10  -1.597928e+11   2.348731e+05   5.988128e-26   0.000000e+00   0.000000e+00
     2768000   2.767999e-06   1.230242e+01   3.726331e+01   1.957190e-01  -6.586932e+04   2.195775e+05   5.111080e+04   4.546817e+10   5.101131e+10  -1.605522e+11   2.348731e+05   5.984627e-26   0.000000e+00   0.000000e+00
     2776000   2.775999e-06   1.230189e+01   3.726507e+01   1.961227e-01  -6.551094e+04   2.199802e+05   4.982342e+04   4.412739e+10   4.967189e+10  -1.612891e+11   2.348731e+05   5.981130e-26   0.000000e+00   0.000000e+00
     2784000   2.783999e-06   1.230137e+01   3.726683e+01   1.965161e-01  -6.516330e+04   2.203722e+05   4.853024e+04   4.278162e+10   4.832686e+10  -1.620037e+11   2.348731e+05   5.977638e-26   0.000000e+00   0.000000e+00
     2792000   2.791999e-06   1.230085e+01   3.726859e+01   1.968992e-01  -6.482644e+04   2.207535e+05   4.723142e+04   4.143104e+10   4.697642e+10  -1.626957e+11   2.348731e+05   5.974152e-26   0.000000e+00   0.000000e+00
     2800000   2.799999e-06   1.230033e+01   3.727036e+01   1.972718e-01  -6.450041e+04   2.211239e+05   4.592716e+04   4.007585e+10   4.562076e+10  -1.633651e+11   2.348731e+05   5.970670e-26   0.000000e+00   0.000000e+00
     2808000   2.807999e-06   1.229982e+01   3.727213e+01   1.976340e-01  -6.418503e+04   2.214834e+05   4.461781e+04   3.879108e+10   4.426978e+10  -1.639521e+11   2.348731e+05   5.964647e-26   0.000000e+00   0.000000e+00
     2816000   2.815999e-06   1.229931e+01   3.727391e+01   1.979857e-01  -6.388015e+04   2.218321e+05   4.330368e+04   3.742869e+10   4.290516e+10  -1.645764e+11   2.348731e+05   5.961165e-26   0.000000e+00   0.000000e+00
     2824000   2.823999e-06   1.229880e+01   3.727568e+01   1.983268e-01  -6.358619e+04   2.221699e+05   4.198465e+04   3.606225e+10   4.153590e+10  -1.651779e+11   2.348731e+05   5.957687e-26   0.000000e+00   0.000000e+00
     2832000   2.831999e-06   1.229829e+01   3.727746e+01   1.986574e-01  -6.330317e+04   2.224967e+05   4.066089e+04   3.469195e+10   4.016218e+10  -1.657566e+11   2.348731e+05   5.954213e-26   0.000000e+00   0.000000e+00
     2840000   2.839999e-06   1.229778e+01   3.727924e+01   1.989774e-01  -6.303113e+04   2.228125e+05   3.933260e+04   3.331797e+10   3.878419e+10  -1.663124e+11   2.348731e+05   5.950743e-26   0.000000e+00   0.000000e+00
     2848000   2.847999e-06   1.229728e+01   3.728103e+01   1.992867e-01  -6.277009e+04   2.231172e+05   3.799996e+04   3.194052e+10   3.740212e+10  -1.668454e+11   2.348731e+05   5.947277e-26   0.000000e+00   0.000000e+00
     2856000   2.855999e-06   1.229678e+01   3.728281e+01   1.995854e-01  -6.252009e+04   2.234109e+05   3.666314e+04   3.055979e+10   3.601617e+10  -1.673553e+11   2.348731e+05   5.943816e-26   0.000000e+00   0.000000e+00
     2864000   2.863999e-06   1.229628e+01   3.728460e+01   1.998733e-01  -6.228114e+04   2.236934e+05   3.532233e+04   2.917596e+10   3.462652e+10  -1.678423e+11   2.348731e+05   5.940358e-26   0.000000e+00   0.000000e+00
     2872000   2.871999e-06   1.229578e+01   3.728639e+01   2.001505e-01  -6.205358e+04   2.239649e+05   3.397730e+04   2.771991e+10   3.322861e+10  -1.684034e+11   2.348731e+05   5.942510e-26   0.000000e+00   0.000000e+00
     2880000   2.879999e-06   1.229529e+01   3.728818e+01   2.004170e-01  -6.183739e+04   2.242251e+05   3.262829e+04   2.632932e+10   3.183090e+10  -1.688449e+11   2.348731e+05   5.939131e-26   0.000000e+00   0.000000e+00
     2888000   2.887999e-06   1.229479e+01   3.728998e+01   2.006726e-01  -6.163232e+04   2.244742e+05   3.127584e+04   2.493621e+10   3.043005e+10  -1.692633e+11   2.348731e+05   5.935755e-26   0.000000e+00   0.000000e+00
     2896000   2.895999e-06   1.229430e+01   3.729177e+01   2.009174e-01  -6.143841e+04   2.247120e+05   2.992014e+04   2.354078e+10   2.902624e+10  -1.696585e+11   2.348731e+05   5.932383e-26   0.000000e+00   0.000000e+00
     2904000   2.903999e-06   1.229381e+01   3.729357e+01   2.011513e-01  -6.125568e+04   2.249386e+05   2.856136e+04   2.214321e+10   2.761969e+10  -1.700306e+11   2.348731e+05   5.929013e-26   0.000000e+00   0.000000e+00
     2912000   2.911999e-06   1.229332e+01   3.729537e+01   2.013743e-01  -6.108413e+04   2.251539e+05   2.719971e+04   2.074371e+10   2.621057e+10  -1.703794e+11   2.348731e+05   5.925646e-26   0.000000e+00   0.000000e+00
     2920000   2.919999e-06   1.229283e+01   3.729718e+01   2.015865e-01  -6.092378e+04   2.253579e+05   2.583536e+04   1.934245e+10   2.479908e+10  -1.707050e+11   2.348731e+05   5.922283e-26   0.000000e+00   0.000000e+00
     2928000   2.927999e-06   1.229235e+01   3.729898e+01   2.017877e-01  -6.077466e+04   2.255507e+05   2.446849e+04   1.793964e+10   2.338542e+10  -1.710074e+11   2.348731e+05   5.918922e-26   0.000000e+00   0.000000e+00
     2936000   2.935999e-06   1.229186e+01   3.730078e+01   2.019780e-01  -6.063673e+04   2.257321e+05   2.309952e+04   1.654424e+10   2.196582e+10  -1.712231e+11   2.348731e+05   5.911321e-26   0.000000e+00   0.000000e+00
     2944000   2.943999e-06   1.229138e+01   3.730259e+01   2.021573e-01  -6.050999e+04   2.259021e+05   2.172870e+04   1.513910e+10   2.054920e+10  -1.714788e+11   2.348731e+05   5.907955e-26   0.000000e+00   0.000000e+00
     2952000   2.951999e-06   1.229089e+01   3.730440e+01   2.023256e-01  -6.039450e+04   2.260609e+05   2.035592e+04   1.373299e+10   1.913098e+10  -1.717112e+11   2.348731e+05   5.904592e-26   0.000000e+00   0.000000e+00
     2960000   2.959999e-06   1.229041e+01   3.730621e+01   2.024830e-01  -6.029027e+04   2.262082e+05   1.898138e+04   1.232609e+10   1.771137e+10  -1.719203e+11   2.348731e+05   5.901231e-26   0.000000e+00   0.000000e+00
     2968000   2.967999e-06   1.228993e+01   3.730802e+01   2.026293e-01  -6.019729e+04   2.263442e+05   1.760526e+04   1.091861e+10   1.629056e+10  -1.721062e+11   2.348731e+05   5.897873e-26   0.000000e+00   0.000000e+00
     2976000   2.975999e-06   1.228945e+01   3.730983e+01   2.027647e-01  -6.011557e+04   2.264689e+05   1.622774e+04   9.510716e+09   1.486874e+10  -1.722688e+11   2.348731e+05   5.894517e-26   0.000000e+00   0.000000e+00
     2984000   2.983999e-06   1.228897e+01   3.731164e+01   2.028890e-01  -6.004512e+04   2.265821e+05   1.484902e+04   8.102617e+09   1.344609e+10  -1.724081e+11   2.348731e+05   5.891164e-26   0.000000e+00   0.000000e+00
     2992000   2.991999e-06   1.228849e+01   3.731345e+01   2.030022e-01  -5.998593e+04   2.266840e+05   1.346927e+04   6.694498e+09   1.202282e+10  -1.725242e+11   2.348731e+05   5.887813e-26   0.000000e+00   0.000000e+00
     3000000   2.999999e-06   1.228801e+01   3.731527e+01   2.031045e-01  -5.993801e+04   2.267745e+05   1.208869e+04   5.286550e+09   1.059912e+10  -1.726170e+11   2.348731e+05   5.884465e-26   0.000000e+00   0.000000e+00
     3008000   3.007999e-06   1.228753e+01   3.731708e+01   2.031957e-01  -5.990135e+04   2.268536e+05   1.070746e+04   3.878963e+09   9.175173e+09  -1.726866e+11   2.348731e+05   5.881118e-26   0.000000e+00   0.000000e+00
     3016000   3.015999e-06   1.228705e+01   3.731890e+01   2.032758e-01  -5.987595e+04   2.269213e+05   9.325769e+03   2.471926e+09   7.751177e+09  -1.727330e+11   2.348731e+05   5.877774e-26   0.000000e+00   0.000000e+00
     3024000   3.023999e-06   1.228657e+01   3.732071e+01   2.033449e-01  -5.986180e+04   2.269776e+05   7.943796e+03   1.065628e+09   6.327323e+09  -1.727562e+11   2.348731e+05   5.874432e-26   0.000000e+00   0.000000e+00
     3032000   3.031999e-06   1.228609e+01   3.732253e+01   2.034029e-01  -5.985889e+04   2.270225e+05   6.561731e+03  -3.397420e+08   4.903802e+09  -1.727563e+11   2.348731e+05   5.871092e-26   0.000000e+00   0.000000e+00
     3040000   3.039999e-06   1.228561e+01   3.732435e+01   2.034499e-01  -5.986723e+04   2.270561e+05   5.179758e+03  -1.743996e+09   3.480804e+09  -1.727332e+11   2.348731e+05   5.867753e-26   0.000000e+00   0.000000e+00
     3048000   3.047999e-06   1.228513e+01   3.732616e+01   2.034858e-01  -5.988680e+04   2.270782e+05   3.798062e+03  -3.146945e+09   2.058520e+09  -1.726870e+11   2.348731e+05   5.864416e-26   0.000000e+00   0.000000e+00
     3056000   3.055999e-06   1.228465e+01   3.732798e+01   2.035106e-01  -5.991758e+04   2.270890e+05   2.416828e+03  -4.548403e+09   6.371411e+08  -1.726177e+11   2.348731e+05   5.861081e-26   0.000000e+00   0.000000e+00
     3064000   3.063999e-06   1.228417e+01   3.732980e+01   2.035244e-01  -5.995957e+04   2.270884e+05   1.036240e+03  -5.948183e+09  -7.831443e+08  -1.725254e+11   2.348731e+05   5.857748e-26   0.000000e+00   0.000000e+00
     3072000   3.071999e-06   1.228369e+01   3.733161e+01   2.035272e-01  -6.001275e+04   2.270765e+05  -3.435173e+02  -7.346099e+09  -2.202146e+09  -1.724101e+11   2.348731e+05   5.854415e-26   0.000000e+00   0.000000e+00
     3080000   3.079999e-06   1.228321e+01   3.733343e+01   2.035190e-01  -6.007710e+04   2.270532e+05  -1.722260e+03  -8.741964e+09  -3.619676e+09  -1.722718e+11   2.348731e+05   5.851085e-26   0.000000e+00   0.000000e+00
     3088000   3.087999e-06   1.228273e+01   3.733525e+01   2.034997e-01  -6.015261e+04   2.270186e+05  -3.099805e+03  -1.013559e+10  -5.035545e+09  -1.721107e+11   2.348731e+05   5.847755e-26   0.000000e+00   0.000000e+00
     3096000   3.095999e-06   1.228225e+01   3.733706e+01   2.034694e-01  -6.023927e+04   2.269726e+05  -4.475970e+03  -1.152680e+10  -6.449566e+09  -1.719266e+11   2.348731e+05   5.844426e-26   0.000000e+00   0.000000e+00
     3104000   3.103999e-06   1.228177e+01   3.733888e+01   2.034281e-01  -6.033704e+04   2.269154e+05  -5.850571e+03  -1.291541e+10  -7.861551e+09  -1.717198e+11   2.348731e+05   5.841099e-26   0.000000e+00   0.000000e+00
     3112000   3.111999e-06   1.228128e+01   3.734069e+01   2.033758e-01  -6.044591e+04   2.268468e+05  -7.223426e+03  -1.430123e+10  -9.271314e+09  -1.714902e+11   2.348731e+05   5.837773e-26   0.000000e+00   0.000000e+00
     3120000   3.119999e-06   1.228080e+01   3.734251e+01   2.033125e-01  -6.056585e+04   2.267670e+05  -8.594354e+03  -1.568408e+10  -1.067867e+10  -1.712380e+11   2.348731e+05   5.834447e-26   0.000000e+00   0.000000e+00
     3128000   3.127999e-06   1.228032e+01   3.734432e+01   2.032383e-01  -6.069684e+04   2.266760e+05  -9.963173e+03  -1.706378e+10  -1.208343e+10  -1.709631e+11   2.348731e+05   5.831122e-26   0.000000e+00   0.000000e+00
     3136000   3.135999e-06   1.227983e+01   3.734613e+01   2.031531e-01  -6.083886e+04   2.265737e+05  -1.132970e+04  -1.844015e+10  -1.348541e+10  -1.706656e+11   2.348731e+05   5.827798e-26   0.000000e+00   0.000000e+00
     3144000   3.143999e-06   1.227934e+01   3.734795e+01   2.030570e-01  -6.099188e+04   2.264602e+05  -1.269376e+04  -1.981301e+10  -1.488442e+10  -1.703456e+11   2.348731e+05   5.824475e-26   0.000000e+00   0.000000e+00
     3152000   3.151999e-06   1.227885e+01   3.734976e+01   2.029500e-01  -6.115586e+04   2.263356e+05  -1.405517e+04  -2.118217e+10  -1.628029e+10  -1.700032e+11   2.348731e+05   5.821152e-26   0.000000e+00   0.000000e+00
     3160000   3.159999e-06   1.227836e+01   3.735157e+01   2.028321e-01  -6.133078e+04   2.261998e+05  -1.541375e+04  -2.254746e+10  -1.767283e+10  -1.696385e+11   2.348731e+05   5.817829e-26   0.000000e+00   0.000000e+00
     3168000   3.167999e-06   1.227787e+01   3.735338e+01   2.027034e-01  -6.151661e+04   2.260528e+05  -1.676933e+04  -2.390871e+10  -1.906185e+10  -1.692514e+11   2.348731e+05   5.814507e-26   0.000000e+00   0.000000e+00
     3176000   3.175999e-06   1.227738e+01   3.735518e+01   2.025638e-01  -6.171331e+04   2.258948e+05  -1.812172e+04  -2.526573e+10  -2.044718e+10  -1.688422e+11   2.348731e+05   5.811185e-26   0.000000e+00   0.000000e+00
     3184000   3.183999e-06   1.227688e+01   3.735699e+01   2.024134e-01  -6.192085e+04   2.257257e+05  -1.947074e+04  -2.661834e+10  -2.182864e+10  -1.684108e+11   2.348731e+05   5.807864e-26   0.000000e+00   0.000000e+00
     3192000   3.191999e-06   1.227639e+01   3.735880e+01   2.022523e-01  -6.213920e+04   2.255455e+05  -2.081623e+04  -2.796638e+10  -2.320604e+10  -1.679574e+11   2.348731e+05   5.804542e-26   0.000000e+00   0.000000e+00
     3200000   3.199999e-06   1.227589e+01   3.736060e+01   2.020804e-01  -6.236830e+04   2.253544e+05  -2.215800e+04  -2.930967e+10  -2.457921e+10  -1.674820e+11   2.348731e+05   5.801220e-26   0.000000e+00   0.000000e+00
     3208000   3.207999e-06   1.227539e+01   3.736240e+01   2.018978e-01  -6.260814e+04   2.251523e+05  -2.349588e+04  -3.064804e+10  -2.594796e+10  -1.669848e+11   2.348731e+05   5.797899e-26   0.000000e+00   0.000000e+00
     3216000   3.215999e-06   1.227489e+01   3.736420e+01   2.017045e-01  -6.285866e+04   2.249392e+05  -2.482970e+04  -3.198131e+10  -2.731213e+10  -1.664658e+11   2.348731e+05   5.794577e-26   0.000000e+00   0.000000e+00
     3224000   3.223999e-06   1.227438e+01   3.736600e+01   2.015005e-01  -6.311983e+04   2.247153e+05  -2.615928e+04  -3.330931e+10  -2.867153e+10  -1.659252e+11   2.348731e+05   5.791255e-26   0.000000e+00   0.000000e+00
     3232000   3.231999e-06   1.227388e+01   3.736780e+01   2.012859e-01  -6.339160e+04   2.244805e+05  -2.748444e+04  -3.463187e+10  -3.002599e+10  -1.653629e+11   2.348731e+05   5.787932e-26   0.000000e+00   0.000000e+00
     3240000   3.239999e-06   1.227337e+01   3.736959e+01   2.010608e-01  -6.367392e+04   2.242349e+05  -2.880503e+04  -3.594882e+10  -3.137533e+10  -1.647792e+11   2.348731e+05   5.784609e-26   0.000000e+00   0.000000e+00
     3248000   3.247999e-06   1.227286e+01   3.737138e+01   2.008251e-01  -6.396676e+04   2.239785e+05  -3.012085e+04  -3.726000e+10  -3.271938e+10  -1.641741e+11   2.348731e+05   5.781286e-26   0.000000e+00   0.000000e+00
     3256000   3.255999e-06   1.227235e+01   3.737318e+01   2.005788e-01  -6.427007e+04   2.237114e+05  -3.143176e+04  -3.856523e+10  -3.405796e+10  -1.635478e+11   2.348731e+05   5.777962e-26   0.000000e+00   0.000000e+00
     3264000   3.263999e-06   1.227183e+01   3.737496e+01   2.003222e-01  -6.458379e+04   2.234336e+05  -3.273756e+04  -3.986435e+10  -3.539092e+10  -1.629003e+11   2.348731e+05   5.774638e-26   0.000000e+00   0.000000e+00
     3272000   3.271999e-06   1.227131e+01   3.737675e+01   2.000551e-01  -6.490788e+04   2.231451e+05  -3.403810e+04  -4.115719e+10  -3.671806e+10  -1.622317e+11   2.348731e+05   5.771312e-26   0.000000e+00   0.000000e+00
     3280000   3.279999e-06   1.227079e+01   3.737853e+01   1.997776e-01  -6.524254e+04   2.228460e+05  -3.533353e+04  -4.248287e+10  -3.805886e+10  -1.615916e+11   2.348731e+05   5.772072e-26   0.000000e+00   0.000000e+00
     3288000   3.287999e-06   1.227027e+01   3.738032e+01   1.994897e-01  -6.558753e+04   2.225362e+05  -3.662343e+04  -4.376325e+10  -3.937481e+10  -1.608814e+11   2.348731e+05   5.768787e-26   0.000000e+00   0.000000e+00
     3296000   3.295999e-06   1.226974e+01   3.738209e+01   1.991916e-01  -6.594274e+04   2.222160e+05  -3.790757e+04  -4.503687e+10  -4.068447e+10  -1.601504e+11   2.348731e+05   5.765502e-26   0.000000e+00   0.000000e+00
     3304000   3.303999e-06   1.226921e+01   3.738387e+01   1.988832e-01  -6.630810e+04   2.218853e+05  -3.918579e+04  -4.630358e+10  -4.198765e+10  -1.593989e+11   2.348731e+05   5.762216e-26   0.000000e+00   0.000000e+00
     3312000   3.311999e-06   1.226868e+01   3.738564e+01   1.985647e-01  -6.668358e+04   2.215442e+05  -4.045790e+04  -4.756321e+10  -4.328421e+10  -1.586269e+11   2.348731e+05   5.758929e-26   0.000000e+00   0.000000e+00
     3320000   3.319999e-06   1.226815e+01   3.738742e+01   1.982359e-01  -6.706910e+04   2.211928e+05  -4.172376e+04  -4.881560e+10  -4.457396e+10  -1.578345e+11   2.348731e+05   5.755641e-26   0.000000e+00   0.000000e+00
     3328000   3.327999e-06   1.226761e+01   3.738918e+01   1.978971e-01  -6.746461e+04   2.208310e+05  -4.298320e+04  -5.006060e+10  -4.585676e+10  -1.570220e+11   2.348731e+05   5.752353e-26   0.000000e+00   0.000000e+00
     3336000   3.335999e-06   1.226707e+01   3.739095e+01   1.975482e-01  -6.787005e+04   2.204591e+05  -4.423606e+04  -5.129806e+10  -4.713244e+10  -1.561894e+11   2.348731e+05   5.749063e-26   0.000000e+00   0.000000e+00
     3344000   3.343999e-06   1.226652e+01   3.739271e+01   1.971893e-01  -6.828536e+04   2.200769e+05  -4.548218e+04  -5.252781e+10  -4.840083e+10  -1.553368e+11   2.348731e+05   5.745772e-26   0.000000e+00   0.000000e+00
     3352000   3.351999e-06   1.226598e+01   3.739447e+01   1.968205e-01  -6.871047e+04   2.196847e+05  -4.672139e+04  -5.374971e+10  -4.966178e+10  -1.544644e+11   2.348731e+05   5.742481e-26   0.000000e+00   0.000000e+00
     3360000   3.359999e-06   1.226542e+01   3.739623e+01   1.964418e-01  -6.914533e+04   2.192824e+05  -4.795355e+04  -5.496360e+10  -5.091512e+10  -1.535724e+11   2.348731e+05   5.739188e-26   0.000000e+00   0.000000e+00
     3368000   3.367999e-06   1.226487e+01   3.739798e+01   1.960533e-01  -6.958987e+04   2.188701e+05  -4.917850e+04  -5.616933e+10  -5.216071e+10  -1.526609e+11   2.348731e+05   5.735893e-26   0.000000e+00   0.000000e+00
     3376000   3.375999e-06   1.226431e+01   3.739973e+01   1.956550e-01  -7.004402e+04   2.184478e+05  -5.039607e+04  -5.736676e+10  -5.339839e+10  -1.517299e+11   2.348731e+05   5.732598e-26   0.000000e+00   0.000000e+00
     3384000   3.383999e-06   1.226375e+01   3.740147e+01   1.952470e-01  -7.050734e+04   2.180159e+05  -5.160575e+04  -5.849933e+10  -5.459633e+10  -1.507248e+11   2.348731e+05   5.724066e-26   0.000000e+00   0.000000e+00
     3392000   3.391999e-06   1.226318e+01   3.740322e+01   1.948293e-01  -7.098006e+04   2.175743e+05  -5.280769e+04  -5.967914e+10  -5.581685e+10  -1.497568e+11   2.348731e+05   5.720788e-26   0.000000e+00   0.000000e+00
     3400000   3.399999e-06   1.226261e+01   3.740495e+01   1.944021e-01  -7.146218e+04   2.171229e+05  -5.400181e+04  -6.085020e+10  -5.702901e+10  -1.487699e+11   2.348731e+05   5.717508e-26   0.000000e+00   0.000000e+00
     3408000   3.407999e-06   1.226204e+01   3.740669e+01   1.939653e-01  -7.195364e+04   2.166618e+05  -5.518796e+04  -6.201239e+10  -5.823266e+10  -1.477642e+11   2.348731e+05   5.714228e-26   0.000000e+00   0.000000e+00
     3416000   3.415999e-06   1.226146e+01   3.740842e+01   1.935191e-01  -7.245436e+04   2.161912e+05  -5.636599e+04  -6.316555e+10  -5.942765e+10  -1.467400e+11   2.348731e+05   5.710947e-26   0.000000e+00   0.000000e+00
     3424000   3.423999e-06   1.226088e+01   3.741015e+01   1.930635e-01  -7.296426e+04   2.157110e+05  -5.753575e+04  -6.430956e+10  -6.061384e+10  -1.456973e+11   2.348731e+05   5.707664e-26   0.000000e+00   0.000000e+00
     3432000   3.431999e-06   1.226029e+01   3.741187e+01   1.925985e-01  -7.348329e+04   2.152214e+05  -5.869709e+04  -6.544426e+10  -6.179108e+10  -1.446363e+11   2.348731e+05   5.704380e-26   0.000000e+00   0.000000e+00
     3440000   3.439999e-06   1.225970e+01   3.741359e+01   1.921243e-01  -7.401135e+04   2.147224e+05  -5.984988e+04  -6.656952e+10  -6.295922e+10  -1.435572e+11   2.348731e+05   5.701095e-26   0.000000e+00   0.000000e+00
     3448000   3.447999e-06   1.225911e+01   3.741531e+01   1.916409e-01  -7.454837e+04   2.142141e+05  -6.099396e+04  -6.768521e+10  -6.411812e+10  -1.424602e+11   2.348731e+05   5.697808e-26   0.000000e+00   0.000000e+00
     3456000   3.455999e-06   1.225851e+01   3.741702e+01   1.911484e-01  -7.509429e+04   2.136965e+05  -6.212919e+04  -6.879119e+10  -6.526764e+10  -1.413453e+11   2.348731e+05   5.694520e-26   0.000000e+00   0.000000e+00
     3464000   3.463999e-06   1.225791e+01   3.741873e+01   1.906469e-01  -7.564901e+04   2.131698e+05  -6.325544e+04  -6.988732e+10  -6.640763e+10  -1.402128e+11   2.348731e+05   5.691230e-26   0.000000e+00   0.000000e+00
     3472000   3.471999e-06   1.225730e+01   3.742043e+01   1.901364e-01  -7.621246e+04   2.126340e+05  -6.437255e+04  -7.097349e+10  -6.753797e+10  -1.390629e+11   2.348731e+05   5.687939e-26   0.000000e+00   0.000000e+00
     3480000   3.479999e-06   1.225669e+01   3.742213e+01   1.896170e-01  -7.678456e+04   2.120892e+05  -6.548039e+04  -7.204955e+10  -6.865851e+10  -1.378957e+11   2.348731e+05   5.684647e-26   0.000000e+00   0.000000e+00
     3488000   3.487999e-06   1.225607e+01   3.742382e+01   1.890887e-01  -7.736522e+04   2.115355e+05  -6.657883e+04  -7.311537e+10  -6.976912e+10  -1.367114e+11   2.348731e+05   5.681352e-26   0.000000e+00   0.000000e+00
     3496000   3.495999e-06   1.225545e+01   3.742551e+01   1.885517e-01  -7.795438e+04   2.109729e+05  -6.766773e+04  -7.417084e+10  -7.086965e+10  -1.355102e+11   2.348731e+05   5.678057e-26   0.000000e+00   0.000000e+00
     3504000   3.503999e-06   1.225483e+01   3.742720e+01   1.880061e-01  -7.855193e+04   2.104016e+05  -6.874695e+04  -7.521583e+10  -7.195999e+10  -1.342922e+11   2.348731e+05   5.674759e-26   0.000000e+00   0.000000e+00
     3512000   3.511999e-06   1.225419e+01   3.742888e+01   1.874518e-01  -7.915780e+04   2.098216e+05  -6.981636e+04  -7.625020e+10  -7.304000e+10  -1.330576e+11   2.348731e+05   5.671460e-26   0.000000e+00   0.000000e+00
     3520000   3.519999e-06   1.225356e+01   3.743056e+01   1.868890e-01  -7.977191e+04   2.092330e+05  -7.087583e+04  -7.727385e+10  -7.410954e+10  -1.318067e+11   2.348731e+05   5.668159e-26   0.000000e+00   0.000000e+00
     3528000   3.527999e-06   1.225292e+01   3.743223e+01   1.863178e-01  -8.039416e+04   2.086359e+05  -7.192522e+04  -7.828665e+10  -7.516850e+10  -1.305395e+11   2.348731e+05   5.664856e-26   0.000000e+00   0.000000e+00
     3536000   3.535999e-06   1.225227e+01   3.743389e+01   1.857383e-01  -8.102446e+04   2.080303e+05  -7.296442e+04  -7.928848e+10  -7.621674e+10  -1.292564e+11   2.348731e+05   5.661552e-26   0.000000e+00   0.000000e+00
     3544000   3.543999e-06   1.225162e+01   3.743556e+01   1.851504e-01  -8.166274e+04   2.074164e+05  -7.399328e+04  -8.027922e+10  -7.725414e+10  -1.279574e+11   2.348731e+05   5.658245e-26   0.000000e+00   0.000000e+00
     3552000   3.551999e-06   1.225097e+01   3.743721e+01   1.845544e-01  -8.230890e+04   2.067943e+05  -7.501169e+04  -8.125876e+10  -7.828057e+10  -1.266427e+11   2.348731e+05   5.654937e-26   0.000000e+00   0.000000e+00
     3560000   3.559999e-06   1.225030e+01   3.743887e+01   1.839503e-01  -8.296285e+04   2.061640e+05  -7.601952e+04  -8.222699e+10  -7.929592e+10  -1.253126e+11   2.348731e+05   5.651627e-26   0.000000e+00   0.000000e+00
     3568000   3.567999e-06   1.224964e+01   3.744051e+01   1.833381e-01  -8.362451e+04   2.055256e+05  -7.701665e+04  -8.318379e+10  -8.030006e+10  -1.239673e+11   2.348731e+05   5.648316e-26   0.000000e+00   0.000000e+00
     3576000   3.575999e-06   1.224897e+01   3.744215e+01   1.827180e-01  -8.429377e+04   2.048792e+05  -7.800296e+04  -8.412905e+10  -8.129288e+10  -1.226068e+11   2.348731e+05   5.645002e-26   0.000000e+00   0.000000e+00
     3584000   3.583999e-06   1.224829e+01   3.744379e+01   1.820901e-01  -8.497054e+04   2.042249e+05  -7.897832e+04  -8.506266e+10  -8.227426e+10  -1.212315e+11   2.348731e+05   5.641686e-26   0.000000e+00   0.000000e+00
     3592000   3.591999e-06   1.224761e+01   3.744542e+01   1.814544e-01  -8.565474e+04   2.035628e+05  -7.994262e+04  -8.598453e+10  -8.324409e+10  -1.198416e+11   2.348731e+05   5.638369e-26   0.000000e+00   0.000000e+00
     3600000   3.599999e-06   1.224692e+01   3.744705e+01   1.808110e-01  -8.634626e+04   2.028931e+05  -8.089575e+04  -8.689453e+10  -8.420224e+10  -1.184371e+11   2.348731e+05   5.635050e-26   0.000000e+00   0.000000e+00
     3608000   3.607999e-06   1.224623e+01   3.744867e+01   1.801601e-01  -8.704502e+04   2.022156e+05  -8.183758e+04  -8.779257e+10  -8.514862e+10  -1.170184e+11   2.348731e+05   5.631728e-26   0.000000e+00   0.000000e+00
     3616000   3.615999e-06   1.224553e+01   3.745028e+01   1.795017e-01  -8.775091e+04   2.015307e+05  -8.276800e+04  -8.867855e+10  -8.608310e+10  -1.155857e+11   2.348731e+05   5.628405e-26   0.000000e+00   0.000000e+00
     3624000   3.623999e-06   1.224482e+01   3.745189e+01   1.788358e-01  -8.846384e+04   2.008383e+05  -8.368691e+04  -8.955236e+10  -8.700559e+10  -1.141390e+11   2.348731e+05   5.625080e-26   0.000000e+00   0.000000e+00
     3632000   3.631999e-06   1.224411e+01   3.745350e+01   1.781627e-01  -8.918372e+04   2.001386e+05  -8.459419e+04  -9.041391e+10  -8.791598e+10  -1.126787e+11   2.348731e+05   5.621753e-26   0.000000e+00   0.000000e+00
     3640000   3.639999e-06   1.224339e+01   3.745509e+01   1.774824e-01  -8.991043e+04   1.994317e+05  -8.548973e+04  -9.126310e+10  -8.881415e+10  -1.112050e+11   2.348731e+05   5.618424e-26   0.000000e+00   0.000000e+00
     3648000   3.647999e-06   1.224267e+01   3.745669e+01   1.767949e-01  -9.064389e+04   1.987177e+05  -8.637343e+04  -9.209984e+10  -8.970002e+10  -1.097180e+11   2.348731e+05   5.615093e-26   0.000000e+00   0.000000e+00
     3656000   3.655999e-06   1.224194e+01   3.745827e+01   1.761004e-01  -9.138400e+04   1.979965e+05  -8.724518e+04  -9.292403e+10  -9.057347e+10  -1.082179e+11   2.348731e+05   5.611761e-26   0.000000e+00   0.000000e+00
     3664000   3.663999e-06   1.224121e+01   3.745985e+01   1.753990e-01  -9.213065e+04   1.972685e+05  -8.810488e+04  -9.373558e+10  -9.143441e+10  -1.067051e+11   2.348731e+05   5.608426e-26   0.000000e+00   0.000000e+00
     3672000   3.671999e-06   1.224047e+01   3.746143e+01   1.746908e-01  -9.288374e+04   1.965336e+05  -8.895243e+04  -9.453441e+10  -9.228274e+10  -1.051796e+11   2.348731e+05   5.605089e-26   0.000000e+00   0.000000e+00
     3680000   3.679999e-06   1.223972e+01   3.746300e+01   1.739758e-01  -9.364316e+04   1.957920e+05  -8.978772e+04  -9.532042e+10  -9.311837e+10  -1.036418e+11   2.348731e+05   5.601751e-26   0.000000e+00   0.000000e+00
     3688000   3.687999e-06   1.223897e+01   3.746456e+01   1.732542e-01  -9.440883e+04   1.950438e+05  -9.061066e+04  -9.609353e+10  -9.394120e+10  -1.020917e+11   2.348731e+05   5.598410e-26   0.000000e+00   0.000000e+00
     3696000   3.695999e-06   1.223821e+01   3.746612e+01   1.725261e-01  -9.518063e+04   1.942890e+05  -9.142115e+04  -9.685365e+10  -9.475114e+10  -1.005297e+11   2.348731e+05   5.595068e-26   0.000000e+00   0.000000e+00
     3704000   3.703999e-06   1.223745e+01   3.746767e+01   1.717915e-01  -9.595845e+04   1.935278e+05  -9.221910e+04  -9.760071e+10  -9.554810e+10  -9.895593e+10   2.348731e+05   5.591724e-26   0.000000e+00   0.000000e+00
     3712000   3.711999e-06   1.223668e+01   3.746922e+01   1.710506e-01  -9.674220e+04   1.927603e+05  -9.300442e+04  -9.833462e+10  -9.633199e+10  -9.737064e+10   2.348731e+05   5.588378e-26   0.000000e+00   0.000000e+00
     3720000   3.719999e-06   1.223590e+01   3.747076e+01   1.703035e-01  -9.753177e+04   1.919865e+05  -9.377700e+04  -9.905531e+10  -9.710272e+10  -9.577403e+10   2.348731e+05   5.585030e-26   0.000000e+00   0.000000e+00
     3728000   3.727999e-06   1.223512e+01   3.747229e+01   1.695502e-01  -9.832705e+04   1.912066e+05  -9.453677e+04  -9.976269e+10  -9.786022e+10  -9.416634e+10   2.348731e+05   5.581680e-26   0.000000e+00   0.000000e+00
     3736000   3.735999e-06   1.223433e+01   3.747381e+01   1.687909e-01  -9.912794e+04   1.904208e+05  -9.528363e+04  -1.004567e+11  -9.860440e+10  -9.254778e+10   2.348731e+05   5.578329e-26   0.000000e+00   0.000000e+00
     3744000   3.743999e-06   1.223353e+01   3.747534e+01   1.680257e-01  -9.993433e+04   1.896290e+05  -9.601750e+04  -1.011373e+11  -9.933517e+10  -9.091857e+10   2.348731e+05   5.574976e-26   0.000000e+00   0.000000e+00
     3752000   3.751999e-06   1.223273e+01   3.747685e+01   1.672547e-01  -1.007461e+05   1.888315e+05  -9.673830e+04  -1.018043e+11  -1.000525e+11  -8.927895e+10   2.348731e+05   5.571621e-26   0.000000e+00   0.000000e+00
     3760000   3.759999e-06   1.223192e+01   3.747836e+01   1.664779e-01  -1.015632e+05   1.880282e+05  -9.744594e+04  -1.024577e+11  -1.007562e+11  -8.762912e+10   2.348731e+05   5.568264e-26   0.000000e+00   0.000000e+00
     3768000   3.767999e-06   1.223110e+01   3.747986e+01   1.656956e-01  -1.023854e+05   1.872194e+05  -9.814034e+04  -1.030975e+11  -1.014463e+11  -8.596933e+10   2.348731e+05   5.564906e-26   0.000000e+00   0.000000e+00
     3776000   3.775999e-06   1.223028e+01   3.748135e+01   1.649077e-01  -1.032127e+05   1.864051e+05  -9.882142e+04  -1.037236e+11  -1.021227e+11  -8.429979e+10   2.348731e+05   5.561546e-26   0.000000e+00   0.000000e+00
     3784000   3.783999e-06   1.222945e+01   3.748284e+01   1.641145e-01  -1.040449e+05   1.855855e+05  -9.948911e+04  -1.043359e+11  -1.027853e+11  -8.262074e+10   2.348731e+05   5.558185e-26   0.000000e+00   0.000000e+00
     3792000   3.791999e-06   1.222862e+01   3.748432e+01   1.633159e-01  -1.048820e+05   1.847606e+05  -1.001433e+05  -1.049343e+11  -1.034341e+11  -8.093241e+10   2.348731e+05   5.554822e-26   0.000000e+00   0.000000e+00
     3800000   3.799999e-06   1.222777e+01   3.748580e+01   1.625122e-01  -1.057238e+05   1.839306e+05  -1.007840e+05  -1.055189e+11  -1.040689e+11  -7.923501e+10   2.348731e+05   5.551457e-26   0.000000e+00   0.000000e+00
     3808000   3.807999e-06   1.222692e+01   3.748726e+01   1.617034e-01  -1.065703e+05   1.830955e+05  -1.014111e+05  -1.060894e+11  -1.046898e+11  -7.752879e+10   2.348731e+05   5.548091e-26   0.000000e+00   0.000000e+00
     3816000   3.815999e-06   1.222607e+01   3.748873e+01   1.608897e-01  -1.074212e+05   1.822556e+05  -1.020244e+05  -1.066460e+11  -1.052966e+11  -7.581397e+10   2.348731e+05   5.544723e-26   0.000000e+00   0.000000e+00
     3824000   3.823999e-06   1.222521e+01   3.749018e+01   1.600711e-01  -1.082766e+05   1.814108e+05  -1.026241e+05  -1.071884e+11  -1.058893e+11  -7.409079e+10   2.348731e+05   5.541354e-26   0.000000e+00   0.000000e+00
     3832000   3.831999e-06   1.222434e+01   3.749163e+01   1.592477e-01  -1.091362e+05   1.805614e+05  -1.032099e+05  -1.077168e+11  -1.064679e+11  -7.235947e+10   2.348731e+05   5.537984e-26   0.000000e+00   0.000000e+00
     3840000   3.839999e-06   1.222346e+01   3.749307e+01   1.584197e-01  -1.100000e+05   1.797074e+05  -1.037818e+05  -1.082310e+11  -1.070322e+11  -7.062026e+10   2.348731e+05   5.534612e-26   0.000000e+00   0.000000e+00
     3848000   3.847999e-06   1.222258e+01   3.749450e+01   1.575872e-01  -1.108679e+05   1.788489e+05  -1.043398e+05  -1.087309e+11  -1.075823e+11  -6.887338e+10   2.348731e+05   5.531239e-26   0.000000e+00   0.000000e+00
     3856000   3.855999e-06   1.222169e+01   3.749593e+01   1.567503e-01  -1.117397e+05   1.779861e+05  -1.048837e+05  -1.092166e+11  -1.081180e+11  -6.711908e+10   2.348731e+05   5.527865e-26   0.000000e+00   0.000000e+00
     3864000   3.863999e-06   1.222079e+01   3.749735e+01   1.559091e-01  -1.126153e+05   1.771190e+05  -1.054137e+05  -1.096879e+11  -1.086393e+11  -6.535757e+10   2.348731e+05   5.524489e-26   0.000000e+00   0.000000e+00
     3872000   3.871999e-06   1.221988e+01   3.749876e+01   1.550638e-01  -1.134946e+05   1.762479e+05  -1.059294e+05  -1.101449e+11  -1.091462e+11  -6.358911e+10   2.348731e+05   5.521113e-26   0.000000e+00   0.000000e+00
     3880000   3.879999e-06   1.221897e+01   3.750017e+01   1.542143e-01  -1.143776e+05   1.753727e+05  -1.064311e+05  -1.105890e+11  -1.096501e+11  -6.183120e+10   2.348732e+05   5.518715e-26   0.000000e+00   0.000000e+00
     3888000   3.887999e-06   1.221805e+01   3.750157e+01   1.533609e-01  -1.152640e+05   1.744936e+05  -1.069186e+05  -1.110175e+11  -1.101284e+11  -6.004943e+10   2.348732e+05   5.515355e-26   0.000000e+00   0.000000e+00
     3896000   3.895999e-06   1.221713e+01   3.750296e+01   1.525036e-01  -1.161538e+05   1.736107e+05  -1.073918e+05  -1.114315e+11  -1.105921e+11  -5.826140e+10   2.348732e+05   5.511993e-26   0.000000e+00   0.000000e+00
     3904000   3.903999e-06   1.221620e+01   3.750435e+01   1.516427e-01  -1.170469e+05   1.727242e+05  -1.078508e+05  -1.118310e+11  -1.110411e+11  -5.646735e+10   2.348732e+05   5.508629e-26   0.000000e+00   0.000000e+00
     3912000   3.911999e-06   1.221526e+01   3.750573e+01   1.507781e-01  -1.179431e+05   1.718341e+05  -1.082953e+05  -1.122159e+11  -1.114756e+11  -5.466751e+10   2.348732e+05   5.505264e-26   0.000000e+00   0.000000e+00
     3920000   3.919999e-06   1.221431e+01   3.750710e+01   1.499100e-01  -1.188423e+05   1.709406e+05  -1.087254e+05  -1.125863e+11  -1.118953e+11  -5.286213e+10   2.348732e+05   5.501898e-26   0.000000e+00   0.000000e+00
     3928000   3.927999e-06   1.221335e+01   3.750846e+01   1.490385e-01  -1.197444e+05   1.700438e+05  -1.091411e+05  -1.129420e+11  -1.123002e+11  -5.105144e+10   2.348732e+05   5.498531e-26   0.000000e+00   0.000000e+00
     3936000   3.935999e-06   1.221239e+01   3.750982e+01   1.481638e-01  -1.206493e+05   1.691438e+05  -1.095422e+05  -1.132831e+11  -1.126904e+11  -4.923568e+10   2.348732e+05   5.495162e-26   0.000000e+00   0.000000e+00
     3944000   3.943999e-06   1.221142e+01   3.751117e+01   1.472859e-01  -1.215569e+05   1.682408e+05  -1.099288e+05  -1.136096e+11  -1.130658e+11  -4.741509e+10   2.348732e+05   5.491792e-26   0.000000e+00   0.000000e+00
     3952000   3.951999e-06   1.221045e+01   3.751251e+01   1.464049e-01  -1.224671e+05   1.673348e+05  -1.103009e+05  -1.139213e+11  -1.134264e+11  -4.558991e+10   2.348732e+05   5.488422e-26   0.000000e+00   0.000000e+00
     3960000   3.959999e-06   1.220946e+01   3.751385e+01   1.455211e-01  -1.233796e+05   1.664260e+05  -1.106583e+05  -1.142184e+11  -1.137721e+11  -4.376038e+10   2.348732e+05   5.485050e-26   0.000000e+00   0.000000e+00
     3968000   3.967999e-06   1.220847e+01   3.751517e+01   1.446344e-01  -1.242945e+05   1.655145e+05  -1.110010e+05  -1.145007e+11  -1.141030e+11  -4.192673e+10   2.348732e+05   5.481677e-26   0.000000e+00   0.000000e+00
     3976000   3.975999e-06   1.220748e+01   3.751649e+01   1.437451e-01  -1.252116e+05   1.646004e+05  -1.113291e+05  -1.147683e+11  -1.144189e+11  -4.008922e+10   2.348732e+05   5.478303e-26   0.000000e+00   0.000000e+00
     3984000   3.983999e-06   1.220647e+01   3.751781e+01   1.428532e-01  -1.261308e+05   1.636838e+05  -1.116424e+05  -1.150211e+11  -1.147198e+11  -3.824808e+10   2.348732e+05   5.474929e-26   0.000000e+00   0.000000e+00
     3992000   3.991999e-06   1.220546e+01   3.751911e+01   1.419589e-01  -1.270519e+05   1.627649e+05  -1.119410e+05  -1.152592e+11  -1.150059e+11  -3.640355e+10   2.348732e+05   5.471554e-26   0.000000e+00   0.000000e+00
     4000000   3.999999e-06   1.220444e+01   3.752041e+01   1.410622e-01  -1.279749e+05   1.618438e+05  -1.122249e+05  -1.154825e+11  -1.152769e+11  -3.455587e+10   2.348732e+05   5.468178e-26   0.000000e+00   0.000000e+00
     4008000   4.007999e-06   1.220341e+01   3.752170e+01   1.401633e-01  -1.288996e+05   1.609205e+05  -1.124939e+05  -1.156909e+11  -1.155330e+11  -3.270527e+10   2.348732e+05   5.464802e-26   0.000000e+00   0.000000e+00
     4016000   4.015999e-06   1.220238e+01   3.752299e+01   1.392623e-01  -1.298259e+05   1.599953e+05  -1.127482e+05  -1.158846e+11  -1.157740e+11  -3.085201e+10   2.348732e+05   5.461425e-26   0.000000e+00   0.000000e+00
     4024000   4.023999e-06   1.220133e+01   3.752426e+01   1.383594e-01  -1.307537e+05   1.590682e+05  -1.129875e+05  -1.160635e+11  -1.160001e+11  -2.899632e+10   2.348732e+05   5.458048e-26   0.000000e+00   0.000000e+00
     4032000   4.031999e-06   1.220028e+01   3.752553e+01   1.374546e-01  -1.316829e+05   1.581393e+05  -1.132121e+05  -1.162275e+11  -1.162111e+11  -2.713844e+10   2.348732e+05   5.454670e-26   0.000000e+00   0.000000e+00
     4040000   4.039999e-06   1.219923e+01   3.752679e+01   1.365480e-01  -1.326132e+05   1.572090e+05  -1.134217e+05  -1.163580e+11  -1.163845e+11  -2.526962e+10   2.348732e+05   5.449311e-26   0.000000e+00   0.000000e+00
     4048000   4.047999e-06   1.219816e+01   3.752805e+01   1.356399e-01  -1.335446e+05   1.562772e+05  -1.136164e+05  -1.164921e+11  -1.165649e+11  -2.340839e+10   2.348732e+05   5.445902e-26   0.000000e+00   0.000000e+00
     4056000   4.055999e-06   1.219709e+01   3.752929e+01   1.347302e-01  -1.344770e+05   1.553440e+05  -1.137962e+05  -1.166114e+11  -1.167303e+11  -2.154570e+10   2.348732e+05   5.442494e-26   0.000000e+00   0.000000e+00
     4064000   4.063999e-06   1.219601e+01   3.753053e+01   1.338192e-01  -1.354103e+05   1.544095e+05  -1.139611e+05  -1.167160e+11  -1.168806e+11  -1.968177e+10   2.348732e+05   5.439086e-26   0.000000e+00   0.000000e+00
     4072000   4.071999e-06   1.219492e+01   3.753176e+01   1.329069e-01  -1.363444e+05   1.534739e+05  -1.141111e+05  -1.168058e+11  -1.170159e+11  -1.781685e+10   2.348732e+05   5.435679e-26   0.000000e+00   0.000000e+00
     4080000   4.079999e-06   1.219383e+01   3.753299e+01   1.319934e-01  -1.372792e+05   1.525373e+05  -1.142462e+05  -1.168807e+11  -1.171361e+11  -1.595117e+10   2.348732e+05   5.432273e-26   0.000000e+00   0.000000e+00
     4088000   4.087999e-06   1.219273e+01   3.753420e+01   1.310790e-01  -1.382145e+05   1.515998e+05  -1.143664e+05  -1.169409e+11  -1.172413e+11  -1.408498e+10   2.348732e+05   5.428867e-26   0.000000e+00   0.000000e+00
     4096000   4.095999e-06   1.219162e+01   3.753541e+01   1.301636e-01  -1.391502e+05   1.506615e+05  -1.144716e+05  -1.169864e+11  -1.173314e+11  -1.221850e+10   2.348732e+05   5.425462e-26   0.000000e+00   0.000000e+00
     4104000   4.103999e-06   1.219050e+01   3.753661e+01   1.292475e-01  -1.400862e+05   1.497225e+05  -1.145618e+05  -1.170171e+11  -1.174065e+11  -1.035199e+10   2.348732e+05   5.422059e-26   0.000000e+00   0.000000e+00
     4112000   4.111999e-06   1.218938e+01   3.753781e+01   1.283307e-01  -1.410224e+05   1.487830e+05  -1.146372e+05  -1.170330e+11  -1.174666e+11  -8.485675e+09   2.348732e+05   5.418656e-26   0.000000e+00   0.000000e+00
     4120000   4.119999e-06   1.218824e+01   3.753899e+01   1.274133e-01  -1.419587e+05   1.478431e+05  -1.146976e+05  -1.170343e+11  -1.175116e+11  -6.619791e+09   2.348732e+05   5.415254e-26   0.000000e+00   0.000000e+00
     4128000   4.127999e-06   1.218710e+01   3.754017e+01   1.264955e-01  -1.428949e+05   1.469029e+05  -1.147431e+05  -1.170208e+11  -1.175417e+11  -4.754577e+09   2.348732e+05   5.411853e-26   0.000000e+00   0.000000e+00
     4136000   4.135999e-06   1.218596e+01   3.754135e+01   1.255775e-01  -1.438310e+05   1.459625e+05  -1.147737e+05  -1.169927e+11  -1.175567e+11  -2.890269e+09   2.348732e+05   5.408454e-26   0.000000e+00   0.000000e+00
     4144000   4.143999e-06   1.218480e+01   3.754251e+01   1.246592e-01  -1.447668e+05   1.450220e+05  -1.147894e+05  -1.169499e+11  -1.175568e+11  -1.027102e+09   2.348732e+05   5.405056e-26   0.000000e+00   0.000000e+00
     4152000   4.151999e-06   1.218364e+01   3.754367e+01   1.237409e-01  -1.457022e+05   1.440816e+05  -1.147901e+05  -1.168924e+11  -1.175420e+11   8.346898e+08   2.348732e+05   5.401659e-26   0.000000e+00   0.000000e+00
     4160000   4.159999e-06   1.218247e+01   3.754481e+01   1.228226e-01  -1.466370e+05   1.431414e+05  -1.147760e+05  -1.168204e+11  -1.175122e+11   2.694871e+09   2.348732e+05   5.398264e-26   0.000000e+00   0.000000e+00
     4168000   4.167999e-06   1.218129e+01   3.754596e+01   1.219045e-01  -1.475713e+05   1.422015e+05  -1.147470e+05  -1.167338e+11  -1.174675e+11   4.553209e+09   2.348732e+05   5.394870e-26   0.000000e+00   0.000000e+00
     4176000   4.175999e-06   1.218011e+01   3.754709e+01   1.209867e-01  -1.485047e+05   1.412619e+05  -1.147032e+05  -1.166326e+11  -1.174080e+11   6.409470e+09   2.348732e+05   5.391478e-26   0.000000e+00   0.000000e+00
     4184000   4.183999e-06   1.217892e+01   3.754822e+01   1.200693e-01  -1.494373e+05   1.403230e+05  -1.146445e+05  -1.165169e+11  -1.173335e+11   8.263421e+09   2.348732e+05   5.388088e-26   0.000000e+00   0.000000e+00
     4192000   4.191999e-06   1.217772e+01   3.754933e+01   1.191524e-01  -1.503690e+05   1.393846e+05  -1.145709e+05  -1.163867e+11  -1.172442e+11   1.011483e+10   2.348732e+05   5.384699e-26   0.000000e+00   0.000000e+00
     4200000   4.199999e-06   1.217651e+01   3.755045e+01   1.182362e-01  -1.512995e+05   1.384471e+05  -1.144826e+05  -1.162420e+11  -1.171402e+11   1.196347e+10   2.348732e+05   5.381312e-26   0.000000e+00   0.000000e+00
     4208000   4.207999e-06   1.217530e+01   3.755155e+01   1.173207e-01  -1.522288e+05   1.375104e+05  -1.143795e+05  -1.160829e+11  -1.170213e+11   1.380910e+10   2.348732e+05   5.377928e-26   0.000000e+00   0.000000e+00
     4216000   4.215999e-06   1.217408e+01   3.755265e+01   1.164061e-01  -1.531568e+05   1.365748e+05  -1.142617e+05  -1.159095e+11  -1.168878e+11   1.565151e+10   2.348732e+05   5.374545e-26   0.000000e+00   0.000000e+00
     4224000   4.223999e-06   1.217285e+01   3.755374e+01   1.154926e-01  -1.540833e+05   1.356403e+05  -1.141291e+05  -1.157216e+11  -1.167395e+11   1.749045e+10   2.348732e+05   5.371165e-26   0.000000e+00   0.000000e+00
     4232000   4.231999e-06   1.217161e+01   3.755482e+01   1.145801e-01  -1.550083e+05   1.347070e+05  -1.139819e+05  -1.155195e+11  -1.165765e+11   1.932570e+10   2.348732e+05   5.367786e-26   0.000000e+00   0.000000e+00
     4240000   4.239999e-06   1.217037e+01   3.755589e+01   1.136689e-01  -1.559316e+05   1.337751e+05  -1.138199e+05  -1.153032e+11  -1.163990e+11   2.115704e+10   2.348732e+05   5.364410e-26   0.000000e+00   0.000000e+00
     4248000   4.247999e-06   1.216912e+01   3.755696e+01   1.127590e-01  -1.568531e+05   1.328447e+05  -1.136433e+05  -1.150726e+11  -1.162068e+11   2.298423e+10   2.348732e+05   5.361036e-26   0.000000e+00   0.000000e+00
     4256000   4.255999e-06   1.216786e+01   3.755802e+01   1.118507e-01  -1.577727e+05   1.319158e+05  -1.134522e+05  -1.148278e+11  -1.160001e+11   2.480706e+10   2.348732e+05   5.357665e-26   0.000000e+00   0.000000e+00
     4264000   4.263999e-06   1.216659e+01   3.755907e+01   1.109438e-01  -1.586903e+05   1.309887e+05  -1.132464e+05  -1.145689e+11  -1.157789e+11   2.662529e+10   2.348732e+05   5.354296e-26   0.000000e+00   0.000000e+00
     4272000   4.271999e-06   1.216532e+01   3.756011e+01   1.100387e-01  -1.596058e+05   1.300634e+05  -1.130262e+05  -1.142960e+11  -1.155433e+11   2.843871e+10   2.348732e+05   5.350930e-26   0.000000e+00   0.000000e+00
     4280000   4.279999e-06   1.216404e+01   3.756115e+01   1.091355e-01  -1.605190e+05   1.291400e+05  -1.127914e+05  -1.140090e+11  -1.152932e+11   3.024709e+10   2.348732e+05   5.347566e-26   0.000000e+00   0.000000e+00
     4288000   4.287999e-06   1.216275e+01   3.756218e+01   1.082341e-01  -1.614299e+05   1.282187e+05  -1.125422e+05  -1.137081e+11  -1.150288e+11   3.205021e+10   2.348732e+05   5.344205e-26   0.000000e+00   0.000000e+00
