     timestep     time              x             y              z              vx             vy             vz             ax             ay             az         v_magnitude      ELoss        Electronic      Nuclear
           0   0.000000e+00   1.406382e+01   4.175932e+01   1.000000e-01  -8.798776e+04   1.161702e+05  -2.232409e+04   0.000000e+00   0.000000e+00   0.000000e+00   1.474304e+05   0.000000e+00   0.000000e+00   0.000000e+00
        8000   7.999000e-09   1.406312e+01   4.176025e+01   9.982169e-02  -8.816047e+04   1.160526e+05  -2.225401e+04  -2.155561e+10  -1.467481e+10   8.865889e+09   1.474304e+05   5.875146e-28   0.000000e+00   0.000000e+00
       16000   1.599900e-08   1.406241e+01   4.176118e+01   9.964394e-02  -8.833264e+04   1.159354e+05  -2.218224e+04  -2.148588e+10  -1.463360e+10   9.077165e+09   1.474304e+05   5.871908e-28   0.000000e+00   0.000000e+00
       24000   2.399900e-08   1.406170e+01   4.176211e+01   9.946678e-02  -8.850424e+04   1.158185e+05  -2.210878e+04  -2.141475e+10  -1.459143e+10   9.287682e+09   1.474304e+05   5.868672e-28   0.000000e+00   0.000000e+00
       32000   3.199900e-08   1.406100e+01   4.176303e+01   9.929020e-02  -8.867527e+04   1.157019e+05  -2.203364e+04  -2.134223e+10  -1.454829e+10   9.497425e+09   1.474304e+05   5.865438e-28   0.000000e+00   0.000000e+00
       40000   3.999900e-08   1.406029e+01   4.176396e+01   9.911424e-02  -8.884572e+04   1.155857e+05  -2.195682e+04  -2.126833e+10  -1.450420e+10   9.706382e+09   1.474304e+05   5.862206e-28   0.000000e+00   0.000000e+00
       48000   4.799900e-08   1.405957e+01   4.176488e+01   9.893890e-02  -8.901556e+04   1.154698e+05  -2.187834e+04  -2.119305e+10  -1.445916e+10   9.914539e+09   1.474304e+05   5.858976e-28   0.000000e+00   0.000000e+00
       56000   5.599900e-08   1.405886e+01   4.176581e+01   9.876419e-02  -8.918480e+04   1.153543e+05  -2.179819e+04  -2.111639e+10  -1.441317e+10   1.012188e+10   1.474304e+05   5.855749e-28   0.000000e+00   0.000000e+00
       64000   6.399900e-08   1.405815e+01   4.176673e+01   9.859013e-02  -8.935342e+04   1.152392e+05  -2.171639e+04  -2.103837e+10  -1.436623e+10   1.032840e+10   1.474304e+05   5.852524e-28   0.000000e+00   0.000000e+00
       72000   7.199900e-08   1.405743e+01   4.176765e+01   9.841673e-02  -8.952141e+04   1.151245e+05  -2.163294e+04  -2.095898e+10  -1.431836e+10   1.053408e+10   1.474304e+05   5.849301e-28   0.000000e+00   0.000000e+00
       80000   7.999900e-08   1.405671e+01   4.176857e+01   9.824401e-02  -8.968876e+04   1.150101e+05  -2.154784e+04  -2.087825e+10  -1.426955e+10   1.073890e+10   1.474304e+05   5.846081e-28   0.000000e+00   0.000000e+00
       88000   8.799900e-08   1.405600e+01   4.176949e+01   9.807197e-02  -8.985546e+04   1.148962e+05  -2.146112e+04  -2.079617e+10  -1.421982e+10   1.094286e+10   1.474304e+05   5.842863e-28   0.000000e+00   0.000000e+00
       96000   9.599900e-08   1.405528e+01   4.177041e+01   9.790064e-02  -9.002150e+04   1.147826e+05  -2.137276e+04  -2.071275e+10  -1.416915e+10   1.114594e+10   1.474304e+05   5.839648e-28   0.000000e+00   0.000000e+00
      104000   1.039990e-07   1.405456e+01   4.177133e+01   9.773001e-02  -9.018686e+04   1.146695e+05  -2.128278e+04  -2.062800e+10  -1.411757e+10   1.134813e+10   1.474304e+05   5.836436e-28   0.000000e+00   0.000000e+00
      112000   1.119990e-07   1.405383e+01   4.177224e+01   9.756012e-02  -9.035154e+04   1.145567e+05  -2.119119e+04  -2.054192e+10  -1.406506e+10   1.154941e+10   1.474304e+05   5.833226e-28   0.000000e+00   0.000000e+00
      120000   1.199990e-07   1.405311e+01   4.177316e+01   9.739096e-02  -9.051553e+04   1.144444e+05  -2.109800e+04  -2.045453e+10  -1.401165e+10   1.174978e+10   1.474304e+05   5.830019e-28   0.000000e+00   0.000000e+00
      128000   1.279990e-07   1.405239e+01   4.177408e+01   9.722255e-02  -9.067881e+04   1.143326e+05  -2.100320e+04  -2.036583e+10  -1.395732e+10   1.194922e+10   1.474304e+05   5.826814e-28   0.000000e+00   0.000000e+00
      136000   1.359990e-07   1.405166e+01   4.177499e+01   9.705491e-02  -9.084138e+04   1.142211e+05  -2.090681e+04  -2.027583e+10  -1.390210e+10   1.214772e+10   1.474304e+05   5.823613e-28   0.000000e+00   0.000000e+00
      144000   1.439990e-07   1.405093e+01   4.177590e+01   9.688805e-02  -9.100322e+04   1.141101e+05  -2.080884e+04  -2.018453e+10  -1.384597e+10   1.234526e+10   1.474304e+05   5.820414e-28   0.000000e+00   0.000000e+00
      152000   1.519990e-07   1.405020e+01   4.177682e+01   9.672197e-02  -9.116433e+04   1.139996e+05  -2.070929e+04  -2.009194e+10  -1.378895e+10   1.254183e+10   1.474304e+05   5.817219e-28   0.000000e+00   0.000000e+00
      160000   1.599990e-07   1.404947e+01   4.177773e+01   9.655670e-02  -9.132469e+04   1.138895e+05  -2.060817e+04  -1.999807e+10  -1.373105e+10   1.273743e+10   1.474304e+05   5.814026e-28   0.000000e+00   0.000000e+00
      168000   1.679990e-07   1.404874e+01   4.177864e+01   9.639225e-02  -9.148429e+04   1.137799e+05  -2.050549e+04  -1.990293e+10  -1.367225e+10   1.293203e+10   1.474304e+05   5.810837e-28   0.000000e+00   0.000000e+00
      176000   1.759990e-07   1.404801e+01   4.177955e+01   9.622862e-02  -9.164313e+04   1.136708e+05  -2.040126e+04  -1.980653e+10  -1.361258e+10   1.312563e+10   1.474304e+05   5.807650e-28   0.000000e+00   0.000000e+00
      184000   1.839990e-07   1.404728e+01   4.178046e+01   9.606583e-02  -9.180119e+04   1.135621e+05  -2.029549e+04  -1.970887e+10  -1.355204e+10   1.331822e+10   1.474304e+05   5.804467e-28   0.000000e+00   0.000000e+00
      192000   1.919990e-07   1.404654e+01   4.178136e+01   9.590390e-02  -9.195847e+04   1.134539e+05  -2.018817e+04  -1.960997e+10  -1.349062e+10   1.350978e+10   1.474304e+05   5.801287e-28   0.000000e+00   0.000000e+00
      200000   1.999990e-07   1.404580e+01   4.178227e+01   9.574283e-02  -9.211495e+04   1.133462e+05  -2.007933e+04  -1.950982e+10  -1.342834e+10   1.370030e+10   1.474304e+05   5.798110e-28   0.000000e+00   0.000000e+00
      208000   2.079990e-07   1.404507e+01   4.178318e+01   9.558263e-02  -9.227062e+04   1.132391e+05  -1.996897e+04  -1.940844e+10  -1.336521e+10   1.388976e+10   1.474304e+05   5.794937e-28   0.000000e+00   0.000000e+00
      216000   2.159990e-07   1.404433e+01   4.178408e+01   9.542333e-02  -9.242548e+04   1.131324e+05  -1.985710e+04  -1.930583e+10  -1.330122e+10   1.407817e+10   1.474304e+05   5.791766e-28   0.000000e+00   0.000000e+00
      224000   2.239990e-07   1.404359e+01   4.178499e+01   9.526492e-02  -9.257951e+04   1.130263e+05  -1.974372e+04  -1.920201e+10  -1.323638e+10   1.426550e+10   1.474304e+05   5.788600e-28   0.000000e+00   0.000000e+00
      232000   2.319990e-07   1.404285e+01   4.178589e+01   9.510743e-02  -9.273271e+04   1.129206e+05  -1.962885e+04  -1.909698e+10  -1.317069e+10   1.445175e+10   1.474304e+05   5.785436e-28   0.000000e+00   0.000000e+00
      240000   2.399990e-07   1.404210e+01   4.178679e+01   9.495086e-02  -9.288506e+04   1.128155e+05  -1.951250e+04  -1.899076e+10  -1.310418e+10   1.463690e+10   1.474304e+05   5.782276e-28   0.000000e+00   0.000000e+00
      248000   2.479990e-07   1.404136e+01   4.178770e+01   9.479523e-02  -9.303656e+04   1.127110e+05  -1.939466e+04  -1.888334e+10  -1.303682e+10   1.482094e+10   1.474304e+05   5.779119e-28   0.000000e+00   0.000000e+00
      256000   2.559990e-07   1.404062e+01   4.178860e+01   9.464055e-02  -9.318719e+04   1.126069e+05  -1.927536e+04  -1.877474e+10  -1.296864e+10   1.500386e+10   1.474304e+05   5.775966e-28   0.000000e+00   0.000000e+00
      264000   2.639990e-07   1.403987e+01   4.178950e+01   9.448683e-02  -9.333695e+04   1.125035e+05  -1.915461e+04  -1.866496e+10  -1.289964e+10   1.518565e+10   1.474304e+05   5.772817e-28   0.000000e+00   0.000000e+00
      272000   2.719990e-07   1.403912e+01   4.179040e+01   9.433408e-02  -9.348583e+04   1.124005e+05  -1.903240e+04  -1.855402e+10  -1.282983e+10   1.536630e+10   1.474304e+05   5.769671e-28   0.000000e+00   0.000000e+00
      280000   2.799990e-07   1.403837e+01   4.179130e+01   9.418232e-02  -9.363381e+04   1.122982e+05  -1.890875e+04  -1.844192e+10  -1.275920e+10   1.554580e+10   1.474304e+05   5.766528e-28   0.000000e+00   0.000000e+00
      288000   2.879990e-07   1.403762e+01   4.179219e+01   9.403155e-02  -9.378089e+04   1.121964e+05  -1.878367e+04  -1.832868e+10  -1.268777e+10   1.572413e+10   1.474304e+05   5.763389e-28   0.000000e+00   0.000000e+00
      296000   2.959990e-07   1.403687e+01   4.179309e+01   9.388178e-02  -9.392707e+04   1.120952e+05  -1.865716e+04  -1.821430e+10  -1.261554e+10   1.590129e+10   1.474304e+05   5.760254e-28   0.000000e+00   0.000000e+00
      304000   3.039990e-07   1.403612e+01   4.179399e+01   9.373304e-02  -9.407232e+04   1.119946e+05  -1.852925e+04  -1.809878e+10  -1.254252e+10   1.607726e+10   1.474304e+05   5.757123e-28   0.000000e+00   0.000000e+00
      312000   3.119990e-07   1.403537e+01   4.179488e+01   9.358532e-02  -9.421664e+04   1.118945e+05  -1.839993e+04  -1.798215e+10  -1.246871e+10   1.625204e+10   1.474304e+05   5.753995e-28   0.000000e+00   0.000000e+00
      320000   3.199990e-07   1.403461e+01   4.179578e+01   9.343864e-02  -9.436003e+04   1.117951e+05  -1.826922e+04  -1.786440e+10  -1.239412e+10   1.642561e+10   1.474304e+05   5.750871e-28   0.000000e+00   0.000000e+00
      328000   3.279990e-07   1.403386e+01   4.179667e+01   9.329301e-02  -9.450247e+04   1.116962e+05  -1.813712e+04  -1.774555e+10  -1.231876e+10   1.659797e+10   1.474304e+05   5.747751e-28   0.000000e+00   0.000000e+00
      336000   3.359990e-07   1.403310e+01   4.179757e+01   9.314845e-02  -9.464396e+04   1.115980e+05  -1.800366e+04  -1.762561e+10  -1.224262e+10   1.676910e+10   1.474304e+05   5.744634e-28   0.000000e+00   0.000000e+00
      344000   3.439990e-07   1.403234e+01   4.179846e+01   9.300496e-02  -9.478448e+04   1.115003e+05  -1.786882e+04  -1.750458e+10  -1.216572e+10   1.693899e+10   1.474304e+05   5.741521e-28   0.000000e+00   0.000000e+00
      352000   3.519990e-07   1.403159e+01   4.179935e+01   9.286255e-02  -9.492403e+04   1.114033e+05  -1.773263e+04  -1.738248e+10  -1.208807e+10   1.710764e+10   1.474304e+05   5.738412e-28   0.000000e+00   0.000000e+00
      360000   3.599990e-07   1.403083e+01   4.180024e+01   9.272124e-02  -9.506263e+04   1.113069e+05  -1.759513e+04  -1.727735e+10  -1.202722e+10   1.726143e+10   1.474304e+05   5.739765e-28   0.000000e+00   0.000000e+00
      368000   3.679990e-07   1.403006e+01   4.180113e+01   9.258103e-02  -9.520036e+04   1.112110e+05  -1.745638e+04  -1.715312e+10  -1.194808e+10   1.742769e+10   1.474304e+05   5.736610e-28   0.000000e+00   0.000000e+00
      376000   3.759990e-07   1.402930e+01   4.180202e+01   9.244194e-02  -9.533708e+04   1.111157e+05  -1.731629e+04  -1.702784e+10  -1.186820e+10   1.759267e+10   1.474304e+05   5.733459e-28   0.000000e+00   0.000000e+00
      384000   3.839990e-07   1.402854e+01   4.180291e+01   9.230398e-02  -9.547280e+04   1.110211e+05  -1.717490e+04  -1.690152e+10  -1.178759e+10   1.775637e+10   1.474304e+05   5.730312e-28   0.000000e+00   0.000000e+00
      392000   3.919990e-07   1.402777e+01   4.180380e+01   9.216715e-02  -9.560750e+04   1.109271e+05  -1.703219e+04  -1.677417e+10  -1.170625e+10   1.791878e+10   1.474304e+05   5.727170e-28   0.000000e+00   0.000000e+00
      400000   3.999990e-07   1.402701e+01   4.180468e+01   9.203147e-02  -9.574118e+04   1.108338e+05  -1.688820e+04  -1.664581e+10  -1.162418e+10   1.807988e+10   1.474304e+05   5.724031e-28   0.000000e+00   0.000000e+00
      408000   4.079990e-07   1.402624e+01   4.180557e+01   9.189694e-02  -9.587383e+04   1.107411e+05  -1.674292e+04  -1.651643e+10  -1.154140e+10   1.823966e+10   1.474304e+05   5.720897e-28   0.000000e+00   0.000000e+00
      416000   4.159990e-07   1.402548e+01   4.180646e+01   9.176358e-02  -9.600544e+04   1.106491e+05  -1.659637e+04  -1.638606e+10  -1.145791e+10   1.839813e+10   1.474304e+05   5.717767e-28   0.000000e+00   0.000000e+00
      424000   4.239990e-07   1.402471e+01   4.180734e+01   9.163140e-02  -9.613601e+04   1.105578e+05  -1.644855e+04  -1.625469e+10  -1.137372e+10   1.855526e+10   1.474304e+05   5.714641e-28   0.000000e+00   0.000000e+00
      432000   4.319990e-07   1.402394e+01   4.180822e+01   9.150041e-02  -9.626552e+04   1.104672e+05  -1.629949e+04  -1.612235e+10  -1.128883e+10   1.871105e+10   1.474304e+05   5.711519e-28   0.000000e+00   0.000000e+00
      440000   4.399990e-07   1.402317e+01   4.180911e+01   9.137061e-02  -9.639396e+04   1.103772e+05  -1.614918e+04  -1.598903e+10  -1.120325e+10   1.886549e+10   1.474304e+05   5.708402e-28   0.000000e+00   0.000000e+00
      448000   4.479990e-07   1.402240e+01   4.180999e+01   9.124203e-02  -9.652134e+04   1.102879e+05  -1.599764e+04  -1.585475e+10  -1.111699e+10   1.901857e+10   1.474304e+05   5.705289e-28   0.000000e+00   0.000000e+00
      456000   4.559990e-07   1.402162e+01   4.181087e+01   9.111465e-02  -9.664764e+04   1.101993e+05  -1.584489e+04  -1.571953e+10  -1.103004e+10   1.917028e+10   1.474304e+05   5.702179e-28   0.000000e+00   0.000000e+00
      464000   4.639990e-07   1.402085e+01   4.181175e+01   9.098851e-02  -9.677285e+04   1.101114e+05  -1.569092e+04  -1.558336e+10  -1.094243e+10   1.932061e+10   1.474304e+05   5.699074e-28   0.000000e+00   0.000000e+00
      472000   4.719990e-07   1.402007e+01   4.181263e+01   9.086360e-02  -9.689697e+04   1.100242e+05  -1.553576e+04  -1.544626e+10  -1.085416e+10   1.946956e+10   1.474304e+05   5.695974e-28   0.000000e+00   0.000000e+00
      480000   4.799990e-07   1.401930e+01   4.181351e+01   9.073994e-02  -9.701999e+04   1.099378e+05  -1.537941e+04  -1.530824e+10  -1.076523e+10   1.961712e+10   1.474304e+05   5.692877e-28   0.000000e+00   0.000000e+00
      488000   4.879990e-07   1.401852e+01   4.181439e+01   9.061754e-02  -9.714190e+04   1.098520e+05  -1.522189e+04  -1.516931e+10  -1.067564e+10   1.976328e+10   1.474304e+05   5.689785e-28   0.000000e+00   0.000000e+00
      496000   4.959990e-07   1.401774e+01   4.181527e+01   9.049639e-02  -9.726269e+04   1.097669e+05  -1.506320e+04  -1.502948e+10  -1.058542e+10   1.990802e+10   1.474304e+05   5.686697e-28   0.000000e+00   0.000000e+00
      504000   5.039990e-07   1.401697e+01   4.181615e+01   9.037653e-02  -9.738237e+04   1.096826e+05  -1.490336e+04  -1.488877e+10  -1.049455e+10   2.005135e+10   1.474304e+05   5.683613e-28   0.000000e+00   0.000000e+00
      512000   5.119990e-07   1.401619e+01   4.181703e+01   9.025794e-02  -9.750091e+04   1.095990e+05  -1.474239e+04  -1.474717e+10  -1.040306e+10   2.019325e+10   1.474304e+05   5.680533e-28   0.000000e+00   0.000000e+00
      520000   5.199990e-07   1.401541e+01   4.181790e+01   9.014065e-02  -9.761832e+04   1.095162e+05  -1.458028e+04  -1.460470e+10  -1.031094e+10   2.033372e+10   1.474304e+05   5.677457e-28   0.000000e+00   0.000000e+00
      528000   5.279990e-07   1.401462e+01   4.181878e+01   9.002466e-02  -9.773458e+04   1.094341e+05  -1.441705e+04  -1.446138e+10  -1.021820e+10   2.047274e+10   1.474304e+05   5.674385e-28   0.000000e+00   0.000000e+00
      536000   5.359990e-07   1.401384e+01   4.181965e+01   8.990998e-02  -9.784970e+04   1.093527e+05  -1.425272e+04  -1.431720e+10  -1.012486e+10   2.061031e+10   1.474304e+05   5.671318e-28   0.000000e+00   0.000000e+00
      544000   5.439990e-07   1.401306e+01   4.182053e+01   8.979662e-02  -9.796366e+04   1.092721e+05  -1.408729e+04  -1.417219e+10  -1.003091e+10   2.074643e+10   1.474304e+05   5.668255e-28   0.000000e+00   0.000000e+00
      552000   5.519990e-07   1.401227e+01   4.182140e+01   8.968459e-02  -9.807645e+04   1.091922e+05  -1.392078e+04  -1.402636e+10  -9.936365e+09   2.088108e+10   1.474304e+05   5.665196e-28   0.000000e+00   0.000000e+00
      560000   5.599990e-07   1.401149e+01   4.182228e+01   8.957389e-02  -9.818807e+04   1.091131e+05  -1.375319e+04  -1.387970e+10  -9.841231e+09   2.101426e+10   1.474304e+05   5.662140e-28   0.000000e+00   0.000000e+00
      568000   5.679990e-07   1.401070e+01   4.182315e+01   8.946454e-02  -9.829852e+04   1.090347e+05  -1.358455e+04  -1.373224e+10  -9.745516e+09   2.114596e+10   1.474304e+05   5.659089e-28   0.000000e+00   0.000000e+00
      576000   5.759990e-07   1.400992e+01   4.182402e+01   8.935654e-02  -9.840779e+04   1.089572e+05  -1.341486e+04  -1.358398e+10  -9.649225e+09   2.127617e+10   1.474304e+05   5.656042e-28   0.000000e+00   0.000000e+00
      584000   5.839990e-07   1.400913e+01   4.182489e+01   8.924991e-02  -9.851586e+04   1.088804e+05  -1.324414e+04  -1.343494e+10  -9.552366e+09   2.140489e+10   1.474304e+05   5.652999e-28   0.000000e+00   0.000000e+00
      592000   5.919990e-07   1.400834e+01   4.182576e+01   8.914464e-02  -9.862275e+04   1.088043e+05  -1.307239e+04  -1.328513e+10  -9.454945e+09   2.153211e+10   1.474304e+05   5.649961e-28   0.000000e+00   0.000000e+00
      600000   5.999990e-07   1.400755e+01   4.182663e+01   8.904075e-02  -9.872842e+04   1.087291e+05  -1.289963e+04  -1.313455e+10  -9.356971e+09   2.165782e+10   1.474304e+05   5.646926e-28   0.000000e+00   0.000000e+00
      608000   6.079990e-07   1.400676e+01   4.182750e+01   8.893825e-02  -9.883290e+04   1.086546e+05  -1.272587e+04  -1.298322e+10  -9.258450e+09   2.178202e+10   1.474304e+05   5.643895e-28   0.000000e+00   0.000000e+00
      616000   6.159990e-07   1.400597e+01   4.182837e+01   8.883714e-02  -9.893615e+04   1.085809e+05  -1.255112e+04  -1.283115e+10  -9.159390e+09   2.190469e+10   1.474304e+05   5.640868e-28   0.000000e+00   0.000000e+00
      624000   6.239990e-07   1.400518e+01   4.182924e+01   8.873743e-02  -9.903819e+04   1.085081e+05  -1.237540e+04  -1.267834e+10  -9.059797e+09   2.202584e+10   1.474304e+05   5.637844e-28   0.000000e+00   0.000000e+00
      632000   6.319990e-07   1.400438e+01   4.183011e+01   8.863913e-02  -9.913901e+04   1.084360e+05  -1.219871e+04  -1.252482e+10  -8.959678e+09   2.214545e+10   1.474304e+05   5.634825e-28   0.000000e+00   0.000000e+00
      640000   6.399990e-07   1.400359e+01   4.183097e+01   8.854225e-02  -9.923859e+04   1.083647e+05  -1.202107e+04  -1.237059e+10  -8.859042e+09   2.226353e+10   1.474304e+05   5.631810e-28   0.000000e+00   0.000000e+00
      648000   6.479990e-07   1.400280e+01   4.183184e+01   8.844680e-02  -9.933693e+04   1.082942e+05  -1.184250e+04  -1.221566e+10  -8.757894e+09   2.238006e+10   1.474304e+05   5.628798e-28   0.000000e+00   0.000000e+00
      656000   6.559990e-07   1.400200e+01   4.183271e+01   8.835278e-02  -9.943404e+04   1.082246e+05  -1.166300e+04  -1.206004e+10  -8.656243e+09   2.249503e+10   1.474304e+05   5.625790e-28   0.000000e+00   0.000000e+00
      664000   6.639990e-07   1.400121e+01   4.183357e+01   8.826019e-02  -9.952989e+04   1.081557e+05  -1.148258e+04  -1.190375e+10  -8.554096e+09   2.260845e+10   1.474304e+05   5.622786e-28   0.000000e+00   0.000000e+00
      672000   6.719990e-07   1.400041e+01   4.183444e+01   8.816906e-02  -9.962449e+04   1.080877e+05  -1.130127e+04  -1.174679e+10  -8.451460e+09   2.272030e+10   1.474304e+05   5.619786e-28   0.000000e+00   0.000000e+00
      680000   6.799990e-07   1.399961e+01   4.183530e+01   8.807938e-02  -9.971785e+04   1.080205e+05  -1.111901e+04  -1.159323e+10  -8.350807e+09   2.284312e+10   1.474304e+05   5.622270e-28   0.000000e+00   0.000000e+00
      688000   6.879990e-07   1.399881e+01   4.183617e+01   8.799116e-02  -9.980997e+04   1.079541e+05  -1.093583e+04  -1.143503e+10  -8.247299e+09   2.295197e+10   1.474304e+05   5.619357e-28   0.000000e+00   0.000000e+00
      696000   6.959990e-07   1.399802e+01   4.183703e+01   8.790441e-02  -9.990081e+04   1.078886e+05  -1.075178e+04  -1.127619e+10  -8.143323e+09   2.305925e+10   1.474304e+05   5.616446e-28   0.000000e+00   0.000000e+00
      704000   7.039990e-07   1.399722e+01   4.183789e+01   8.781913e-02  -9.999038e+04   1.078238e+05  -1.056689e+04  -1.111673e+10  -8.038888e+09   2.316494e+10   1.474304e+05   5.613538e-28   0.000000e+00   0.000000e+00
      712000   7.119990e-07   1.399642e+01   4.183875e+01   8.773534e-02  -1.000787e+05   1.077599e+05  -1.038115e+04  -1.095665e+10  -7.934000e+09   2.326903e+10   1.474304e+05   5.610633e-28   0.000000e+00   0.000000e+00
      720000   7.199990e-07   1.399561e+01   4.183962e+01   8.765303e-02  -1.001657e+05   1.076969e+05  -1.019459e+04  -1.079598e+10  -7.828668e+09   2.337153e+10   1.474304e+05   5.607732e-28   0.000000e+00   0.000000e+00
      728000   7.279990e-07   1.399481e+01   4.184048e+01   8.757223e-02  -1.002514e+05   1.076347e+05  -1.000721e+04  -1.063472e+10  -7.722898e+09   2.347243e+10   1.474304e+05   5.604833e-28   0.000000e+00   0.000000e+00
      736000   7.359990e-07   1.399401e+01   4.184134e+01   8.749292e-02  -1.003358e+05   1.075733e+05  -9.819032e+03  -1.047289e+10  -7.616699e+09   2.357172e+10   1.474304e+05   5.601936e-28   0.000000e+00   0.000000e+00
      744000   7.439990e-07   1.399321e+01   4.184220e+01   8.741512e-02  -1.004190e+05   1.075128e+05  -9.630066e+03  -1.031048e+10  -7.510077e+09   2.366940e+10   1.474304e+05   5.599043e-28   0.000000e+00   0.000000e+00
      752000   7.519990e-07   1.399240e+01   4.184306e+01   8.733884e-02  -1.005008e+05   1.074532e+05  -9.440325e+03  -1.014753e+10  -7.403040e+09   2.376547e+10   1.474304e+05   5.596152e-28   0.000000e+00   0.000000e+00
      760000   7.599990e-07   1.399160e+01   4.184392e+01   8.726408e-02  -1.005813e+05   1.073944e+05  -9.249823e+03  -9.984025e+09  -7.295596e+09   2.385991e+10   1.474304e+05   5.593264e-28   0.000000e+00   0.000000e+00
      768000   7.679990e-07   1.399079e+01   4.184478e+01   8.719085e-02  -1.006606e+05   1.073364e+05  -9.058571e+03  -9.819993e+09  -7.187752e+09   2.395273e+10   1.474304e+05   5.590379e-28   0.000000e+00   0.000000e+00
      776000   7.759990e-07   1.398999e+01   4.184563e+01   8.711915e-02  -1.007385e+05   1.072794e+05  -8.866583e+03  -9.655440e+09  -7.079516e+09   2.404392e+10   1.474304e+05   5.587496e-28   0.000000e+00   0.000000e+00
      784000   7.839990e-07   1.398918e+01   4.184649e+01   8.704898e-02  -1.008150e+05   1.072232e+05  -8.673873e+03  -9.490378e+09  -6.970895e+09   2.413347e+10   1.474304e+05   5.584615e-28   0.000000e+00   0.000000e+00
      792000   7.919990e-07   1.398838e+01   4.184735e+01   8.698037e-02  -1.008903e+05   1.071678e+05  -8.480452e+03  -9.324818e+09  -6.861897e+09   2.422139e+10   1.474304e+05   5.581737e-28   0.000000e+00   0.000000e+00
      800000   7.999990e-07   1.398757e+01   4.184821e+01   8.691330e-02  -1.009642e+05   1.071134e+05  -8.286335e+03  -9.158772e+09  -6.752530e+09   2.430766e+10   1.474304e+05   5.578861e-28   0.000000e+00   0.000000e+00
      808000   8.079990e-07   1.398676e+01   4.184906e+01   8.684779e-02  -1.010368e+05   1.070598e+05  -8.091534e+03  -8.992251e+09  -6.642800e+09   2.439229e+10   1.474304e+05   5.575988e-28   0.000000e+00   0.000000e+00
      816000   8.159990e-07   1.398595e+01   4.184992e+01   8.678384e-02  -1.011081e+05   1.070071e+05  -7.896062e+03  -8.825266e+09  -6.532717e+09   2.447527e+10   1.474304e+05   5.573117e-28   0.000000e+00   0.000000e+00
      824000   8.239990e-07   1.398514e+01   4.185078e+01   8.672145e-02  -1.011780e+05   1.069553e+05  -7.699934e+03  -8.657830e+09  -6.422287e+09   2.455659e+10   1.474304e+05   5.570248e-28   0.000000e+00   0.000000e+00
      832000   8.319990e-07   1.398433e+01   4.185163e+01   8.666064e-02  -1.012466e+05   1.069043e+05  -7.503161e+03  -8.489953e+09  -6.311517e+09   2.463626e+10   1.474304e+05   5.567381e-28   0.000000e+00   0.000000e+00
      840000   8.399990e-07   1.398352e+01   4.185249e+01   8.660140e-02  -1.013139e+05   1.068543e+05  -7.305758e+03  -8.321647e+09  -6.200417e+09   2.471426e+10   1.474304e+05   5.564516e-28   0.000000e+00   0.000000e+00
      848000   8.479990e-07   1.398271e+01   4.185334e+01   8.654375e-02  -1.013798e+05   1.068051e+05  -7.107737e+03  -8.152923e+09  -6.088993e+09   2.479061e+10   1.474304e+05   5.561653e-28   0.000000e+00   0.000000e+00
      856000   8.559990e-07   1.398190e+01   4.185420e+01   8.648768e-02  -1.014443e+05   1.067569e+05  -6.909113e+03  -7.983794e+09  -5.977253e+09   2.486528e+10   1.474304e+05   5.558792e-28   0.000000e+00   0.000000e+00
      864000   8.639990e-07   1.398109e+01   4.185505e+01   8.643320e-02  -1.015075e+05   1.067095e+05  -6.709897e+03  -7.814270e+09  -5.865205e+09   2.493829e+10   1.474304e+05   5.555933e-28   0.000000e+00   0.000000e+00
      872000   8.719990e-07   1.398028e+01   4.185590e+01   8.638032e-02  -1.015694e+05   1.066630e+05  -6.510104e+03  -7.644363e+09  -5.752856e+09   2.500962e+10   1.474304e+05   5.553076e-28   0.000000e+00   0.000000e+00
      880000   8.799990e-07   1.397946e+01   4.185676e+01   8.632904e-02  -1.016298e+05   1.066175e+05  -6.309748e+03  -7.474084e+09  -5.640214e+09   2.507927e+10   1.474304e+05   5.550220e-28   0.000000e+00   0.000000e+00
      888000   8.879990e-07   1.397865e+01   4.185761e+01   8.627937e-02  -1.016889e+05   1.065728e+05  -6.108840e+03  -7.303446e+09  -5.527287e+09   2.514725e+10   1.474304e+05   5.547366e-28   0.000000e+00   0.000000e+00
      896000   8.959990e-07   1.397784e+01   4.185846e+01   8.623130e-02  -1.017467e+05   1.065290e+05  -5.907396e+03  -7.132459e+09  -5.414083e+09   2.521355e+10   1.474304e+05   5.544514e-28   0.000000e+00   0.000000e+00
      904000   9.039990e-07   1.397702e+01   4.185931e+01   8.618485e-02  -1.018031e+05   1.064862e+05  -5.705428e+03  -6.961136e+09  -5.300609e+09   2.527816e+10   1.474304e+05   5.541663e-28   0.000000e+00   0.000000e+00
      912000   9.119990e-07   1.397621e+01   4.186017e+01   8.614002e-02  -1.018581e+05   1.064442e+05  -5.502950e+03  -6.789488e+09  -5.186873e+09   2.534108e+10   1.474304e+05   5.538814e-28   0.000000e+00   0.000000e+00
      920000   9.199990e-07   1.397539e+01   4.186102e+01   8.609681e-02  -1.019117e+05   1.064032e+05  -5.299975e+03  -6.617526e+09  -5.072883e+09   2.540231e+10   1.474304e+05   5.535965e-28   0.000000e+00   0.000000e+00
      928000   9.279990e-07   1.397458e+01   4.186187e+01   8.605522e-02  -1.019639e+05   1.063630e+05  -5.096517e+03  -6.445262e+09  -4.958647e+09   2.546186e+10   1.474304e+05   5.533119e-28   0.000000e+00   0.000000e+00
      936000   9.359990e-07   1.397376e+01   4.186272e+01   8.601526e-02  -1.020148e+05   1.063238e+05  -4.892590e+03  -6.272707e+09  -4.844171e+09   2.551971e+10   1.474304e+05   5.530273e-28   0.000000e+00   0.000000e+00
      944000   9.439990e-07   1.397294e+01   4.186357e+01   8.597694e-02  -1.020643e+05   1.062855e+05  -4.688207e+03  -6.099874e+09  -4.729465e+09   2.557586e+10   1.474304e+05   5.527428e-28   0.000000e+00   0.000000e+00
      952000   9.519990e-07   1.397213e+01   4.186442e+01   8.594025e-02  -1.021124e+05   1.062482e+05  -4.483381e+03  -5.926774e+09  -4.614536e+09   2.563032e+10   1.474304e+05   5.524585e-28   0.000000e+00   0.000000e+00
      960000   9.599990e-07   1.397131e+01   4.186527e+01   8.590521e-02  -1.021591e+05   1.062117e+05  -4.278126e+03  -5.753418e+09  -4.499391e+09   2.568308e+10   1.474304e+05   5.521742e-28   0.000000e+00   0.000000e+00
      968000   9.679990e-07   1.397049e+01   4.186612e+01   8.587180e-02  -1.022045e+05   1.061762e+05  -4.072456e+03  -5.579818e+09  -4.384038e+09   2.573414e+10   1.474304e+05   5.518901e-28   0.000000e+00   0.000000e+00
      976000   9.759990e-07   1.396968e+01   4.186697e+01   8.584005e-02  -1.022484e+05   1.061416e+05  -3.866384e+03  -5.405985e+09  -4.268486e+09   2.578349e+10   1.474304e+05   5.516060e-28   0.000000e+00   0.000000e+00
      984000   9.839990e-07   1.396886e+01   4.186782e+01   8.580994e-02  -1.022910e+05   1.061079e+05  -3.659924e+03  -5.231932e+09  -4.152741e+09   2.583115e+10   1.474304e+05   5.513220e-28   0.000000e+00   0.000000e+00
      992000   9.919990e-07   1.396804e+01   4.186867e+01   8.578149e-02  -1.023321e+05   1.060751e+05  -3.453090e+03  -5.057670e+09  -4.036812e+09   2.587709e+10   1.474304e+05   5.510381e-28   0.000000e+00   0.000000e+00
     1000000   9.999990e-07   1.396722e+01   4.186951e+01   8.575469e-02  -1.023719e+05   1.060433e+05  -3.245895e+03  -4.883209e+09  -3.920707e+09   2.592134e+10   1.474304e+05   5.507542e-28   0.000000e+00   0.000000e+00
     1008000   1.007999e-06   1.396640e+01   4.187036e+01   8.572956e-02  -1.024102e+05   1.060124e+05  -3.038353e+03  -4.708563e+09  -3.804433e+09   2.596387e+10   1.474304e+05   5.504704e-28   0.000000e+00   0.000000e+00
     1016000   1.015999e-06   1.396558e+01   4.187121e+01   8.570608e-02  -1.024472e+05   1.059824e+05  -2.830478e+03  -4.533743e+09  -3.687997e+09   2.600470e+10   1.474304e+05   5.501866e-28   0.000000e+00   0.000000e+00
     1024000   1.023999e-06   1.396476e+01   4.187206e+01   8.568427e-02  -1.024828e+05   1.059534e+05  -2.622283e+03  -4.358759e+09  -3.571409e+09   2.604382e+10   1.474304e+05   5.499029e-28   0.000000e+00   0.000000e+00
     1032000   1.031999e-06   1.396394e+01   4.187291e+01   8.566413e-02  -1.025170e+05   1.059253e+05  -2.413782e+03  -4.183624e+09  -3.454674e+09   2.608122e+10   1.474304e+05   5.496191e-28   0.000000e+00   0.000000e+00
     1040000   1.039999e-06   1.396312e+01   4.187375e+01   8.564565e-02  -1.025497e+05   1.058981e+05  -2.204988e+03  -4.008350e+09  -3.337802e+09   2.611692e+10   1.474304e+05   5.493354e-28   0.000000e+00   0.000000e+00
     1048000   1.047999e-06   1.396230e+01   4.187460e+01   8.562885e-02  -1.025811e+05   1.058719e+05  -1.995915e+03  -3.832947e+09  -3.220801e+09   2.615091e+10   1.474304e+05   5.490518e-28   0.000000e+00   0.000000e+00
     1056000   1.055999e-06   1.396148e+01   4.187545e+01   8.561372e-02  -1.026110e+05   1.058466e+05  -1.786578e+03  -3.657428e+09  -3.103676e+09   2.618319e+10   1.474304e+05   5.487681e-28   0.000000e+00   0.000000e+00
     1064000   1.063999e-06   1.396066e+01   4.187629e+01   8.560026e-02  -1.026396e+05   1.058222e+05  -1.576989e+03  -3.481804e+09  -2.986438e+09   2.621375e+10   1.474304e+05   5.484844e-28   0.000000e+00   0.000000e+00
     1072000   1.071999e-06   1.395984e+01   4.187714e+01   8.558849e-02  -1.026668e+05   1.057988e+05  -1.367162e+03  -3.306086e+09  -2.869092e+09   2.624261e+10   1.474304e+05   5.482007e-28   0.000000e+00   0.000000e+00
     1080000   1.079999e-06   1.395902e+01   4.187799e+01   8.557839e-02  -1.026925e+05   1.057763e+05  -1.157112e+03  -3.130286e+09  -2.751648e+09   2.626975e+10   1.474304e+05   5.479170e-28   0.000000e+00   0.000000e+00
     1088000   1.087999e-06   1.395820e+01   4.187883e+01   8.556997e-02  -1.027168e+05   1.057548e+05  -9.468508e+02  -2.954416e+09  -2.634112e+09   2.629518e+10   1.474304e+05   5.476332e-28   0.000000e+00   0.000000e+00
     1096000   1.095999e-06   1.395737e+01   4.187968e+01   8.556324e-02  -1.027398e+05   1.057342e+05  -7.363934e+02  -2.778487e+09  -2.516493e+09   2.631890e+10   1.474304e+05   5.473494e-28   0.000000e+00   0.000000e+00
     1104000   1.103999e-06   1.395655e+01   4.188052e+01   8.555819e-02  -1.027613e+05   1.057145e+05  -5.257530e+02  -2.602510e+09  -2.398798e+09   2.634091e+10   1.474304e+05   5.470656e-28   0.000000e+00   0.000000e+00
     1112000   1.111999e-06   1.395573e+01   4.188137e+01   8.555483e-02  -1.027814e+05   1.056958e+05  -3.149434e+02  -2.426497e+09  -2.281035e+09   2.636120e+10   1.474304e+05   5.467817e-28   0.000000e+00   0.000000e+00
     1120000   1.119999e-06   1.395491e+01   4.188222e+01   8.555315e-02  -1.028001e+05   1.056780e+05  -1.039783e+02  -2.250460e+09  -2.163212e+09   2.637979e+10   1.474304e+05   5.464978e-28   0.000000e+00   0.000000e+00
     1128000   1.127999e-06   1.395408e+01   4.188306e+01   8.555316e-02  -1.028174e+05   1.056612e+05   1.071287e+02  -2.074410e+09  -2.045336e+09   2.639667e+10   1.474304e+05   5.462137e-28   0.000000e+00   0.000000e+00
     1136000   1.135999e-06   1.395326e+01   4.188391e+01   8.555487e-02  -1.028333e+05   1.056453e+05   3.183639e+02  -1.898358e+09  -1.927416e+09   2.641184e+10   1.474304e+05   5.459297e-28   0.000000e+00   0.000000e+00
     1144000   1.143999e-06   1.395244e+01   4.188475e+01   8.555826e-02  -1.028478e+05   1.056303e+05   5.297136e+02  -1.722317e+09  -1.809457e+09   2.642530e+10   1.474304e+05   5.456455e-28   0.000000e+00   0.000000e+00
     1152000   1.151999e-06   1.395162e+01   4.188560e+01   8.556334e-02  -1.028609e+05   1.056163e+05   7.411641e+02  -1.546296e+09  -1.691470e+09   2.643705e+10   1.474304e+05   5.453612e-28   0.000000e+00   0.000000e+00
     1160000   1.159999e-06   1.395079e+01   4.188644e+01   8.557012e-02  -1.028725e+05   1.056033e+05   9.527019e+02  -1.370308e+09  -1.573460e+09   2.644710e+10   1.474304e+05   5.450768e-28   0.000000e+00   0.000000e+00
     1168000   1.167999e-06   1.394997e+01   4.188729e+01   8.557858e-02  -1.028828e+05   1.055912e+05   1.164313e+03  -1.194364e+09  -1.455437e+09   2.645545e+10   1.474304e+05   5.447923e-28   0.000000e+00   0.000000e+00
     1176000   1.175999e-06   1.394915e+01   4.188813e+01   8.558875e-02  -1.028916e+05   1.055800e+05   1.375984e+03  -1.018475e+09  -1.337406e+09   2.646209e+10   1.474304e+05   5.445077e-28   0.000000e+00   0.000000e+00
     1184000   1.183999e-06   1.394832e+01   4.188897e+01   8.560060e-02  -1.028991e+05   1.055698e+05   1.587702e+03  -8.426537e+08  -1.219377e+09   2.646702e+10   1.474304e+05   5.442230e-28   0.000000e+00   0.000000e+00
     1192000   1.191999e-06   1.394750e+01   4.188982e+01   8.561415e-02  -1.029051e+05   1.055605e+05   1.799452e+03  -6.669099e+08  -1.101357e+09   2.647026e+10   1.474304e+05   5.439381e-28   0.000000e+00   0.000000e+00
     1200000   1.199999e-06   1.394668e+01   4.189066e+01   8.562939e-02  -1.029098e+05   1.055521e+05   2.011222e+03  -4.912555e+08  -9.833523e+08   2.647180e+10   1.474304e+05   5.436531e-28   0.000000e+00   0.000000e+00
     1208000   1.207999e-06   1.394585e+01   4.189151e+01   8.564633e-02  -1.029130e+05   1.055447e+05   2.222997e+03  -3.157017e+08  -8.653720e+08   2.647164e+10   1.474304e+05   5.433679e-28   0.000000e+00   0.000000e+00
     1216000   1.215999e-06   1.394503e+01   4.189235e+01   8.566496e-02  -1.029148e+05   1.055383e+05   2.434763e+03  -1.402598e+08  -7.474233e+08   2.646978e+10   1.474304e+05   5.430826e-28   0.000000e+00   0.000000e+00
     1224000   1.223999e-06   1.394421e+01   4.189320e+01   8.568529e-02  -1.029152e+05   1.055328e+05   2.646509e+03   3.505901e+07  -6.295136e+08   2.646624e+10   1.474304e+05   5.427971e-28   0.000000e+00   0.000000e+00
     1232000   1.231999e-06   1.394338e+01   4.189404e+01   8.570730e-02  -1.029142e+05   1.055282e+05   2.858219e+03   2.102435e+08  -5.116505e+08   2.646100e+10   1.474304e+05   5.425114e-28   0.000000e+00   0.000000e+00
     1240000   1.239999e-06   1.394256e+01   4.189489e+01   8.573102e-02  -1.029119e+05   1.055246e+05   3.069880e+03   3.852824e+08  -3.938417e+08   2.645407e+10   1.474304e+05   5.422256e-28   0.000000e+00   0.000000e+00
     1248000   1.247999e-06   1.394174e+01   4.189573e+01   8.575642e-02  -1.029081e+05   1.055219e+05   3.281479e+03   5.601647e+08  -2.760946e+08   2.644545e+10   1.474304e+05   5.419395e-28   0.000000e+00   0.000000e+00
     1256000   1.255999e-06   1.394091e+01   4.189657e+01   8.578352e-02  -1.029029e+05   1.055202e+05   3.493003e+03   7.348791e+08  -1.584167e+08   2.643515e+10   1.474304e+05   5.416533e-28   0.000000e+00   0.000000e+00
     1264000   1.263999e-06   1.394009e+01   4.189742e+01   8.581231e-02  -1.028963e+05   1.055194e+05   3.704437e+03   9.094146e+08  -4.081563e+07   2.642317e+10   1.474304e+05   5.413668e-28   0.000000e+00   0.000000e+00
     1272000   1.271999e-06   1.393927e+01   4.189826e+01   8.584279e-02  -1.028884e+05   1.055195e+05   3.915769e+03   1.083760e+09   7.670122e+07   2.640950e+10   1.474304e+05   5.410802e-28   0.000000e+00   0.000000e+00
     1280000   1.279999e-06   1.393845e+01   4.189911e+01   8.587496e-02  -1.028790e+05   1.055206e+05   4.126985e+03   1.257904e+09   1.941263e+08   2.639416e+10   1.474304e+05   5.407933e-28   0.000000e+00   0.000000e+00
     1288000   1.287999e-06   1.393762e+01   4.189995e+01   8.590882e-02  -1.028682e+05   1.055226e+05   4.338071e+03   1.431837e+09   3.114523e+08   2.637715e+10   1.474304e+05   5.405062e-28   0.000000e+00   0.000000e+00
     1296000   1.295999e-06   1.393680e+01   4.190079e+01   8.594437e-02  -1.028560e+05   1.055256e+05   4.549043e+03   1.609436e+09   4.322905e+08   2.636230e+10   1.474304e+05   5.403875e-28   0.000000e+00   0.000000e+00
     1304000   1.303999e-06   1.393598e+01   4.190164e+01   8.598161e-02  -1.028425e+05   1.055295e+05   4.759861e+03   1.782956e+09   5.494210e+08   2.634197e+10   1.474304e+05   5.401026e-28   0.000000e+00   0.000000e+00
     1312000   1.311999e-06   1.393515e+01   4.190248e+01   8.602053e-02  -1.028275e+05   1.055344e+05   4.970510e+03   1.956231e+09   6.664306e+08   2.631997e+10   1.474304e+05   5.398175e-28   0.000000e+00   0.000000e+00
     1320000   1.319999e-06   1.393433e+01   4.190333e+01   8.606113e-02  -1.028112e+05   1.055402e+05   5.180977e+03   2.129251e+09   7.833118e+08   2.629632e+10   1.474304e+05   5.395322e-28   0.000000e+00   0.000000e+00
     1328000   1.327999e-06   1.393351e+01   4.190417e+01   8.610342e-02  -1.027935e+05   1.055469e+05   5.391247e+03   2.302005e+09   9.000572e+08   2.627100e+10   1.474304e+05   5.392466e-28   0.000000e+00   0.000000e+00
     1336000   1.335999e-06   1.393269e+01   4.190502e+01   8.614739e-02  -1.027743e+05   1.055546e+05   5.601308e+03   2.474482e+09   1.016660e+09   2.624403e+10   1.474304e+05   5.389607e-28   0.000000e+00   0.000000e+00
     1344000   1.343999e-06   1.393186e+01   4.190586e+01   8.619304e-02  -1.027539e+05   1.055632e+05   5.811147e+03   2.646672e+09   1.133111e+09   2.621540e+10   1.474304e+05   5.386746e-28   0.000000e+00   0.000000e+00
     1352000   1.351999e-06   1.393104e+01   4.190670e+01   8.624037e-02  -1.027320e+05   1.055727e+05   6.020750e+03   2.818563e+09   1.249406e+09   2.618513e+10   1.474304e+05   5.383881e-28   0.000000e+00   0.000000e+00
     1360000   1.359999e-06   1.393022e+01   4.190755e+01   8.628937e-02  -1.027088e+05   1.055832e+05   6.230105e+03   2.990145e+09   1.365535e+09   2.615321e+10   1.474304e+05   5.381014e-28   0.000000e+00   0.000000e+00
     1368000   1.367999e-06   1.392940e+01   4.190839e+01   8.634005e-02  -1.026842e+05   1.055946e+05   6.439197e+03   3.161407e+09   1.481492e+09   2.611965e+10   1.474304e+05   5.378144e-28   0.000000e+00   0.000000e+00
     1376000   1.375999e-06   1.392858e+01   4.190924e+01   8.639240e-02  -1.026582e+05   1.056069e+05   6.648015e+03   3.332338e+09   1.597269e+09   2.608445e+10   1.474304e+05   5.375271e-28   0.000000e+00   0.000000e+00
     1384000   1.383999e-06   1.392776e+01   4.191008e+01   8.644642e-02  -1.026308e+05   1.056201e+05   6.856544e+03   3.502928e+09   1.712860e+09   2.604762e+10   1.474304e+05   5.372395e-28   0.000000e+00   0.000000e+00
     1392000   1.391999e-06   1.392694e+01   4.191093e+01   8.650211e-02  -1.026021e+05   1.056343e+05   7.064772e+03   3.673167e+09   1.828257e+09   2.600916e+10   1.474304e+05   5.369515e-28   0.000000e+00   0.000000e+00
     1400000   1.399999e-06   1.392611e+01   4.191177e+01   8.655946e-02  -1.025721e+05   1.056494e+05   7.272686e+03   3.843043e+09   1.943452e+09   2.596908e+10   1.474304e+05   5.366633e-28   0.000000e+00   0.000000e+00
     1408000   1.407999e-06   1.392529e+01   4.191262e+01   8.661847e-02  -1.025406e+05   1.056654e+05   7.480273e+03   4.012546e+09   2.058440e+09   2.592738e+10   1.474304e+05   5.363747e-28   0.000000e+00   0.000000e+00
     1416000   1.415999e-06   1.392447e+01   4.191346e+01   8.667914e-02  -1.025079e+05   1.056823e+05   7.687520e+03   4.181665e+09   2.173212e+09   2.588405e+10   1.474304e+05   5.360857e-28   0.000000e+00   0.000000e+00
     1424000   1.423999e-06   1.392365e+01   4.191431e+01   8.674147e-02  -1.024737e+05   1.057002e+05   7.894414e+03   4.350391e+09   2.287762e+09   2.583912e+10   1.474304e+05   5.357964e-28   0.000000e+00   0.000000e+00
     1432000   1.431999e-06   1.392283e+01   4.191516e+01   8.680545e-02  -1.024383e+05   1.057189e+05   8.100941e+03   4.518712e+09   2.402082e+09   2.579258e+10   1.474304e+05   5.355068e-28   0.000000e+00   0.000000e+00
     1440000   1.439999e-06   1.392202e+01   4.191600e+01   8.687108e-02  -1.024014e+05   1.057386e+05   8.307091e+03   4.686619e+09   2.516166e+09   2.574444e+10   1.474304e+05   5.352168e-28   0.000000e+00   0.000000e+00
     1448000   1.447999e-06   1.392120e+01   4.191685e+01   8.693836e-02  -1.023633e+05   1.057592e+05   8.512848e+03   4.854101e+09   2.630006e+09   2.569469e+10   1.474304e+05   5.349265e-28   0.000000e+00   0.000000e+00
     1456000   1.455999e-06   1.392038e+01   4.191769e+01   8.700729e-02  -1.023238e+05   1.057807e+05   8.718201e+03   5.021147e+09   2.743596e+09   2.564336e+10   1.474304e+05   5.346357e-28   0.000000e+00   0.000000e+00
     1464000   1.463999e-06   1.391956e+01   4.191854e+01   8.707785e-02  -1.022829e+05   1.058031e+05   8.923138e+03   5.187748e+09   2.856928e+09   2.559044e+10   1.474304e+05   5.343446e-28   0.000000e+00   0.000000e+00
     1472000   1.471999e-06   1.391874e+01   4.191939e+01   8.715005e-02  -1.022408e+05   1.058264e+05   9.127644e+03   5.353893e+09   2.969996e+09   2.553593e+10   1.474304e+05   5.340531e-28   0.000000e+00   0.000000e+00
     1480000   1.479999e-06   1.391792e+01   4.192023e+01   8.722389e-02  -1.021973e+05   1.058506e+05   9.331708e+03   5.519572e+09   3.082792e+09   2.547985e+10   1.474304e+05   5.337613e-28   0.000000e+00   0.000000e+00
     1488000   1.487999e-06   1.391711e+01   4.192108e+01   8.729936e-02  -1.021525e+05   1.058757e+05   9.535317e+03   5.684775e+09   3.195310e+09   2.542220e+10   1.474304e+05   5.334690e-28   0.000000e+00   0.000000e+00
     1496000   1.495999e-06   1.391629e+01   4.192193e+01   8.737646e-02  -1.021063e+05   1.059017e+05   9.738459e+03   5.849491e+09   3.307543e+09   2.536297e+10   1.474304e+05   5.331763e-28   0.000000e+00   0.000000e+00
     1504000   1.503999e-06   1.391547e+01   4.192277e+01   8.745517e-02  -1.020589e+05   1.059286e+05   9.941121e+03   6.013712e+09   3.419484e+09   2.530219e+10   1.474304e+05   5.328832e-28   0.000000e+00   0.000000e+00
     1512000   1.511999e-06   1.391466e+01   4.192362e+01   8.753551e-02  -1.020101e+05   1.059564e+05   1.014329e+04   6.177426e+09   3.531126e+09   2.523985e+10   1.474304e+05   5.325897e-28   0.000000e+00   0.000000e+00
     1520000   1.519999e-06   1.391384e+01   4.192447e+01   8.761747e-02  -1.019600e+05   1.059851e+05   1.034495e+04   6.340624e+09   3.642463e+09   2.517596e+10   1.474304e+05   5.322958e-28   0.000000e+00   0.000000e+00
     1528000   1.527999e-06   1.391302e+01   4.192532e+01   8.770103e-02  -1.019087e+05   1.060147e+05   1.054610e+04   6.503297e+09   3.753487e+09   2.511052e+10   1.474304e+05   5.320014e-28   0.000000e+00   0.000000e+00
     1536000   1.535999e-06   1.391221e+01   4.192617e+01   8.778620e-02  -1.018560e+05   1.060452e+05   1.074672e+04   6.665433e+09   3.864192e+09   2.504355e+10   1.474304e+05   5.317067e-28   0.000000e+00   0.000000e+00
     1544000   1.543999e-06   1.391139e+01   4.192701e+01   8.787298e-02  -1.018020e+05   1.060765e+05   1.094679e+04   6.827024e+09   3.974572e+09   2.497504e+10   1.474304e+05   5.314114e-28   0.000000e+00   0.000000e+00
     1552000   1.551999e-06   1.391058e+01   4.192786e+01   8.796135e-02  -1.017468e+05   1.061088e+05   1.114631e+04   6.988059e+09   4.084620e+09   2.490500e+10   1.474304e+05   5.311158e-28   0.000000e+00   0.000000e+00
     1560000   1.559999e-06   1.390977e+01   4.192871e+01   8.805132e-02  -1.016902e+05   1.061419e+05   1.134527e+04   7.148529e+09   4.194328e+09   2.483345e+10   1.474304e+05   5.308197e-28   0.000000e+00   0.000000e+00
     1568000   1.567999e-06   1.390895e+01   4.192956e+01   8.814287e-02  -1.016324e+05   1.061759e+05   1.154365e+04   7.308424e+09   4.303691e+09   2.476037e+10   1.474304e+05   5.305231e-28   0.000000e+00   0.000000e+00
     1576000   1.575999e-06   1.390814e+01   4.193041e+01   8.823601e-02  -1.015733e+05   1.062108e+05   1.174143e+04   7.467735e+09   4.412702e+09   2.468579e+10   1.474304e+05   5.302261e-28   0.000000e+00   0.000000e+00
     1584000   1.583999e-06   1.390733e+01   4.193126e+01   8.833073e-02  -1.015129e+05   1.062465e+05   1.193861e+04   7.626452e+09   4.521355e+09   2.460971e+10   1.474304e+05   5.299286e-28   0.000000e+00   0.000000e+00
     1592000   1.591999e-06   1.390652e+01   4.193211e+01   8.842703e-02  -1.014513e+05   1.062831e+05   1.213518e+04   7.784566e+09   4.629642e+09   2.453213e+10   1.474304e+05   5.296307e-28   0.000000e+00   0.000000e+00
     1600000   1.599999e-06   1.390571e+01   4.193296e+01   8.852489e-02  -1.013883e+05   1.063206e+05   1.233112e+04   7.942066e+09   4.737558e+09   2.445307e+10   1.474304e+05   5.293323e-28   0.000000e+00   0.000000e+00
     1608000   1.607999e-06   1.390489e+01   4.193381e+01   8.862433e-02  -1.013242e+05   1.063589e+05   1.252643e+04   8.098944e+09   4.845096e+09   2.437252e+10   1.474304e+05   5.290334e-28   0.000000e+00   0.000000e+00
     1616000   1.615999e-06   1.390408e+01   4.193466e+01   8.872532e-02  -1.012588e+05   1.063981e+05   1.272108e+04   8.255191e+09   4.952249e+09   2.429049e+10   1.474304e+05   5.287340e-28   0.000000e+00   0.000000e+00
     1624000   1.623999e-06   1.390327e+01   4.193551e+01   8.882786e-02  -1.011921e+05   1.064381e+05   1.291507e+04   8.410797e+09   5.059012e+09   2.420700e+10   1.474304e+05   5.284342e-28   0.000000e+00   0.000000e+00
     1632000   1.631999e-06   1.390247e+01   4.193637e+01   8.893195e-02  -1.011242e+05   1.064790e+05   1.310839e+04   8.565752e+09   5.165378e+09   2.412204e+10   1.474304e+05   5.281338e-28   0.000000e+00   0.000000e+00
     1640000   1.639999e-06   1.390166e+01   4.193722e+01   8.903759e-02  -1.010550e+05   1.065208e+05   1.330102e+04   8.720048e+09   5.271340e+09   2.403562e+10   1.474304e+05   5.278330e-28   0.000000e+00   0.000000e+00
     1648000   1.647999e-06   1.390085e+01   4.193807e+01   8.914477e-02  -1.009847e+05   1.065634e+05   1.349295e+04   8.873675e+09   5.376893e+09   2.394776e+10   1.474304e+05   5.275317e-28   0.000000e+00   0.000000e+00
     1656000   1.655999e-06   1.390004e+01   4.193892e+01   8.925348e-02  -1.009131e+05   1.066068e+05   1.368418e+04   9.026625e+09   5.482030e+09   2.385846e+10   1.474304e+05   5.272299e-28   0.000000e+00   0.000000e+00
     1664000   1.663999e-06   1.389923e+01   4.193978e+01   8.936371e-02  -1.008401e+05   1.066512e+05   1.387467e+04   9.198236e+09   5.605287e+09   2.376568e+10   1.474304e+05   5.272885e-28   0.000000e+00   0.000000e+00
     1672000   1.671999e-06   1.389843e+01   4.194063e+01   8.947547e-02  -1.007659e+05   1.066965e+05   1.406443e+04   9.349989e+09   5.709721e+09   2.367346e+10   1.474304e+05   5.269953e-28   0.000000e+00   0.000000e+00
     1680000   1.679999e-06   1.389762e+01   4.194148e+01   8.958874e-02  -1.006905e+05   1.067426e+05   1.425344e+04   9.501038e+09   5.813720e+09   2.357981e+10   1.474304e+05   5.267016e-28   0.000000e+00   0.000000e+00
     1688000   1.687999e-06   1.389682e+01   4.194234e+01   8.970352e-02  -1.006139e+05   1.067895e+05   1.444170e+04   9.651375e+09   5.917279e+09   2.348475e+10   1.474304e+05   5.264075e-28   0.000000e+00   0.000000e+00
     1696000   1.695999e-06   1.389601e+01   4.194319e+01   8.981981e-02  -1.005361e+05   1.068372e+05   1.462919e+04   9.800990e+09   6.020391e+09   2.338829e+10   1.474304e+05   5.261128e-28   0.000000e+00   0.000000e+00
     1704000   1.703999e-06   1.389521e+01   4.194405e+01   8.993759e-02  -1.004571e+05   1.068858e+05   1.481591e+04   9.949875e+09   6.123050e+09   2.329042e+10   1.474304e+05   5.258177e-28   0.000000e+00   0.000000e+00
     1712000   1.711999e-06   1.389440e+01   4.194490e+01   9.005686e-02  -1.003769e+05   1.069352e+05   1.500184e+04   1.009802e+10   6.225251e+09   2.319116e+10   1.474304e+05   5.255221e-28   0.000000e+00   0.000000e+00
     1720000   1.719999e-06   1.389360e+01   4.194576e+01   9.017762e-02  -1.002955e+05   1.069854e+05   1.518697e+04   1.024542e+10   6.326987e+09   2.309052e+10   1.474304e+05   5.252259e-28   0.000000e+00   0.000000e+00
     1728000   1.727999e-06   1.389280e+01   4.194661e+01   9.029985e-02  -1.002130e+05   1.070364e+05   1.537128e+04   1.039206e+10   6.428252e+09   2.298850e+10   1.474304e+05   5.249293e-28   0.000000e+00   0.000000e+00
     1736000   1.735999e-06   1.389200e+01   4.194747e+01   9.042355e-02  -1.001292e+05   1.070883e+05   1.555478e+04   1.053794e+10   6.529041e+09   2.288511e+10   1.474304e+05   5.246322e-28   0.000000e+00   0.000000e+00
     1744000   1.743999e-06   1.389120e+01   4.194833e+01   9.054872e-02  -1.000444e+05   1.071409e+05   1.573744e+04   1.068304e+10   6.629347e+09   2.278036e+10   1.474304e+05   5.243346e-28   0.000000e+00   0.000000e+00
     1752000   1.751999e-06   1.389040e+01   4.194918e+01   9.067535e-02  -9.995832e+04   1.071943e+05   1.591926e+04   1.082737e+10   6.729166e+09   2.267426e+10   1.474304e+05   5.240365e-28   0.000000e+00   0.000000e+00
     1760000   1.759999e-06   1.388960e+01   4.195004e+01   9.080343e-02  -9.987112e+04   1.072486e+05   1.610022e+04   1.097090e+10   6.828490e+09   2.256681e+10   1.474304e+05   5.237379e-28   0.000000e+00   0.000000e+00
     1768000   1.767999e-06   1.388880e+01   4.195090e+01   9.093295e-02  -9.978278e+04   1.073036e+05   1.628032e+04   1.111363e+10   6.927316e+09   2.245803e+10   1.474304e+05   5.234387e-28   0.000000e+00   0.000000e+00
     1776000   1.775999e-06   1.388800e+01   4.195176e+01   9.106391e-02  -9.969331e+04   1.073594e+05   1.645955e+04   1.125556e+10   7.025636e+09   2.234792e+10   1.474304e+05   5.231391e-28   0.000000e+00   0.000000e+00
     1784000   1.783999e-06   1.388720e+01   4.195262e+01   9.119630e-02  -9.960270e+04   1.074160e+05   1.663789e+04   1.139667e+10   7.123445e+09   2.223649e+10   1.474304e+05   5.228389e-28   0.000000e+00   0.000000e+00
     1792000   1.791999e-06   1.388641e+01   4.195348e+01   9.133012e-02  -9.951096e+04   1.074734e+05   1.681533e+04   1.153697e+10   7.220738e+09   2.212375e+10   1.474304e+05   5.225382e-28   0.000000e+00   0.000000e+00
     1800000   1.799999e-06   1.388561e+01   4.195434e+01   9.146535e-02  -9.941811e+04   1.075315e+05   1.699186e+04   1.167643e+10   7.317508e+09   2.200971e+10   1.474304e+05   5.222371e-28   0.000000e+00   0.000000e+00
     1808000   1.807999e-06   1.388482e+01   4.195520e+01   9.160198e-02  -9.932414e+04   1.075905e+05   1.716748e+04   1.181505e+10   7.413752e+09   2.189437e+10   1.474304e+05   5.219354e-28   0.000000e+00   0.000000e+00
     1816000   1.815999e-06   1.388402e+01   4.195606e+01   9.174002e-02  -9.922907e+04   1.076502e+05   1.734217e+04   1.195282e+10   7.509462e+09   2.177775e+10   1.474304e+05   5.216331e-28   0.000000e+00   0.000000e+00
     1824000   1.823999e-06   1.388323e+01   4.195692e+01   9.187946e-02  -9.913290e+04   1.077106e+05   1.751592e+04   1.208974e+10   7.604635e+09   2.165985e+10   1.474304e+05   5.213304e-28   0.000000e+00   0.000000e+00
     1832000   1.831999e-06   1.388244e+01   4.195778e+01   9.202028e-02  -9.903564e+04   1.077718e+05   1.768872e+04   1.222580e+10   7.699263e+09   2.154068e+10   1.474304e+05   5.210271e-28   0.000000e+00   0.000000e+00
     1840000   1.839999e-06   1.388164e+01   4.195865e+01   9.216247e-02  -9.893729e+04   1.078338e+05   1.786057e+04   1.236099e+10   7.793343e+09   2.142025e+10   1.474304e+05   5.207233e-28   0.000000e+00   0.000000e+00
     1848000   1.847999e-06   1.388085e+01   4.195951e+01   9.230604e-02  -9.883786e+04   1.078965e+05   1.803145e+04   1.249530e+10   7.886868e+09   2.129858e+10   1.474304e+05   5.204190e-28   0.000000e+00   0.000000e+00
     1856000   1.855999e-06   1.388006e+01   4.196037e+01   9.245097e-02  -9.873736e+04   1.079600e+05   1.820134e+04   1.262873e+10   7.979833e+09   2.117566e+10   1.474304e+05   5.201142e-28   0.000000e+00   0.000000e+00
     1864000   1.863999e-06   1.387927e+01   4.196124e+01   9.259726e-02  -9.863580e+04   1.080242e+05   1.837025e+04   1.276126e+10   8.072234e+09   2.105151e+10   1.474304e+05   5.198089e-28   0.000000e+00   0.000000e+00
     1872000   1.871999e-06   1.387849e+01   4.196210e+01   9.274490e-02  -9.853319e+04   1.080891e+05   1.853816e+04   1.289290e+10   8.164065e+09   2.092613e+10   1.474304e+05   5.195030e-28   0.000000e+00   0.000000e+00
     1880000   1.879999e-06   1.387770e+01   4.196297e+01   9.289387e-02  -9.842952e+04   1.081548e+05   1.870507e+04   1.302362e+10   8.255320e+09   2.079955e+10   1.474304e+05   5.191966e-28   0.000000e+00   0.000000e+00
     1888000   1.887999e-06   1.387691e+01   4.196383e+01   9.304417e-02  -9.832481e+04   1.082212e+05   1.887095e+04   1.315343e+10   8.345996e+09   2.067175e+10   1.474304e+05   5.188897e-28   0.000000e+00   0.000000e+00
     1896000   1.895999e-06   1.387612e+01   4.196470e+01   9.319580e-02  -9.821907e+04   1.082884e+05   1.903581e+04   1.328232e+10   8.436086e+09   2.054277e+10   1.474304e+05   5.185823e-28   0.000000e+00   0.000000e+00
     1904000   1.903999e-06   1.387534e+01   4.196556e+01   9.334874e-02  -9.811230e+04   1.083562e+05   1.919963e+04   1.341028e+10   8.525586e+09   2.041259e+10   1.474304e+05   5.182743e-28   0.000000e+00   0.000000e+00
     1912000   1.911999e-06   1.387455e+01   4.196643e+01   9.350299e-02  -9.800451e+04   1.084248e+05   1.936241e+04   1.353731e+10   8.614491e+09   2.028124e+10   1.474304e+05   5.179658e-28   0.000000e+00   0.000000e+00
     1920000   1.919999e-06   1.387377e+01   4.196730e+01   9.365854e-02  -9.789570e+04   1.084940e+05   1.952413e+04   1.366339e+10   8.702796e+09   2.014873e+10   1.474304e+05   5.176568e-28   0.000000e+00   0.000000e+00
     1928000   1.927999e-06   1.387299e+01   4.196817e+01   9.381538e-02  -9.778589e+04   1.085640e+05   1.968479e+04   1.378852e+10   8.790496e+09   2.001505e+10   1.474304e+05   5.173473e-28   0.000000e+00   0.000000e+00
     1936000   1.935999e-06   1.387221e+01   4.196904e+01   9.397349e-02  -9.767509e+04   1.086347e+05   1.984437e+04   1.391269e+10   8.877586e+09   1.988023e+10   1.474304e+05   5.170373e-28   0.000000e+00   0.000000e+00
     1944000   1.943999e-06   1.387143e+01   4.196990e+01   9.413288e-02  -9.756329e+04   1.087060e+05   2.000287e+04   1.403590e+10   8.964062e+09   1.974427e+10   1.474304e+05   5.167267e-28   0.000000e+00   0.000000e+00
     1952000   1.951999e-06   1.387065e+01   4.197077e+01   9.429354e-02  -9.745052e+04   1.087781e+05   2.016027e+04   1.415814e+10   9.049919e+09   1.960718e+10   1.474304e+05   5.164156e-28   0.000000e+00   0.000000e+00
     1960000   1.959999e-06   1.386987e+01   4.197164e+01   9.445544e-02  -9.733676e+04   1.088508e+05   2.031658e+04   1.427940e+10   9.135151e+09   1.946897e+10   1.474304e+05   5.161041e-28   0.000000e+00   0.000000e+00
     1968000   1.967999e-06   1.386909e+01   4.197252e+01   9.461860e-02  -9.722205e+04   1.089243e+05   2.047177e+04   1.439968e+10   9.219755e+09   1.932965e+10   1.474304e+05   5.157920e-28   0.000000e+00   0.000000e+00
     1976000   1.975999e-06   1.386831e+01   4.197339e+01   9.478299e-02  -9.710637e+04   1.089984e+05   2.062585e+04   1.451897e+10   9.303726e+09   1.918923e+10   1.474304e+05   5.154794e-28   0.000000e+00   0.000000e+00
     1984000   1.983999e-06   1.386753e+01   4.197426e+01   9.494861e-02  -9.698975e+04   1.090731e+05   2.077880e+04   1.463726e+10   9.387060e+09   1.904773e+10   1.474304e+05   5.151663e-28   0.000000e+00   0.000000e+00
     1992000   1.991999e-06   1.386676e+01   4.197513e+01   9.511545e-02  -9.687218e+04   1.091486e+05   2.093061e+04   1.475455e+10   9.469751e+09   1.890514e+10   1.474304e+05   5.148526e-28   0.000000e+00   0.000000e+00
     2000000   1.999999e-06   1.386598e+01   4.197601e+01   9.528350e-02  -9.675368e+04   1.092246e+05   2.108128e+04   1.487082e+10   9.551795e+09   1.876149e+10   1.474304e+05   5.145385e-28   0.000000e+00   0.000000e+00
     2008000   2.007999e-06   1.386521e+01   4.197688e+01   9.545274e-02  -9.663425e+04   1.093014e+05   2.123079e+04   1.498608e+10   9.633189e+09   1.861678e+10   1.474304e+05   5.142239e-28   0.000000e+00   0.000000e+00
     2016000   2.015999e-06   1.386444e+01   4.197776e+01   9.562319e-02  -9.651390e+04   1.093788e+05   2.137914e+04   1.510032e+10   9.713927e+09   1.847101e+10   1.474304e+05   5.139088e-28   0.000000e+00   0.000000e+00
     2024000   2.023999e-06   1.386367e+01   4.197863e+01   9.579481e-02  -9.639265e+04   1.094568e+05   2.152632e+04   1.521353e+10   9.794006e+09   1.832421e+10   1.474304e+05   5.135931e-28   0.000000e+00   0.000000e+00
     2032000   2.031999e-06   1.386290e+01   4.197951e+01   9.596760e-02  -9.627049e+04   1.095355e+05   2.167233e+04   1.532571e+10   9.873421e+09   1.817638e+10   1.474304e+05   5.132770e-28   0.000000e+00   0.000000e+00
     2040000   2.039999e-06   1.386213e+01   4.198038e+01   9.614156e-02  -9.614744e+04   1.096148e+05   2.181714e+04   1.543685e+10   9.952167e+09   1.802754e+10   1.474304e+05   5.129604e-28   0.000000e+00   0.000000e+00
     2048000   2.047999e-06   1.386136e+01   4.198126e+01   9.631667e-02  -9.602350e+04   1.096947e+05   2.196077e+04   1.554694e+10   1.003024e+10   1.787768e+10   1.474304e+05   5.126433e-28   0.000000e+00   0.000000e+00
     2056000   2.055999e-06   1.386059e+01   4.198214e+01   9.649293e-02  -9.589869e+04   1.097753e+05   2.210318e+04   1.565598e+10   1.010764e+10   1.772683e+10   1.474304e+05   5.123257e-28   0.000000e+00   0.000000e+00
     2064000   2.063999e-06   1.385982e+01   4.198302e+01   9.667032e-02  -9.577301e+04   1.098564e+05   2.224439e+04   1.576396e+10   1.018436e+10   1.757499e+10   1.474304e+05   5.120077e-28   0.000000e+00   0.000000e+00
     2072000   2.071999e-06   1.385906e+01   4.198390e+01   9.684884e-02  -9.564647e+04   1.099382e+05   2.238438e+04   1.587087e+10   1.026039e+10   1.742218e+10   1.474304e+05   5.116892e-28   0.000000e+00   0.000000e+00
     2080000   2.079999e-06   1.385829e+01   4.198478e+01   9.702847e-02  -9.551908e+04   1.100206e+05   2.252314e+04   1.597672e+10   1.033573e+10   1.726840e+10   1.474304e+05   5.113701e-28   0.000000e+00   0.000000e+00
     2088000   2.087999e-06   1.385753e+01   4.198566e+01   9.720921e-02  -9.539084e+04   1.101036e+05   2.266067e+04   1.608149e+10   1.041039e+10   1.711367e+10   1.474304e+05   5.110507e-28   0.000000e+00   0.000000e+00
     2096000   2.095999e-06   1.385677e+01   4.198654e+01   9.739104e-02  -9.526178e+04   1.101872e+05   2.279696e+04   1.618519e+10   1.048434e+10   1.695799e+10   1.474304e+05   5.107307e-28   0.000000e+00   0.000000e+00
     2104000   2.103999e-06   1.385600e+01   4.198742e+01   9.757395e-02  -9.513188e+04   1.102713e+05   2.293200e+04   1.628780e+10   1.055760e+10   1.680137e+10   1.474304e+05   5.104103e-28   0.000000e+00   0.000000e+00
     2112000   2.111999e-06   1.385524e+01   4.198830e+01   9.775795e-02  -9.500117e+04   1.103561e+05   2.306578e+04   1.638931e+10   1.063015e+10   1.664384e+10   1.474304e+05   5.100894e-28   0.000000e+00   0.000000e+00
     2120000   2.119999e-06   1.385448e+01   4.198918e+01   9.794300e-02  -9.486966e+04   1.104414e+05   2.319830e+04   1.648974e+10   1.070200e+10   1.648539e+10   1.474304e+05   5.097681e-28   0.000000e+00   0.000000e+00
     2128000   2.127999e-06   1.385373e+01   4.199007e+01   9.812911e-02  -9.473734e+04   1.105273e+05   2.332954e+04   1.658906e+10   1.077313e+10   1.632604e+10   1.474304e+05   5.094464e-28   0.000000e+00   0.000000e+00
     2136000   2.135999e-06   1.385297e+01   4.199095e+01   9.831627e-02  -9.460423e+04   1.106138e+05   2.345951e+04   1.668727e+10   1.084355e+10   1.616580e+10   1.474304e+05   5.091242e-28   0.000000e+00   0.000000e+00
     2144000   2.143999e-06   1.385221e+01   4.199184e+01   9.850446e-02  -9.447035e+04   1.107008e+05   2.358819e+04   1.678438e+10   1.091325e+10   1.600468e+10   1.474304e+05   5.088015e-28   0.000000e+00   0.000000e+00
     2152000   2.151999e-06   1.385146e+01   4.199272e+01   9.869368e-02  -9.433569e+04   1.107884e+05   2.371558e+04   1.688037e+10   1.098222e+10   1.584269e+10   1.474304e+05   5.084784e-28   0.000000e+00   0.000000e+00
     2160000   2.159999e-06   1.385070e+01   4.199361e+01   9.888391e-02  -9.420026e+04   1.108765e+05   2.384167e+04   1.697523e+10   1.105048e+10   1.567985e+10   1.474304e+05   5.081549e-28   0.000000e+00   0.000000e+00
     2168000   2.167999e-06   1.384995e+01   4.199450e+01   9.907514e-02  -9.406409e+04   1.109652e+05   2.396646e+04   1.706898e+10   1.111800e+10   1.551615e+10   1.474304e+05   5.078310e-28   0.000000e+00   0.000000e+00
     2176000   2.175999e-06   1.384920e+01   4.199539e+01   9.926737e-02  -9.392716e+04   1.110544e+05   2.408993e+04   1.716159e+10   1.118479e+10   1.535163e+10   1.474304e+05   5.075066e-28   0.000000e+00   0.000000e+00
     2184000   2.183999e-06   1.384845e+01   4.199628e+01   9.946058e-02  -9.378950e+04   1.111441e+05   2.421208e+04   1.725307e+10   1.125085e+10   1.518627e+10   1.474304e+05   5.071819e-28   0.000000e+00   0.000000e+00
     2192000   2.191999e-06   1.384770e+01   4.199717e+01   9.965476e-02  -9.365112e+04   1.112344e+05   2.433291e+04   1.734340e+10   1.131617e+10   1.502011e+10   1.474304e+05   5.068567e-28   0.000000e+00   0.000000e+00
     2200000   2.199999e-06   1.384695e+01   4.199806e+01   9.984990e-02  -9.351201e+04   1.113252e+05   2.445240e+04   1.743260e+10   1.138074e+10   1.485314e+10   1.474304e+05   5.065311e-28   0.000000e+00   0.000000e+00
     2208000   2.207999e-06   1.384620e+01   4.199895e+01   1.000460e-01  -9.337220e+04   1.114165e+05   2.457058e+04   1.752235e+10   1.144303e+10   1.469879e+10   1.474304e+05   5.065292e-28   0.000000e+00   0.000000e+00
     2216000   2.215999e-06   1.384546e+01   4.199984e+01   1.002430e-01  -9.323167e+04   1.115083e+05   2.468750e+04   1.760960e+10   1.150638e+10   1.453028e+10   1.474304e+05   5.062145e-28   0.000000e+00   0.000000e+00
     2224000   2.223999e-06   1.384471e+01   4.200073e+01   1.004410e-01  -9.309044e+04   1.116006e+05   2.480301e+04   1.769636e+10   1.157133e+10   1.435289e+10   1.474304e+05   5.057797e-28   0.000000e+00   0.000000e+00
     2232000   2.231999e-06   1.384397e+01   4.200162e+01   1.006399e-01  -9.294853e+04   1.116934e+05   2.491715e+04   1.778094e+10   1.163289e+10   1.418282e+10   1.474304e+05   5.054513e-28   0.000000e+00   0.000000e+00
     2240000   2.239999e-06   1.384322e+01   4.200252e+01   1.008397e-01  -9.280595e+04   1.117867e+05   2.502993e+04   1.786435e+10   1.169369e+10   1.401200e+10   1.474304e+05   5.051225e-28   0.000000e+00   0.000000e+00
     2248000   2.247999e-06   1.384248e+01   4.200341e+01   1.010403e-01  -9.266270e+04   1.118805e+05   2.514134e+04   1.794660e+10   1.175373e+10   1.384045e+10   1.474304e+05   5.047933e-28   0.000000e+00   0.000000e+00
     2256000   2.255999e-06   1.384174e+01   4.200431e+01   1.012419e-01  -9.251881e+04   1.119748e+05   2.525138e+04   1.802767e+10   1.181301e+10   1.366818e+10   1.474304e+05   5.044637e-28   0.000000e+00   0.000000e+00
     2264000   2.263999e-06   1.384100e+01   4.200520e+01   1.014444e-01  -9.237426e+04   1.120695e+05   2.536003e+04   1.810757e+10   1.187152e+10   1.349519e+10   1.474304e+05   5.041337e-28   0.000000e+00   0.000000e+00
     2272000   2.271999e-06   1.384026e+01   4.200610e+01   1.016477e-01  -9.222909e+04   1.121647e+05   2.546730e+04   1.818628e+10   1.192926e+10   1.332150e+10   1.474304e+05   5.038034e-28   0.000000e+00   0.000000e+00
     2280000   2.279999e-06   1.383952e+01   4.200700e+01   1.018518e-01  -9.208329e+04   1.122604e+05   2.557317e+04   1.826381e+10   1.198623e+10   1.314713e+10   1.474304e+05   5.034727e-28   0.000000e+00   0.000000e+00
     2288000   2.287999e-06   1.383879e+01   4.200790e+01   1.020568e-01  -9.193687e+04   1.123565e+05   2.567765e+04   1.834015e+10   1.204242e+10   1.297208e+10   1.474304e+05   5.031417e-28   0.000000e+00   0.000000e+00
     2296000   2.295999e-06   1.383805e+01   4.200880e+01   1.022627e-01  -9.178985e+04   1.124531e+05   2.578073e+04   1.841531e+10   1.209784e+10   1.279636e+10   1.474304e+05   5.028103e-28   0.000000e+00   0.000000e+00
     2304000   2.303999e-06   1.383732e+01   4.200970e+01   1.024693e-01  -9.164223e+04   1.125501e+05   2.588239e+04   1.848926e+10   1.215248e+10   1.261999e+10   1.474304e+05   5.024785e-28   0.000000e+00   0.000000e+00
     2312000   2.311999e-06   1.383659e+01   4.201060e+01   1.026768e-01  -9.149402e+04   1.126475e+05   2.598264e+04   1.856202e+10   1.220633e+10   1.244298e+10   1.474304e+05   5.021465e-28   0.000000e+00   0.000000e+00
     2320000   2.319999e-06   1.383586e+01   4.201150e+01   1.028850e-01  -9.134524e+04   1.127454e+05   2.608148e+04   1.863358e+10   1.225941e+10   1.226534e+10   1.474304e+05   5.018141e-28   0.000000e+00   0.000000e+00
     2328000   2.327999e-06   1.383513e+01   4.201240e+01   1.030941e-01  -9.119589e+04   1.128437e+05   2.617889e+04   1.870393e+10   1.231169e+10   1.208707e+10   1.474304e+05   5.014814e-28   0.000000e+00   0.000000e+00
     2336000   2.335999e-06   1.383440e+01   4.201330e+01   1.033039e-01  -9.104598e+04   1.129424e+05   2.627487e+04   1.877308e+10   1.236319e+10   1.190820e+10   1.474304e+05   5.011483e-28   0.000000e+00   0.000000e+00
     2344000   2.343999e-06   1.383367e+01   4.201421e+01   1.035145e-01  -9.089552e+04   1.130415e+05   2.636942e+04   1.884102e+10   1.241389e+10   1.172874e+10   1.474304e+05   5.008150e-28   0.000000e+00   0.000000e+00
     2352000   2.351999e-06   1.383294e+01   4.201511e+01   1.037258e-01  -9.074453e+04   1.131410e+05   2.646253e+04   1.890774e+10   1.246380e+10   1.154869e+10   1.474304e+05   5.004814e-28   0.000000e+00   0.000000e+00
     2360000   2.359999e-06   1.383222e+01   4.201602e+01   1.039379e-01  -9.059300e+04   1.132409e+05   2.655419e+04   1.897324e+10   1.251292e+10   1.136807e+10   1.474304e+05   5.001475e-28   0.000000e+00   0.000000e+00
     2368000   2.367999e-06   1.383149e+01   4.201692e+01   1.041507e-01  -9.044096e+04   1.133412e+05   2.664441e+04   1.903753e+10   1.256123e+10   1.118688e+10   1.474304e+05   4.998133e-28   0.000000e+00   0.000000e+00
     2376000   2.375999e-06   1.383077e+01   4.201783e+01   1.043642e-01  -9.028840e+04   1.134419e+05   2.673318e+04   1.910059e+10   1.260875e+10   1.100515e+10   1.474304e+05   4.994788e-28   0.000000e+00   0.000000e+00
     2384000   2.383999e-06   1.383005e+01   4.201874e+01   1.045784e-01  -9.013535e+04   1.135429e+05   2.682049e+04   1.916243e+10   1.265546e+10   1.082288e+10   1.474304e+05   4.991441e-28   0.000000e+00   0.000000e+00
     2392000   2.391999e-06   1.382933e+01   4.201965e+01   1.047933e-01  -8.998181e+04   1.136444e+05   2.690635e+04   1.922305e+10   1.270137e+10   1.064009e+10   1.474304e+05   4.988092e-28   0.000000e+00   0.000000e+00
     2400000   2.399999e-06   1.382861e+01   4.202056e+01   1.050089e-01  -8.982779e+04   1.137461e+05   2.699073e+04   1.928243e+10   1.274648e+10   1.045678e+10   1.474304e+05   4.984740e-28   0.000000e+00   0.000000e+00
     2408000   2.407999e-06   1.382789e+01   4.202147e+01   1.052252e-01  -8.967329e+04   1.138483e+05   2.707365e+04   1.934058e+10   1.279077e+10   1.027297e+10   1.474304e+05   4.981385e-28   0.000000e+00   0.000000e+00
     2416000   2.415999e-06   1.382717e+01   4.202238e+01   1.054421e-01  -8.951834e+04   1.139508e+05   2.715510e+04   1.939750e+10   1.283426e+10   1.008867e+10   1.474304e+05   4.978028e-28   0.000000e+00   0.000000e+00
     2424000   2.423999e-06   1.382646e+01   4.202329e+01   1.056596e-01  -8.936294e+04   1.140536e+05   2.723507e+04   1.945318e+10   1.287693e+10   9.903897e+09   1.474304e+05   4.974669e-28   0.000000e+00   0.000000e+00
     2432000   2.431999e-06   1.382574e+01   4.202420e+01   1.058778e-01  -8.920709e+04   1.141568e+05   2.731356e+04   1.950763e+10   1.291879e+10   9.718654e+09   1.474304e+05   4.971308e-28   0.000000e+00   0.000000e+00
     2440000   2.439999e-06   1.382503e+01   4.202512e+01   1.060967e-01  -8.905082e+04   1.142603e+05   2.739057e+04   1.956083e+10   1.295984e+10   9.532958e+09   1.474304e+05   4.967945e-28   0.000000e+00   0.000000e+00
     2448000   2.447999e-06   1.382432e+01   4.202603e+01   1.063161e-01  -8.889412e+04   1.143642e+05   2.746609e+04   1.961279e+10   1.300006e+10   9.346819e+09   1.474304e+05   4.964580e-28   0.000000e+00   0.000000e+00
     2456000   2.455999e-06   1.382361e+01   4.202695e+01   1.065361e-01  -8.873702e+04   1.144683e+05   2.754012e+04   1.966350e+10   1.303947e+10   9.160249e+09   1.474304e+05   4.961214e-28   0.000000e+00   0.000000e+00
     2464000   2.463999e-06   1.382290e+01   4.202786e+01   1.067567e-01  -8.857951e+04   1.145728e+05   2.761265e+04   1.971297e+10   1.307806e+10   8.973262e+09   1.474304e+05   4.957845e-28   0.000000e+00   0.000000e+00
     2472000   2.471999e-06   1.382219e+01   4.202878e+01   1.069779e-01  -8.842161e+04   1.146776e+05   2.768369e+04   1.976119e+10   1.311583e+10   8.785868e+09   1.474304e+05   4.954475e-28   0.000000e+00   0.000000e+00
     2480000   2.479999e-06   1.382149e+01   4.202970e+01   1.071997e-01  -8.826333e+04   1.147827e+05   2.775322e+04   1.980817e+10   1.315278e+10   8.598079e+09   1.474304e+05   4.951103e-28   0.000000e+00   0.000000e+00
     2488000   2.487999e-06   1.382078e+01   4.203062e+01   1.074220e-01  -8.810468e+04   1.148880e+05   2.782125e+04   1.985389e+10   1.318890e+10   8.409908e+09   1.474304e+05   4.947730e-28   0.000000e+00   0.000000e+00
     2496000   2.495999e-06   1.382008e+01   4.203154e+01   1.076448e-01  -8.794567e+04   1.149937e+05   2.788778e+04   1.989835e+10   1.322420e+10   8.221366e+09   1.474304e+05   4.944356e-28   0.000000e+00   0.000000e+00
     2504000   2.503999e-06   1.381937e+01   4.203246e+01   1.078682e-01  -8.778631e+04   1.150996e+05   2.795280e+04   1.994157e+10   1.325867e+10   8.032465e+09   1.474304e+05   4.940980e-28   0.000000e+00   0.000000e+00
     2512000   2.511999e-06   1.381867e+01   4.203338e+01   1.080920e-01  -8.762661e+04   1.152058e+05   2.801630e+04   1.998353e+10   1.329231e+10   7.843218e+09   1.474304e+05   4.937603e-28   0.000000e+00   0.000000e+00
     2520000   2.519999e-06   1.381797e+01   4.203430e+01   1.083164e-01  -8.746658e+04   1.153123e+05   2.807829e+04   2.002423e+10   1.332512e+10   7.653635e+09   1.474304e+05   4.934226e-28   0.000000e+00   0.000000e+00
     2528000   2.527999e-06   1.381727e+01   4.203522e+01   1.085413e-01  -8.730623e+04   1.154190e+05   2.813876e+04   2.006367e+10   1.335711e+10   7.463731e+09   1.474304e+05   4.930847e-28   0.000000e+00   0.000000e+00
     2536000   2.535999e-06   1.381657e+01   4.203615e+01   1.087666e-01  -8.714556e+04   1.155260e+05   2.819770e+04   2.010186e+10   1.338826e+10   7.273515e+09   1.474304e+05   4.927467e-28   0.000000e+00   0.000000e+00
     2544000   2.543999e-06   1.381588e+01   4.203707e+01   1.089924e-01  -8.698460e+04   1.156332e+05   2.825513e+04   2.013878e+10   1.341858e+10   7.083000e+09   1.474304e+05   4.924087e-28   0.000000e+00   0.000000e+00
     2552000   2.551999e-06   1.381518e+01   4.203800e+01   1.092187e-01  -8.682335e+04   1.157407e+05   2.831103e+04   2.017444e+10   1.344806e+10   6.892199e+09   1.474304e+05   4.920706e-28   0.000000e+00   0.000000e+00
     2560000   2.559999e-06   1.381449e+01   4.203892e+01   1.094454e-01  -8.666181e+04   1.158484e+05   2.836541e+04   2.020885e+10   1.347672e+10   6.701122e+09   1.474304e+05   4.917324e-28   0.000000e+00   0.000000e+00
     2568000   2.567999e-06   1.381380e+01   4.203985e+01   1.096725e-01  -8.650001e+04   1.159563e+05   2.841825e+04   2.024199e+10   1.350453e+10   6.509783e+09   1.474304e+05   4.913942e-28   0.000000e+00   0.000000e+00
     2576000   2.575999e-06   1.381310e+01   4.204078e+01   1.099001e-01  -8.633795e+04   1.160645e+05   2.846956e+04   2.027386e+10   1.353152e+10   6.318193e+09   1.474304e+05   4.910559e-28   0.000000e+00   0.000000e+00
     2584000   2.583999e-06   1.381241e+01   4.204171e+01   1.101281e-01  -8.617563e+04   1.161728e+05   2.851934e+04   2.030447e+10   1.355766e+10   6.126364e+09   1.474304e+05   4.907177e-28   0.000000e+00   0.000000e+00
     2592000   2.591999e-06   1.381173e+01   4.204264e+01   1.103564e-01  -8.601308e+04   1.162814e+05   2.856758e+04   2.033382e+10   1.358297e+10   5.934308e+09   1.474304e+05   4.903794e-28   0.000000e+00   0.000000e+00
     2600000   2.599999e-06   1.381104e+01   4.204357e+01   1.105851e-01  -8.585029e+04   1.163901e+05   2.861429e+04   2.036191e+10   1.360744e+10   5.742037e+09   1.474304e+05   4.900411e-28   0.000000e+00   0.000000e+00
     2608000   2.607999e-06   1.381035e+01   4.204450e+01   1.108142e-01  -8.568729e+04   1.164991e+05   2.865945e+04   2.038872e+10   1.363107e+10   5.549563e+09   1.474304e+05   4.897028e-28   0.000000e+00   0.000000e+00
     2616000   2.615999e-06   1.380967e+01   4.204543e+01   1.110437e-01  -8.552408e+04   1.166082e+05   2.870308e+04   2.041428e+10   1.365387e+10   5.356897e+09   1.474304e+05   4.893646e-28   0.000000e+00   0.000000e+00
     2624000   2.623999e-06   1.380898e+01   4.204637e+01   1.112735e-01  -8.536066e+04   1.167176e+05   2.874516e+04   2.043856e+10   1.367582e+10   5.164053e+09   1.474304e+05   4.890263e-28   0.000000e+00   0.000000e+00
     2632000   2.631999e-06   1.380830e+01   4.204730e+01   1.115036e-01  -8.519706e+04   1.168271e+05   2.878570e+04   2.046158e+10   1.369693e+10   4.971042e+09   1.474304e+05   4.886881e-28   0.000000e+00   0.000000e+00
     2640000   2.639999e-06   1.380762e+01   4.204824e+01   1.117340e-01  -8.503328e+04   1.169367e+05   2.882470e+04   2.048334e+10   1.371721e+10   4.777875e+09   1.474304e+05   4.883500e-28   0.000000e+00   0.000000e+00
     2648000   2.647999e-06   1.380694e+01   4.204917e+01   1.119648e-01  -8.486933e+04   1.170465e+05   2.886215e+04   2.050383e+10   1.373664e+10   4.584565e+09   1.474304e+05   4.880119e-28   0.000000e+00   0.000000e+00
     2656000   2.655999e-06   1.380626e+01   4.205011e+01   1.121958e-01  -8.470523e+04   1.171565e+05   2.889805e+04   2.052305e+10   1.375524e+10   4.391124e+09   1.474304e+05   4.876739e-28   0.000000e+00   0.000000e+00
     2664000   2.663999e-06   1.380559e+01   4.205105e+01   1.124272e-01  -8.454097e+04   1.172666e+05   2.893241e+04   2.054101e+10   1.377299e+10   4.197563e+09   1.474304e+05   4.873359e-28   0.000000e+00   0.000000e+00
     2672000   2.671999e-06   1.380491e+01   4.205198e+01   1.126587e-01  -8.437657e+04   1.173769e+05   2.896521e+04   2.055770e+10   1.378990e+10   4.003895e+09   1.474304e+05   4.869981e-28   0.000000e+00   0.000000e+00
     2680000   2.679999e-06   1.380424e+01   4.205292e+01   1.128906e-01  -8.421205e+04   1.174872e+05   2.899647e+04   2.057312e+10   1.380597e+10   3.810131e+09   1.474304e+05   4.866603e-28   0.000000e+00   0.000000e+00
     2688000   2.687999e-06   1.380356e+01   4.205386e+01   1.131227e-01  -8.404741e+04   1.175978e+05   2.902617e+04   2.058729e+10   1.382120e+10   3.616283e+09   1.474304e+05   4.863227e-28   0.000000e+00   0.000000e+00
     2696000   2.695999e-06   1.380289e+01   4.205481e+01   1.133550e-01  -8.388265e+04   1.177084e+05   2.905433e+04   2.060018e+10   1.383559e+10   3.422364e+09   1.474304e+05   4.859852e-28   0.000000e+00   0.000000e+00
     2704000   2.703999e-06   1.380222e+01   4.205575e+01   1.135875e-01  -8.371781e+04   1.178191e+05   2.908093e+04   2.061182e+10   1.384913e+10   3.228385e+09   1.474304e+05   4.856478e-28   0.000000e+00   0.000000e+00
     2712000   2.711999e-06   1.380155e+01   4.205669e+01   1.138203e-01  -8.355287e+04   1.179300e+05   2.910598e+04   2.062219e+10   1.386184e+10   3.034357e+09   1.474304e+05   4.853106e-28   0.000000e+00   0.000000e+00
     2720000   2.719999e-06   1.380088e+01   4.205763e+01   1.140532e-01  -8.338785e+04   1.180409e+05   2.912948e+04   2.063130e+10   1.387370e+10   2.840293e+09   1.474304e+05   4.849735e-28   0.000000e+00   0.000000e+00
     2728000   2.727999e-06   1.380022e+01   4.205858e+01   1.142864e-01  -8.322277e+04   1.181519e+05   2.915143e+04   2.063915e+10   1.388472e+10   2.646205e+09   1.474304e+05   4.846366e-28   0.000000e+00   0.000000e+00
     2736000   2.735999e-06   1.379955e+01   4.205952e+01   1.145197e-01  -8.305749e+04   1.182631e+05   2.917186e+04   2.067152e+10   1.391134e+10   2.458758e+09   1.474304e+05   4.855041e-28   0.000000e+00   0.000000e+00
     2744000   2.743999e-06   1.379889e+01   4.206047e+01   1.147531e-01  -8.289210e+04   1.183745e+05   2.919075e+04   2.067710e+10   1.392079e+10   2.264518e+09   1.474304e+05   4.851763e-28   0.000000e+00   0.000000e+00
     2752000   2.751999e-06   1.379823e+01   4.206142e+01   1.149867e-01  -8.272666e+04   1.184859e+05   2.920809e+04   2.068143e+10   1.392940e+10   2.070287e+09   1.474304e+05   4.848486e-28   0.000000e+00   0.000000e+00
     2760000   2.759999e-06   1.379756e+01   4.206237e+01   1.152204e-01  -8.256120e+04   1.185973e+05   2.922387e+04   2.068451e+10   1.393718e+10   1.876075e+09   1.474304e+05   4.845212e-28   0.000000e+00   0.000000e+00
     2768000   2.767999e-06   1.379690e+01   4.206332e+01   1.154543e-01  -8.239571e+04   1.187089e+05   2.923811e+04   2.068632e+10   1.394411e+10   1.681895e+09   1.474304e+05   4.841940e-28   0.000000e+00   0.000000e+00
     2776000   2.775999e-06   1.379625e+01   4.206427e+01   1.156882e-01  -8.223022e+04   1.188204e+05   2.925078e+04   2.068688e+10   1.395020e+10   1.487758e+09   1.474304e+05   4.838670e-28   0.000000e+00   0.000000e+00
     2784000   2.783999e-06   1.379559e+01   4.206522e+01   1.159223e-01  -8.206473e+04   1.189321e+05   2.926191e+04   2.068619e+10   1.395546e+10   1.293675e+09   1.474304e+05   4.835403e-28   0.000000e+00   0.000000e+00
     2792000   2.791999e-06   1.379493e+01   4.206617e+01   1.161564e-01  -8.189924e+04   1.190437e+05   2.927148e+04   2.068424e+10   1.395988e+10   1.099659e+09   1.474304e+05   4.832138e-28   0.000000e+00   0.000000e+00
     2800000   2.799999e-06   1.379428e+01   4.206712e+01   1.163906e-01  -8.173378e+04   1.191554e+05   2.927950e+04   2.068104e+10   1.396345e+10   9.057216e+08   1.474304e+05   4.828875e-28   0.000000e+00   0.000000e+00
     2808000   2.807999e-06   1.379362e+01   4.206808e+01   1.166249e-01  -8.156835e+04   1.192671e+05   2.928597e+04   2.067659e+10   1.396620e+10   7.118737e+08   1.474304e+05   4.825615e-28   0.000000e+00   0.000000e+00
     2816000   2.815999e-06   1.379297e+01   4.206903e+01   1.168592e-01  -8.140296e+04   1.193789e+05   2.929089e+04   2.067090e+10   1.396810e+10   5.181272e+08   1.474304e+05   4.822358e-28   0.000000e+00   0.000000e+00
     2824000   2.823999e-06   1.379232e+01   4.206999e+01   1.170935e-01  -8.123762e+04   1.194906e+05   2.929426e+04   2.066396e+10   1.396917e+10   3.244938e+08   1.474304e+05   4.819104e-28   0.000000e+00   0.000000e+00
     2832000   2.831999e-06   1.379167e+01   4.207094e+01   1.173279e-01  -8.107234e+04   1.196024e+05   2.929609e+04   2.065577e+10   1.396941e+10   1.309851e+08   1.474304e+05   4.815852e-28   0.000000e+00   0.000000e+00
     2840000   2.839999e-06   1.379103e+01   4.207190e+01   1.175623e-01  -8.090713e+04   1.197141e+05   2.929636e+04   2.064634e+10   1.396881e+10  -6.238751e+07   1.474304e+05   4.812604e-28   0.000000e+00   0.000000e+00
     2848000   2.847999e-06   1.379038e+01   4.207286e+01   1.177966e-01  -8.074200e+04   1.198259e+05   2.929509e+04   2.063567e+10   1.396738e+10  -2.556124e+08   1.474304e+05   4.809359e-28   0.000000e+00   0.000000e+00
     2856000   2.855999e-06   1.378973e+01   4.207382e+01   1.180310e-01  -8.057696e+04   1.199376e+05   2.929227e+04   2.062376e+10   1.396512e+10  -4.486780e+08   1.474304e+05   4.806116e-28   0.000000e+00   0.000000e+00
     2864000   2.863999e-06   1.378909e+01   4.207478e+01   1.182653e-01  -8.041203e+04   1.200493e+05   2.928791e+04   2.061061e+10   1.396203e+10  -6.415728e+08   1.474304e+05   4.802878e-28   0.000000e+00   0.000000e+00
     2872000   2.871999e-06   1.378845e+01   4.207574e+01   1.184996e-01  -8.024720e+04   1.201610e+05   2.928201e+04   2.059623e+10   1.395810e+10  -8.342856e+08   1.474304e+05   4.799642e-28   0.000000e+00   0.000000e+00
     2880000   2.879999e-06   1.378781e+01   4.207670e+01   1.187338e-01  -8.008249e+04   1.202727e+05   2.927456e+04   2.058061e+10   1.395335e+10  -1.026805e+09   1.474304e+05   4.796411e-28   0.000000e+00   0.000000e+00
     2888000   2.887999e-06   1.378717e+01   4.207766e+01   1.189680e-01  -7.991791e+04   1.203843e+05   2.926558e+04   2.056377e+10   1.394777e+10  -1.219119e+09   1.474304e+05   4.793182e-28   0.000000e+00   0.000000e+00
     2896000   2.895999e-06   1.378653e+01   4.207863e+01   1.192021e-01  -7.975347e+04   1.204958e+05   2.925506e+04   2.054570e+10   1.394137e+10  -1.411217e+09   1.474304e+05   4.789958e-28   0.000000e+00   0.000000e+00
     2904000   2.903999e-06   1.378589e+01   4.207959e+01   1.194361e-01  -7.958918e+04   1.206073e+05   2.924300e+04   2.052640e+10   1.393414e+10  -1.603087e+09   1.474304e+05   4.786737e-28   0.000000e+00   0.000000e+00
     2912000   2.911999e-06   1.378525e+01   4.208055e+01   1.196700e-01  -7.942505e+04   1.207188e+05   2.922941e+04   2.050588e+10   1.392608e+10  -1.794718e+09   1.474304e+05   4.783520e-28   0.000000e+00   0.000000e+00
     2920000   2.919999e-06   1.378462e+01   4.208152e+01   1.199037e-01  -7.926109e+04   1.208301e+05   2.921428e+04   2.048413e+10   1.391721e+10  -1.986098e+09   1.474304e+05   4.780308e-28   0.000000e+00   0.000000e+00
     2928000   2.927999e-06   1.378399e+01   4.208249e+01   1.201374e-01  -7.909731e+04   1.209414e+05   2.919763e+04   2.046117e+10   1.390751e+10  -2.177217e+09   1.474304e+05   4.777099e-28   0.000000e+00   0.000000e+00
     2936000   2.935999e-06   1.378335e+01   4.208346e+01   1.203709e-01  -7.893372e+04   1.210527e+05   2.917945e+04   2.043700e+10   1.389699e+10  -2.368064e+09   1.474304e+05   4.773895e-28   0.000000e+00   0.000000e+00
     2944000   2.943999e-06   1.378272e+01   4.208443e+01   1.206042e-01  -7.877032e+04   1.211638e+05   2.915974e+04   2.041161e+10   1.388565e+10  -2.558626e+09   1.474304e+05   4.770694e-28   0.000000e+00   0.000000e+00
     2952000   2.951999e-06   1.378209e+01   4.208539e+01   1.208374e-01  -7.860713e+04   1.212748e+05   2.913851e+04   2.038501e+10   1.387350e+10  -2.748893e+09   1.474304e+05   4.767499e-28   0.000000e+00   0.000000e+00
     2960000   2.959999e-06   1.378146e+01   4.208637e+01   1.210705e-01  -7.844416e+04   1.213858e+05   2.911576e+04   2.035720e+10   1.386053e+10  -2.938854e+09   1.474304e+05   4.764307e-28   0.000000e+00   0.000000e+00
     2968000   2.967999e-06   1.378084e+01   4.208734e+01   1.213033e-01  -7.828142e+04   1.214966e+05   2.909149e+04   2.032819e+10   1.384675e+10  -3.128498e+09   1.474304e+05   4.761121e-28   0.000000e+00   0.000000e+00
     2976000   2.975999e-06   1.378021e+01   4.208831e+01   1.215359e-01  -7.811892e+04   1.216073e+05   2.906570e+04   2.029798e+10   1.383216e+10  -3.317813e+09   1.474304e+05   4.757939e-28   0.000000e+00   0.000000e+00
     2984000   2.983999e-06   1.377959e+01   4.208928e+01   1.217683e-01  -7.795666e+04   1.217179e+05   2.903841e+04   2.026657e+10   1.381676e+10  -3.506789e+09   1.474304e+05   4.754762e-28   0.000000e+00   0.000000e+00
     2992000   2.991999e-06   1.377896e+01   4.209026e+01   1.220005e-01  -7.779465e+04   1.218284e+05   2.900960e+04   2.023397e+10   1.380055e+10  -3.695415e+09   1.474304e+05   4.751589e-28   0.000000e+00   0.000000e+00
     3000000   2.999999e-06   1.377834e+01   4.209123e+01   1.222325e-01  -7.763292e+04   1.219387e+05   2.897928e+04   2.020018e+10   1.378353e+10  -3.883679e+09   1.474304e+05   4.748422e-28   0.000000e+00   0.000000e+00
     3008000   3.007999e-06   1.377772e+01   4.209221e+01   1.224642e-01  -7.747145e+04   1.220489e+05   2.894746e+04   2.016520e+10   1.376571e+10  -4.071571e+09   1.474304e+05   4.745260e-28   0.000000e+00   0.000000e+00
     3016000   3.015999e-06   1.377710e+01   4.209318e+01   1.226956e-01  -7.731028e+04   1.221590e+05   2.891414e+04   2.012903e+10   1.374708e+10  -4.259080e+09   1.474304e+05   4.742102e-28   0.000000e+00   0.000000e+00
     3024000   3.023999e-06   1.377649e+01   4.209416e+01   1.229268e-01  -7.714939e+04   1.222689e+05   2.887931e+04   2.009168e+10   1.372766e+10  -4.446195e+09   1.474304e+05   4.738950e-28   0.000000e+00   0.000000e+00
     3032000   3.031999e-06   1.377587e+01   4.209514e+01   1.231577e-01  -7.698881e+04   1.223786e+05   2.884300e+04   2.005316e+10   1.370743e+10  -4.632905e+09   1.474304e+05   4.735804e-28   0.000000e+00   0.000000e+00
     3040000   3.039999e-06   1.377525e+01   4.209612e+01   1.233883e-01  -7.682855e+04   1.224882e+05   2.880519e+04   2.001346e+10   1.368641e+10  -4.819200e+09   1.474304e+05   4.732663e-28   0.000000e+00   0.000000e+00
     3048000   3.047999e-06   1.377464e+01   4.209710e+01   1.236186e-01  -7.666860e+04   1.225976e+05   2.876589e+04   1.997259e+10   1.366459e+10  -5.005069e+09   1.474304e+05   4.729527e-28   0.000000e+00   0.000000e+00
     3056000   3.055999e-06   1.377403e+01   4.209808e+01   1.238485e-01  -7.650899e+04   1.227068e+05   2.872511e+04   1.993055e+10   1.364199e+10  -5.190501e+09   1.474304e+05   4.726397e-28   0.000000e+00   0.000000e+00
     3064000   3.063999e-06   1.377342e+01   4.209906e+01   1.240782e-01  -7.634972e+04   1.228158e+05   2.868284e+04   1.988735e+10   1.361859e+10  -5.375485e+09   1.474304e+05   4.723272e-28   0.000000e+00   0.000000e+00
     3072000   3.071999e-06   1.377281e+01   4.210005e+01   1.243075e-01  -7.619081e+04   1.229247e+05   2.863910e+04   1.980918e+10   1.357532e+10  -5.568062e+09   1.474304e+05   4.706448e-28   0.000000e+00   0.000000e+00
     3080000   3.079999e-06   1.377220e+01   4.210103e+01   1.245364e-01  -7.603252e+04   1.230332e+05   2.859382e+04   1.976337e+10   1.355022e+10  -5.751882e+09   1.474304e+05   4.703251e-28   0.000000e+00   0.000000e+00
     3088000   3.087999e-06   1.377159e+01   4.210202e+01   1.247650e-01  -7.587460e+04   1.231415e+05   2.854707e+04   1.971640e+10   1.352434e+10  -5.935222e+09   1.474304e+05   4.700060e-28   0.000000e+00   0.000000e+00
     3096000   3.095999e-06   1.377098e+01   4.210300e+01   1.249932e-01  -7.571706e+04   1.232496e+05   2.849886e+04   1.966830e+10   1.349769e+10  -6.118069e+09   1.474304e+05   4.696876e-28   0.000000e+00   0.000000e+00
     3104000   3.103999e-06   1.377038e+01   4.210399e+01   1.252209e-01  -7.555991e+04   1.233575e+05   2.844918e+04   1.961905e+10   1.347025e+10  -6.300414e+09   1.474304e+05   4.693698e-28   0.000000e+00   0.000000e+00
     3112000   3.111999e-06   1.376977e+01   4.210497e+01   1.254483e-01  -7.540315e+04   1.234651e+05   2.839805e+04   1.956866e+10   1.344204e+10  -6.482247e+09   1.474304e+05   4.690526e-28   0.000000e+00   0.000000e+00
     3120000   3.119999e-06   1.376917e+01   4.210596e+01   1.256753e-01  -7.524681e+04   1.235725e+05   2.834547e+04   1.951714e+10   1.341305e+10  -6.663556e+09   1.474304e+05   4.687361e-28   0.000000e+00   0.000000e+00
     3128000   3.127999e-06   1.376857e+01   4.210695e+01   1.259019e-01  -7.509088e+04   1.236797e+05   2.829143e+04   1.946449e+10   1.338330e+10  -6.844333e+09   1.474304e+05   4.684203e-28   0.000000e+00   0.000000e+00
     3136000   3.135999e-06   1.376797e+01   4.210794e+01   1.261280e-01  -7.493538e+04   1.237867e+05   2.823596e+04   1.941071e+10   1.335277e+10  -7.024566e+09   1.474304e+05   4.681051e-28   0.000000e+00   0.000000e+00
     3144000   3.143999e-06   1.376737e+01   4.210893e+01   1.263536e-01  -7.478032e+04   1.238934e+05   2.817904e+04   1.935582e+10   1.332149e+10  -7.204245e+09   1.474304e+05   4.677907e-28   0.000000e+00   0.000000e+00
     3152000   3.151999e-06   1.376677e+01   4.210992e+01   1.265788e-01  -7.462569e+04   1.239998e+05   2.812069e+04   1.929981e+10   1.328944e+10  -7.383361e+09   1.474304e+05   4.674769e-28   0.000000e+00   0.000000e+00
     3160000   3.159999e-06   1.376618e+01   4.211092e+01   1.268036e-01  -7.447152e+04   1.241060e+05   2.806091e+04   1.924269e+10   1.325663e+10  -7.561903e+09   1.474304e+05   4.671639e-28   0.000000e+00   0.000000e+00
     3168000   3.167999e-06   1.376558e+01   4.211191e+01   1.270278e-01  -7.431781e+04   1.242119e+05   2.799970e+04   1.918446e+10   1.322306e+10  -7.739861e+09   1.474304e+05   4.668516e-28   0.000000e+00   0.000000e+00
     3176000   3.175999e-06   1.376499e+01   4.211290e+01   1.272515e-01  -7.416457e+04   1.243175e+05   2.793707e+04   1.912513e+10   1.318874e+10  -7.917225e+09   1.474304e+05   4.665400e-28   0.000000e+00   0.000000e+00
     3184000   3.183999e-06   1.376440e+01   4.211390e+01   1.274748e-01  -7.401181e+04   1.244229e+05   2.787303e+04   1.906470e+10   1.315367e+10  -8.093986e+09   1.474304e+05   4.662291e-28   0.000000e+00   0.000000e+00
     3192000   3.191999e-06   1.376380e+01   4.211489e+01   1.276975e-01  -7.385954e+04   1.245280e+05   2.780757e+04   1.900318e+10   1.311785e+10  -8.270134e+09   1.474304e+05   4.659189e-28   0.000000e+00   0.000000e+00
     3200000   3.199999e-06   1.376321e+01   4.211589e+01   1.279197e-01  -7.370776e+04   1.246328e+05   2.774071e+04   1.894058e+10   1.308128e+10  -8.445657e+09   1.474304e+05   4.656095e-28   0.000000e+00   0.000000e+00
     3208000   3.207999e-06   1.376262e+01   4.211689e+01   1.281414e-01  -7.355649e+04   1.247373e+05   2.767244e+04   1.887689e+10   1.304397e+10  -8.620548e+09   1.474304e+05   4.653009e-28   0.000000e+00   0.000000e+00
     3216000   3.215999e-06   1.376204e+01   4.211789e+01   1.283625e-01  -7.340574e+04   1.248415e+05   2.760278e+04   1.881212e+10   1.300593e+10  -8.794796e+09   1.474304e+05   4.649930e-28   0.000000e+00   0.000000e+00
     3224000   3.223999e-06   1.376145e+01   4.211889e+01   1.285830e-01  -7.325550e+04   1.249454e+05   2.753173e+04   1.874629e+10   1.296714e+10  -8.968392e+09   1.474304e+05   4.646859e-28   0.000000e+00   0.000000e+00
     3232000   3.231999e-06   1.376086e+01   4.211989e+01   1.288030e-01  -7.310580e+04   1.250490e+05   2.745929e+04   1.867938e+10   1.292762e+10  -9.141325e+09   1.474304e+05   4.643796e-28   0.000000e+00   0.000000e+00
     3240000   3.239999e-06   1.376028e+01   4.212089e+01   1.290223e-01  -7.295664e+04   1.251522e+05   2.738547e+04   1.861141e+10   1.288737e+10  -9.313587e+09   1.474304e+05   4.640740e-28   0.000000e+00   0.000000e+00
     3248000   3.247999e-06   1.375970e+01   4.212189e+01   1.292411e-01  -7.280802e+04   1.252552e+05   2.731027e+04   1.854239e+10   1.284640e+10  -9.485167e+09   1.474304e+05   4.637693e-28   0.000000e+00   0.000000e+00
     3256000   3.255999e-06   1.375912e+01   4.212289e+01   1.294593e-01  -7.265996e+04   1.253578e+05   2.723371e+04   1.847231e+10   1.280470e+10  -9.656057e+09   1.474304e+05   4.634653e-28   0.000000e+00   0.000000e+00
     3264000   3.263999e-06   1.375853e+01   4.212389e+01   1.296769e-01  -7.251247e+04   1.254600e+05   2.715578e+04   1.840119e+10   1.276227e+10  -9.826247e+09   1.474304e+05   4.631622e-28   0.000000e+00   0.000000e+00
     3272000   3.271999e-06   1.375795e+01   4.212490e+01   1.298938e-01  -7.236554e+04   1.255620e+05   2.707649e+04   1.832903e+10   1.271914e+10  -9.995728e+09   1.474304e+05   4.628598e-28   0.000000e+00   0.000000e+00
     3280000   3.279999e-06   1.375738e+01   4.212590e+01   1.301101e-01  -7.221920e+04   1.256635e+05   2.699585e+04   1.825583e+10   1.267528e+10  -1.016449e+10   1.474304e+05   4.625583e-28   0.000000e+00   0.000000e+00
     3288000   3.287999e-06   1.375680e+01   4.212691e+01   1.303257e-01  -7.207345e+04   1.257648e+05   2.691386e+04   1.818160e+10   1.263072e+10  -1.033252e+10   1.474304e+05   4.622576e-28   0.000000e+00   0.000000e+00
     3296000   3.295999e-06   1.375622e+01   4.212792e+01   1.305407e-01  -7.192830e+04   1.258656e+05   2.683053e+04   1.810634e+10   1.258544e+10  -1.049982e+10   1.474304e+05   4.619577e-28   0.000000e+00   0.000000e+00
     3304000   3.303999e-06   1.375565e+01   4.212892e+01   1.307550e-01  -7.178376e+04   1.259661e+05   2.674586e+04   1.803007e+10   1.253947e+10  -1.066637e+10   1.474304e+05   4.616587e-28   0.000000e+00   0.000000e+00
     3312000   3.311999e-06   1.375507e+01   4.212993e+01   1.309686e-01  -7.163982e+04   1.260663e+05   2.665987e+04   1.795279e+10   1.249279e+10  -1.083217e+10   1.474304e+05   4.613605e-28   0.000000e+00   0.000000e+00
     3320000   3.319999e-06   1.375450e+01   4.213094e+01   1.311816e-01  -7.149651e+04   1.261660e+05   2.657255e+04   1.787450e+10   1.244541e+10  -1.099720e+10   1.474304e+05   4.610632e-28   0.000000e+00   0.000000e+00
     3328000   3.327999e-06   1.375393e+01   4.213195e+01   1.313938e-01  -7.135383e+04   1.262654e+05   2.648392e+04   1.779520e+10   1.239734e+10  -1.116146e+10   1.474304e+05   4.607667e-28   0.000000e+00   0.000000e+00
     3336000   3.335999e-06   1.375336e+01   4.213296e+01   1.316053e-01  -7.121179e+04   1.263644e+05   2.639397e+04   1.771491e+10   1.234859e+10  -1.132494e+10   1.474304e+05   4.604711e-28   0.000000e+00   0.000000e+00
     3344000   3.343999e-06   1.375279e+01   4.213397e+01   1.318161e-01  -7.107040e+04   1.264630e+05   2.630272e+04   1.763363e+10   1.229914e+10  -1.148762e+10   1.474304e+05   4.601763e-28   0.000000e+00   0.000000e+00
     3352000   3.351999e-06   1.375222e+01   4.213498e+01   1.320261e-01  -7.092966e+04   1.265612e+05   2.621017e+04   1.755137e+10   1.224901e+10  -1.164951e+10   1.474304e+05   4.598825e-28   0.000000e+00   0.000000e+00
     3360000   3.359999e-06   1.375166e+01   4.213600e+01   1.322355e-01  -7.078958e+04   1.266589e+05   2.611633e+04   1.746813e+10   1.219820e+10  -1.181059e+10   1.474304e+05   4.595894e-28   0.000000e+00   0.000000e+00
     3368000   3.367999e-06   1.375109e+01   4.213701e+01   1.324440e-01  -7.065017e+04   1.267563e+05   2.602120e+04   1.738391e+10   1.214671e+10  -1.197085e+10   1.474304e+05   4.592973e-28   0.000000e+00   0.000000e+00
     3376000   3.375999e-06   1.375053e+01   4.213802e+01   1.326518e-01  -7.051144e+04   1.268533e+05   2.592480e+04   1.729873e+10   1.209456e+10  -1.213028e+10   1.474304e+05   4.590061e-28   0.000000e+00   0.000000e+00
     3384000   3.383999e-06   1.374996e+01   4.213904e+01   1.328588e-01  -7.037339e+04   1.269498e+05   2.582712e+04   1.721259e+10   1.204173e+10  -1.228888e+10   1.474304e+05   4.587158e-28   0.000000e+00   0.000000e+00
     3392000   3.391999e-06   1.374940e+01   4.214006e+01   1.330650e-01  -7.023604e+04   1.270460e+05   2.572818e+04   1.712550e+10   1.198824e+10  -1.244664e+10   1.474304e+05   4.584263e-28   0.000000e+00   0.000000e+00
     3400000   3.399999e-06   1.374884e+01   4.214107e+01   1.332704e-01  -7.009939e+04   1.271416e+05   2.562798e+04   1.703746e+10   1.193409e+10  -1.260355e+10   1.474304e+05   4.581378e-28   0.000000e+00   0.000000e+00
     3408000   3.407999e-06   1.374828e+01   4.214209e+01   1.334751e-01  -6.996344e+04   1.272369e+05   2.552652e+04   1.694848e+10   1.187928e+10  -1.275960e+10   1.474304e+05   4.578502e-28   0.000000e+00   0.000000e+00
     3416000   3.415999e-06   1.374772e+01   4.214311e+01   1.336789e-01  -6.982821e+04   1.273317e+05   2.542382e+04   1.685856e+10   1.182382e+10  -1.291478e+10   1.474304e+05   4.575634e-28   0.000000e+00   0.000000e+00
     3424000   3.423999e-06   1.374716e+01   4.214413e+01   1.338818e-01  -6.969371e+04   1.274261e+05   2.531989e+04   1.676772e+10   1.176771e+10  -1.306909e+10   1.474304e+05   4.572776e-28   0.000000e+00   0.000000e+00
     3432000   3.431999e-06   1.374660e+01   4.214515e+01   1.340840e-01  -6.955993e+04   1.275200e+05   2.521472e+04   1.667595e+10   1.171095e+10  -1.322251e+10   1.474304e+05   4.569928e-28   0.000000e+00   0.000000e+00
     3440000   3.439999e-06   1.374605e+01   4.214617e+01   1.342853e-01  -6.942690e+04   1.276135e+05   2.510833e+04   1.658327e+10   1.165356e+10  -1.337504e+10   1.474304e+05   4.567088e-28   0.000000e+00   0.000000e+00
     3448000   3.447999e-06   1.374549e+01   4.214719e+01   1.344857e-01  -6.929460e+04   1.277065e+05   2.500072e+04   1.648968e+10   1.159552e+10  -1.352668e+10   1.474304e+05   4.564258e-28   0.000000e+00   0.000000e+00
     3456000   3.455999e-06   1.374494e+01   4.214821e+01   1.346853e-01  -6.916306e+04   1.277990e+05   2.489191e+04   1.639518e+10   1.153685e+10  -1.367740e+10   1.474304e+05   4.561437e-28   0.000000e+00   0.000000e+00
     3464000   3.463999e-06   1.374439e+01   4.214923e+01   1.348840e-01  -6.903228e+04   1.278910e+05   2.478189e+04   1.629979e+10   1.147756e+10  -1.382721e+10   1.474304e+05   4.558625e-28   0.000000e+00   0.000000e+00
     3472000   3.471999e-06   1.374384e+01   4.215026e+01   1.350818e-01  -6.890227e+04   1.279826e+05   2.467067e+04   1.620351e+10   1.141764e+10  -1.397609e+10   1.474304e+05   4.555823e-28   0.000000e+00   0.000000e+00
     3480000   3.479999e-06   1.374328e+01   4.215128e+01   1.352787e-01  -6.877303e+04   1.280737e+05   2.455827e+04   1.610635e+10   1.135709e+10  -1.412405e+10   1.474304e+05   4.553030e-28   0.000000e+00   0.000000e+00
     3488000   3.487999e-06   1.374273e+01   4.215231e+01   1.354747e-01  -6.864457e+04   1.281643e+05   2.444469e+04   1.600831e+10   1.129593e+10  -1.427106e+10   1.474304e+05   4.550247e-28   0.000000e+00   0.000000e+00
     3496000   3.495999e-06   1.374219e+01   4.215333e+01   1.356698e-01  -6.851690e+04   1.282545e+05   2.432994e+04   1.590941e+10   1.123416e+10  -1.441713e+10   1.474304e+05   4.547473e-28   0.000000e+00   0.000000e+00
     3504000   3.503999e-06   1.374164e+01   4.215436e+01   1.358640e-01  -6.839002e+04   1.283441e+05   2.421402e+04   1.580964e+10   1.117178e+10  -1.456224e+10   1.474304e+05   4.544708e-28   0.000000e+00   0.000000e+00
     3512000   3.511999e-06   1.374109e+01   4.215539e+01   1.360572e-01  -6.826395e+04   1.284332e+05   2.409694e+04   1.570901e+10   1.110880e+10  -1.470640e+10   1.474304e+05   4.541953e-28   0.000000e+00   0.000000e+00
     3520000   3.519999e-06   1.374055e+01   4.215641e+01   1.362495e-01  -6.813868e+04   1.285218e+05   2.397872e+04   1.560754e+10   1.104522e+10  -1.484958e+10   1.474304e+05   4.539208e-28   0.000000e+00   0.000000e+00
     3528000   3.527999e-06   1.374000e+01   4.215744e+01   1.364409e-01  -6.801423e+04   1.286099e+05   2.385935e+04   1.550522e+10   1.098104e+10  -1.499179e+10   1.474304e+05   4.536472e-28   0.000000e+00   0.000000e+00
     3536000   3.535999e-06   1.373946e+01   4.215847e+01   1.366313e-01  -6.789060e+04   1.286975e+05   2.373885e+04   1.540207e+10   1.091627e+10  -1.513301e+10   1.474304e+05   4.533746e-28   0.000000e+00   0.000000e+00
     3544000   3.543999e-06   1.373892e+01   4.215950e+01   1.368207e-01  -6.776780e+04   1.287846e+05   2.361723e+04   1.529809e+10   1.085091e+10  -1.527325e+10   1.474304e+05   4.531030e-28   0.000000e+00   0.000000e+00
     3552000   3.551999e-06   1.373837e+01   4.216053e+01   1.370092e-01  -6.764583e+04   1.288711e+05   2.349448e+04   1.519329e+10   1.078498e+10  -1.541249e+10   1.474304e+05   4.528323e-28   0.000000e+00   0.000000e+00
     3560000   3.559999e-06   1.373783e+01   4.216156e+01   1.371966e-01  -6.752471e+04   1.289571e+05   2.337063e+04   1.508768e+10   1.071846e+10  -1.555072e+10   1.474304e+05   4.525626e-28   0.000000e+00   0.000000e+00
     3568000   3.567999e-06   1.373729e+01   4.216260e+01   1.373831e-01  -6.740443e+04   1.290426e+05   2.324567e+04   1.498126e+10   1.065137e+10  -1.568794e+10   1.474304e+05   4.522938e-28   0.000000e+00   0.000000e+00
     3576000   3.575999e-06   1.373675e+01   4.216363e+01   1.375685e-01  -6.728501e+04   1.291276e+05   2.311962e+04   1.487405e+10   1.058371e+10  -1.582414e+10   1.474304e+05   4.520260e-28   0.000000e+00   0.000000e+00
     3584000   3.583999e-06   1.373622e+01   4.216466e+01   1.377530e-01  -6.716645e+04   1.292120e+05   2.299249e+04   1.476604e+10   1.051549e+10  -1.595931e+10   1.474304e+05   4.517592e-28   0.000000e+00   0.000000e+00
     3592000   3.591999e-06   1.373568e+01   4.216570e+01   1.379364e-01  -6.704876e+04   1.292958e+05   2.286428e+04   1.465724e+10   1.044671e+10  -1.609346e+10   1.474304e+05   4.514934e-28   0.000000e+00   0.000000e+00
     3600000   3.599999e-06   1.373514e+01   4.216673e+01   1.381188e-01  -6.693194e+04   1.293791e+05   2.273500e+04   1.454767e+10   1.037737e+10  -1.622656e+10   1.474304e+05   4.512285e-28   0.000000e+00   0.000000e+00
     3608000   3.607999e-06   1.373461e+01   4.216777e+01   1.383002e-01  -6.681600e+04   1.294618e+05   2.260466e+04   1.443733e+10   1.030748e+10  -1.635862e+10   1.474304e+05   4.509646e-28   0.000000e+00   0.000000e+00
     3616000   3.615999e-06   1.373408e+01   4.216880e+01   1.384805e-01  -6.670094e+04   1.295440e+05   2.247326e+04   1.432622e+10   1.023705e+10  -1.648963e+10   1.474304e+05   4.507017e-28   0.000000e+00   0.000000e+00
     3624000   3.623999e-06   1.373354e+01   4.216984e+01   1.386598e-01  -6.658678e+04   1.296256e+05   2.234082e+04   1.421436e+10   1.016607e+10  -1.661958e+10   1.474304e+05   4.504397e-28   0.000000e+00   0.000000e+00
     3632000   3.631999e-06   1.373301e+01   4.217088e+01   1.388379e-01  -6.647351e+04   1.297067e+05   2.220735e+04   1.410175e+10   1.009456e+10  -1.674846e+10   1.474304e+05   4.501788e-28   0.000000e+00   0.000000e+00
     3640000   3.639999e-06   1.373248e+01   4.217191e+01   1.390151e-01  -6.636115e+04   1.297871e+05   2.207285e+04   1.398840e+10   1.002252e+10  -1.687627e+10   1.474304e+05   4.499188e-28   0.000000e+00   0.000000e+00
     3648000   3.647999e-06   1.373195e+01   4.217295e+01   1.391911e-01  -6.624970e+04   1.298670e+05   2.193733e+04   1.387432e+10   9.949949e+09  -1.700300e+10   1.474304e+05   4.496598e-28   0.000000e+00   0.000000e+00
     3656000   3.655999e-06   1.373142e+01   4.217399e+01   1.393661e-01  -6.613916e+04   1.299463e+05   2.180081e+04   1.375951e+10   9.876856e+09  -1.712865e+10   1.474304e+05   4.494017e-28   0.000000e+00   0.000000e+00
     3664000   3.663999e-06   1.373089e+01   4.217503e+01   1.395399e-01  -6.602955e+04   1.300251e+05   2.166328e+04   1.364398e+10   9.803245e+09  -1.725321e+10   1.474304e+05   4.491446e-28   0.000000e+00   0.000000e+00
     3672000   3.671999e-06   1.373036e+01   4.217607e+01   1.397127e-01  -6.592086e+04   1.301032e+05   2.152476e+04   1.352774e+10   9.729121e+09  -1.737668e+10   1.474304e+05   4.488886e-28   0.000000e+00   0.000000e+00
     3680000   3.679999e-06   1.372983e+01   4.217711e+01   1.398843e-01  -6.581311e+04   1.301807e+05   2.138525e+04   1.341080e+10   9.654489e+09  -1.749904e+10   1.474304e+05   4.486334e-28   0.000000e+00   0.000000e+00
     3688000   3.687999e-06   1.372931e+01   4.217815e+01   1.400548e-01  -6.570629e+04   1.302577e+05   2.124478e+04   1.329316e+10   9.579354e+09  -1.762029e+10   1.474304e+05   4.483793e-28   0.000000e+00   0.000000e+00
     3696000   3.695999e-06   1.372878e+01   4.217920e+01   1.402242e-01  -6.560042e+04   1.303340e+05   2.110333e+04   1.317484e+10   9.503721e+09  -1.774043e+10   1.474304e+05   4.481261e-28   0.000000e+00   0.000000e+00
     3704000   3.703999e-06   1.372826e+01   4.218024e+01   1.403925e-01  -6.549550e+04   1.304097e+05   2.096093e+04   1.305584e+10   9.427594e+09  -1.785945e+10   1.474304e+05   4.478740e-28   0.000000e+00   0.000000e+00
     3712000   3.711999e-06   1.372774e+01   4.218128e+01   1.405596e-01  -6.539153e+04   1.304848e+05   2.081758e+04   1.293616e+10   9.350978e+09  -1.797735e+10   1.474304e+05   4.476227e-28   0.000000e+00   0.000000e+00
     3720000   3.719999e-06   1.372721e+01   4.218233e+01   1.407256e-01  -6.528852e+04   1.305593e+05   2.067330e+04   1.281582e+10   9.273879e+09  -1.809411e+10   1.474304e+05   4.473725e-28   0.000000e+00   0.000000e+00
     3728000   3.727999e-06   1.372669e+01   4.218337e+01   1.408904e-01  -6.518648e+04   1.306332e+05   2.052808e+04   1.269482e+10   9.196301e+09  -1.820974e+10   1.474304e+05   4.471232e-28   0.000000e+00   0.000000e+00
     3736000   3.735999e-06   1.372617e+01   4.218442e+01   1.410540e-01  -6.508540e+04   1.307065e+05   2.038194e+04   1.257318e+10   9.118249e+09  -1.832422e+10   1.474304e+05   4.468749e-28   0.000000e+00   0.000000e+00
     3744000   3.743999e-06   1.372565e+01   4.218546e+01   1.412165e-01  -6.498531e+04   1.307791e+05   2.023490e+04   1.245089e+10   9.039729e+09  -1.843756e+10   1.474304e+05   4.466276e-28   0.000000e+00   0.000000e+00
     3752000   3.751999e-06   1.372513e+01   4.218651e+01   1.413778e-01  -6.488619e+04   1.308511e+05   2.008695e+04   1.232797e+10   8.960744e+09  -1.854975e+10   1.474304e+05   4.463812e-28   0.000000e+00   0.000000e+00
     3760000   3.759999e-06   1.372461e+01   4.218756e+01   1.415379e-01  -6.478806e+04   1.309225e+05   1.993810e+04   1.220442e+10   8.881302e+09  -1.866078e+10   1.474304e+05   4.461358e-28   0.000000e+00   0.000000e+00
     3768000   3.767999e-06   1.372409e+01   4.218861e+01   1.416968e-01  -6.469092e+04   1.309932e+05   1.978838e+04   1.208026e+10   8.801405e+09  -1.877064e+10   1.474304e+05   4.458913e-28   0.000000e+00   0.000000e+00
     3776000   3.775999e-06   1.372358e+01   4.218965e+01   1.418545e-01  -6.459478e+04   1.310633e+05   1.963778e+04   1.195549e+10   8.721060e+09  -1.887934e+10   1.474304e+05   4.456478e-28   0.000000e+00   0.000000e+00
     3784000   3.783999e-06   1.372306e+01   4.219070e+01   1.420110e-01  -6.449964e+04   1.311327e+05   1.948631e+04   1.183011e+10   8.640271e+09  -1.898687e+10   1.474304e+05   4.454053e-28   0.000000e+00   0.000000e+00
     3792000   3.791999e-06   1.372254e+01   4.219175e+01   1.421663e-01  -6.440550e+04   1.312015e+05   1.933399e+04   1.170414e+10   8.559044e+09  -1.909321e+10   1.474304e+05   4.451637e-28   0.000000e+00   0.000000e+00
     3800000   3.799999e-06   1.372203e+01   4.219280e+01   1.423203e-01  -6.431237e+04   1.312697e+05   1.918082e+04   1.157759e+10   8.477384e+09  -1.919838e+10   1.474304e+05   4.449231e-28   0.000000e+00   0.000000e+00
     3808000   3.807999e-06   1.372152e+01   4.219385e+01   1.424731e-01  -6.422026e+04   1.313372e+05   1.902682e+04   1.145046e+10   8.395295e+09  -1.930235e+10   1.474304e+05   4.446834e-28   0.000000e+00   0.000000e+00
     3816000   3.815999e-06   1.372100e+01   4.219490e+01   1.426247e-01  -6.412917e+04   1.314040e+05   1.887199e+04   1.132276e+10   8.312784e+09  -1.940514e+10   1.474304e+05   4.444447e-28   0.000000e+00   0.000000e+00
     3824000   3.823999e-06   1.372049e+01   4.219595e+01   1.427751e-01  -6.403910e+04   1.314702e+05   1.871634e+04   1.119450e+10   8.229855e+09  -1.950672e+10   1.474304e+05   4.442069e-28   0.000000e+00   0.000000e+00
     3832000   3.831999e-06   1.371998e+01   4.219701e+01   1.429242e-01  -6.395006e+04   1.315357e+05   1.855988e+04   1.106568e+10   8.146513e+09  -1.960711e+10   1.474304e+05   4.439701e-28   0.000000e+00   0.000000e+00
     3840000   3.839999e-06   1.371947e+01   4.219806e+01   1.430721e-01  -6.386205e+04   1.316005e+05   1.840263e+04   1.093632e+10   8.062764e+09  -1.970629e+10   1.474304e+05   4.437342e-28   0.000000e+00   0.000000e+00
     3848000   3.847999e-06   1.371896e+01   4.219911e+01   1.432186e-01  -6.377508e+04   1.316647e+05   1.824459e+04   1.080642e+10   7.978613e+09  -1.980426e+10   1.474304e+05   4.434992e-28   0.000000e+00   0.000000e+00
     3856000   3.855999e-06   1.371845e+01   4.220017e+01   1.433640e-01  -6.368914e+04   1.317282e+05   1.808576e+04   1.068301e+10   7.898107e+09  -1.990578e+10   1.474304e+05   4.435775e-28   0.000000e+00   0.000000e+00
     3864000   3.863999e-06   1.371794e+01   4.220122e+01   1.435080e-01  -6.360420e+04   1.317910e+05   1.792613e+04   1.055222e+10   7.813256e+09  -2.000159e+10   1.474304e+05   4.433553e-28   0.000000e+00   0.000000e+00
     3872000   3.871999e-06   1.371743e+01   4.220227e+01   1.436508e-01  -6.352030e+04   1.318532e+05   1.776574e+04   1.042091e+10   7.728016e+09  -2.009618e+10   1.474304e+05   4.431339e-28   0.000000e+00   0.000000e+00
     3880000   3.879999e-06   1.371692e+01   4.220333e+01   1.437923e-01  -6.343746e+04   1.319147e+05   1.760459e+04   1.028910e+10   7.642393e+09  -2.018954e+10   1.474304e+05   4.429135e-28   0.000000e+00   0.000000e+00
     3888000   3.887999e-06   1.371641e+01   4.220438e+01   1.439325e-01  -6.335568e+04   1.319755e+05   1.744271e+04   1.015679e+10   7.556392e+09  -2.028168e+10   1.474304e+05   4.426939e-28   0.000000e+00   0.000000e+00
     3896000   3.895999e-06   1.371591e+01   4.220544e+01   1.440713e-01  -6.327496e+04   1.320356e+05   1.728009e+04   1.002399e+10   7.470018e+09  -2.037258e+10   1.474304e+05   4.424752e-28   0.000000e+00   0.000000e+00
     3904000   3.903999e-06   1.371540e+01   4.220650e+01   1.442089e-01  -6.319530e+04   1.320950e+05   1.711675e+04   9.890708e+09   7.383277e+09  -2.046224e+10   1.474304e+05   4.422574e-28   0.000000e+00   0.000000e+00
     3912000   3.911999e-06   1.371490e+01   4.220755e+01   1.443452e-01  -6.311671e+04   1.321537e+05   1.695270e+04   9.756952e+09   7.296174e+09  -2.055067e+10   1.474304e+05   4.420404e-28   0.000000e+00   0.000000e+00
     3920000   3.919999e-06   1.371439e+01   4.220861e+01   1.444802e-01  -6.303919e+04   1.322117e+05   1.678794e+04   9.622729e+09   7.208714e+09  -2.063785e+10   1.474304e+05   4.418243e-28   0.000000e+00   0.000000e+00
     3928000   3.927999e-06   1.371389e+01   4.220967e+01   1.446138e-01  -6.296274e+04   1.322691e+05   1.662249e+04   9.488049e+09   7.120902e+09  -2.072378e+10   1.474304e+05   4.416091e-28   0.000000e+00   0.000000e+00
     3936000   3.935999e-06   1.371338e+01   4.221073e+01   1.447461e-01  -6.288738e+04   1.323257e+05   1.645636e+04   9.352920e+09   7.032745e+09  -2.080846e+10   1.474304e+05   4.413947e-28   0.000000e+00   0.000000e+00
     3944000   3.943999e-06   1.371288e+01   4.221179e+01   1.448771e-01  -6.281310e+04   1.323816e+05   1.628956e+04   9.217350e+09   6.944248e+09  -2.089188e+10   1.474304e+05   4.411812e-28   0.000000e+00   0.000000e+00
     3952000   3.951999e-06   1.371238e+01   4.221285e+01   1.450068e-01  -6.273990e+04   1.324368e+05   1.612210e+04   9.081347e+09   6.855415e+09  -2.097404e+10   1.474304e+05   4.409685e-28   0.000000e+00   0.000000e+00
     3960000   3.959999e-06   1.371188e+01   4.221391e+01   1.451351e-01  -6.266780e+04   1.324913e+05   1.595398e+04   8.944921e+09   6.766252e+09  -2.105495e+10   1.474304e+05   4.407567e-28   0.000000e+00   0.000000e+00
     3968000   3.967999e-06   1.371138e+01   4.221497e+01   1.452620e-01  -6.259679e+04   1.325450e+05   1.578522e+04   8.808078e+09   6.676765e+09  -2.113458e+10   1.474304e+05   4.405456e-28   0.000000e+00   0.000000e+00
     3976000   3.975999e-06   1.371088e+01   4.221603e+01   1.453876e-01  -6.252687e+04   1.325981e+05   1.561583e+04   8.670829e+09   6.586959e+09  -2.121295e+10   1.474304e+05   4.403354e-28   0.000000e+00   0.000000e+00
     3984000   3.983999e-06   1.371038e+01   4.221709e+01   1.455119e-01  -6.245805e+04   1.326504e+05   1.544582e+04   8.533180e+09   6.496840e+09  -2.129005e+10   1.474304e+05   4.401261e-28   0.000000e+00   0.000000e+00
     3992000   3.991999e-06   1.370988e+01   4.221815e+01   1.456348e-01  -6.239034e+04   1.327020e+05   1.527519e+04   8.395140e+09   6.406413e+09  -2.136587e+10   1.474304e+05   4.399175e-28   0.000000e+00   0.000000e+00
     4000000   3.999999e-06   1.370938e+01   4.221921e+01   1.457563e-01  -6.232373e+04   1.327529e+05   1.510397e+04   8.256719e+09   6.315683e+09  -2.144042e+10   1.474304e+05   4.397097e-28   0.000000e+00   0.000000e+00
     4008000   4.007999e-06   1.370888e+01   4.222027e+01   1.458764e-01  -6.225823e+04   1.328031e+05   1.493215e+04   8.117923e+09   6.224657e+09  -2.151368e+10   1.474304e+05   4.395028e-28   0.000000e+00   0.000000e+00
     4016000   4.015999e-06   1.370838e+01   4.222134e+01   1.459952e-01  -6.219385e+04   1.328525e+05   1.475975e+04   7.978762e+09   6.133339e+09  -2.158566e+10   1.474304e+05   4.392966e-28   0.000000e+00   0.000000e+00
     4024000   4.023999e-06   1.370788e+01   4.222240e+01   1.461126e-01  -6.213058e+04   1.329012e+05   1.458678e+04   7.839244e+09   6.041734e+09  -2.165636e+10   1.474304e+05   4.390912e-28   0.000000e+00   0.000000e+00
     4032000   4.031999e-06   1.370739e+01   4.222346e+01   1.462286e-01  -6.206842e+04   1.329492e+05   1.441325e+04   7.699377e+09   5.949850e+09  -2.172577e+10   1.474304e+05   4.388867e-28   0.000000e+00   0.000000e+00
     4040000   4.039999e-06   1.370689e+01   4.222453e+01   1.463432e-01  -6.200739e+04   1.329964e+05   1.423917e+04   7.559170e+09   5.857690e+09  -2.179388e+10   1.474304e+05   4.386828e-28   0.000000e+00   0.000000e+00
     4048000   4.047999e-06   1.370639e+01   4.222559e+01   1.464564e-01  -6.194748e+04   1.330429e+05   1.406455e+04   7.418632e+09   5.765261e+09  -2.186070e+10   1.474304e+05   4.384798e-28   0.000000e+00   0.000000e+00
     4056000   4.055999e-06   1.370590e+01   4.222665e+01   1.465682e-01  -6.188869e+04   1.330887e+05   1.388941e+04   7.277770e+09   5.672568e+09  -2.192623e+10   1.474304e+05   4.382775e-28   0.000000e+00   0.000000e+00
     4064000   4.063999e-06   1.370540e+01   4.222772e+01   1.466786e-01  -6.183103e+04   1.331337e+05   1.371374e+04   7.136593e+09   5.579617e+09  -2.199046e+10   1.474304e+05   4.380760e-28   0.000000e+00   0.000000e+00
     4072000   4.071999e-06   1.370491e+01   4.222878e+01   1.467876e-01  -6.177451e+04   1.331779e+05   1.353756e+04   6.995110e+09   5.486412e+09  -2.205338e+10   1.474304e+05   4.378752e-28   0.000000e+00   0.000000e+00
     4080000   4.079999e-06   1.370442e+01   4.222985e+01   1.468952e-01  -6.171911e+04   1.332215e+05   1.336089e+04   6.853329e+09   5.392961e+09  -2.211501e+10   1.474304e+05   4.376752e-28   0.000000e+00   0.000000e+00
     4088000   4.087999e-06   1.370392e+01   4.223092e+01   1.470014e-01  -6.166485e+04   1.332642e+05   1.318372e+04   6.711259e+09   5.299268e+09  -2.217533e+10   1.474304e+05   4.374758e-28   0.000000e+00   0.000000e+00
     4096000   4.095999e-06   1.370343e+01   4.223198e+01   1.471062e-01  -6.161173e+04   1.333062e+05   1.300608e+04   6.568908e+09   5.205338e+09  -2.223434e+10   1.474304e+05   4.372773e-28   0.000000e+00   0.000000e+00
     4104000   4.103999e-06   1.370294e+01   4.223305e+01   1.472095e-01  -6.155975e+04   1.333475e+05   1.282798e+04   6.426284e+09   5.111178e+09  -2.229204e+10   1.474304e+05   4.370794e-28   0.000000e+00   0.000000e+00
     4112000   4.111999e-06   1.370244e+01   4.223412e+01   1.473114e-01  -6.150891e+04   1.333880e+05   1.264942e+04   6.283397e+09   5.016793e+09  -2.234844e+10   1.474304e+05   4.368822e-28   0.000000e+00   0.000000e+00
     4120000   4.119999e-06   1.370195e+01   4.223518e+01   1.474119e-01  -6.145922e+04   1.334278e+05   1.247041e+04   6.140254e+09   4.922189e+09  -2.240352e+10   1.474304e+05   4.366858e-28   0.000000e+00   0.000000e+00
     4128000   4.127999e-06   1.370146e+01   4.223625e+01   1.475109e-01  -6.141067e+04   1.334668e+05   1.229096e+04   5.996864e+09   4.827371e+09  -2.245728e+10   1.474304e+05   4.364900e-28   0.000000e+00   0.000000e+00
     4136000   4.135999e-06   1.370097e+01   4.223732e+01   1.476086e-01  -6.136327e+04   1.335050e+05   1.211109e+04   5.853235e+09   4.732345e+09  -2.250974e+10   1.474304e+05   4.362950e-28   0.000000e+00   0.000000e+00
     4144000   4.143999e-06   1.370048e+01   4.223839e+01   1.477047e-01  -6.131702e+04   1.335425e+05   1.193081e+04   5.709377e+09   4.637116e+09  -2.256087e+10   1.474304e+05   4.361006e-28   0.000000e+00   0.000000e+00
     4152000   4.151999e-06   1.369999e+01   4.223946e+01   1.477994e-01  -6.127192e+04   1.335792e+05   1.175012e+04   5.560325e+09   4.538699e+09  -2.260260e+10   1.474304e+05   4.355600e-28   0.000000e+00   0.000000e+00
     4160000   4.159999e-06   1.369950e+01   4.224052e+01   1.478927e-01  -6.122801e+04   1.336151e+05   1.156911e+04   5.416130e+09   4.443132e+09  -2.265086e+10   1.474304e+05   4.353606e-28   0.000000e+00   0.000000e+00
     4168000   4.167999e-06   1.369901e+01   4.224159e+01   1.479845e-01  -6.118526e+04   1.336503e+05   1.138771e+04   5.271734e+09   4.347383e+09  -2.269779e+10   1.474304e+05   4.351618e-28   0.000000e+00   0.000000e+00
     4176000   4.175999e-06   1.369852e+01   4.224266e+01   1.480749e-01  -6.114367e+04   1.336847e+05   1.120595e+04   5.127144e+09   4.251454e+09  -2.274340e+10   1.474304e+05   4.349637e-28   0.000000e+00   0.000000e+00
     4184000   4.183999e-06   1.369803e+01   4.224373e+01   1.481638e-01  -6.110323e+04   1.337183e+05   1.102382e+04   4.982369e+09   4.155353e+09  -2.278769e+10   1.474304e+05   4.347662e-28   0.000000e+00   0.000000e+00
     4192000   4.191999e-06   1.369754e+01   4.224480e+01   1.482513e-01  -6.106395e+04   1.337512e+05   1.084135e+04   4.837417e+09   4.059085e+09  -2.283065e+10   1.474304e+05   4.345694e-28   0.000000e+00   0.000000e+00
     4200000   4.199999e-06   1.369705e+01   4.224587e+01   1.483373e-01  -6.102583e+04   1.337833e+05   1.065854e+04   4.692296e+09   3.962656e+09  -2.287230e+10   1.474304e+05   4.343731e-28   0.000000e+00   0.000000e+00
     4208000   4.207999e-06   1.369657e+01   4.224694e+01   1.484218e-01  -6.098887e+04   1.338146e+05   1.047540e+04   4.547016e+09   3.866071e+09  -2.291261e+10   1.474304e+05   4.341775e-28   0.000000e+00   0.000000e+00
     4216000   4.215999e-06   1.369608e+01   4.224801e+01   1.485049e-01  -6.095308e+04   1.338451e+05   1.029194e+04   4.401585e+09   3.769336e+09  -2.295160e+10   1.474304e+05   4.339825e-28   0.000000e+00   0.000000e+00
     4224000   4.223999e-06   1.369559e+01   4.224908e+01   1.485865e-01  -6.091845e+04   1.338749e+05   1.010817e+04   4.256010e+09   3.672456e+09  -2.298926e+10   1.474304e+05   4.337881e-28   0.000000e+00   0.000000e+00
     4232000   4.231999e-06   1.369510e+01   4.225016e+01   1.486666e-01  -6.088498e+04   1.339039e+05   9.924114e+03   4.110301e+09   3.575437e+09  -2.302560e+10   1.474304e+05   4.335942e-28   0.000000e+00   0.000000e+00
     4240000   4.239999e-06   1.369462e+01   4.225123e+01   1.487453e-01  -6.085268e+04   1.339321e+05   9.739768e+03   3.964466e+09   3.478284e+09  -2.306060e+10   1.474304e+05   4.334010e-28   0.000000e+00   0.000000e+00
     4248000   4.247999e-06   1.369413e+01   4.225230e+01   1.488225e-01  -6.082155e+04   1.339595e+05   9.555148e+03   3.818514e+09   3.381004e+09  -2.309428e+10   1.474304e+05   4.332083e-28   0.000000e+00   0.000000e+00
     4256000   4.255999e-06   1.369364e+01   4.225337e+01   1.488982e-01  -6.079159e+04   1.339862e+05   9.370263e+03   3.672452e+09   3.283602e+09  -2.312663e+10   1.474304e+05   4.330161e-28   0.000000e+00   0.000000e+00
     4264000   4.263999e-06   1.369316e+01   4.225444e+01   1.489724e-01  -6.076279e+04   1.340121e+05   9.185125e+03   3.526290e+09   3.186084e+09  -2.315765e+10   1.474304e+05   4.328246e-28   0.000000e+00   0.000000e+00
     4272000   4.271999e-06   1.369267e+01   4.225551e+01   1.490451e-01  -6.073517e+04   1.340372e+05   8.999744e+03   3.380035e+09   3.088455e+09  -2.318734e+10   1.474304e+05   4.326335e-28   0.000000e+00   0.000000e+00
     4280000   4.279999e-06   1.369219e+01   4.225659e+01   1.491164e-01  -6.070871e+04   1.340615e+05   8.814131e+03   3.233696e+09   2.990720e+09  -2.321570e+10   1.474304e+05   4.324430e-28   0.000000e+00   0.000000e+00
     4288000   4.287999e-06   1.369170e+01   4.225766e+01   1.491862e-01  -6.068343e+04   1.340850e+05   8.628296e+03   3.087282e+09   2.892886e+09  -2.324273e+10   1.474304e+05   4.322530e-28   0.000000e+00   0.000000e+00
