     timestep     time              x             y              z              vx             vy             vz             ax             ay             az         v_magnitude      ELoss        Electronic      Nuclear
           0   0.000000e+00   3.624266e+01   1.507885e+01   1.000000e-01   7.550395e+04  -8.050549e+04   9.774320e+04   0.000000e+00   0.000000e+00   0.000000e+00   1.474304e+05   0.000000e+00   0.000000e+00   0.000000e+00
        8000   7.999000e-09   3.624326e+01   1.507820e+01   1.007812e-01   7.451074e+04  -8.164966e+04   9.755612e+04  -1.240131e+11  -1.428784e+11  -2.486395e+10   1.474304e+05   2.819991e-26   0.000000e+00   0.000000e+00
       16000   1.599900e-08   3.624385e+01   1.507754e+01   1.015608e-01   7.351982e+04  -8.279145e+04   9.734539e+04  -1.237126e+11  -1.425636e+11  -2.781519e+10   1.474304e+05   2.819308e-26   0.000000e+00   0.000000e+00
       24000   2.399900e-08   3.624444e+01   1.507687e+01   1.023387e-01   7.253142e+04  -8.393059e+04   9.711109e+04  -1.233820e+11  -1.422141e+11  -3.075861e+10   1.474304e+05   2.818624e-26   0.000000e+00   0.000000e+00
       32000   3.199900e-08   3.624501e+01   1.507620e+01   1.031145e-01   7.154579e+04  -8.506679e+04   9.685328e+04  -1.230213e+11  -1.418299e+11  -3.369348e+10   1.474304e+05   2.817939e-26   0.000000e+00   0.000000e+00
       40000   3.999900e-08   3.624558e+01   1.507551e+01   1.038883e-01   7.056316e+04  -8.619977e+04   9.657202e+04  -1.226306e+11  -1.414112e+11  -3.661910e+10   1.474304e+05   2.817253e-26   0.000000e+00   0.000000e+00
       48000   4.799900e-08   3.624614e+01   1.507482e+01   1.046596e-01   6.958378e+04  -8.732927e+04   9.626739e+04  -1.222100e+11  -1.409582e+11  -3.953476e+10   1.474304e+05   2.816567e-26   0.000000e+00   0.000000e+00
       56000   5.599900e-08   3.624669e+01   1.507411e+01   1.054285e-01   6.860788e+04  -8.845501e+04   9.593949e+04  -1.217597e+11  -1.404709e+11  -4.243974e+10   1.474304e+05   2.815880e-26   0.000000e+00   0.000000e+00
       64000   6.399900e-08   3.624724e+01   1.507340e+01   1.061946e-01   6.763571e+04  -8.957672e+04   9.558839e+04  -1.212797e+11  -1.399495e+11  -4.533334e+10   1.474304e+05   2.815193e-26   0.000000e+00   0.000000e+00
       72000   7.199900e-08   3.624778e+01   1.507268e+01   1.069578e-01   6.666749e+04  -9.069411e+04   9.521418e+04  -1.207703e+11  -1.393941e+11  -4.821486e+10   1.474304e+05   2.814504e-26   0.000000e+00   0.000000e+00
       80000   7.999900e-08   3.624831e+01   1.507195e+01   1.077180e-01   6.570346e+04  -9.180693e+04   9.481698e+04  -1.202315e+11  -1.388049e+11  -5.108361e+10   1.474304e+05   2.813815e-26   0.000000e+00   0.000000e+00
       88000   8.799900e-08   3.624883e+01   1.507121e+01   1.084748e-01   6.474386e+04  -9.291490e+04   9.439688e+04  -1.196635e+11  -1.381821e+11  -5.393888e+10   1.474304e+05   2.813125e-26   0.000000e+00   0.000000e+00
       96000   9.599900e-08   3.624934e+01   1.507046e+01   1.092283e-01   6.378892e+04  -9.401776e+04   9.395399e+04  -1.190664e+11  -1.375257e+11  -5.678000e+10   1.474304e+05   2.812433e-26   0.000000e+00   0.000000e+00
      104000   1.039990e-07   3.624985e+01   1.506971e+01   1.099780e-01   6.283888e+04  -9.511522e+04   9.348844e+04  -1.184405e+11  -1.368361e+11  -5.960626e+10   1.474304e+05   2.811741e-26   0.000000e+00   0.000000e+00
      112000   1.119990e-07   3.625035e+01   1.506894e+01   1.107240e-01   6.189395e+04  -9.620704e+04   9.300033e+04  -1.177858e+11  -1.361134e+11  -6.241699e+10   1.474304e+05   2.811047e-26   0.000000e+00   0.000000e+00
      120000   1.199990e-07   3.625084e+01   1.506817e+01   1.114660e-01   6.095438e+04  -9.729295e+04   9.248980e+04  -1.171025e+11  -1.353577e+11  -6.521151e+10   1.474304e+05   2.810352e-26   0.000000e+00   0.000000e+00
      128000   1.279990e-07   3.625132e+01   1.506739e+01   1.122038e-01   6.002039e+04  -9.837268e+04   9.195699e+04  -1.163909e+11  -1.345693e+11  -6.798915e+10   1.474304e+05   2.809656e-26   0.000000e+00   0.000000e+00
      136000   1.359990e-07   3.625180e+01   1.506659e+01   1.129372e-01   5.909220e+04  -9.944597e+04   9.140202e+04  -1.156511e+11  -1.337484e+11  -7.074924e+10   1.474304e+05   2.808959e-26   0.000000e+00   0.000000e+00
      144000   1.439990e-07   3.625227e+01   1.506579e+01   1.136662e-01   5.817005e+04  -1.005126e+05   9.082505e+04  -1.148832e+11  -1.328952e+11  -7.349111e+10   1.474304e+05   2.808260e-26   0.000000e+00   0.000000e+00
      152000   1.519990e-07   3.625273e+01   1.506499e+01   1.143904e-01   5.725415e+04  -1.015722e+05   9.022621e+04  -1.140876e+11  -1.320099e+11  -7.621410e+10   1.474304e+05   2.807560e-26   0.000000e+00   0.000000e+00
      160000   1.599990e-07   3.625318e+01   1.506417e+01   1.151097e-01   5.634472e+04  -1.026246e+05   8.960567e+04  -1.132644e+11  -1.310928e+11  -7.891757e+10   1.474304e+05   2.806859e-26   0.000000e+00   0.000000e+00
      168000   1.679990e-07   3.625363e+01   1.506334e+01   1.158240e-01   5.544199e+04  -1.036696e+05   8.896358e+04  -1.124138e+11  -1.301441e+11  -8.160085e+10   1.474304e+05   2.806156e-26   0.000000e+00   0.000000e+00
      176000   1.759990e-07   3.625407e+01   1.506251e+01   1.165331e-01   5.454617e+04  -1.047069e+05   8.830011e+04  -1.115361e+11  -1.291641e+11  -8.426330e+10   1.474304e+05   2.805451e-26   0.000000e+00   0.000000e+00
      184000   1.839990e-07   3.625450e+01   1.506167e+01   1.172368e-01   5.365748e+04  -1.057361e+05   8.761542e+04  -1.106314e+11  -1.281529e+11  -8.690429e+10   1.474304e+05   2.804745e-26   0.000000e+00   0.000000e+00
      192000   1.919990e-07   3.625493e+01   1.506082e+01   1.179349e-01   5.277614e+04  -1.067572e+05   8.690970e+04  -1.097000e+11  -1.271110e+11  -8.952319e+10   1.474304e+05   2.804038e-26   0.000000e+00   0.000000e+00
      200000   1.999990e-07   3.625535e+01   1.505996e+01   1.186273e-01   5.190235e+04  -1.077698e+05   8.618311e+04  -1.087422e+11  -1.260385e+11  -9.211936e+10   1.474304e+05   2.803328e-26   0.000000e+00   0.000000e+00
      208000   2.079990e-07   3.625576e+01   1.505910e+01   1.193138e-01   5.103634e+04  -1.087738e+05   8.543585e+04  -1.077582e+11  -1.249357e+11  -9.469219e+10   1.474304e+05   2.802618e-26   0.000000e+00   0.000000e+00
      216000   2.159990e-07   3.625616e+01   1.505822e+01   1.199942e-01   5.017829e+04  -1.097687e+05   8.466810e+04  -1.067482e+11  -1.238029e+11  -9.724106e+10   1.474304e+05   2.801905e-26   0.000000e+00   0.000000e+00
      224000   2.239990e-07   3.625656e+01   1.505734e+01   1.206684e-01   4.932844e+04  -1.107545e+05   8.388005e+04  -1.057124e+11  -1.226405e+11  -9.976536e+10   1.474304e+05   2.801190e-26   0.000000e+00   0.000000e+00
      232000   2.319990e-07   3.625695e+01   1.505645e+01   1.213362e-01   4.848696e+04  -1.117309e+05   8.307192e+04  -1.046513e+11  -1.214486e+11  -1.022645e+11   1.474304e+05   2.800474e-26   0.000000e+00   0.000000e+00
      240000   2.399990e-07   3.625734e+01   1.505555e+01   1.219975e-01   4.765408e+04  -1.126976e+05   8.224389e+04  -1.035649e+11  -1.202277e+11  -1.047379e+11   1.474304e+05   2.799756e-26   0.000000e+00   0.000000e+00
      248000   2.479990e-07   3.625772e+01   1.505465e+01   1.226521e-01   4.682999e+04  -1.136545e+05   8.139618e+04  -1.024537e+11  -1.189780e+11  -1.071849e+11   1.474304e+05   2.799037e-26   0.000000e+00   0.000000e+00
      256000   2.559990e-07   3.625809e+01   1.505373e+01   1.232998e-01   4.601489e+04  -1.146012e+05   8.052900e+04  -1.013179e+11  -1.176998e+11  -1.096049e+11   1.474304e+05   2.798315e-26   0.000000e+00   0.000000e+00
      264000   2.639990e-07   3.625845e+01   1.505281e+01   1.239405e-01   4.520897e+04  -1.155376e+05   7.964257e+04  -1.001577e+11  -1.163936e+11  -1.119975e+11   1.474304e+05   2.797591e-26   0.000000e+00   0.000000e+00
      272000   2.719990e-07   3.625881e+01   1.505188e+01   1.245740e-01   4.441243e+04  -1.164634e+05   7.873711e+04  -9.897350e+10  -1.150595e+11  -1.143620e+11   1.474304e+05   2.796866e-26   0.000000e+00   0.000000e+00
      280000   2.799990e-07   3.625916e+01   1.505095e+01   1.252002e-01   4.362546e+04  -1.173785e+05   7.781285e+04  -9.776555e+10  -1.136980e+11  -1.166978e+11   1.474304e+05   2.796139e-26   0.000000e+00   0.000000e+00
      288000   2.879990e-07   3.625951e+01   1.505001e+01   1.258190e-01   4.284825e+04  -1.182825e+05   7.687002e+04  -9.653418e+10  -1.123093e+11  -1.190044e+11   1.474304e+05   2.795409e-26   0.000000e+00   0.000000e+00
      296000   2.959990e-07   3.625985e+01   1.504906e+01   1.264301e-01   4.208098e+04  -1.191753e+05   7.590886e+04  -9.527968e+10  -1.108940e+11  -1.212813e+11   1.474304e+05   2.794678e-26   0.000000e+00   0.000000e+00
      304000   3.039990e-07   3.626018e+01   1.504810e+01   1.270335e-01   4.132383e+04  -1.200567e+05   7.492960e+04  -9.400237e+10  -1.094522e+11  -1.235279e+11   1.474304e+05   2.793945e-26   0.000000e+00   0.000000e+00
      312000   3.119990e-07   3.626051e+01   1.504714e+01   1.276289e-01   4.057700e+04  -1.209265e+05   7.393249e+04  -9.270258e+10  -1.079844e+11  -1.257437e+11   1.474304e+05   2.793210e-26   0.000000e+00   0.000000e+00
      320000   3.199990e-07   3.626083e+01   1.504616e+01   1.282163e-01   3.984065e+04  -1.217844e+05   7.291778e+04  -9.138062e+10  -1.064910e+11  -1.279282e+11   1.474304e+05   2.792473e-26   0.000000e+00   0.000000e+00
      328000   3.279990e-07   3.626115e+01   1.504519e+01   1.287956e-01   3.911497e+04  -1.226303e+05   7.188572e+04  -9.003683e+10  -1.049722e+11  -1.300808e+11   1.474304e+05   2.791733e-26   0.000000e+00   0.000000e+00
      336000   3.359990e-07   3.626146e+01   1.504420e+01   1.293665e-01   3.840012e+04  -1.234639e+05   7.083657e+04  -8.867155e+10  -1.034286e+11  -1.322011e+11   1.474304e+05   2.790992e-26   0.000000e+00   0.000000e+00
      344000   3.439990e-07   3.626176e+01   1.504321e+01   1.299289e-01   3.769628e+04  -1.242851e+05   6.977059e+04  -8.728511e+10  -1.018605e+11  -1.342885e+11   1.474304e+05   2.790249e-26   0.000000e+00   0.000000e+00
      352000   3.519990e-07   3.626206e+01   1.504221e+01   1.304827e-01   3.700362e+04  -1.250936e+05   6.868804e+04  -8.587786e+10  -1.002683e+11  -1.363425e+11   1.474304e+05   2.789504e-26   0.000000e+00   0.000000e+00
      360000   3.599990e-07   3.626235e+01   1.504121e+01   1.310279e-01   3.632229e+04  -1.258893e+05   6.758920e+04  -8.445016e+10  -9.865244e+10  -1.383628e+11   1.474304e+05   2.788757e-26   0.000000e+00   0.000000e+00
      368000   3.679990e-07   3.626264e+01   1.504020e+01   1.315641e-01   3.565247e+04  -1.266720e+05   6.647433e+04  -8.300235e+10  -9.701323e+10  -1.403487e+11   1.474304e+05   2.788007e-26   0.000000e+00   0.000000e+00
      376000   3.759990e-07   3.626292e+01   1.503918e+01   1.320914e-01   3.499431e+04  -1.274415e+05   6.534371e+04  -8.153480e+10  -9.535115e+10  -1.422998e+11   1.474304e+05   2.787256e-26   0.000000e+00   0.000000e+00
      384000   3.839990e-07   3.626320e+01   1.503816e+01   1.326096e-01   3.434797e+04  -1.281975e+05   6.419762e+04  -8.004787e+10  -9.366660e+10  -1.442158e+11   1.474304e+05   2.786503e-26   0.000000e+00   0.000000e+00
      392000   3.919990e-07   3.626347e+01   1.503713e+01   1.331185e-01   3.371360e+04  -1.289401e+05   6.303635e+04  -7.854193e+10  -9.196000e+10  -1.460960e+11   1.474304e+05   2.785748e-26   0.000000e+00   0.000000e+00
      400000   3.999990e-07   3.626374e+01   1.503610e+01   1.336181e-01   3.309135e+04  -1.296688e+05   6.186018e+04  -7.701736e+10  -9.023179e+10  -1.479402e+11   1.474304e+05   2.784991e-26   0.000000e+00   0.000000e+00
      408000   4.079990e-07   3.626400e+01   1.503506e+01   1.341083e-01   3.248137e+04  -1.303837e+05   6.066940e+04  -7.547452e+10  -8.848240e+10  -1.497478e+11   1.474304e+05   2.784232e-26   0.000000e+00   0.000000e+00
      416000   4.159990e-07   3.626426e+01   1.503401e+01   1.345888e-01   3.188380e+04  -1.310845e+05   5.946431e+04  -7.391382e+10  -8.671226e+10  -1.515185e+11   1.474304e+05   2.783471e-26   0.000000e+00   0.000000e+00
      424000   4.239990e-07   3.626451e+01   1.503296e+01   1.350596e-01   3.129880e+04  -1.317711e+05   5.824521e+04  -7.233562e+10  -8.492181e+10  -1.532518e+11   1.474304e+05   2.782708e-26   0.000000e+00   0.000000e+00
      432000   4.319990e-07   3.626476e+01   1.503190e+01   1.355207e-01   3.072648e+04  -1.324432e+05   5.701238e+04  -7.074032e+10  -8.311151e+10  -1.549473e+11   1.474304e+05   2.781943e-26   0.000000e+00   0.000000e+00
      440000   4.399990e-07   3.626501e+01   1.503084e+01   1.359718e-01   3.016700e+04  -1.331008e+05   5.576615e+04  -6.912831e+10  -8.128180e+10  -1.566047e+11   1.474304e+05   2.781176e-26   0.000000e+00   0.000000e+00
      448000   4.479990e-07   3.626524e+01   1.502977e+01   1.364129e-01   2.962047e+04  -1.337437e+05   5.450681e+04  -6.750000e+10  -7.943314e+10  -1.582236e+11   1.474304e+05   2.780407e-26   0.000000e+00   0.000000e+00
      456000   4.559990e-07   3.626548e+01   1.502870e+01   1.368439e-01   2.908704e+04  -1.343717e+05   5.323467e+04  -6.585578e+10  -7.756599e+10  -1.598035e+11   1.474304e+05   2.779637e-26   0.000000e+00   0.000000e+00
      464000   4.639990e-07   3.626571e+01   1.502762e+01   1.372646e-01   2.856682e+04  -1.349847e+05   5.195006e+04  -6.419606e+10  -7.568082e+10  -1.613441e+11   1.474304e+05   2.778864e-26   0.000000e+00   0.000000e+00
      472000   4.719990e-07   3.626594e+01   1.502654e+01   1.376751e-01   2.805995e+04  -1.355825e+05   5.065327e+04  -6.252124e+10  -7.377808e+10  -1.628451e+11   1.474304e+05   2.778090e-26   0.000000e+00   0.000000e+00
      480000   4.799990e-07   3.626616e+01   1.502545e+01   1.380751e-01   2.756653e+04  -1.361651e+05   4.934464e+04  -6.083174e+10  -7.185826e+10  -1.643062e+11   1.474304e+05   2.777314e-26   0.000000e+00   0.000000e+00
      488000   4.879990e-07   3.626638e+01   1.502436e+01   1.384645e-01   2.708668e+04  -1.367322e+05   4.802448e+04  -5.912798e+10  -6.992183e+10  -1.657269e+11   1.474304e+05   2.776536e-26   0.000000e+00   0.000000e+00
      496000   4.959990e-07   3.626659e+01   1.502327e+01   1.388434e-01   2.662052e+04  -1.372838e+05   4.669312e+04  -5.741037e+10  -6.796926e+10  -1.671070e+11   1.474304e+05   2.775757e-26   0.000000e+00   0.000000e+00
      504000   5.039990e-07   3.626680e+01   1.502217e+01   1.392116e-01   2.616815e+04  -1.378197e+05   4.535088e+04  -5.567934e+10  -6.600105e+10  -1.684462e+11   1.474304e+05   2.774976e-26   0.000000e+00   0.000000e+00
      512000   5.119990e-07   3.626701e+01   1.502106e+01   1.395690e-01   2.572968e+04  -1.383397e+05   4.399809e+04  -5.393530e+10  -6.401767e+10  -1.697441e+11   1.474304e+05   2.774193e-26   0.000000e+00   0.000000e+00
      520000   5.199990e-07   3.626721e+01   1.501995e+01   1.399155e-01   2.530522e+04  -1.388439e+05   4.263508e+04  -5.217869e+10  -6.201962e+10  -1.710004e+11   1.474304e+05   2.773409e-26   0.000000e+00   0.000000e+00
      528000   5.279990e-07   3.626742e+01   1.501884e+01   1.402511e-01   2.489486e+04  -1.393320e+05   4.126219e+04  -5.040993e+10  -6.000740e+10  -1.722150e+11   1.474304e+05   2.772623e-26   0.000000e+00   0.000000e+00
      536000   5.359990e-07   3.626761e+01   1.501772e+01   1.405757e-01   2.449869e+04  -1.398040e+05   3.987975e+04  -4.862947e+10  -5.798149e+10  -1.733874e+11   1.474304e+05   2.771835e-26   0.000000e+00   0.000000e+00
      544000   5.439990e-07   3.626781e+01   1.501660e+01   1.408892e-01   2.411682e+04  -1.402597e+05   3.848810e+04  -4.683773e+10  -5.594239e+10  -1.745175e+11   1.474304e+05   2.771046e-26   0.000000e+00   0.000000e+00
      552000   5.519990e-07   3.626800e+01   1.501548e+01   1.411915e-01   2.374932e+04  -1.406990e+05   3.708758e+04  -4.503516e+10  -5.389061e+10  -1.756050e+11   1.474304e+05   2.770256e-26   0.000000e+00   0.000000e+00
      560000   5.599990e-07   3.626819e+01   1.501435e+01   1.414826e-01   2.339629e+04  -1.411219e+05   3.567854e+04  -4.322219e+10  -5.182666e+10  -1.766497e+11   1.474304e+05   2.769464e-26   0.000000e+00   0.000000e+00
      568000   5.679990e-07   3.626837e+01   1.501322e+01   1.417623e-01   2.305779e+04  -1.415282e+05   3.426130e+04  -4.139926e+10  -4.975103e+10  -1.776512e+11   1.474304e+05   2.768671e-26   0.000000e+00   0.000000e+00
      576000   5.759990e-07   3.626856e+01   1.501209e+01   1.420307e-01   2.273392e+04  -1.419179e+05   3.283623e+04  -3.956683e+10  -4.766424e+10  -1.786095e+11   1.474304e+05   2.767877e-26   0.000000e+00   0.000000e+00
      584000   5.839990e-07   3.626874e+01   1.501095e+01   1.422877e-01   2.242475e+04  -1.422908e+05   3.140367e+04  -3.772534e+10  -4.556680e+10  -1.795243e+11   1.474304e+05   2.767081e-26   0.000000e+00   0.000000e+00
      592000   5.919990e-07   3.626892e+01   1.500981e+01   1.425332e-01   2.213034e+04  -1.426469e+05   2.996396e+04  -3.587523e+10  -4.345922e+10  -1.803953e+11   1.474304e+05   2.766284e-26   0.000000e+00   0.000000e+00
      600000   5.999990e-07   3.626909e+01   1.500867e+01   1.427671e-01   2.185077e+04  -1.429861e+05   2.851746e+04  -3.401696e+10  -4.134203e+10  -1.812225e+11   1.474304e+05   2.765486e-26   0.000000e+00   0.000000e+00
      608000   6.079990e-07   3.626927e+01   1.500752e+01   1.429894e-01   2.158610e+04  -1.433084e+05   2.706451e+04  -3.215099e+10  -3.921573e+10  -1.820056e+11   1.474304e+05   2.764687e-26   0.000000e+00   0.000000e+00
      616000   6.159990e-07   3.626944e+01   1.500638e+01   1.432001e-01   2.133638e+04  -1.436136e+05   2.560549e+04  -3.027776e+10  -3.708085e+10  -1.827444e+11   1.474304e+05   2.763887e-26   0.000000e+00   0.000000e+00
      624000   6.239990e-07   3.626961e+01   1.500523e+01   1.433991e-01   2.110167e+04  -1.439016e+05   2.414072e+04  -2.839773e+10  -3.493790e+10  -1.834389e+11   1.474304e+05   2.763086e-26   0.000000e+00   0.000000e+00
      632000   6.319990e-07   3.626977e+01   1.500407e+01   1.435863e-01   2.088203e+04  -1.441725e+05   2.267058e+04  -2.651135e+10  -3.278742e+10  -1.840888e+11   1.474304e+05   2.762283e-26   0.000000e+00   0.000000e+00
      640000   6.399990e-07   3.626994e+01   1.500292e+01   1.437618e-01   2.067751e+04  -1.444262e+05   2.119542e+04  -2.461910e+10  -3.062993e+10  -1.846940e+11   1.474304e+05   2.761480e-26   0.000000e+00   0.000000e+00
      648000   6.479990e-07   3.627011e+01   1.500176e+01   1.439255e-01   2.048814e+04  -1.446626e+05   1.971560e+04  -2.272141e+10  -2.846595e+10  -1.852545e+11   1.474304e+05   2.760677e-26   0.000000e+00   0.000000e+00
      656000   6.559990e-07   3.627027e+01   1.500060e+01   1.440773e-01   2.031398e+04  -1.448817e+05   1.823147e+04  -2.081877e+10  -2.629600e+10  -1.857700e+11   1.474305e+05   2.759872e-26   0.000000e+00   0.000000e+00
      664000   6.639990e-07   3.627043e+01   1.499944e+01   1.442172e-01   2.015501e+04  -1.450833e+05   1.674326e+04  -1.892302e+10  -2.412596e+10  -1.862747e+11   1.474305e+05   2.760104e-26   0.000000e+00   0.000000e+00
      672000   6.719990e-07   3.627059e+01   1.499828e+01   1.443451e-01   2.001127e+04  -1.452676e+05   1.525133e+04  -1.701127e+10  -2.194489e+10  -1.867003e+11   1.474305e+05   2.759296e-26   0.000000e+00   0.000000e+00
      680000   6.799990e-07   3.627075e+01   1.499712e+01   1.444612e-01   1.988284e+04  -1.454344e+05   1.375618e+04  -1.509593e+10  -1.975943e+10  -1.870807e+11   1.474305e+05   2.758487e-26   0.000000e+00   0.000000e+00
      688000   6.879990e-07   3.627091e+01   1.499596e+01   1.445652e-01   1.976975e+04  -1.455838e+05   1.225816e+04  -1.317748e+10  -1.757013e+10  -1.874159e+11   1.474305e+05   2.757678e-26   0.000000e+00   0.000000e+00
      696000   6.959990e-07   3.627107e+01   1.499479e+01   1.446573e-01   1.967201e+04  -1.457156e+05   1.075765e+04  -1.125637e+10  -1.537751e+10  -1.877058e+11   1.474305e+05   2.756869e-26   0.000000e+00   0.000000e+00
      704000   7.039990e-07   3.627122e+01   1.499362e+01   1.447373e-01   1.958965e+04  -1.458298e+05   9.254991e+03  -9.333076e+09  -1.318212e+10  -1.879503e+11   1.474305e+05   2.756059e-26   0.000000e+00   0.000000e+00
      712000   7.119990e-07   3.627138e+01   1.499246e+01   1.448054e-01   1.952269e+04  -1.459265e+05   7.750563e+03  -7.408058e+09  -1.098446e+10  -1.881493e+11   1.474305e+05   2.755249e-26   0.000000e+00   0.000000e+00
      720000   7.199990e-07   3.627154e+01   1.499129e+01   1.448613e-01   1.947113e+04  -1.460055e+05   6.244723e+03  -5.481784e+09  -8.785092e+09  -1.883030e+11   1.474305e+05   2.754439e-26   0.000000e+00   0.000000e+00
      728000   7.279990e-07   3.627169e+01   1.499012e+01   1.449053e-01   1.943499e+04  -1.460670e+05   4.737835e+03  -3.554716e+09  -6.584531e+09  -1.884112e+11   1.474305e+05   2.753628e-26   0.000000e+00   0.000000e+00
      736000   7.359990e-07   3.627185e+01   1.498895e+01   1.449372e-01   1.941426e+04  -1.461109e+05   3.230264e+03  -1.627322e+09  -4.383312e+09  -1.884740e+11   1.474305e+05   2.752818e-26   0.000000e+00   0.000000e+00
      744000   7.439990e-07   3.627200e+01   1.498778e+01   1.449570e-01   1.940895e+04  -1.461372e+05   1.722372e+03   2.999345e+08  -2.181967e+09  -1.884914e+11   1.474305e+05   2.752007e-26   0.000000e+00   0.000000e+00
      752000   7.519990e-07   3.627216e+01   1.498662e+01   1.449647e-01   1.941906e+04  -1.461458e+05   2.145231e+02   2.226589e+09   1.897419e+07  -1.884633e+11   1.474305e+05   2.751197e-26   0.000000e+00   0.000000e+00
      760000   7.599990e-07   3.627231e+01   1.498545e+01   1.449604e-01   1.944457e+04  -1.461368e+05  -1.292920e+03   4.152176e+09   2.218981e+09  -1.883899e+11   1.474305e+05   2.750386e-26   0.000000e+00   0.000000e+00
      768000   7.679990e-07   3.627247e+01   1.498428e+01   1.449440e-01   1.948549e+04  -1.461103e+05  -2.799594e+03   6.076233e+09   4.417524e+09  -1.882711e+11   1.474305e+05   2.749576e-26   0.000000e+00   0.000000e+00
      776000   7.759990e-07   3.627263e+01   1.498311e+01   1.449156e-01   1.954179e+04  -1.460662e+05  -4.305137e+03   7.998297e+09   6.614074e+09  -1.881071e+11   1.474305e+05   2.748766e-26   0.000000e+00   0.000000e+00
      784000   7.839990e-07   3.627278e+01   1.498194e+01   1.448751e-01   1.961346e+04  -1.460045e+05  -5.809187e+03   9.917905e+09   8.808103e+09  -1.878978e+11   1.474305e+05   2.747956e-26   0.000000e+00   0.000000e+00
      792000   7.919990e-07   3.627294e+01   1.498077e+01   1.448227e-01   1.970047e+04  -1.459252e+05  -7.311382e+03   1.183459e+10   1.099909e+10  -1.876434e+11   1.474305e+05   2.747146e-26   0.000000e+00   0.000000e+00
      800000   7.999990e-07   3.627310e+01   1.497961e+01   1.447582e-01   1.980280e+04  -1.458285e+05  -8.811361e+03   1.374791e+10   1.318649e+10  -1.873439e+11   1.474305e+05   2.746337e-26   0.000000e+00   0.000000e+00
      808000   8.079990e-07   3.627326e+01   1.497844e+01   1.446817e-01   1.992043e+04  -1.457143e+05  -1.030876e+04   1.565738e+10   1.536981e+10  -1.869995e+11   1.474305e+05   2.745529e-26   0.000000e+00   0.000000e+00
      816000   8.159990e-07   3.627342e+01   1.497727e+01   1.445932e-01   2.005331e+04  -1.455826e+05  -1.180323e+04   1.756256e+10   1.754850e+10  -1.866102e+11   1.474305e+05   2.744721e-26   0.000000e+00   0.000000e+00
      824000   8.239990e-07   3.627358e+01   1.497611e+01   1.444928e-01   2.020142e+04  -1.454335e+05  -1.329441e+04   1.946299e+10   1.972205e+10  -1.861762e+11   1.474305e+05   2.743913e-26   0.000000e+00   0.000000e+00
      832000   8.319990e-07   3.627374e+01   1.497495e+01   1.443805e-01   2.036471e+04  -1.452671e+05  -1.478193e+04   2.135820e+10   2.188994e+10  -1.856976e+11   1.474305e+05   2.743107e-26   0.000000e+00   0.000000e+00
      840000   8.399990e-07   3.627390e+01   1.497379e+01   1.442563e-01   2.054314e+04  -1.450833e+05  -1.626545e+04   2.324776e+10   2.405165e+10  -1.851744e+11   1.474305e+05   2.742301e-26   0.000000e+00   0.000000e+00
      848000   8.479990e-07   3.627407e+01   1.497263e+01   1.441203e-01   2.073666e+04  -1.448822e+05  -1.774461e+04   2.513120e+10   2.620666e+10  -1.846070e+11   1.474305e+05   2.741495e-26   0.000000e+00   0.000000e+00
      856000   8.559990e-07   3.627423e+01   1.497147e+01   1.439724e-01   2.094522e+04  -1.446640e+05  -1.921904e+04   2.700807e+10   2.835447e+10  -1.839954e+11   1.474305e+05   2.740691e-26   0.000000e+00   0.000000e+00
      864000   8.639990e-07   3.627440e+01   1.497031e+01   1.438128e-01   2.116877e+04  -1.444286e+05  -2.068841e+04   2.887793e+10   3.049456e+10  -1.833399e+11   1.474305e+05   2.739888e-26   0.000000e+00   0.000000e+00
      872000   8.719990e-07   3.627457e+01   1.496916e+01   1.436414e-01   2.140725e+04  -1.441761e+05  -2.215236e+04   3.074033e+10   3.262641e+10  -1.826405e+11   1.474305e+05   2.739085e-26   0.000000e+00   0.000000e+00
      880000   8.799990e-07   3.627475e+01   1.496800e+01   1.434584e-01   2.166060e+04  -1.439066e+05  -2.361054e+04   3.259483e+10   3.474953e+10  -1.818975e+11   1.474305e+05   2.738284e-26   0.000000e+00   0.000000e+00
      888000   8.879990e-07   3.627492e+01   1.496685e+01   1.432637e-01   2.192875e+04  -1.436201e+05  -2.506261e+04   3.444097e+10   3.686341e+10  -1.811111e+11   1.474305e+05   2.737484e-26   0.000000e+00   0.000000e+00
      896000   8.959990e-07   3.627510e+01   1.496571e+01   1.430574e-01   2.221163e+04  -1.433168e+05  -2.650821e+04   3.627832e+10   3.896755e+10  -1.802815e+11   1.474305e+05   2.736684e-26   0.000000e+00   0.000000e+00
      904000   9.039990e-07   3.627528e+01   1.496456e+01   1.428396e-01   2.250918e+04  -1.429967e+05  -2.794700e+04   3.810645e+10   4.106144e+10  -1.794089e+11   1.474305e+05   2.735886e-26   0.000000e+00   0.000000e+00
      912000   9.119990e-07   3.627546e+01   1.496342e+01   1.426103e-01   2.282131e+04  -1.426598e+05  -2.937863e+04   3.992492e+10   4.314459e+10  -1.784936e+11   1.474305e+05   2.735090e-26   0.000000e+00   0.000000e+00
      920000   9.199990e-07   3.627564e+01   1.496228e+01   1.423695e-01   2.314795e+04  -1.423064e+05  -3.080278e+04   4.173328e+10   4.521651e+10  -1.775357e+11   1.474305e+05   2.734294e-26   0.000000e+00   0.000000e+00
      928000   9.279990e-07   3.627583e+01   1.496114e+01   1.421174e-01   2.348902e+04  -1.419364e+05  -3.221909e+04   4.353113e+10   4.727671e+10  -1.765356e+11   1.474305e+05   2.733500e-26   0.000000e+00   0.000000e+00
      936000   9.359990e-07   3.627602e+01   1.496001e+01   1.418541e-01   2.384442e+04  -1.415500e+05  -3.362724e+04   4.531801e+10   4.932470e+10  -1.754936e+11   1.474305e+05   2.732708e-26   0.000000e+00   0.000000e+00
      944000   9.439990e-07   3.627621e+01   1.495888e+01   1.415794e-01   2.421408e+04  -1.411472e+05  -3.502688e+04   4.709352e+10   5.136000e+10  -1.744098e+11   1.474305e+05   2.731917e-26   0.000000e+00   0.000000e+00
      952000   9.519990e-07   3.627640e+01   1.495775e+01   1.412936e-01   2.459789e+04  -1.407283e+05  -3.641768e+04   4.885724e+10   5.338212e+10  -1.732846e+11   1.474305e+05   2.731127e-26   0.000000e+00   0.000000e+00
      960000   9.599990e-07   3.627660e+01   1.495663e+01   1.409968e-01   2.499576e+04  -1.402932e+05  -3.779932e+04   5.060873e+10   5.539059e+10  -1.721183e+11   1.474305e+05   2.730339e-26   0.000000e+00   0.000000e+00
      968000   9.679990e-07   3.627680e+01   1.495550e+01   1.406889e-01   2.540760e+04  -1.398421e+05  -3.917146e+04   5.234759e+10   5.738495e+10  -1.709111e+11   1.474305e+05   2.729552e-26   0.000000e+00   0.000000e+00
      976000   9.759990e-07   3.627701e+01   1.495439e+01   1.403701e-01   2.583329e+04  -1.393750e+05  -4.053379e+04   5.407340e+10   5.936471e+10  -1.696634e+11   1.474305e+05   2.728768e-26   0.000000e+00   0.000000e+00
      984000   9.839990e-07   3.627722e+01   1.495327e+01   1.400404e-01   2.627274e+04  -1.388923e+05  -4.188597e+04   5.578576e+10   6.132941e+10  -1.683755e+11   1.474305e+05   2.727984e-26   0.000000e+00   0.000000e+00
      992000   9.919990e-07   3.627743e+01   1.495217e+01   1.396999e-01   2.672583e+04  -1.383938e+05  -4.322769e+04   5.748426e+10   6.327860e+10  -1.670477e+11   1.474305e+05   2.727203e-26   0.000000e+00   0.000000e+00
     1000000   9.999990e-07   3.627765e+01   1.495106e+01   1.393488e-01   2.719245e+04  -1.378798e+05  -4.455863e+04   5.916850e+10   6.521181e+10  -1.656804e+11   1.474305e+05   2.726423e-26   0.000000e+00   0.000000e+00
     1008000   1.007999e-06   3.627786e+01   1.494996e+01   1.389870e-01   2.767248e+04  -1.373505e+05  -4.587847e+04   6.083808e+10   6.712859e+10  -1.642740e+11   1.474305e+05   2.725646e-26   0.000000e+00   0.000000e+00
     1016000   1.015999e-06   3.627809e+01   1.494886e+01   1.386147e-01   2.816582e+04  -1.368058e+05  -4.718690e+04   6.249260e+10   6.902850e+10  -1.628287e+11   1.474305e+05   2.724870e-26   0.000000e+00   0.000000e+00
     1024000   1.023999e-06   3.627832e+01   1.494777e+01   1.382320e-01   2.867233e+04  -1.362461e+05  -4.848362e+04   6.413169e+10   7.091109e+10  -1.613449e+11   1.474305e+05   2.724095e-26   0.000000e+00   0.000000e+00
     1032000   1.031999e-06   3.627855e+01   1.494668e+01   1.378390e-01   2.919188e+04  -1.356713e+05  -4.976832e+04   6.575494e+10   7.277592e+10  -1.598231e+11   1.474305e+05   2.723323e-26   0.000000e+00   0.000000e+00
     1040000   1.039999e-06   3.627878e+01   1.494560e+01   1.374358e-01   2.972436e+04  -1.350817e+05  -5.104069e+04   6.736198e+10   7.462255e+10  -1.582636e+11   1.474305e+05   2.722553e-26   0.000000e+00   0.000000e+00
     1048000   1.047999e-06   3.627902e+01   1.494452e+01   1.370224e-01   3.026963e+04  -1.344774e+05  -5.230044e+04   6.895244e+10   7.645055e+10  -1.566668e+11   1.474305e+05   2.721785e-26   0.000000e+00   0.000000e+00
     1056000   1.055999e-06   3.627927e+01   1.494345e+01   1.365990e-01   3.082756e+04  -1.338585e+05  -5.354726e+04   7.052593e+10   7.825951e+10  -1.550331e+11   1.474305e+05   2.721018e-26   0.000000e+00   0.000000e+00
     1064000   1.063999e-06   3.627952e+01   1.494238e+01   1.361657e-01   3.139800e+04  -1.332253e+05  -5.478087e+04   7.208208e+10   8.004899e+10  -1.533629e+11   1.474305e+05   2.720254e-26   0.000000e+00   0.000000e+00
     1072000   1.071999e-06   3.627977e+01   1.494132e+01   1.357226e-01   3.198083e+04  -1.325778e+05  -5.600097e+04   7.362054e+10   8.181859e+10  -1.516566e+11   1.474305e+05   2.719492e-26   0.000000e+00   0.000000e+00
     1080000   1.079999e-06   3.628003e+01   1.494026e+01   1.352697e-01   3.257589e+04  -1.319162e+05  -5.720728e+04   7.514094e+10   8.356788e+10  -1.499147e+11   1.474305e+05   2.718731e-26   0.000000e+00   0.000000e+00
     1088000   1.087999e-06   3.628029e+01   1.493921e+01   1.348073e-01   3.318303e+04  -1.312408e+05  -5.839951e+04   7.664293e+10   8.529648e+10  -1.481376e+11   1.474305e+05   2.717973e-26   0.000000e+00   0.000000e+00
     1096000   1.095999e-06   3.628056e+01   1.493816e+01   1.343354e-01   3.380212e+04  -1.305515e+05  -5.957738e+04   7.812615e+10   8.700397e+10  -1.463258e+11   1.474305e+05   2.717217e-26   0.000000e+00   0.000000e+00
     1104000   1.103999e-06   3.628083e+01   1.493712e+01   1.338541e-01   3.443300e+04  -1.298488e+05  -6.074063e+04   7.959026e+10   8.868996e+10  -1.444796e+11   1.474305e+05   2.716463e-26   0.000000e+00   0.000000e+00
     1112000   1.111999e-06   3.628111e+01   1.493608e+01   1.333635e-01   3.507552e+04  -1.291326e+05  -6.188897e+04   8.103491e+10   9.035407e+10  -1.425997e+11   1.474305e+05   2.715711e-26   0.000000e+00   0.000000e+00
     1120000   1.119999e-06   3.628139e+01   1.493505e+01   1.328639e-01   3.572951e+04  -1.284031e+05  -6.302213e+04   8.245977e+10   9.199590e+10  -1.406863e+11   1.474305e+05   2.714962e-26   0.000000e+00   0.000000e+00
     1128000   1.127999e-06   3.628168e+01   1.493403e+01   1.323552e-01   3.639482e+04  -1.276607e+05  -6.413986e+04   8.386451e+10   9.361509e+10  -1.387401e+11   1.474305e+05   2.714214e-26   0.000000e+00   0.000000e+00
     1136000   1.135999e-06   3.628197e+01   1.493301e+01   1.318377e-01   3.707129e+04  -1.269054e+05  -6.524188e+04   8.524880e+10   9.521126e+10  -1.367614e+11   1.474305e+05   2.713469e-26   0.000000e+00   0.000000e+00
     1144000   1.143999e-06   3.628227e+01   1.493200e+01   1.313114e-01   3.775875e+04  -1.261374e+05  -6.632795e+04   8.661232e+10   9.678403e+10  -1.347508e+11   1.474305e+05   2.712725e-26   0.000000e+00   0.000000e+00
     1152000   1.151999e-06   3.628258e+01   1.493099e+01   1.307765e-01   3.845703e+04  -1.253569e+05  -6.739781e+04   8.795475e+10   9.833306e+10  -1.327088e+11   1.474305e+05   2.711984e-26   0.000000e+00   0.000000e+00
     1160000   1.159999e-06   3.628289e+01   1.492999e+01   1.302331e-01   3.916597e+04  -1.245641e+05  -6.845121e+04   8.927578e+10   9.985799e+10  -1.306359e+11   1.474305e+05   2.711245e-26   0.000000e+00   0.000000e+00
     1168000   1.167999e-06   3.628321e+01   1.492900e+01   1.296813e-01   3.988539e+04  -1.237592e+05  -6.948790e+04   9.057510e+10   1.013585e+11  -1.285325e+11   1.474305e+05   2.710509e-26   0.000000e+00   0.000000e+00
     1176000   1.175999e-06   3.628353e+01   1.492801e+01   1.291213e-01   4.061511e+04  -1.229424e+05  -7.050765e+04   9.185242e+10   1.028341e+11  -1.263993e+11   1.474305e+05   2.709774e-26   0.000000e+00   0.000000e+00
     1184000   1.183999e-06   3.628386e+01   1.492703e+01   1.285532e-01   4.135497e+04  -1.221139e+05  -7.151021e+04   9.310744e+10   1.042847e+11  -1.242367e+11   1.474305e+05   2.709042e-26   0.000000e+00   0.000000e+00
     1192000   1.191999e-06   3.628419e+01   1.492606e+01   1.279772e-01   4.210477e+04  -1.212739e+05  -7.249536e+04   9.433986e+10   1.057098e+11  -1.220453e+11   1.474305e+05   2.708311e-26   0.000000e+00   0.000000e+00
     1200000   1.199999e-06   3.628453e+01   1.492509e+01   1.273934e-01   4.286435e+04  -1.204226e+05  -7.346286e+04   9.554942e+10   1.071091e+11  -1.198256e+11   1.474305e+05   2.707583e-26   0.000000e+00   0.000000e+00
     1208000   1.207999e-06   3.628488e+01   1.492413e+01   1.268018e-01   4.363350e+04  -1.195603e+05  -7.441249e+04   9.673582e+10   1.084823e+11  -1.175782e+11   1.474305e+05   2.706857e-26   0.000000e+00   0.000000e+00
     1216000   1.215999e-06   3.628523e+01   1.492318e+01   1.262028e-01   4.441206e+04  -1.186870e+05  -7.534403e+04   9.789879e+10   1.098291e+11  -1.153035e+11   1.474305e+05   2.706133e-26   0.000000e+00   0.000000e+00
     1224000   1.223999e-06   3.628559e+01   1.492223e+01   1.255964e-01   4.519982e+04  -1.178031e+05  -7.625727e+04   9.903808e+10   1.111491e+11  -1.130022e+11   1.474305e+05   2.705411e-26   0.000000e+00   0.000000e+00
     1232000   1.231999e-06   3.628595e+01   1.492129e+01   1.249827e-01   4.599661e+04  -1.169087e+05  -7.715200e+04   1.001534e+11   1.124422e+11  -1.106749e+11   1.474305e+05   2.704691e-26   0.000000e+00   0.000000e+00
     1240000   1.239999e-06   3.628632e+01   1.492036e+01   1.243620e-01   4.680221e+04  -1.160041e+05  -7.802800e+04   1.012445e+11   1.137080e+11  -1.083220e+11   1.474305e+05   2.703974e-26   0.000000e+00   0.000000e+00
     1248000   1.247999e-06   3.628670e+01   1.491944e+01   1.237343e-01   4.761645e+04  -1.150894e+05  -7.888508e+04   1.023112e+11   1.149461e+11  -1.059442e+11   1.474305e+05   2.703258e-26   0.000000e+00   0.000000e+00
     1256000   1.255999e-06   3.628708e+01   1.491852e+01   1.230999e-01   4.843913e+04  -1.141650e+05  -7.972304e+04   1.033532e+11   1.161564e+11  -1.035421e+11   1.474305e+05   2.702544e-26   0.000000e+00   0.000000e+00
     1264000   1.263999e-06   3.628747e+01   1.491761e+01   1.224588e-01   4.927004e+04  -1.132310e+05  -8.054169e+04   1.043702e+11   1.173386e+11  -1.011162e+11   1.474305e+05   2.701833e-26   0.000000e+00   0.000000e+00
     1272000   1.271999e-06   3.628787e+01   1.491671e+01   1.218113e-01   5.010899e+04  -1.122877e+05  -8.134084e+04   1.053621e+11   1.184923e+11  -9.866716e+10   1.474305e+05   2.701123e-26   0.000000e+00   0.000000e+00
     1280000   1.279999e-06   3.628828e+01   1.491581e+01   1.211574e-01   5.095577e+04  -1.113352e+05  -8.212030e+04   1.063286e+11   1.196174e+11  -9.619553e+10   1.474305e+05   2.700415e-26   0.000000e+00   0.000000e+00
     1288000   1.287999e-06   3.628869e+01   1.491493e+01   1.204974e-01   5.181018e+04  -1.103739e+05  -8.287990e+04   1.072695e+11   1.207136e+11  -9.370192e+10   1.474305e+05   2.699710e-26   0.000000e+00   0.000000e+00
     1296000   1.295999e-06   3.628911e+01   1.491405e+01   1.198314e-01   5.267201e+04  -1.094039e+05  -8.361947e+04   1.081845e+11   1.217806e+11  -9.118695e+10   1.474305e+05   2.699006e-26   0.000000e+00   0.000000e+00
     1304000   1.303999e-06   3.628953e+01   1.491318e+01   1.191596e-01   5.354106e+04  -1.084254e+05  -8.433884e+04   1.090736e+11   1.228182e+11  -8.865122e+10   1.474305e+05   2.698304e-26   0.000000e+00   0.000000e+00
     1312000   1.311999e-06   3.628996e+01   1.491231e+01   1.184820e-01   5.441712e+04  -1.074388e+05  -8.503783e+04   1.099364e+11   1.238262e+11  -8.609535e+10   1.474305e+05   2.697603e-26   0.000000e+00   0.000000e+00
     1320000   1.319999e-06   3.629040e+01   1.491146e+01   1.177990e-01   5.529997e+04  -1.064443e+05  -8.571631e+04   1.107728e+11   1.248044e+11  -8.351995e+10   1.474305e+05   2.696905e-26   0.000000e+00   0.000000e+00
     1328000   1.327999e-06   3.629085e+01   1.491061e+01   1.171106e-01   5.618941e+04  -1.054421e+05  -8.637410e+04   1.115826e+11   1.257526e+11  -8.092566e+10   1.474305e+05   2.696208e-26   0.000000e+00   0.000000e+00
     1336000   1.335999e-06   3.629130e+01   1.490977e+01   1.164171e-01   5.708522e+04  -1.044323e+05  -8.701107e+04   1.123656e+11   1.266704e+11  -7.831310e+10   1.474305e+05   2.695513e-26   0.000000e+00   0.000000e+00
     1344000   1.343999e-06   3.629176e+01   1.490894e+01   1.157185e-01   5.798719e+04  -1.034154e+05  -8.762706e+04   1.131217e+11   1.275578e+11  -7.568290e+10   1.474305e+05   2.694820e-26   0.000000e+00   0.000000e+00
     1352000   1.351999e-06   3.629223e+01   1.490812e+01   1.150151e-01   5.889510e+04  -1.023915e+05  -8.822194e+04   1.138506e+11   1.284146e+11  -7.303570e+10   1.474305e+05   2.694128e-26   0.000000e+00   0.000000e+00
     1360000   1.359999e-06   3.629270e+01   1.490730e+01   1.143070e-01   5.980873e+04  -1.013609e+05  -8.879559e+04   1.145523e+11   1.292405e+11  -7.037213e+10   1.474305e+05   2.693438e-26   0.000000e+00   0.000000e+00
     1368000   1.367999e-06   3.629318e+01   1.490649e+01   1.135944e-01   6.072786e+04  -1.003237e+05  -8.934785e+04   1.152265e+11   1.300354e+11  -6.769284e+10   1.474305e+05   2.692749e-26   0.000000e+00   0.000000e+00
     1376000   1.375999e-06   3.629367e+01   1.490570e+01   1.128775e-01   6.165228e+04  -9.928037e+04  -8.987863e+04   1.158732e+11   1.307991e+11  -6.499847e+10   1.474305e+05   2.692062e-26   0.000000e+00   0.000000e+00
     1384000   1.383999e-06   3.629417e+01   1.490491e+01   1.121564e-01   6.258176e+04  -9.823103e+04  -9.038779e+04   1.164921e+11   1.315315e+11  -6.228967e+10   1.474305e+05   2.691376e-26   0.000000e+00   0.000000e+00
     1392000   1.391999e-06   3.629468e+01   1.490412e+01   1.114314e-01   6.351608e+04  -9.717595e+04  -9.087522e+04   1.170832e+11   1.322324e+11  -5.956710e+10   1.474305e+05   2.690692e-26   0.000000e+00   0.000000e+00
     1400000   1.399999e-06   3.629519e+01   1.490335e+01   1.107025e-01   6.445502e+04  -9.611539e+04  -9.134082e+04   1.176463e+11   1.329016e+11  -5.683140e+10   1.474305e+05   2.690009e-26   0.000000e+00   0.000000e+00
     1408000   1.407999e-06   3.629571e+01   1.490259e+01   1.099700e-01   6.539835e+04  -9.504961e+04  -9.178449e+04   1.181813e+11   1.335390e+11  -5.408324e+10   1.474305e+05   2.689328e-26   0.000000e+00   0.000000e+00
     1416000   1.415999e-06   3.629623e+01   1.490183e+01   1.092340e-01   6.634585e+04  -9.397885e+04  -9.220612e+04   1.186881e+11   1.341445e+11  -5.132326e+10   1.474305e+05   2.688647e-26   0.000000e+00   0.000000e+00
     1424000   1.423999e-06   3.629677e+01   1.490108e+01   1.084947e-01   6.729728e+04  -9.290338e+04  -9.260563e+04   1.191666e+11   1.347180e+11  -4.855215e+10   1.474305e+05   2.687968e-26   0.000000e+00   0.000000e+00
     1432000   1.431999e-06   3.629731e+01   1.490034e+01   1.077524e-01   6.825244e+04  -9.182345e+04  -9.298293e+04   1.196167e+11   1.352593e+11  -4.577055e+10   1.474305e+05   2.687290e-26   0.000000e+00   0.000000e+00
     1440000   1.439999e-06   3.629786e+01   1.489961e+01   1.070071e-01   6.921110e+04  -9.073934e+04  -9.333789e+04   1.200437e+11   1.357632e+11  -4.297010e+10   1.474305e+05   2.686545e-26   0.000000e+00   0.000000e+00
     1448000   1.447999e-06   3.629842e+01   1.489889e+01   1.062590e-01   7.017304e+04  -8.965130e+04  -9.367045e+04   1.204363e+11   1.362398e+11  -4.016991e+10   1.474305e+05   2.685867e-26   0.000000e+00   0.000000e+00
     1456000   1.455999e-06   3.629898e+01   1.489818e+01   1.055084e-01   7.113800e+04  -8.855959e+04  -9.398058e+04   1.208002e+11   1.366840e+11  -3.736122e+10   1.474305e+05   2.685190e-26   0.000000e+00   0.000000e+00
     1464000   1.463999e-06   3.629956e+01   1.489747e+01   1.047554e-01   7.210577e+04  -8.746445e+04  -9.426821e+04   1.211354e+11   1.370957e+11  -3.454473e+10   1.474305e+05   2.684514e-26   0.000000e+00   0.000000e+00
     1472000   1.471999e-06   3.630014e+01   1.489678e+01   1.040002e-01   7.307609e+04  -8.636613e+04  -9.453329e+04   1.214378e+11   1.374805e+11  -3.172949e+10   1.474305e+05   2.683928e-26   0.000000e+00   0.000000e+00
     1480000   1.479999e-06   3.630073e+01   1.489609e+01   1.032429e-01   7.404872e+04  -8.526488e+04  -9.477581e+04   1.217154e+11   1.378266e+11  -2.889910e+10   1.474305e+05   2.683245e-26   0.000000e+00   0.000000e+00
     1488000   1.487999e-06   3.630132e+01   1.489541e+01   1.024838e-01   7.502345e+04  -8.416099e+04  -9.499566e+04   1.219641e+11   1.381399e+11  -2.606292e+10   1.474305e+05   2.682563e-26   0.000000e+00   0.000000e+00
     1496000   1.495999e-06   3.630193e+01   1.489475e+01   1.017230e-01   7.600007e+04  -8.305473e+04  -9.519280e+04   1.221838e+11   1.384205e+11  -2.322162e+10   1.474306e+05   2.681881e-26   0.000000e+00   0.000000e+00
     1504000   1.503999e-06   3.630254e+01   1.489409e+01   1.009608e-01   7.697832e+04  -8.194635e+04  -9.536719e+04   1.223746e+11   1.386681e+11  -2.037588e+10   1.474306e+05   2.681201e-26   0.000000e+00   0.000000e+00
     1512000   1.511999e-06   3.630316e+01   1.489343e+01   1.001972e-01   7.795798e+04  -8.083613e+04  -9.551880e+04   1.225364e+11   1.388828e+11  -1.752637e+10   1.474306e+05   2.680520e-26   0.000000e+00   0.000000e+00
     1520000   1.519999e-06   3.630378e+01   1.489279e+01   9.943254e-02   7.893885e+04  -7.972439e+04  -9.564752e+04   1.226737e+11   1.390526e+11  -1.466013e+10   1.474306e+05   2.679638e-26   0.000000e+00   0.000000e+00
     1528000   1.527999e-06   3.630442e+01   1.489216e+01   9.866692e-02   7.992067e+04  -7.861135e+04  -9.575338e+04   1.227771e+11   1.392013e+11  -1.180542e+10   1.474306e+05   2.678955e-26   0.000000e+00   0.000000e+00
     1536000   1.535999e-06   3.630506e+01   1.489153e+01   9.790055e-02   8.090321e+04  -7.749725e+04  -9.583640e+04   1.228514e+11   1.393169e+11  -8.948982e+09   1.474306e+05   2.678272e-26   0.000000e+00   0.000000e+00
     1544000   1.543999e-06   3.630571e+01   1.489092e+01   9.713360e-02   8.188622e+04  -7.638237e+04  -9.589656e+04   1.228967e+11   1.393995e+11  -6.091500e+09   1.474306e+05   2.677590e-26   0.000000e+00   0.000000e+00
     1552000   1.551999e-06   3.630637e+01   1.489031e+01   9.636627e-02   8.286948e+04  -7.526695e+04  -9.593386e+04   1.229130e+11   1.394492e+11  -3.233647e+09   1.474306e+05   2.676907e-26   0.000000e+00   0.000000e+00
     1560000   1.559999e-06   3.630704e+01   1.488971e+01   9.559872e-02   8.385275e+04  -7.415127e+04  -9.594830e+04   1.229002e+11   1.394658e+11  -3.760976e+08   1.474306e+05   2.676225e-26   0.000000e+00   0.000000e+00
     1568000   1.567999e-06   3.630772e+01   1.488913e+01   9.483115e-02   8.483580e+04  -7.303558e+04  -9.593988e+04   1.228584e+11   1.394495e+11   2.480472e+09   1.474306e+05   2.675543e-26   0.000000e+00   0.000000e+00
     1576000   1.575999e-06   3.630840e+01   1.488855e+01   9.406374e-02   8.581840e+04  -7.192016e+04  -9.590861e+04   1.227876e+11   1.394003e+11   5.335387e+09   1.474306e+05   2.674861e-26   0.000000e+00   0.000000e+00
     1584000   1.583999e-06   3.630909e+01   1.488798e+01   9.329668e-02   8.680033e+04  -7.080527e+04  -9.585451e+04   1.226879e+11   1.393181e+11   8.187974e+09   1.474306e+05   2.674179e-26   0.000000e+00   0.000000e+00
     1592000   1.591999e-06   3.630979e+01   1.488741e+01   9.253013e-02   8.778133e+04  -6.969116e+04  -9.577761e+04   1.225592e+11   1.392031e+11   1.103756e+10   1.474306e+05   2.673497e-26   0.000000e+00   0.000000e+00
     1600000   1.599999e-06   3.631049e+01   1.488686e+01   9.176430e-02   8.876120e+04  -6.857811e+04  -9.567792e+04   1.224017e+11   1.390552e+11   1.388348e+10   1.474306e+05   2.672815e-26   0.000000e+00   0.000000e+00
     1608000   1.607999e-06   3.631121e+01   1.488632e+01   9.099935e-02   8.973968e+04  -6.746637e+04  -9.555548e+04   1.222154e+11   1.388746e+11   1.672505e+10   1.474306e+05   2.672133e-26   0.000000e+00   0.000000e+00
     1616000   1.615999e-06   3.631193e+01   1.488578e+01   9.023547e-02   9.071656e+04  -6.635620e+04  -9.541033e+04   1.220003e+11   1.386612e+11   1.956161e+10   1.474306e+05   2.671451e-26   0.000000e+00   0.000000e+00
     1624000   1.623999e-06   3.631266e+01   1.488525e+01   8.947284e-02   9.169161e+04  -6.524787e+04  -9.524251e+04   1.217565e+11   1.384152e+11   2.239250e+10   1.474306e+05   2.670768e-26   0.000000e+00   0.000000e+00
     1632000   1.631999e-06   3.631340e+01   1.488474e+01   8.871165e-02   9.266459e+04  -6.414164e+04  -9.505206e+04   1.214841e+11   1.381366e+11   2.521705e+10   1.474306e+05   2.670085e-26   0.000000e+00   0.000000e+00
     1640000   1.639999e-06   3.631414e+01   1.488423e+01   8.795207e-02   9.363528e+04  -6.303777e+04  -9.483905e+04   1.211832e+11   1.378256e+11   2.803459e+10   1.474306e+05   2.669402e-26   0.000000e+00   0.000000e+00
     1648000   1.647999e-06   3.631489e+01   1.488373e+01   8.719428e-02   9.460345e+04  -6.193652e+04  -9.460353e+04   1.208539e+11   1.374821e+11   3.084447e+10   1.474306e+05   2.668719e-26   0.000000e+00   0.000000e+00
     1656000   1.655999e-06   3.631565e+01   1.488324e+01   8.643847e-02   9.556887e+04  -6.083815e+04  -9.434556e+04   1.204962e+11   1.371064e+11   3.364603e+10   1.474306e+05   2.668035e-26   0.000000e+00   0.000000e+00
     1664000   1.663999e-06   3.631642e+01   1.488275e+01   8.568481e-02   9.653131e+04  -5.974291e+04  -9.406521e+04   1.201103e+11   1.366984e+11   3.643861e+10   1.474306e+05   2.667350e-26   0.000000e+00   0.000000e+00
     1672000   1.671999e-06   3.631720e+01   1.488228e+01   8.493349e-02   9.749056e+04  -5.865106e+04  -9.376256e+04   1.196962e+11   1.362584e+11   3.922156e+10   1.474306e+05   2.666665e-26   0.000000e+00   0.000000e+00
     1680000   1.679999e-06   3.631798e+01   1.488182e+01   8.418467e-02   9.844638e+04  -5.756286e+04  -9.343769e+04   1.192541e+11   1.357865e+11   4.199423e+10   1.474306e+05   2.665980e-26   0.000000e+00   0.000000e+00
     1688000   1.687999e-06   3.631877e+01   1.488136e+01   8.343854e-02   9.939855e+04  -5.647856e+04  -9.309068e+04   1.187841e+11   1.352827e+11   4.475597e+10   1.474306e+05   2.665294e-26   0.000000e+00   0.000000e+00
     1696000   1.695999e-06   3.631957e+01   1.488091e+01   8.269528e-02   1.003468e+05  -5.539842e+04  -9.272163e+04   1.182863e+11   1.347472e+11   4.750613e+10   1.474306e+05   2.664607e-26   0.000000e+00   0.000000e+00
     1704000   1.703999e-06   3.632038e+01   1.488047e+01   8.195506e-02   1.012911e+05  -5.432269e+04  -9.233061e+04   1.177609e+11   1.341801e+11   5.024408e+10   1.474306e+05   2.663920e-26   0.000000e+00   0.000000e+00
     1712000   1.711999e-06   3.632119e+01   1.488004e+01   8.121805e-02   1.022309e+05  -5.325162e+04  -9.191775e+04   1.172080e+11   1.335817e+11   5.296918e+10   1.474306e+05   2.663232e-26   0.000000e+00   0.000000e+00
     1720000   1.719999e-06   3.632202e+01   1.487962e+01   8.048443e-02   1.031663e+05  -5.218546e+04  -9.148314e+04   1.166277e+11   1.329521e+11   5.568079e+10   1.474306e+05   2.662543e-26   0.000000e+00   0.000000e+00
     1728000   1.727999e-06   3.632284e+01   1.487921e+01   7.975438e-02   1.040969e+05  -5.112447e+04  -9.102689e+04   1.160203e+11   1.322913e+11   5.837829e+10   1.474306e+05   2.661853e-26   0.000000e+00   0.000000e+00
     1736000   1.735999e-06   3.632368e+01   1.487880e+01   7.902806e-02   1.050226e+05  -5.006889e+04  -9.054912e+04   1.153858e+11   1.315997e+11   6.106105e+10   1.474306e+05   2.661162e-26   0.000000e+00   0.000000e+00
     1744000   1.743999e-06   3.632452e+01   1.487841e+01   7.830565e-02   1.059430e+05  -4.901896e+04  -9.004996e+04   1.147244e+11   1.308773e+11   6.372843e+10   1.474306e+05   2.660471e-26   0.000000e+00   0.000000e+00
     1752000   1.751999e-06   3.632538e+01   1.487802e+01   7.758732e-02   1.068581e+05  -4.797493e+04  -8.952951e+04   1.140363e+11   1.301245e+11   6.637984e+10   1.474306e+05   2.659778e-26   0.000000e+00   0.000000e+00
     1760000   1.759999e-06   3.632623e+01   1.487764e+01   7.687323e-02   1.077675e+05  -4.693705e+04  -8.898792e+04   1.133217e+11   1.293412e+11   6.901464e+10   1.474306e+05   2.659085e-26   0.000000e+00   0.000000e+00
     1768000   1.767999e-06   3.632710e+01   1.487727e+01   7.616356e-02   1.086712e+05  -4.590555e+04  -8.842532e+04   1.125808e+11   1.285279e+11   7.163224e+10   1.474306e+05   2.658390e-26   0.000000e+00   0.000000e+00
     1776000   1.775999e-06   3.632797e+01   1.487691e+01   7.545848e-02   1.095687e+05  -4.488068e+04  -8.784185e+04   1.118137e+11   1.276846e+11   7.423202e+10   1.474306e+05   2.657695e-26   0.000000e+00   0.000000e+00
     1784000   1.783999e-06   3.632885e+01   1.487655e+01   7.475815e-02   1.104601e+05  -4.386268e+04  -8.723765e+04   1.110206e+11   1.268115e+11   7.681339e+10   1.474306e+05   2.656998e-26   0.000000e+00   0.000000e+00
     1792000   1.791999e-06   3.632974e+01   1.487620e+01   7.406273e-02   1.113450e+05  -4.285178e+04  -8.661288e+04   1.102018e+11   1.259090e+11   7.937575e+10   1.474306e+05   2.656301e-26   0.000000e+00   0.000000e+00
     1800000   1.799999e-06   3.633064e+01   1.487586e+01   7.337240e-02   1.122233e+05  -4.184821e+04  -8.596769e+04   1.093575e+11   1.249772e+11   8.191850e+10   1.474306e+05   2.655602e-26   0.000000e+00   0.000000e+00
     1808000   1.807999e-06   3.633154e+01   1.487553e+01   7.268731e-02   1.130947e+05  -4.085222e+04  -8.530224e+04   1.084878e+11   1.240164e+11   8.444107e+10   1.474306e+05   2.654902e-26   0.000000e+00   0.000000e+00
     1816000   1.815999e-06   3.633244e+01   1.487521e+01   7.200762e-02   1.139590e+05  -3.986403e+04  -8.461669e+04   1.075930e+11   1.230268e+11   8.694287e+10   1.474306e+05   2.654201e-26   0.000000e+00   0.000000e+00
     1824000   1.823999e-06   3.633336e+01   1.487490e+01   7.133349e-02   1.148161e+05  -3.888387e+04  -8.391121e+04   1.066734e+11   1.220086e+11   8.942333e+10   1.474306e+05   2.653498e-26   0.000000e+00   0.000000e+00
     1832000   1.831999e-06   3.633428e+01   1.487459e+01   7.066509e-02   1.156657e+05  -3.791197e+04  -8.318597e+04   1.057291e+11   1.209622e+11   9.188187e+10   1.474306e+05   2.652795e-26   0.000000e+00   0.000000e+00
     1840000   1.839999e-06   3.633521e+01   1.487429e+01   7.000257e-02   1.165077e+05  -3.694855e+04  -8.244115e+04   1.047604e+11   1.198877e+11   9.431793e+10   1.474306e+05   2.652090e-26   0.000000e+00   0.000000e+00
     1848000   1.847999e-06   3.633615e+01   1.487400e+01   6.934608e-02   1.173418e+05  -3.599384e+04  -8.167694e+04   1.037675e+11   1.187854e+11   9.673096e+10   1.474306e+05   2.651384e-26   0.000000e+00   0.000000e+00
     1856000   1.855999e-06   3.633709e+01   1.487371e+01   6.869579e-02   1.181679e+05  -3.504806e+04  -8.089352e+04   1.027507e+11   1.176556e+11   9.912039e+10   1.474306e+05   2.650676e-26   0.000000e+00   0.000000e+00
     1864000   1.863999e-06   3.633804e+01   1.487344e+01   6.805184e-02   1.189858e+05  -3.411142e+04  -8.009108e+04   1.017102e+11   1.164987e+11   1.014857e+11   1.474306e+05   2.649968e-26   0.000000e+00   0.000000e+00
     1872000   1.871999e-06   3.633899e+01   1.487317e+01   6.741438e-02   1.197952e+05  -3.318415e+04  -7.926981e+04   1.006463e+11   1.153148e+11   1.038263e+11   1.474306e+05   2.649257e-26   0.000000e+00   0.000000e+00
     1880000   1.879999e-06   3.633995e+01   1.487291e+01   6.678357e-02   1.205960e+05  -3.226646e+04  -7.842992e+04   9.955933e+10   1.141042e+11   1.061417e+11   1.474306e+05   2.648546e-26   0.000000e+00   0.000000e+00
     1888000   1.887999e-06   3.634092e+01   1.487265e+01   6.615955e-02   1.213881e+05  -3.135856e+04  -7.757161e+04   9.844944e+10   1.128673e+11   1.084314e+11   1.474306e+05   2.647833e-26   0.000000e+00   0.000000e+00
     1896000   1.895999e-06   3.634190e+01   1.487240e+01   6.554247e-02   1.221712e+05  -3.046065e+04  -7.669509e+04   9.731695e+10   1.116044e+11   1.106948e+11   1.474306e+05   2.647119e-26   0.000000e+00   0.000000e+00
     1904000   1.903999e-06   3.634288e+01   1.487216e+01   6.493248e-02   1.229451e+05  -2.957296e+04  -7.580056e+04   9.616214e+10   1.103158e+11   1.129314e+11   1.474306e+05   2.646403e-26   0.000000e+00   0.000000e+00
     1912000   1.911999e-06   3.634386e+01   1.487193e+01   6.432971e-02   1.237097e+05  -2.869567e+04  -7.488825e+04   9.498529e+10   1.090017e+11   1.151408e+11   1.474306e+05   2.645686e-26   0.000000e+00   0.000000e+00
     1920000   1.919999e-06   3.634486e+01   1.487170e+01   6.373431e-02   1.244648e+05  -2.782900e+04  -7.395838e+04   9.378671e+10   1.076625e+11   1.173223e+11   1.474306e+05   2.644968e-26   0.000000e+00   0.000000e+00
     1928000   1.927999e-06   3.634585e+01   1.487149e+01   6.314642e-02   1.252102e+05  -2.697314e+04  -7.301117e+04   9.256667e+10   1.062986e+11   1.194756e+11   1.474306e+05   2.644248e-26   0.000000e+00   0.000000e+00
     1936000   1.935999e-06   3.634686e+01   1.487127e+01   6.256618e-02   1.259458e+05  -2.612829e+04  -7.204685e+04   9.132548e+10   1.049103e+11   1.216001e+11   1.474306e+05   2.643526e-26   0.000000e+00   0.000000e+00
     1944000   1.943999e-06   3.634787e+01   1.487107e+01   6.199372e-02   1.266714e+05  -2.529464e+04  -7.106564e+04   9.006345e+10   1.034978e+11   1.236953e+11   1.474306e+05   2.642804e-26   0.000000e+00   0.000000e+00
     1952000   1.951999e-06   3.634889e+01   1.487087e+01   6.142917e-02   1.273868e+05  -2.447239e+04  -7.006780e+04   8.878089e+10   1.020616e+11   1.257609e+11   1.474306e+05   2.642080e-26   0.000000e+00   0.000000e+00
     1960000   1.959999e-06   3.634991e+01   1.487068e+01   6.087268e-02   1.280918e+05  -2.366172e+04  -6.905355e+04   8.747810e+10   1.006019e+11   1.277962e+11   1.474306e+05   2.641354e-26   0.000000e+00   0.000000e+00
     1968000   1.967999e-06   3.635093e+01   1.487049e+01   6.032436e-02   1.287864e+05  -2.286282e+04  -6.802314e+04   8.615541e+10   9.911925e+10   1.298009e+11   1.474306e+05   2.640627e-26   0.000000e+00   0.000000e+00
     1976000   1.975999e-06   3.635197e+01   1.487031e+01   5.978435e-02   1.294703e+05  -2.207587e+04  -6.697682e+04   8.481314e+10   9.761387e+10   1.317744e+11   1.474306e+05   2.639898e-26   0.000000e+00   0.000000e+00
     1984000   1.983999e-06   3.635301e+01   1.487014e+01   5.925277e-02   1.301433e+05  -2.130106e+04  -6.591483e+04   8.345161e+10   9.608615e+10   1.337165e+11   1.474306e+05   2.639169e-26   0.000000e+00   0.000000e+00
     1992000   1.991999e-06   3.635405e+01   1.486997e+01   5.872975e-02   1.308054e+05  -2.053855e+04  -6.483744e+04   8.207116e+10   9.453646e+10   1.356265e+11   1.474306e+05   2.638437e-26   0.000000e+00   0.000000e+00
     2000000   1.999999e-06   3.635510e+01   1.486981e+01   5.821541e-02   1.314564e+05  -1.978853e+04  -6.374489e+04   8.067212e+10   9.296518e+10   1.375042e+11   1.474306e+05   2.637705e-26   0.000000e+00   0.000000e+00
     2008000   2.007999e-06   3.635615e+01   1.486965e+01   5.770988e-02   1.320961e+05  -1.905117e+04  -6.263746e+04   7.925483e+10   9.137268e+10   1.393490e+11   1.474306e+05   2.636971e-26   0.000000e+00   0.000000e+00
     2016000   2.015999e-06   3.635721e+01   1.486950e+01   5.721325e-02   1.327244e+05  -1.832663e+04  -6.151539e+04   7.781963e+10   8.975935e+10   1.411605e+11   1.474306e+05   2.636235e-26   0.000000e+00   0.000000e+00
     2024000   2.023999e-06   3.635828e+01   1.486936e+01   5.672567e-02   1.333412e+05  -1.761507e+04  -6.037897e+04   7.636688e+10   8.812558e+10   1.429385e+11   1.474306e+05   2.635498e-26   0.000000e+00   0.000000e+00
     2032000   2.031999e-06   3.635935e+01   1.486922e+01   5.624723e-02   1.339463e+05  -1.691667e+04  -5.922847e+04   7.489691e+10   8.647174e+10   1.446823e+11   1.474306e+05   2.634760e-26   0.000000e+00   0.000000e+00
     2040000   2.039999e-06   3.636042e+01   1.486909e+01   5.577805e-02   1.345395e+05  -1.623158e+04  -5.806415e+04   7.341010e+10   8.479825e+10   1.463918e+11   1.474306e+05   2.634020e-26   0.000000e+00   0.000000e+00
     2048000   2.047999e-06   3.636150e+01   1.486896e+01   5.531824e-02   1.351208e+05  -1.555995e+04  -5.688629e+04   7.190679e+10   8.310549e+10   1.480664e+11   1.474306e+05   2.633280e-26   0.000000e+00   0.000000e+00
     2056000   2.055999e-06   3.636258e+01   1.486884e+01   5.486790e-02   1.356900e+05  -1.490194e+04  -5.569518e+04   7.038734e+10   8.139388e+10   1.497059e+11   1.474306e+05   2.632537e-26   0.000000e+00   0.000000e+00
     2064000   2.063999e-06   3.636367e+01   1.486872e+01   5.442715e-02   1.362469e+05  -1.425770e+04  -5.449109e+04   6.885213e+10   7.966382e+10   1.513098e+11   1.474306e+05   2.631794e-26   0.000000e+00   0.000000e+00
     2072000   2.071999e-06   3.636476e+01   1.486861e+01   5.399608e-02   1.367916e+05  -1.362737e+04  -5.327431e+04   6.730152e+10   7.791573e+10   1.528778e+11   1.474306e+05   2.631049e-26   0.000000e+00   0.000000e+00
     2080000   2.079999e-06   3.636586e+01   1.486851e+01   5.357479e-02   1.373237e+05  -1.301110e+04  -5.204514e+04   6.573589e+10   7.615002e+10   1.544096e+11   1.474306e+05   2.630303e-26   0.000000e+00   0.000000e+00
     2088000   2.087999e-06   3.636696e+01   1.486840e+01   5.316339e-02   1.378433e+05  -1.240902e+04  -5.080386e+04   6.415560e+10   7.436710e+10   1.559047e+11   1.474306e+05   2.629556e-26   0.000000e+00   0.000000e+00
     2096000   2.095999e-06   3.636806e+01   1.486831e+01   5.276196e-02   1.383502e+05  -1.182127e+04  -4.955076e+04   6.256104e+10   7.256742e+10   1.573630e+11   1.474306e+05   2.628808e-26   0.000000e+00   0.000000e+00
     2104000   2.103999e-06   3.636917e+01   1.486821e+01   5.237061e-02   1.388442e+05  -1.124799e+04  -4.828615e+04   6.095259e+10   7.075138e+10   1.587841e+11   1.474306e+05   2.628058e-26   0.000000e+00   0.000000e+00
     2112000   2.111999e-06   3.637028e+01   1.486813e+01   5.198942e-02   1.393254e+05  -1.068929e+04  -4.701032e+04   5.933063e+10   6.891943e+10   1.601676e+11   1.474306e+05   2.627308e-26   0.000000e+00   0.000000e+00
     2120000   2.119999e-06   3.637140e+01   1.486804e+01   5.161847e-02   1.397935e+05  -1.014532e+04  -4.572357e+04   5.769555e+10   6.707199e+10   1.615132e+11   1.474306e+05   2.626556e-26   0.000000e+00   0.000000e+00
     2128000   2.127999e-06   3.637252e+01   1.486796e+01   5.125787e-02   1.402485e+05  -9.616185e+03  -4.442620e+04   5.604774e+10   6.520951e+10   1.628208e+11   1.474306e+05   2.625803e-26   0.000000e+00   0.000000e+00
     2136000   2.135999e-06   3.637365e+01   1.486789e+01   5.090768e-02   1.406902e+05  -9.102008e+03  -4.311853e+04   5.438759e+10   6.333242e+10   1.640899e+11   1.474306e+05   2.625049e-26   0.000000e+00   0.000000e+00
     2144000   2.143999e-06   3.637477e+01   1.486782e+01   5.056800e-02   1.411186e+05  -8.602906e+03  -4.180087e+04   5.271550e+10   6.144117e+10   1.653203e+11   1.474306e+05   2.624294e-26   0.000000e+00   0.000000e+00
     2152000   2.151999e-06   3.637590e+01   1.486775e+01   5.023889e-02   1.415336e+05  -8.118988e+03  -4.047351e+04   5.103187e+10   5.953621e+10   1.665118e+11   1.474306e+05   2.623539e-26   0.000000e+00   0.000000e+00
     2160000   2.159999e-06   3.637704e+01   1.486769e+01   4.992045e-02   1.419351e+05  -7.650364e+03  -3.913678e+04   4.933709e+10   5.761799e+10   1.676641e+11   1.474306e+05   2.622782e-26   0.000000e+00   0.000000e+00
     2168000   2.167999e-06   3.637817e+01   1.486763e+01   4.961273e-02   1.423230e+05  -7.197136e+03  -3.779099e+04   4.763156e+10   5.568695e+10   1.687769e+11   1.474306e+05   2.622024e-26   0.000000e+00   0.000000e+00
     2176000   2.175999e-06   3.637931e+01   1.486757e+01   4.931581e-02   1.426972e+05  -6.759407e+03  -3.643646e+04   4.591570e+10   5.374355e+10   1.698500e+11   1.474306e+05   2.621266e-26   0.000000e+00   0.000000e+00
     2184000   2.183999e-06   3.638046e+01   1.486752e+01   4.902977e-02   1.430576e+05  -6.337273e+03  -3.507350e+04   4.418990e+10   5.178826e+10   1.708832e+11   1.474306e+05   2.620507e-26   0.000000e+00   0.000000e+00
     2192000   2.191999e-06   3.638160e+01   1.486747e+01   4.875466e-02   1.434042e+05  -5.930828e+03  -3.370243e+04   4.245458e+10   4.982152e+10   1.718763e+11   1.474306e+05   2.619746e-26   0.000000e+00   0.000000e+00
     2200000   2.199999e-06   3.638275e+01   1.486743e+01   4.849055e-02   1.437369e+05  -5.540160e+03  -3.232358e+04   4.071014e+10   4.784381e+10   1.728290e+11   1.474306e+05   2.618986e-26   0.000000e+00   0.000000e+00
     2208000   2.207999e-06   3.638390e+01   1.486738e+01   4.823750e-02   1.440555e+05  -5.165357e+03  -3.093727e+04   3.895701e+10   4.585559e+10   1.737412e+11   1.474306e+05   2.618224e-26   0.000000e+00   0.000000e+00
     2216000   2.215999e-06   3.638506e+01   1.486734e+01   4.799557e-02   1.443601e+05  -4.806500e+03  -2.954383e+04   3.719558e+10   4.385732e+10   1.746126e+11   1.474306e+05   2.617462e-26   0.000000e+00   0.000000e+00
     2224000   2.223999e-06   3.638621e+01   1.486731e+01   4.776482e-02   1.446506e+05  -4.463667e+03  -2.814358e+04   3.542628e+10   4.184948e+10   1.754431e+11   1.474306e+05   2.616700e-26   0.000000e+00   0.000000e+00
     2232000   2.231999e-06   3.638737e+01   1.486727e+01   4.754529e-02   1.449269e+05  -4.136934e+03  -2.673685e+04   3.364952e+10   3.983253e+10   1.762325e+11   1.474306e+05   2.615936e-26   0.000000e+00   0.000000e+00
     2240000   2.239999e-06   3.638853e+01   1.486724e+01   4.733705e-02   1.451890e+05  -3.826372e+03  -2.532397e+04   3.186572e+10   3.780695e+10   1.769807e+11   1.474306e+05   2.615173e-26   0.000000e+00   0.000000e+00
     2248000   2.247999e-06   3.638969e+01   1.486721e+01   4.714012e-02   1.454368e+05  -3.532047e+03  -2.390527e+04   3.007530e+10   3.577321e+10   1.776875e+11   1.474306e+05   2.614408e-26   0.000000e+00   0.000000e+00
     2256000   2.255999e-06   3.639086e+01   1.486718e+01   4.695458e-02   1.456702e+05  -3.254023e+03  -2.248108e+04   2.827868e+10   3.373179e+10   1.783528e+11   1.474306e+05   2.613644e-26   0.000000e+00   0.000000e+00
     2264000   2.263999e-06   3.639202e+01   1.486716e+01   4.678044e-02   1.458892e+05  -2.992359e+03  -2.105174e+04   2.647628e+10   3.168316e+10   1.789764e+11   1.474306e+05   2.612879e-26   0.000000e+00   0.000000e+00
     2272000   2.271999e-06   3.639319e+01   1.486714e+01   4.661776e-02   1.460938e+05  -2.747112e+03  -1.961757e+04   2.466853e+10   2.962780e+10   1.795581e+11   1.474306e+05   2.612114e-26   0.000000e+00   0.000000e+00
     2280000   2.279999e-06   3.639436e+01   1.486711e+01   4.646657e-02   1.462839e+05  -2.518333e+03  -1.817892e+04   2.285584e+10   2.756620e+10   1.800980e+11   1.474306e+05   2.611348e-26   0.000000e+00   0.000000e+00
     2288000   2.287999e-06   3.639553e+01   1.486710e+01   4.632691e-02   1.464595e+05  -2.306071e+03  -1.673611e+04   2.103865e+10   2.549883e+10   1.805959e+11   1.474306e+05   2.610583e-26   0.000000e+00   0.000000e+00
     2296000   2.295999e-06   3.639671e+01   1.486708e+01   4.619880e-02   1.466205e+05  -2.110368e+03  -1.528949e+04   1.921737e+10   2.342618e+10   1.810517e+11   1.474306e+05   2.609817e-26   0.000000e+00   0.000000e+00
     2304000   2.303999e-06   3.639788e+01   1.486706e+01   4.608229e-02   1.467669e+05  -1.931267e+03  -1.383940e+04   1.739243e+10   2.134873e+10   1.814653e+11   1.474306e+05   2.609051e-26   0.000000e+00   0.000000e+00
     2312000   2.311999e-06   3.639905e+01   1.486705e+01   4.597738e-02   1.468988e+05  -1.768802e+03  -1.238616e+04   1.556426e+10   1.926696e+10   1.818366e+11   1.474306e+05   2.608285e-26   0.000000e+00   0.000000e+00
     2320000   2.319999e-06   3.640023e+01   1.486703e+01   4.588412e-02   1.470160e+05  -1.622941e+03  -1.093019e+04   1.373056e+10   1.722375e+10   1.821216e+11   1.474306e+05   2.606383e-26   0.000000e+00   0.000000e+00
     2328000   2.327999e-06   3.640141e+01   1.486702e+01   4.580250e-02   1.471185e+05  -1.493501e+03  -9.472044e+03   1.189803e+10   1.513600e+10   1.824084e+11   1.474306e+05   2.605610e-26   0.000000e+00   0.000000e+00
     2336000   2.335999e-06   3.640258e+01   1.486701e+01   4.573257e-02   1.472063e+05  -1.380775e+03  -8.011770e+03   1.006355e+10   1.304538e+10   1.826528e+11   1.474306e+05   2.604837e-26   0.000000e+00   0.000000e+00
     2344000   2.343999e-06   3.640376e+01   1.486700e+01   4.567432e-02   1.472795e+05  -1.284784e+03  -6.549711e+03   8.227562e+09   1.095240e+10   1.828548e+11   1.474306e+05   2.604063e-26   0.000000e+00   0.000000e+00
     2352000   2.351999e-06   3.640494e+01   1.486699e+01   4.562778e-02   1.473380e+05  -1.205544e+03  -5.086207e+03   6.390481e+09   8.857535e+09   1.830143e+11   1.474306e+05   2.603290e-26   0.000000e+00   0.000000e+00
     2360000   2.359999e-06   3.640612e+01   1.486698e+01   4.559294e-02   1.473817e+05  -1.143069e+03  -3.621596e+03   4.552735e+09   6.761271e+09   1.831314e+11   1.474307e+05   2.602516e-26   0.000000e+00   0.000000e+00
     2368000   2.367999e-06   3.640730e+01   1.486697e+01   4.556983e-02   1.474108e+05  -1.097368e+03  -2.156218e+03   2.714753e+09   4.664096e+09   1.832060e+11   1.474307e+05   2.601743e-26   0.000000e+00   0.000000e+00
     2376000   2.375999e-06   3.640848e+01   1.486696e+01   4.555845e-02   1.474252e+05  -1.068447e+03  -6.904133e+02   8.769587e+08   2.566494e+09   1.832381e+11   1.474307e+05   2.600969e-26   0.000000e+00   0.000000e+00
     2384000   2.383999e-06   3.640966e+01   1.486695e+01   4.555879e-02   1.474248e+05  -1.056306e+03   7.754788e+02  -9.602207e+08   4.689517e+08   1.832278e+11   1.474307e+05   2.600196e-26   0.000000e+00   0.000000e+00
     2392000   2.391999e-06   3.641084e+01   1.486694e+01   4.557085e-02   1.474098e+05  -1.060944e+03   2.241119e+03  -2.796361e+09  -1.628047e+09   1.831751e+11   1.474307e+05   2.599423e-26   0.000000e+00   0.000000e+00
     2400000   2.399999e-06   3.641201e+01   1.486694e+01   4.559464e-02   1.473801e+05  -1.082354e+03   3.706168e+03  -4.631037e+09  -3.724017e+09   1.830801e+11   1.474307e+05   2.598650e-26   0.000000e+00   0.000000e+00
     2408000   2.407999e-06   3.641319e+01   1.486693e+01   4.563015e-02   1.473357e+05  -1.120526e+03   5.170287e+03  -6.463825e+09  -5.818474e+09   1.829426e+11   1.474307e+05   2.597878e-26   0.000000e+00   0.000000e+00
     2416000   2.415999e-06   3.641437e+01   1.486692e+01   4.567736e-02   1.472767e+05  -1.175447e+03   6.633137e+03  -8.294302e+09  -7.910935e+09   1.827630e+11   1.474307e+05   2.597106e-26   0.000000e+00   0.000000e+00
     2424000   2.423999e-06   3.641555e+01   1.486691e+01   4.573628e-02   1.472030e+05  -1.247097e+03   8.094382e+03  -1.012205e+10  -1.000092e+10   1.825411e+11   1.474307e+05   2.596334e-26   0.000000e+00   0.000000e+00
     2432000   2.431999e-06   3.641673e+01   1.486690e+01   4.580687e-02   1.471147e+05  -1.335456e+03   9.553682e+03  -1.194664e+10  -1.208794e+10   1.822770e+11   1.474307e+05   2.595563e-26   0.000000e+00   0.000000e+00
     2440000   2.439999e-06   3.641790e+01   1.486689e+01   4.588913e-02   1.470119e+05  -1.440497e+03   1.101070e+04  -1.376765e+10  -1.417152e+10   1.819710e+11   1.474307e+05   2.594792e-26   0.000000e+00   0.000000e+00
     2448000   2.447999e-06   3.641908e+01   1.486687e+01   4.598303e-02   1.468945e+05  -1.562191e+03   1.246510e+04  -1.558468e+10  -1.625118e+10   1.816229e+11   1.474307e+05   2.594022e-26   0.000000e+00   0.000000e+00
     2456000   2.455999e-06   3.642025e+01   1.486686e+01   4.608856e-02   1.467625e+05  -1.700506e+03   1.391656e+04  -1.739729e+10  -1.832644e+10   1.812330e+11   1.474307e+05   2.593253e-26   0.000000e+00   0.000000e+00
     2464000   2.463999e-06   3.642143e+01   1.486685e+01   4.620569e-02   1.466161e+05  -1.855404e+03   1.536472e+04  -1.920508e+10  -2.039682e+10   1.808014e+11   1.474307e+05   2.592484e-26   0.000000e+00   0.000000e+00
     2472000   2.471999e-06   3.642260e+01   1.486683e+01   4.633439e-02   1.464553e+05  -2.026843e+03   1.680927e+04  -2.100762e+10  -2.246185e+10   1.803281e+11   1.474307e+05   2.591716e-26   0.000000e+00   0.000000e+00
     2480000   2.479999e-06   3.642377e+01   1.486682e+01   4.647463e-02   1.462800e+05  -2.214780e+03   1.824986e+04  -2.280452e+10  -2.452106e+10   1.798134e+11   1.474307e+05   2.590949e-26   0.000000e+00   0.000000e+00
     2488000   2.487999e-06   3.642494e+01   1.486680e+01   4.662637e-02   1.460904e+05  -2.419165e+03   1.968617e+04  -2.459534e+10  -2.657396e+10   1.792573e+11   1.474307e+05   2.590183e-26   0.000000e+00   0.000000e+00
     2496000   2.495999e-06   3.642611e+01   1.486678e+01   4.678959e-02   1.458865e+05  -2.639947e+03   2.111787e+04  -2.637969e+10  -2.862010e+10   1.786600e+11   1.474307e+05   2.589418e-26   0.000000e+00   0.000000e+00
     2504000   2.503999e-06   3.642727e+01   1.486675e+01   4.696425e-02   1.456683e+05  -2.877069e+03   2.254462e+04  -2.815716e+10  -3.065900e+10   1.780217e+11   1.474307e+05   2.588653e-26   0.000000e+00   0.000000e+00
     2512000   2.511999e-06   3.642844e+01   1.486673e+01   4.715029e-02   1.454360e+05  -3.130472e+03   2.396611e+04  -2.992734e+10  -3.269019e+10   1.773426e+11   1.474307e+05   2.587890e-26   0.000000e+00   0.000000e+00
     2520000   2.519999e-06   3.642960e+01   1.486670e+01   4.734769e-02   1.451895e+05  -3.400093e+03   2.538199e+04  -3.168983e+10  -3.471321e+10   1.766227e+11   1.474307e+05   2.587127e-26   0.000000e+00   0.000000e+00
     2528000   2.527999e-06   3.643076e+01   1.486668e+01   4.755639e-02   1.449290e+05  -3.685863e+03   2.679196e+04  -3.344422e+10  -3.672760e+10   1.758624e+11   1.474307e+05   2.586366e-26   0.000000e+00   0.000000e+00
     2536000   2.535999e-06   3.643192e+01   1.486665e+01   4.777634e-02   1.446544e+05  -3.987712e+03   2.819568e+04  -3.519012e+10  -3.873290e+10   1.750617e+11   1.474307e+05   2.585606e-26   0.000000e+00   0.000000e+00
     2544000   2.543999e-06   3.643308e+01   1.486661e+01   4.800750e-02   1.443660e+05  -4.305566e+03   2.959284e+04  -3.692713e+10  -4.072864e+10   1.742210e+11   1.474307e+05   2.584847e-26   0.000000e+00   0.000000e+00
     2552000   2.551999e-06   3.643423e+01   1.486658e+01   4.824981e-02   1.440636e+05  -4.639346e+03   3.098311e+04  -3.865485e+10  -4.271438e+10   1.733404e+11   1.474307e+05   2.584089e-26   0.000000e+00   0.000000e+00
     2560000   2.559999e-06   3.643538e+01   1.486654e+01   4.850321e-02   1.437475e+05  -4.988970e+03   3.236618e+04  -4.037289e+10  -4.468966e+10   1.724201e+11   1.474307e+05   2.583332e-26   0.000000e+00   0.000000e+00
     2568000   2.567999e-06   3.643653e+01   1.486650e+01   4.876765e-02   1.434177e+05  -5.354353e+03   3.374173e+04  -4.208086e+10  -4.665402e+10   1.714604e+11   1.474307e+05   2.582577e-26   0.000000e+00   0.000000e+00
     2576000   2.575999e-06   3.643768e+01   1.486645e+01   4.904306e-02   1.430742e+05  -5.735406e+03   3.510944e+04  -4.377838e+10  -4.860703e+10   1.704616e+11   1.474307e+05   2.581823e-26   0.000000e+00   0.000000e+00
     2584000   2.583999e-06   3.643882e+01   1.486640e+01   4.932938e-02   1.427173e+05  -6.132036e+03   3.646901e+04  -4.546506e+10  -5.054824e+10   1.694238e+11   1.474307e+05   2.581071e-26   0.000000e+00   0.000000e+00
     2592000   2.591999e-06   3.643996e+01   1.486635e+01   4.962654e-02   1.423468e+05  -6.544147e+03   3.782012e+04  -4.714052e+10  -5.247721e+10   1.683474e+11   1.474307e+05   2.580320e-26   0.000000e+00   0.000000e+00
     2600000   2.599999e-06   3.644110e+01   1.486630e+01   4.993448e-02   1.419630e+05  -6.971639e+03   3.916246e+04  -4.880438e+10  -5.439349e+10   1.672326e+11   1.474307e+05   2.579570e-26   0.000000e+00   0.000000e+00
     2608000   2.607999e-06   3.644223e+01   1.486624e+01   5.025312e-02   1.415660e+05  -7.414410e+03   4.049574e+04  -5.045626e+10  -5.629666e+10   1.660796e+11   1.474307e+05   2.578822e-26   0.000000e+00   0.000000e+00
     2616000   2.615999e-06   3.644336e+01   1.486618e+01   5.058238e-02   1.411558e+05  -7.872352e+03   4.181963e+04  -5.209579e+10  -5.818628e+10   1.648889e+11   1.474307e+05   2.578075e-26   0.000000e+00   0.000000e+00
     2624000   2.623999e-06   3.644449e+01   1.486612e+01   5.092221e-02   1.407325e+05  -8.345355e+03   4.313386e+04  -5.372261e+10  -6.006192e+10   1.636606e+11   1.474307e+05   2.577330e-26   0.000000e+00   0.000000e+00
     2632000   2.631999e-06   3.644561e+01   1.486605e+01   5.127250e-02   1.402962e+05  -8.833306e+03   4.443810e+04  -5.533634e+10  -6.192316e+10   1.623950e+11   1.474307e+05   2.576587e-26   0.000000e+00   0.000000e+00
     2640000   2.639999e-06   3.644673e+01   1.486597e+01   5.163319e-02   1.398471e+05  -9.336088e+03   4.573208e+04  -5.693662e+10  -6.376957e+10   1.610926e+11   1.474307e+05   2.575845e-26   0.000000e+00   0.000000e+00
     2648000   2.647999e-06   3.644785e+01   1.486590e+01   5.200419e-02   1.393853e+05  -9.853580e+03   4.701548e+04  -5.852310e+10  -6.560075e+10   1.597535e+11   1.474307e+05   2.575105e-26   0.000000e+00   0.000000e+00
     2656000   2.655999e-06   3.644896e+01   1.486582e+01   5.238541e-02   1.389108e+05  -1.038566e+04   4.828803e+04  -6.009541e+10  -6.741627e+10   1.583782e+11   1.474307e+05   2.574367e-26   0.000000e+00   0.000000e+00
     2664000   2.663999e-06   3.645007e+01   1.486573e+01   5.277676e-02   1.384238e+05  -1.093220e+04   4.954944e+04  -6.165321e+10  -6.921572e+10   1.569669e+11   1.474307e+05   2.573631e-26   0.000000e+00   0.000000e+00
     2672000   2.671999e-06   3.645118e+01   1.486564e+01   5.317817e-02   1.379244e+05  -1.149307e+04   5.079941e+04  -6.319614e+10  -7.099870e+10   1.555201e+11   1.474307e+05   2.572896e-26   0.000000e+00   0.000000e+00
     2680000   2.679999e-06   3.645228e+01   1.486555e+01   5.358952e-02   1.374127e+05  -1.206814e+04   5.203766e+04  -6.472386e+10  -7.276480e+10   1.540380e+11   1.474307e+05   2.572163e-26   0.000000e+00   0.000000e+00
     2688000   2.687999e-06   3.645338e+01   1.486545e+01   5.401074e-02   1.368888e+05  -1.265726e+04   5.326392e+04  -6.623603e+10  -7.451364e+10   1.525210e+11   1.474307e+05   2.571432e-26   0.000000e+00   0.000000e+00
     2696000   2.695999e-06   3.645447e+01   1.486535e+01   5.444171e-02   1.363530e+05  -1.326031e+04   5.447791e+04  -6.773232e+10  -7.624481e+10   1.509696e+11   1.474307e+05   2.570702e-26   0.000000e+00   0.000000e+00
     2704000   2.703999e-06   3.645556e+01   1.486524e+01   5.488235e-02   1.358052e+05  -1.387713e+04   5.567934e+04  -6.921238e+10  -7.795792e+10   1.493839e+11   1.474307e+05   2.569975e-26   0.000000e+00   0.000000e+00
     2712000   2.711999e-06   3.645664e+01   1.486512e+01   5.533255e-02   1.352456e+05  -1.450759e+04   5.686796e+04  -7.067588e+10  -7.965259e+10   1.477646e+11   1.474307e+05   2.569249e-26   0.000000e+00   0.000000e+00
     2720000   2.719999e-06   3.645772e+01   1.486500e+01   5.579220e-02   1.346744e+05  -1.515153e+04   5.804349e+04  -7.212251e+10  -8.132844e+10   1.461118e+11   1.474307e+05   2.568526e-26   0.000000e+00   0.000000e+00
     2728000   2.727999e-06   3.645880e+01   1.486488e+01   5.626121e-02   1.340917e+05  -1.580879e+04   5.920566e+04  -7.355194e+10  -8.298510e+10   1.444261e+11   1.474307e+05   2.567804e-26   0.000000e+00   0.000000e+00
     2736000   2.735999e-06   3.645987e+01   1.486475e+01   5.673946e-02   1.334976e+05  -1.647924e+04   6.035421e+04  -7.496386e+10  -8.462218e+10   1.427078e+11   1.474307e+05   2.567084e-26   0.000000e+00   0.000000e+00
     2744000   2.743999e-06   3.646093e+01   1.486462e+01   5.722684e-02   1.328923e+05  -1.716270e+04   6.148890e+04  -7.635794e+10  -8.623933e+10   1.409574e+11   1.474307e+05   2.566366e-26   0.000000e+00   0.000000e+00
     2752000   2.751999e-06   3.646199e+01   1.486448e+01   5.772324e-02   1.322759e+05  -1.785901e+04   6.260945e+04  -7.773388e+10  -8.783619e+10   1.391753e+11   1.474307e+05   2.565650e-26   0.000000e+00   0.000000e+00
     2760000   2.759999e-06   3.646305e+01   1.486433e+01   5.822855e-02   1.316486e+05  -1.856802e+04   6.371562e+04  -7.909138e+10  -8.941239e+10   1.373618e+11   1.474307e+05   2.564936e-26   0.000000e+00   0.000000e+00
     2768000   2.767999e-06   3.646410e+01   1.486418e+01   5.874265e-02   1.310105e+05  -1.928956e+04   6.480715e+04  -8.043013e+10  -9.096758e+10   1.355175e+11   1.474307e+05   2.564224e-26   0.000000e+00   0.000000e+00
     2776000   2.775999e-06   3.646515e+01   1.486402e+01   5.926543e-02   1.303618e+05  -2.002345e+04   6.588381e+04  -8.174985e+10  -9.250142e+10   1.336427e+11   1.474307e+05   2.563514e-26   0.000000e+00   0.000000e+00
     2784000   2.783999e-06   3.646619e+01   1.486386e+01   5.979675e-02   1.297026e+05  -2.076952e+04   6.694535e+04  -8.305024e+10  -9.401357e+10   1.317380e+11   1.474307e+05   2.562806e-26   0.000000e+00   0.000000e+00
     2792000   2.791999e-06   3.646722e+01   1.486369e+01   6.033651e-02   1.290330e+05  -2.152761e+04   6.799154e+04  -8.433101e+10  -9.550369e+10   1.298037e+11   1.474307e+05   2.562100e-26   0.000000e+00   0.000000e+00
     2800000   2.799999e-06   3.646825e+01   1.486352e+01   6.088458e-02   1.283533e+05  -2.229752e+04   6.902213e+04  -8.559188e+10  -9.697144e+10   1.278403e+11   1.474307e+05   2.561396e-26   0.000000e+00   0.000000e+00
     2808000   2.807999e-06   3.646928e+01   1.486333e+01   6.144082e-02   1.276636e+05  -2.307909e+04   7.003691e+04  -8.683258e+10  -9.841650e+10   1.258484e+11   1.474307e+05   2.560695e-26   0.000000e+00   0.000000e+00
     2816000   2.815999e-06   3.647029e+01   1.486315e+01   6.200512e-02   1.269641e+05  -2.387213e+04   7.103563e+04  -8.805284e+10  -9.983856e+10   1.238283e+11   1.474307e+05   2.559995e-26   0.000000e+00   0.000000e+00
     2824000   2.823999e-06   3.647131e+01   1.486295e+01   6.257735e-02   1.262548e+05  -2.467645e+04   7.201808e+04  -8.925238e+10  -1.012373e+11   1.217805e+11   1.474307e+05   2.559297e-26   0.000000e+00   0.000000e+00
     2832000   2.831999e-06   3.647231e+01   1.486275e+01   6.315737e-02   1.255361e+05  -2.549186e+04   7.298404e+04  -9.043094e+10  -1.026124e+11   1.197056e+11   1.474307e+05   2.558601e-26   0.000000e+00   0.000000e+00
     2840000   2.839999e-06   3.647332e+01   1.486254e+01   6.374505e-02   1.248080e+05  -2.631818e+04   7.393330e+04  -9.158827e+10  -1.039636e+11   1.176040e+11   1.474307e+05   2.557907e-26   0.000000e+00   0.000000e+00
     2848000   2.847999e-06   3.647431e+01   1.486233e+01   6.434026e-02   1.240707e+05  -2.715522e+04   7.486564e+04  -9.272412e+10  -1.052905e+11   1.154762e+11   1.474307e+05   2.557215e-26   0.000000e+00   0.000000e+00
     2856000   2.855999e-06   3.647530e+01   1.486211e+01   6.494285e-02   1.233245e+05  -2.800277e+04   7.578085e+04  -9.383824e+10  -1.065929e+11   1.133227e+11   1.474307e+05   2.556525e-26   0.000000e+00   0.000000e+00
     2864000   2.863999e-06   3.647628e+01   1.486188e+01   6.555270e-02   1.225694e+05  -2.886064e+04   7.667873e+04  -9.493038e+10  -1.078705e+11   1.111440e+11   1.474307e+05   2.555837e-26   0.000000e+00   0.000000e+00
     2872000   2.871999e-06   3.647726e+01   1.486165e+01   6.616967e-02   1.218056e+05  -2.972863e+04   7.755908e+04  -9.600031e+10  -1.091230e+11   1.089406e+11   1.474307e+05   2.555151e-26   0.000000e+00   0.000000e+00
     2880000   2.879999e-06   3.647823e+01   1.486141e+01   6.679360e-02   1.210334e+05  -3.060654e+04   7.842171e+04  -9.704780e+10  -1.103501e+11   1.067131e+11   1.474307e+05   2.554467e-26   0.000000e+00   0.000000e+00
     2888000   2.887999e-06   3.647920e+01   1.486116e+01   6.742437e-02   1.202529e+05  -3.149416e+04   7.926643e+04  -9.807262e+10  -1.115516e+11   1.044620e+11   1.474307e+05   2.553785e-26   0.000000e+00   0.000000e+00
     2896000   2.895999e-06   3.648016e+01   1.486090e+01   6.806182e-02   1.194643e+05  -3.239130e+04   8.009304e+04  -9.907456e+10  -1.127271e+11   1.021878e+11   1.474307e+05   2.553105e-26   0.000000e+00   0.000000e+00
     2904000   2.903999e-06   3.648111e+01   1.486064e+01   6.870581e-02   1.186678e+05  -3.329773e+04   8.090137e+04  -1.000534e+11  -1.138766e+11   9.989098e+10   1.474307e+05   2.552426e-26   0.000000e+00   0.000000e+00
     2912000   2.911999e-06   3.648206e+01   1.486037e+01   6.935619e-02   1.178635e+05  -3.421325e+04   8.169124e+04  -1.010089e+11  -1.149996e+11   9.757215e+10   1.474307e+05   2.551750e-26   0.000000e+00   0.000000e+00
     2920000   2.919999e-06   3.648300e+01   1.486009e+01   7.001282e-02   1.170517e+05  -3.513765e+04   8.246246e+04  -1.019409e+11  -1.160959e+11   9.523183e+10   1.474307e+05   2.551076e-26   0.000000e+00   0.000000e+00
     2928000   2.927999e-06   3.648393e+01   1.485981e+01   7.067554e-02   1.162325e+05  -3.607072e+04   8.321489e+04  -1.028492e+11  -1.171654e+11   9.287058e+10   1.474307e+05   2.550403e-26   0.000000e+00   0.000000e+00
     2936000   2.935999e-06   3.648486e+01   1.485951e+01   7.134420e-02   1.154062e+05  -3.701223e+04   8.394834e+04  -1.037336e+11  -1.182077e+11   9.048892e+10   1.474307e+05   2.549732e-26   0.000000e+00   0.000000e+00
     2944000   2.943999e-06   3.648577e+01   1.485922e+01   7.201866e-02   1.145729e+05  -3.796197e+04   8.466265e+04  -1.045938e+11  -1.192227e+11   8.808744e+10   1.474307e+05   2.549063e-26   0.000000e+00   0.000000e+00
     2952000   2.951999e-06   3.648669e+01   1.485891e+01   7.269876e-02   1.137327e+05  -3.891972e+04   8.535768e+04  -1.054298e+11  -1.202102e+11   8.566667e+10   1.474307e+05   2.548396e-26   0.000000e+00   0.000000e+00
     2960000   2.959999e-06   3.648759e+01   1.485859e+01   7.338433e-02   1.128860e+05  -3.988526e+04   8.603327e+04  -1.062413e+11  -1.211698e+11   8.322720e+10   1.474307e+05   2.547730e-26   0.000000e+00   0.000000e+00
     2968000   2.967999e-06   3.648849e+01   1.485827e+01   7.407524e-02   1.120330e+05  -4.085836e+04   8.668927e+04  -1.070282e+11  -1.221015e+11   8.076958e+10   1.474307e+05   2.547066e-26   0.000000e+00   0.000000e+00
     2976000   2.975999e-06   3.648939e+01   1.485794e+01   7.477131e-02   1.111737e+05  -4.183881e+04   8.732553e+04  -1.077903e+11  -1.230050e+11   7.829438e+10   1.474307e+05   2.546404e-26   0.000000e+00   0.000000e+00
     2984000   2.983999e-06   3.649027e+01   1.485760e+01   7.547239e-02   1.103084e+05  -4.282637e+04   8.794193e+04  -1.085275e+11  -1.238801e+11   7.580218e+10   1.474307e+05   2.545743e-26   0.000000e+00   0.000000e+00
     2992000   2.991999e-06   3.649115e+01   1.485725e+01   7.617833e-02   1.094373e+05  -4.382081e+04   8.853832e+04  -1.092395e+11  -1.247266e+11   7.329356e+10   1.474307e+05   2.545084e-26   0.000000e+00   0.000000e+00
     3000000   2.999999e-06   3.649202e+01   1.485690e+01   7.688895e-02   1.085606e+05  -4.482192e+04   8.911458e+04  -1.099263e+11  -1.255444e+11   7.076910e+10   1.474307e+05   2.544427e-26   0.000000e+00   0.000000e+00
     3008000   3.007999e-06   3.649289e+01   1.485654e+01   7.760411e-02   1.076785e+05  -4.582945e+04   8.967058e+04  -1.105877e+11  -1.263333e+11   6.822938e+10   1.474307e+05   2.543771e-26   0.000000e+00   0.000000e+00
     3016000   3.015999e-06   3.649375e+01   1.485617e+01   7.832363e-02   1.067913e+05  -4.684317e+04   9.020621e+04  -1.112236e+11  -1.270931e+11   6.567500e+10   1.474307e+05   2.543117e-26   0.000000e+00   0.000000e+00
     3024000   3.023999e-06   3.649460e+01   1.485579e+01   7.904735e-02   1.058990e+05  -4.786286e+04   9.072134e+04  -1.118337e+11  -1.278237e+11   6.310654e+10   1.474307e+05   2.542464e-26   0.000000e+00   0.000000e+00
     3032000   3.031999e-06   3.649544e+01   1.485540e+01   7.977511e-02   1.050020e+05  -4.888827e+04   9.121588e+04  -1.124181e+11  -1.285249e+11   6.052459e+10   1.474307e+05   2.541813e-26   0.000000e+00   0.000000e+00
     3040000   3.039999e-06   3.649628e+01   1.485500e+01   8.050675e-02   1.041004e+05  -4.991918e+04   9.168970e+04  -1.129766e+11  -1.291965e+11   5.792976e+10   1.474307e+05   2.541163e-26   0.000000e+00   0.000000e+00
     3048000   3.047999e-06   3.649711e+01   1.485460e+01   8.124209e-02   1.031944e+05  -5.095534e+04   9.214272e+04  -1.135091e+11  -1.298385e+11   5.532264e+10   1.474307e+05   2.540514e-26   0.000000e+00   0.000000e+00
     3056000   3.055999e-06   3.649793e+01   1.485419e+01   8.198098e-02   1.022843e+05  -5.199652e+04   9.257483e+04  -1.140154e+11  -1.304506e+11   5.270383e+10   1.474307e+05   2.539867e-26   0.000000e+00   0.000000e+00
     3064000   3.063999e-06   3.649874e+01   1.485377e+01   8.272323e-02   1.013703e+05  -5.304247e+04   9.298595e+04  -1.144956e+11  -1.310328e+11   5.007394e+10   1.474307e+05   2.539220e-26   0.000000e+00   0.000000e+00
     3072000   3.071999e-06   3.649955e+01   1.485334e+01   8.346870e-02   1.004525e+05  -5.409296e+04   9.337598e+04  -1.149493e+11  -1.315850e+11   4.743357e+10   1.474307e+05   2.538576e-26   0.000000e+00   0.000000e+00
     3080000   3.079999e-06   3.650035e+01   1.485290e+01   8.421719e-02   9.953109e+04  -5.514771e+04   9.374493e+04  -1.153922e+11  -1.320959e+11   4.480624e+10   1.474307e+05   2.538142e-26   0.000000e+00   0.000000e+00
     3088000   3.087999e-06   3.650114e+01   1.485246e+01   8.496856e-02   9.860633e+04  -5.620647e+04   9.409275e+04  -1.157938e+11  -1.325874e+11   4.214738e+10   1.474307e+05   2.537501e-26   0.000000e+00   0.000000e+00
     3096000   3.095999e-06   3.650193e+01   1.485200e+01   8.572262e-02   9.767846e+04  -5.726903e+04   9.441927e+04  -1.161688e+11  -1.330486e+11   3.947986e+10   1.474307e+05   2.536862e-26   0.000000e+00   0.000000e+00
     3104000   3.103999e-06   3.650271e+01   1.485154e+01   8.647921e-02   9.674770e+04  -5.833516e+04   9.472441e+04  -1.165172e+11  -1.334793e+11   3.680430e+10   1.474307e+05   2.536223e-26   0.000000e+00   0.000000e+00
     3112000   3.111999e-06   3.650348e+01   1.485107e+01   8.723815e-02   9.581426e+04  -5.940462e+04   9.500811e+04  -1.168388e+11  -1.338794e+11   3.412131e+10   1.474307e+05   2.535584e-26   0.000000e+00   0.000000e+00
     3120000   3.119999e-06   3.650424e+01   1.485059e+01   8.799928e-02   9.487835e+04  -6.047715e+04   9.527033e+04  -1.171337e+11  -1.342490e+11   3.143151e+10   1.474307e+05   2.534946e-26   0.000000e+00   0.000000e+00
     3128000   3.127999e-06   3.650499e+01   1.485010e+01   8.876242e-02   9.394019e+04  -6.155252e+04   9.551100e+04  -1.174018e+11  -1.345879e+11   2.873552e+10   1.474307e+05   2.534309e-26   0.000000e+00   0.000000e+00
     3136000   3.135999e-06   3.650574e+01   1.484961e+01   8.952740e-02   9.299999e+04  -6.263048e+04   9.573008e+04  -1.176430e+11  -1.348960e+11   2.603394e+10   1.474307e+05   2.533672e-26   0.000000e+00   0.000000e+00
     3144000   3.143999e-06   3.650648e+01   1.484910e+01   9.029404e-02   9.205797e+04  -6.371078e+04   9.592752e+04  -1.178574e+11  -1.351734e+11   2.332741e+10   1.474307e+05   2.533036e-26   0.000000e+00   0.000000e+00
     3152000   3.151999e-06   3.650722e+01   1.484859e+01   9.106218e-02   9.111434e+04  -6.479317e+04   9.610330e+04  -1.180448e+11  -1.354199e+11   2.061653e+10   1.474307e+05   2.532400e-26   0.000000e+00   0.000000e+00
     3160000   3.159999e-06   3.650794e+01   1.484806e+01   9.183164e-02   9.016933e+04  -6.587741e+04   9.625738e+04  -1.182052e+11  -1.356356e+11   1.790194e+10   1.474307e+05   2.531764e-26   0.000000e+00   0.000000e+00
     3168000   3.167999e-06   3.650866e+01   1.484753e+01   9.260224e-02   8.922313e+04  -6.696326e+04   9.638972e+04  -1.183386e+11  -1.358203e+11   1.518424e+10   1.474307e+05   2.531129e-26   0.000000e+00   0.000000e+00
     3176000   3.175999e-06   3.650937e+01   1.484699e+01   9.337382e-02   8.827598e+04  -6.805045e+04   9.650031e+04  -1.184451e+11  -1.359741e+11   1.246405e+10   1.474307e+05   2.530494e-26   0.000000e+00   0.000000e+00
     3184000   3.183999e-06   3.651007e+01   1.484644e+01   9.414619e-02   8.732808e+04  -6.913876e+04   9.658914e+04  -1.185245e+11  -1.360970e+11   9.742009e+09   1.474307e+05   2.529859e-26   0.000000e+00   0.000000e+00
     3192000   3.191999e-06   3.651077e+01   1.484589e+01   9.491919e-02   8.637966e+04  -7.022792e+04   9.665618e+04  -1.185769e+11  -1.361889e+11   7.018723e+09   1.474307e+05   2.529224e-26   0.000000e+00   0.000000e+00
     3200000   3.199999e-06   3.651145e+01   1.484532e+01   9.569263e-02   8.543093e+04  -7.131770e+04   9.670143e+04  -1.186023e+11  -1.362498e+11   4.294815e+09   1.474307e+05   2.528589e-26   0.000000e+00   0.000000e+00
     3208000   3.207999e-06   3.651213e+01   1.484475e+01   9.646635e-02   8.448210e+04  -7.240784e+04   9.672489e+04  -1.186007e+11  -1.362797e+11   1.570906e+09   1.474307e+05   2.527954e-26   0.000000e+00   0.000000e+00
     3216000   3.215999e-06   3.651280e+01   1.484416e+01   9.724017e-02   8.353339e+04  -7.349809e+04   9.672657e+04  -1.185721e+11  -1.362787e+11  -1.152386e+09   1.474307e+05   2.527319e-26   0.000000e+00   0.000000e+00
     3224000   3.223999e-06   3.651347e+01   1.484357e+01   9.801392e-02   8.258501e+04  -7.458822e+04   9.670646e+04  -1.185165e+11  -1.362468e+11  -3.874442e+09   1.474307e+05   2.526684e-26   0.000000e+00   0.000000e+00
     3232000   3.231999e-06   3.651413e+01   1.484297e+01   9.878742e-02   8.163719e+04  -7.567796e+04   9.666458e+04  -1.184340e+11  -1.361839e+11  -6.594643e+09   1.474307e+05   2.526049e-26   0.000000e+00   0.000000e+00
     3240000   3.239999e-06   3.651477e+01   1.484236e+01   9.956049e-02   8.069014e+04  -7.676708e+04   9.660095e+04  -1.183246e+11  -1.360902e+11  -9.312372e+09   1.474307e+05   2.525414e-26   0.000000e+00   0.000000e+00
     3248000   3.247999e-06   3.651542e+01   1.484174e+01   1.003330e-01   7.974407e+04  -7.785536e+04   9.651555e+04  -1.181884e+11  -1.359784e+11  -1.203732e+10   1.474308e+05   2.525071e-26   0.000000e+00   0.000000e+00
     3256000   3.255999e-06   3.651605e+01   1.484111e+01   1.011047e-01   7.879920e+04  -7.894259e+04   9.640840e+04  -1.180245e+11  -1.358223e+11  -1.474868e+10   1.474308e+05   2.524410e-26   0.000000e+00   0.000000e+00
     3264000   3.263999e-06   3.651668e+01   1.484048e+01   1.018754e-01   7.785575e+04  -8.002844e+04   9.627958e+04  -1.178337e+11  -1.356354e+11  -1.745569e+10   1.474308e+05   2.523748e-26   0.000000e+00   0.000000e+00
     3272000   3.271999e-06   3.651730e+01   1.483983e+01   1.026451e-01   7.691393e+04  -8.111267e+04   9.612912e+04  -1.176162e+11  -1.354178e+11  -2.015775e+10   1.474308e+05   2.523086e-26   0.000000e+00   0.000000e+00
     3280000   3.279999e-06   3.651791e+01   1.483918e+01   1.034135e-01   7.597396e+04  -8.219504e+04   9.595707e+04  -1.173720e+11  -1.351697e+11  -2.285424e+10   1.474308e+05   2.522424e-26   0.000000e+00   0.000000e+00
     3288000   3.287999e-06   3.651851e+01   1.483852e+01   1.041804e-01   7.503605e+04  -8.327530e+04   9.576347e+04  -1.171013e+11  -1.348909e+11  -2.554454e+10   1.474308e+05   2.521761e-26   0.000000e+00   0.000000e+00
     3296000   3.295999e-06   3.651911e+01   1.483785e+01   1.049456e-01   7.410042e+04  -8.435322e+04   9.554837e+04  -1.168040e+11  -1.345817e+11  -2.822806e+10   1.474308e+05   2.521098e-26   0.000000e+00   0.000000e+00
     3304000   3.303999e-06   3.651970e+01   1.483717e+01   1.057091e-01   7.316726e+04  -8.542853e+04   9.531184e+04  -1.164802e+11  -1.342421e+11  -3.090419e+10   1.474308e+05   2.520434e-26   0.000000e+00   0.000000e+00
     3312000   3.311999e-06   3.652028e+01   1.483648e+01   1.064705e-01   7.223680e+04  -8.650101e+04   9.505392e+04  -1.161301e+11  -1.338722e+11  -3.357231e+10   1.474308e+05   2.519770e-26   0.000000e+00   0.000000e+00
     3320000   3.319999e-06   3.652085e+01   1.483578e+01   1.072299e-01   7.130925e+04  -8.757041e+04   9.477470e+04  -1.157538e+11  -1.334722e+11  -3.623185e+10   1.474308e+05   2.519106e-26   0.000000e+00   0.000000e+00
     3328000   3.327999e-06   3.652142e+01   1.483508e+01   1.079869e-01   7.038481e+04  -8.863648e+04   9.447424e+04  -1.153513e+11  -1.330420e+11  -3.888218e+10   1.474308e+05   2.518440e-26   0.000000e+00   0.000000e+00
     3336000   3.335999e-06   3.652198e+01   1.483437e+01   1.087414e-01   6.946370e+04  -8.969900e+04   9.415261e+04  -1.149227e+11  -1.325819e+11  -4.152272e+10   1.474308e+05   2.517775e-26   0.000000e+00   0.000000e+00
     3344000   3.343999e-06   3.652253e+01   1.483364e+01   1.094933e-01   6.854612e+04  -9.075771e+04   9.380990e+04  -1.144682e+11  -1.320919e+11  -4.415287e+10   1.474308e+05   2.517108e-26   0.000000e+00   0.000000e+00
     3352000   3.351999e-06   3.652308e+01   1.483291e+01   1.102423e-01   6.763228e+04  -9.181239e+04   9.344619e+04  -1.139878e+11  -1.315722e+11  -4.677205e+10   1.474308e+05   2.516441e-26   0.000000e+00   0.000000e+00
     3360000   3.359999e-06   3.652361e+01   1.483217e+01   1.109884e-01   6.672238e+04  -9.286279e+04   9.306157e+04  -1.134818e+11  -1.310229e+11  -4.937965e+10   1.474308e+05   2.515773e-26   0.000000e+00   0.000000e+00
     3368000   3.367999e-06   3.652414e+01   1.483143e+01   1.117312e-01   6.581664e+04  -9.390868e+04   9.265614e+04  -1.129501e+11  -1.304442e+11  -5.197511e+10   1.474308e+05   2.515104e-26   0.000000e+00   0.000000e+00
     3376000   3.375999e-06   3.652467e+01   1.483067e+01   1.124708e-01   6.491525e+04  -9.494982e+04   9.223000e+04  -1.123930e+11  -1.298362e+11  -5.455783e+10   1.474308e+05   2.514435e-26   0.000000e+00   0.000000e+00
     3384000   3.383999e-06   3.652518e+01   1.482991e+01   1.132069e-01   6.401842e+04  -9.598598e+04   9.178325e+04  -1.118106e+11  -1.291990e+11  -5.712724e+10   1.474308e+05   2.513765e-26   0.000000e+00   0.000000e+00
     3392000   3.391999e-06   3.652569e+01   1.482914e+01   1.139393e-01   6.312635e+04  -9.701692e+04   9.131600e+04  -1.112031e+11  -1.285329e+11  -5.968277e+10   1.474308e+05   2.513093e-26   0.000000e+00   0.000000e+00
     3400000   3.399999e-06   3.652619e+01   1.482836e+01   1.146679e-01   6.223924e+04  -9.804243e+04   9.082836e+04  -1.105705e+11  -1.278380e+11  -6.222383e+10   1.474308e+05   2.512421e-26   0.000000e+00   0.000000e+00
     3408000   3.407999e-06   3.652669e+01   1.482757e+01   1.153925e-01   6.135728e+04  -9.906225e+04   9.032046e+04  -1.099131e+11  -1.271144e+11  -6.474987e+10   1.474308e+05   2.511748e-26   0.000000e+00   0.000000e+00
     3416000   3.415999e-06   3.652717e+01   1.482677e+01   1.161129e-01   6.048069e+04  -1.000762e+05   8.979240e+04  -1.092309e+11  -1.263624e+11  -6.726032e+10   1.474308e+05   2.511074e-26   0.000000e+00   0.000000e+00
     3424000   3.423999e-06   3.652765e+01   1.482597e+01   1.168291e-01   5.960966e+04  -1.010840e+05   8.924433e+04  -1.085243e+11  -1.255820e+11  -6.975461e+10   1.474308e+05   2.510399e-26   0.000000e+00   0.000000e+00
     3432000   3.431999e-06   3.652813e+01   1.482515e+01   1.175408e-01   5.874437e+04  -1.020854e+05   8.867637e+04  -1.077933e+11  -1.247737e+11  -7.223220e+10   1.474308e+05   2.509723e-26   0.000000e+00   0.000000e+00
     3440000   3.439999e-06   3.652859e+01   1.482433e+01   1.182479e-01   5.788503e+04  -1.030803e+05   8.808866e+04  -1.070381e+11  -1.239374e+11  -7.469253e+10   1.474308e+05   2.509046e-26   0.000000e+00   0.000000e+00
     3448000   3.447999e-06   3.652905e+01   1.482350e+01   1.189502e-01   5.703183e+04  -1.040683e+05   8.748134e+04  -1.062589e+11  -1.230734e+11  -7.713505e+10   1.474308e+05   2.508367e-26   0.000000e+00   0.000000e+00
     3456000   3.455999e-06   3.652951e+01   1.482267e+01   1.196475e-01   5.618495e+04  -1.050494e+05   8.685455e+04  -1.054559e+11  -1.221820e+11  -7.955923e+10   1.474308e+05   2.507688e-26   0.000000e+00   0.000000e+00
     3464000   3.463999e-06   3.652995e+01   1.482182e+01   1.203398e-01   5.534459e+04  -1.060232e+05   8.620844e+04  -1.046293e+11  -1.212634e+11  -8.196451e+10   1.474308e+05   2.507007e-26   0.000000e+00   0.000000e+00
     3472000   3.471999e-06   3.653039e+01   1.482097e+01   1.210268e-01   5.451095e+04  -1.069895e+05   8.554316e+04  -1.037793e+11  -1.203177e+11  -8.435037e+10   1.474308e+05   2.506325e-26   0.000000e+00   0.000000e+00
     3480000   3.479999e-06   3.653083e+01   1.482011e+01   1.217084e-01   5.368419e+04  -1.079482e+05   8.485888e+04  -1.029060e+11  -1.193453e+11  -8.671628e+10   1.474308e+05   2.505643e-26   0.000000e+00   0.000000e+00
     3488000   3.487999e-06   3.653125e+01   1.481924e+01   1.223845e-01   5.286451e+04  -1.088990e+05   8.415576e+04  -1.020098e+11  -1.183463e+11  -8.906171e+10   1.474308e+05   2.504958e-26   0.000000e+00   0.000000e+00
     3496000   3.495999e-06   3.653167e+01   1.481837e+01   1.230549e-01   5.205209e+04  -1.098417e+05   8.343395e+04  -1.010908e+11  -1.173209e+11  -9.138615e+10   1.474308e+05   2.504273e-26   0.000000e+00   0.000000e+00
     3504000   3.503999e-06   3.653208e+01   1.481749e+01   1.237194e-01   5.124712e+04  -1.107760e+05   8.269363e+04  -1.001492e+11  -1.162695e+11  -9.368908e+10   1.474308e+05   2.503586e-26   0.000000e+00   0.000000e+00
     3512000   3.511999e-06   3.653249e+01   1.481660e+01   1.243779e-01   5.044977e+04  -1.117019e+05   8.193498e+04  -9.918522e+10  -1.151923e+11  -9.596999e+10   1.474308e+05   2.502898e-26   0.000000e+00   0.000000e+00
     3520000   3.519999e-06   3.653289e+01   1.481570e+01   1.250303e-01   4.966022e+04  -1.126190e+05   8.115817e+04  -9.819916e+10  -1.140896e+11  -9.822837e+10   1.474308e+05   2.502209e-26   0.000000e+00   0.000000e+00
     3528000   3.527999e-06   3.653329e+01   1.481480e+01   1.256764e-01   4.887864e+04  -1.135273e+05   8.036338e+04  -9.719122e+10  -1.129615e+11  -1.004637e+11   1.474308e+05   2.501518e-26   0.000000e+00   0.000000e+00
     3536000   3.535999e-06   3.653367e+01   1.481388e+01   1.263161e-01   4.810522e+04  -1.144264e+05   7.955081e+04  -9.616163e+10  -1.118085e+11  -1.026756e+11   1.474308e+05   2.500826e-26   0.000000e+00   0.000000e+00
     3544000   3.543999e-06   3.653406e+01   1.481296e+01   1.269492e-01   4.734011e+04  -1.153161e+05   7.872064e+04  -9.511063e+10  -1.106306e+11  -1.048634e+11   1.474308e+05   2.500133e-26   0.000000e+00   0.000000e+00
     3552000   3.551999e-06   3.653443e+01   1.481204e+01   1.275756e-01   4.658350e+04  -1.161964e+05   7.787306e+04  -9.403849e+10  -1.094284e+11  -1.070268e+11   1.474308e+05   2.499438e-26   0.000000e+00   0.000000e+00
     3560000   3.559999e-06   3.653480e+01   1.481111e+01   1.281951e-01   4.583555e+04  -1.170669e+05   7.700827e+04  -9.294544e+10  -1.082019e+11  -1.091652e+11   1.474308e+05   2.498742e-26   0.000000e+00   0.000000e+00
     3568000   3.567999e-06   3.653516e+01   1.481017e+01   1.288076e-01   4.509643e+04  -1.179276e+05   7.612648e+04  -9.183174e+10  -1.069516e+11  -1.112782e+11   1.474308e+05   2.498044e-26   0.000000e+00   0.000000e+00
     3576000   3.575999e-06   3.653552e+01   1.480922e+01   1.294131e-01   4.436630e+04  -1.187781e+05   7.522789e+04  -9.069766e+10  -1.056776e+11  -1.133653e+11   1.474308e+05   2.497345e-26   0.000000e+00   0.000000e+00
     3584000   3.583999e-06   3.653587e+01   1.480827e+01   1.300112e-01   4.364532e+04  -1.196183e+05   7.431270e+04  -8.954347e+10  -1.043804e+11  -1.154261e+11   1.474308e+05   2.496645e-26   0.000000e+00   0.000000e+00
     3592000   3.591999e-06   3.653622e+01   1.480730e+01   1.306020e-01   4.293366e+04  -1.204481e+05   7.338114e+04  -8.836942e+10  -1.030602e+11  -1.174600e+11   1.474308e+05   2.495943e-26   0.000000e+00   0.000000e+00
     3600000   3.599999e-06   3.653656e+01   1.480634e+01   1.311853e-01   4.223147e+04  -1.212672e+05   7.243341e+04  -8.717580e+10  -1.017173e+11  -1.194667e+11   1.474308e+05   2.495240e-26   0.000000e+00   0.000000e+00
     3608000   3.607999e-06   3.653690e+01   1.480536e+01   1.317609e-01   4.153890e+04  -1.220755e+05   7.146974e+04  -8.596288e+10  -1.003521e+11  -1.214458e+11   1.474308e+05   2.494535e-26   0.000000e+00   0.000000e+00
     3616000   3.615999e-06   3.653723e+01   1.480438e+01   1.323288e-01   4.085611e+04  -1.228728e+05   7.049035e+04  -8.473095e+10  -9.896483e+10  -1.233967e+11   1.474308e+05   2.493829e-26   0.000000e+00   0.000000e+00
     3624000   3.623999e-06   3.653755e+01   1.480340e+01   1.328887e-01   4.018326e+04  -1.236589e+05   6.949547e+04  -8.348030e+10  -9.755587e+10  -1.253191e+11   1.474308e+05   2.493122e-26   0.000000e+00   0.000000e+00
     3632000   3.631999e-06   3.653787e+01   1.480241e+01   1.334407e-01   3.952048e+04  -1.244336e+05   6.848532e+04  -8.221121e+10  -9.612553e+10  -1.272125e+11   1.474308e+05   2.492413e-26   0.000000e+00   0.000000e+00
     3640000   3.639999e-06   3.653818e+01   1.480141e+01   1.339844e-01   3.886793e+04  -1.251969e+05   6.746015e+04  -8.092398e+10  -9.467415e+10  -1.290766e+11   1.474308e+05   2.491702e-26   0.000000e+00   0.000000e+00
     3648000   3.647999e-06   3.653849e+01   1.480040e+01   1.345200e-01   3.822574e+04  -1.259484e+05   6.642018e+04  -7.961891e+10  -9.320208e+10  -1.309109e+11   1.474308e+05   2.490990e-26   0.000000e+00   0.000000e+00
     3656000   3.655999e-06   3.653879e+01   1.479939e+01   1.350471e-01   3.759413e+04  -1.266879e+05   6.536579e+04  -7.828394e+10  -9.169124e+10  -1.326860e+11   1.474308e+05   2.489269e-26   0.000000e+00   0.000000e+00
     3664000   3.663999e-06   3.653909e+01   1.479838e+01   1.355658e-01   3.697321e+04  -1.274154e+05   6.429719e+04  -7.694429e+10  -9.017953e+10  -1.344593e+11   1.474308e+05   2.488559e-26   0.000000e+00   0.000000e+00
     3672000   3.671999e-06   3.653939e+01   1.479735e+01   1.360758e-01   3.636307e+04  -1.281308e+05   6.321452e+04  -7.558773e+10  -8.864818e+10  -1.362017e+11   1.474308e+05   2.487849e-26   0.000000e+00   0.000000e+00
     3680000   3.679999e-06   3.653967e+01   1.479633e+01   1.365772e-01   3.576385e+04  -1.288338e+05   6.211804e+04  -7.421456e+10  -8.709754e+10  -1.379128e+11   1.474308e+05   2.487138e-26   0.000000e+00   0.000000e+00
     3688000   3.687999e-06   3.653996e+01   1.479529e+01   1.370697e-01   3.517568e+04  -1.295243e+05   6.100800e+04  -7.282512e+10  -8.552798e+10  -1.395922e+11   1.474308e+05   2.486426e-26   0.000000e+00   0.000000e+00
     3696000   3.695999e-06   3.654024e+01   1.479425e+01   1.375533e-01   3.459869e+04  -1.302021e+05   5.988465e+04  -7.141972e+10  -8.393986e+10  -1.412397e+11   1.474308e+05   2.485713e-26   0.000000e+00   0.000000e+00
     3704000   3.703999e-06   3.654051e+01   1.479321e+01   1.380278e-01   3.403301e+04  -1.308673e+05   5.874825e+04  -6.999868e+10  -8.233354e+10  -1.428547e+11   1.474308e+05   2.484999e-26   0.000000e+00   0.000000e+00
     3712000   3.711999e-06   3.654078e+01   1.479216e+01   1.384932e-01   3.347876e+04  -1.315194e+05   5.759906e+04  -6.856233e+10  -8.070940e+10  -1.444371e+11   1.474308e+05   2.484284e-26   0.000000e+00   0.000000e+00
     3720000   3.719999e-06   3.654105e+01   1.479111e+01   1.389494e-01   3.293605e+04  -1.321586e+05   5.643734e+04  -6.711099e+10  -7.906781e+10  -1.459864e+11   1.474308e+05   2.483569e-26   0.000000e+00   0.000000e+00
     3728000   3.727999e-06   3.654131e+01   1.479005e+01   1.393962e-01   3.240502e+04  -1.327845e+05   5.526337e+04  -6.564502e+10  -7.740916e+10  -1.475023e+11   1.474308e+05   2.482852e-26   0.000000e+00   0.000000e+00
     3736000   3.735999e-06   3.654157e+01   1.478898e+01   1.398336e-01   3.188577e+04  -1.333971e+05   5.407739e+04  -6.416473e+10  -7.573382e+10  -1.489845e+11   1.474308e+05   2.482135e-26   0.000000e+00   0.000000e+00
     3744000   3.743999e-06   3.654182e+01   1.478791e+01   1.402614e-01   3.137842e+04  -1.339962e+05   5.287970e+04  -6.267046e+10  -7.404219e+10  -1.504327e+11   1.474308e+05   2.481416e-26   0.000000e+00   0.000000e+00
     3752000   3.751999e-06   3.654207e+01   1.478684e+01   1.406796e-01   3.088308e+04  -1.345817e+05   5.167056e+04  -6.116257e+10  -7.233465e+10  -1.518466e+11   1.474308e+05   2.480697e-26   0.000000e+00   0.000000e+00
     3760000   3.759999e-06   3.654231e+01   1.478576e+01   1.410881e-01   3.039986e+04  -1.351535e+05   5.045025e+04  -5.964140e+10  -7.061160e+10  -1.532258e+11   1.474308e+05   2.479977e-26   0.000000e+00   0.000000e+00
     3768000   3.767999e-06   3.654255e+01   1.478467e+01   1.414868e-01   2.992886e+04  -1.357114e+05   4.921904e+04  -5.810729e+10  -6.887343e+10  -1.545702e+11   1.474308e+05   2.479256e-26   0.000000e+00   0.000000e+00
     3776000   3.775999e-06   3.654279e+01   1.478359e+01   1.418756e-01   2.947018e+04  -1.362554e+05   4.797722e+04  -5.656059e+10  -6.712055e+10  -1.558793e+11   1.474308e+05   2.478534e-26   0.000000e+00   0.000000e+00
     3784000   3.783999e-06   3.654303e+01   1.478249e+01   1.422544e-01   2.902392e+04  -1.367853e+05   4.672506e+04  -5.500166e+10  -6.535335e+10  -1.571530e+11   1.474308e+05   2.477812e-26   0.000000e+00   0.000000e+00
     3792000   3.791999e-06   3.654326e+01   1.478140e+01   1.426231e-01   2.859018e+04  -1.373010e+05   4.546286e+04  -5.343086e+10  -6.357223e+10  -1.583909e+11   1.474308e+05   2.477089e-26   0.000000e+00   0.000000e+00
     3800000   3.799999e-06   3.654348e+01   1.478030e+01   1.429818e-01   2.816906e+04  -1.378024e+05   4.419090e+04  -5.184853e+10  -6.177762e+10  -1.595928e+11   1.474308e+05   2.476365e-26   0.000000e+00   0.000000e+00
     3808000   3.807999e-06   3.654371e+01   1.477919e+01   1.433302e-01   2.776064e+04  -1.382894e+05   4.290947e+04  -5.025505e+10  -5.996992e+10  -1.607585e+11   1.474308e+05   2.475640e-26   0.000000e+00   0.000000e+00
     3816000   3.815999e-06   3.654393e+01   1.477809e+01   1.436683e-01   2.736501e+04  -1.387619e+05   4.161886e+04  -4.865076e+10  -5.814954e+10  -1.618877e+11   1.474308e+05   2.474915e-26   0.000000e+00   0.000000e+00
     3824000   3.823999e-06   3.654414e+01   1.477697e+01   1.439960e-01   2.698226e+04  -1.392198e+05   4.031937e+04  -4.703605e+10  -5.631690e+10  -1.629802e+11   1.474308e+05   2.474189e-26   0.000000e+00   0.000000e+00
     3832000   3.831999e-06   3.654436e+01   1.477586e+01   1.443134e-01   2.661246e+04  -1.396630e+05   3.901128e+04  -4.541128e+10  -5.447242e+10  -1.640357e+11   1.474308e+05   2.473462e-26   0.000000e+00   0.000000e+00
     3840000   3.839999e-06   3.654457e+01   1.477474e+01   1.446202e-01   2.625570e+04  -1.400913e+05   3.769490e+04  -4.377680e+10  -5.261652e+10  -1.650540e+11   1.474308e+05   2.472735e-26   0.000000e+00   0.000000e+00
     3848000   3.847999e-06   3.654478e+01   1.477362e+01   1.449165e-01   2.591206e+04  -1.405048e+05   3.637051e+04  -4.213301e+10  -5.074961e+10  -1.660350e+11   1.474308e+05   2.472007e-26   0.000000e+00   0.000000e+00
     3856000   3.855999e-06   3.654499e+01   1.477249e+01   1.452021e-01   2.558160e+04  -1.409033e+05   3.503843e+04  -4.048026e+10  -4.887214e+10  -1.669784e+11   1.474308e+05   2.471279e-26   0.000000e+00   0.000000e+00
     3864000   3.863999e-06   3.654519e+01   1.477136e+01   1.454771e-01   2.526440e+04  -1.412867e+05   3.369896e+04  -3.881894e+10  -4.698452e+10  -1.678841e+11   1.474308e+05   2.470550e-26   0.000000e+00   0.000000e+00
     3872000   3.871999e-06   3.654539e+01   1.477023e+01   1.457413e-01   2.496052e+04  -1.416550e+05   3.235239e+04  -3.714941e+10  -4.508718e+10  -1.687518e+11   1.474308e+05   2.469820e-26   0.000000e+00   0.000000e+00
     3880000   3.879999e-06   3.654559e+01   1.476910e+01   1.459947e-01   2.467003e+04  -1.420081e+05   3.099903e+04  -3.547206e+10  -4.318056e+10  -1.695814e+11   1.474308e+05   2.469090e-26   0.000000e+00   0.000000e+00
     3888000   3.887999e-06   3.654578e+01   1.476796e+01   1.462372e-01   2.439299e+04  -1.423459e+05   2.963919e+04  -3.378727e+10  -4.126508e+10  -1.703727e+11   1.474308e+05   2.468360e-26   0.000000e+00   0.000000e+00
     3896000   3.895999e-06   3.654598e+01   1.476682e+01   1.464689e-01   2.412945e+04  -1.426683e+05   2.827317e+04  -3.209541e+10  -3.934118e+10  -1.711256e+11   1.474308e+05   2.467629e-26   0.000000e+00   0.000000e+00
     3904000   3.903999e-06   3.654617e+01   1.476568e+01   1.466896e-01   2.387948e+04  -1.429753e+05   2.690128e+04  -3.039688e+10  -3.740930e+10  -1.718399e+11   1.474308e+05   2.466898e-26   0.000000e+00   0.000000e+00
     3912000   3.911999e-06   3.654636e+01   1.476453e+01   1.468993e-01   2.364312e+04  -1.432668e+05   2.552383e+04  -2.869204e+10  -3.546988e+10  -1.725155e+11   1.474308e+05   2.466167e-26   0.000000e+00   0.000000e+00
     3920000   3.919999e-06   3.654655e+01   1.476338e+01   1.470980e-01   2.342043e+04  -1.435428e+05   2.414114e+04  -2.698130e+10  -3.352335e+10  -1.731522e+11   1.474308e+05   2.465435e-26   0.000000e+00   0.000000e+00
     3928000   3.927999e-06   3.654674e+01   1.476223e+01   1.472856e-01   2.321144e+04  -1.438032e+05   2.275350e+04  -2.526502e+10  -3.157015e+10  -1.737499e+11   1.474308e+05   2.464703e-26   0.000000e+00   0.000000e+00
     3936000   3.935999e-06   3.654692e+01   1.476108e+01   1.474620e-01   2.301620e+04  -1.440479e+05   2.136124e+04  -2.354361e+10  -2.961073e+10  -1.743086e+11   1.474308e+05   2.463971e-26   0.000000e+00   0.000000e+00
     3944000   3.943999e-06   3.654710e+01   1.475993e+01   1.476273e-01   2.283476e+04  -1.442769e+05   1.996467e+04  -2.181744e+10  -2.764552e+10  -1.748280e+11   1.474308e+05   2.463238e-26   0.000000e+00   0.000000e+00
     3952000   3.951999e-06   3.654729e+01   1.475877e+01   1.477814e-01   2.266714e+04  -1.444902e+05   1.856410e+04  -2.008691e+10  -2.567498e+10  -1.753082e+11   1.474308e+05   2.462506e-26   0.000000e+00   0.000000e+00
     3960000   3.959999e-06   3.654747e+01   1.475762e+01   1.479243e-01   2.251338e+04  -1.446877e+05   1.715984e+04  -1.835240e+10  -2.369953e+10  -1.757490e+11   1.474308e+05   2.461773e-26   0.000000e+00   0.000000e+00
     3968000   3.967999e-06   3.654765e+01   1.475646e+01   1.480560e-01   2.237351e+04  -1.448694e+05   1.575222e+04  -1.661430e+10  -2.171964e+10  -1.761504e+11   1.474308e+05   2.461040e-26   0.000000e+00   0.000000e+00
     3976000   3.975999e-06   3.654782e+01   1.475530e+01   1.481764e-01   2.224756e+04  -1.450352e+05   1.434154e+04  -1.487301e+10  -1.973574e+10  -1.765122e+11   1.474308e+05   2.460307e-26   0.000000e+00   0.000000e+00
     3984000   3.983999e-06   3.654800e+01   1.475414e+01   1.482854e-01   2.213555e+04  -1.451852e+05   1.292813e+04  -1.312892e+10  -1.774827e+10  -1.768345e+11   1.474308e+05   2.459574e-26   0.000000e+00   0.000000e+00
     3992000   3.991999e-06   3.654818e+01   1.475298e+01   1.483832e-01   2.203750e+04  -1.453192e+05   1.151229e+04  -1.138241e+10  -1.575770e+10  -1.771171e+11   1.474308e+05   2.458841e-26   0.000000e+00   0.000000e+00
     4000000   3.999999e-06   3.654835e+01   1.475181e+01   1.484696e-01   2.195344e+04  -1.454373e+05   1.009436e+04  -9.633877e+09  -1.376445e+10  -1.773601e+11   1.474308e+05   2.458108e-26   0.000000e+00   0.000000e+00
     4008000   4.007999e-06   3.654853e+01   1.475065e+01   1.485447e-01   2.188337e+04  -1.455394e+05   8.674639e+03  -7.883714e+09  -1.176899e+10  -1.775634e+11   1.474308e+05   2.457375e-26   0.000000e+00   0.000000e+00
     4016000   4.015999e-06   3.654870e+01   1.474948e+01   1.486084e-01   2.182730e+04  -1.456256e+05   7.253451e+03  -6.132312e+09  -9.771752e+09  -1.777269e+11   1.474308e+05   2.456642e-26   0.000000e+00   0.000000e+00
     4024000   4.023999e-06   3.654888e+01   1.474832e+01   1.486608e-01   2.178526e+04  -1.456958e+05   5.831114e+03  -4.380063e+09  -7.773187e+09  -1.778507e+11   1.474308e+05   2.455909e-26   0.000000e+00   0.000000e+00
     4032000   4.031999e-06   3.654905e+01   1.474715e+01   1.487017e-01   2.175723e+04  -1.457499e+05   4.407945e+03  -2.627358e+09  -5.773742e+09  -1.779348e+11   1.474308e+05   2.455177e-26   0.000000e+00   0.000000e+00
     4040000   4.039999e-06   3.654923e+01   1.474599e+01   1.487313e-01   2.174322e+04  -1.457881e+05   2.984263e+03  -8.745890e+08  -3.773864e+09  -1.779791e+11   1.474308e+05   2.454445e-26   0.000000e+00   0.000000e+00
     4048000   4.047999e-06   3.654940e+01   1.474482e+01   1.487495e-01   2.174323e+04  -1.458103e+05   1.560386e+03   8.778524e+08  -1.774000e+09  -1.779837e+11   1.474308e+05   2.453713e-26   0.000000e+00   0.000000e+00
     4056000   4.055999e-06   3.654958e+01   1.474365e+01   1.487563e-01   2.175727e+04  -1.458165e+05   1.366299e+02   2.629575e+09   2.254038e+08  -1.779486e+11   1.474308e+05   2.452981e-26   0.000000e+00   0.000000e+00
     4064000   4.063999e-06   3.654975e+01   1.474249e+01   1.487517e-01   2.178531e+04  -1.458067e+05  -1.286686e+03   4.380189e+09   2.223902e+09  -1.778738e+11   1.474308e+05   2.452250e-26   0.000000e+00   0.000000e+00
     4072000   4.071999e-06   3.654992e+01   1.474132e+01   1.487357e-01   2.182735e+04  -1.457809e+05  -2.709245e+03   6.129304e+09   4.221050e+09  -1.777594e+11   1.474308e+05   2.451519e-26   0.000000e+00   0.000000e+00
     4080000   4.079999e-06   3.655010e+01   1.474016e+01   1.487083e-01   2.188337e+04  -1.457392e+05  -4.130731e+03   7.876529e+09   6.216402e+09  -1.776054e+11   1.474308e+05   2.450788e-26   0.000000e+00   0.000000e+00
     4088000   4.087999e-06   3.655027e+01   1.473899e+01   1.486696e-01   2.195337e+04  -1.456815e+05  -5.550826e+03   9.621477e+09   8.209516e+09  -1.774118e+11   1.474308e+05   2.450058e-26   0.000000e+00   0.000000e+00
     4096000   4.095999e-06   3.655045e+01   1.473782e+01   1.486195e-01   2.203731e+04  -1.456078e+05  -6.969215e+03   1.136376e+10   1.019995e+10  -1.771788e+11   1.474308e+05   2.449328e-26   0.000000e+00   0.000000e+00
     4104000   4.103999e-06   3.655063e+01   1.473666e+01   1.485581e-01   2.213518e+04  -1.455183e+05  -8.385581e+03   1.310299e+10   1.218725e+10  -1.769064e+11   1.474308e+05   2.448599e-26   0.000000e+00   0.000000e+00
     4112000   4.111999e-06   3.655080e+01   1.473550e+01   1.484853e-01   2.224695e+04  -1.454128e+05  -9.799612e+03   1.483878e+10   1.417100e+10  -1.765947e+11   1.474308e+05   2.447870e-26   0.000000e+00   0.000000e+00
     4120000   4.119999e-06   3.655098e+01   1.473433e+01   1.484013e-01   2.237259e+04  -1.452916e+05  -1.121099e+04   1.657074e+10   1.615074e+10  -1.762437e+11   1.474308e+05   2.447142e-26   0.000000e+00   0.000000e+00
     4128000   4.127999e-06   3.655116e+01   1.473317e+01   1.483060e-01   2.251207e+04  -1.451544e+05  -1.261941e+04   1.829850e+10   1.812603e+10  -1.758536e+11   1.474308e+05   2.446415e-26   0.000000e+00   0.000000e+00
     4136000   4.135999e-06   3.655134e+01   1.473201e+01   1.481994e-01   2.266536e+04  -1.450015e+05  -1.402454e+04   2.002166e+10   2.009644e+10  -1.754245e+11   1.474308e+05   2.445688e-26   0.000000e+00   0.000000e+00
     4144000   4.143999e-06   3.655152e+01   1.473085e+01   1.480816e-01   2.283241e+04  -1.448329e+05  -1.542609e+04   2.173984e+10   2.206154e+10  -1.749565e+11   1.474308e+05   2.444962e-26   0.000000e+00   0.000000e+00
     4152000   4.151999e-06   3.655171e+01   1.472969e+01   1.479526e-01   2.301318e+04  -1.446486e+05  -1.682375e+04   2.345268e+10   2.402089e+10  -1.744498e+11   1.474308e+05   2.444236e-26   0.000000e+00   0.000000e+00
     4160000   4.159999e-06   3.655189e+01   1.472854e+01   1.478124e-01   2.320764e+04  -1.444486e+05  -1.821719e+04   2.515978e+10   2.597406e+10  -1.739044e+11   1.474308e+05   2.443512e-26   0.000000e+00   0.000000e+00
     4168000   4.167999e-06   3.655208e+01   1.472738e+01   1.476611e-01   2.341572e+04  -1.442330e+05  -1.960611e+04   2.686076e+10   2.792061e+10  -1.733205e+11   1.474309e+05   2.442788e-26   0.000000e+00   0.000000e+00
     4176000   4.175999e-06   3.655227e+01   1.472623e+01   1.474987e-01   2.363739e+04  -1.440019e+05  -2.099021e+04   2.855526e+10   2.986012e+10  -1.726983e+11   1.474309e+05   2.442065e-26   0.000000e+00   0.000000e+00
     4184000   4.183999e-06   3.655246e+01   1.472508e+01   1.473253e-01   2.387259e+04  -1.437553e+05  -2.236918e+04   3.024290e+10   3.179216e+10  -1.720378e+11   1.474309e+05   2.441343e-26   0.000000e+00   0.000000e+00
     4192000   4.191999e-06   3.655265e+01   1.472393e+01   1.471408e-01   2.412126e+04  -1.434932e+05  -2.374272e+04   3.192330e+10   3.371631e+10  -1.713394e+11   1.474309e+05   2.440621e-26   0.000000e+00   0.000000e+00
     4200000   4.199999e-06   3.655284e+01   1.472278e+01   1.469454e-01   2.438335e+04  -1.432158e+05  -2.511051e+04   3.359610e+10   3.563214e+10  -1.706031e+11   1.474309e+05   2.439901e-26   0.000000e+00   0.000000e+00
     4208000   4.207999e-06   3.655304e+01   1.472164e+01   1.467391e-01   2.465878e+04  -1.429231e+05  -2.647226e+04   3.526093e+10   3.753922e+10  -1.698292e+11   1.474309e+05   2.439181e-26   0.000000e+00   0.000000e+00
     4216000   4.215999e-06   3.655324e+01   1.472050e+01   1.465219e-01   2.494750e+04  -1.426152e+05  -2.782768e+04   3.691741e+10   3.943716e+10  -1.690178e+11   1.474309e+05   2.438463e-26   0.000000e+00   0.000000e+00
     4224000   4.223999e-06   3.655344e+01   1.471936e+01   1.462939e-01   2.524944e+04  -1.422922e+05  -2.917645e+04   3.856519e+10   4.132552e+10  -1.681692e+11   1.474309e+05   2.437745e-26   0.000000e+00   0.000000e+00
     4232000   4.231999e-06   3.655364e+01   1.471822e+01   1.460551e-01   2.556452e+04  -1.419540e+05  -3.051828e+04   4.020391e+10   4.320389e+10  -1.672835e+11   1.474309e+05   2.437029e-26   0.000000e+00   0.000000e+00
     4240000   4.239999e-06   3.655385e+01   1.471709e+01   1.458056e-01   2.589268e+04  -1.416009e+05  -3.185289e+04   4.183319e+10   4.507187e+10  -1.663609e+11   1.474309e+05   2.436313e-26   0.000000e+00   0.000000e+00
     4248000   4.247999e-06   3.655406e+01   1.471595e+01   1.455455e-01   2.623383e+04  -1.412329e+05  -3.317996e+04   4.345269e+10   4.692903e+10  -1.654018e+11   1.474309e+05   2.435599e-26   0.000000e+00   0.000000e+00
     4256000   4.255999e-06   3.655427e+01   1.471483e+01   1.452747e-01   2.658789e+04  -1.408501e+05  -3.449922e+04   4.506205e+10   4.877499e+10  -1.644063e+11   1.474309e+05   2.434886e-26   0.000000e+00   0.000000e+00
     4264000   4.263999e-06   3.655448e+01   1.471370e+01   1.449935e-01   2.695479e+04  -1.404525e+05  -3.581036e+04   4.666091e+10   5.060933e+10  -1.633746e+11   1.474309e+05   2.434173e-26   0.000000e+00   0.000000e+00
     4272000   4.271999e-06   3.655470e+01   1.471258e+01   1.447018e-01   2.733444e+04  -1.400404e+05  -3.711311e+04   4.824893e+10   5.243166e+10  -1.623071e+11   1.474309e+05   2.433462e-26   0.000000e+00   0.000000e+00
     4280000   4.279999e-06   3.655492e+01   1.471146e+01   1.443997e-01   2.772675e+04  -1.396137e+05  -3.840718e+04   4.982576e+10   5.424157e+10  -1.612040e+11   1.474309e+05   2.432752e-26   0.000000e+00   0.000000e+00
     4288000   4.287999e-06   3.655514e+01   1.471034e+01   1.440873e-01   2.813162e+04  -1.391725e+05  -3.969228e+04   5.139105e+10   5.603868e+10  -1.600654e+11   1.474309e+05   2.432044e-26   0.000000e+00   0.000000e+00
