     timestep     time              x             y              z              vx             vy             vz             ax             ay             az         v_magnitude      ELoss        Electronic      Nuclear
           0   0.000000e+00   2.545289e+01   2.823490e+01   1.000000e-01  -4.033004e+03   1.647463e+04   1.464515e+05   0.000000e+00   0.000000e+00   0.000000e+00   1.474304e+05   0.000000e+00   0.000000e+00   0.000000e+00
        8000   7.999000e-09   2.545287e+01   2.823503e+01   1.011719e-01  -1.977929e+03   1.614255e+04   1.465306e+05   2.569350e+11  -4.171433e+10   8.064135e+09   1.474304e+05   5.252537e-26   0.000000e+00   0.000000e+00
       16000   1.599900e-08   2.545286e+01   2.823516e+01   1.023444e-01   7.781697e+01   1.580721e+04   1.465805e+05   2.569927e+11  -4.212093e+10   4.406342e+09   1.474304e+05   5.253939e-26   0.000000e+00   0.000000e+00
       24000   2.399900e-08   2.545287e+01   2.823529e+01   1.035172e-01   2.133815e+03   1.546862e+04   1.466011e+05   2.569981e+11  -4.252504e+10   7.468247e+08   1.474304e+05   5.255343e-26   0.000000e+00   0.000000e+00
       32000   3.199900e-08   2.545290e+01   2.823541e+01   1.046900e-01   4.189646e+03   1.512681e+04   1.465924e+05   2.569512e+11  -4.292655e+10  -2.913689e+09   1.474304e+05   5.256747e-26   0.000000e+00   0.000000e+00
       40000   3.999900e-08   2.545294e+01   2.823553e+01   1.058626e-01   6.244894e+03   1.478180e+04   1.465545e+05   2.568519e+11  -4.332538e+10  -6.574468e+09   1.474304e+05   5.258152e-26   0.000000e+00   0.000000e+00
       48000   4.799900e-08   2.545300e+01   2.823565e+01   1.070347e-01   8.299137e+03   1.443362e+04   1.464872e+05   2.567003e+11  -4.372144e+10  -1.023478e+10   1.474304e+05   5.259558e-26   0.000000e+00   0.000000e+00
       56000   5.599900e-08   2.545307e+01   2.823576e+01   1.082063e-01   1.035196e+04   1.408227e+04   1.463907e+05   2.564964e+11  -4.411464e+10  -1.389390e+10   1.474304e+05   5.260964e-26   0.000000e+00   0.000000e+00
       64000   6.399900e-08   2.545316e+01   2.823587e+01   1.093769e-01   1.240294e+04   1.372779e+04   1.462649e+05   2.562400e+11  -4.450487e+10  -1.755108e+10   1.474304e+05   5.262370e-26   0.000000e+00   0.000000e+00
       72000   7.199900e-08   2.545327e+01   2.823598e+01   1.105464e-01   1.445166e+04   1.337020e+04   1.461099e+05   2.559313e+11  -4.489203e+10  -2.120561e+10   1.474304e+05   5.263776e-26   0.000000e+00   0.000000e+00
       80000   7.999900e-08   2.545339e+01   2.823608e+01   1.117146e-01   1.649770e+04   1.300952e+04   1.459257e+05   2.555703e+11  -4.527602e+10  -2.485673e+10   1.474304e+05   5.265181e-26   0.000000e+00   0.000000e+00
       88000   8.799900e-08   2.545353e+01   2.823619e+01   1.128812e-01   1.854064e+04   1.264579e+04   1.457122e+05   2.551570e+11  -4.565673e+10  -2.850373e+10   1.474304e+05   5.266586e-26   0.000000e+00   0.000000e+00
       96000   9.599900e-08   2.545369e+01   2.823629e+01   1.140459e-01   2.058007e+04   1.227903e+04   1.454696e+05   2.546914e+11  -4.603404e+10  -3.214587e+10   1.474304e+05   5.267989e-26   0.000000e+00   0.000000e+00
      104000   1.039990e-07   2.545386e+01   2.823638e+01   1.152086e-01   2.261557e+04   1.190926e+04   1.451979e+05   2.541737e+11  -4.640783e+10  -3.578242e+10   1.474304e+05   5.269392e-26   0.000000e+00   0.000000e+00
      112000   1.119990e-07   2.545405e+01   2.823648e+01   1.163690e-01   2.464671e+04   1.153651e+04   1.448971e+05   2.536038e+11  -4.677799e+10  -3.941264e+10   1.474304e+05   5.270793e-26   0.000000e+00   0.000000e+00
      120000   1.199990e-07   2.545426e+01   2.823657e+01   1.175269e-01   2.667309e+04   1.116082e+04   1.445673e+05   2.529818e+11  -4.714438e+10  -4.303580e+10   1.474304e+05   5.272192e-26   0.000000e+00   0.000000e+00
      128000   1.279990e-07   2.545448e+01   2.823666e+01   1.186820e-01   2.869428e+04   1.078221e+04   1.442085e+05   2.523079e+11  -4.750689e+10  -4.665117e+10   1.474304e+05   5.273589e-26   0.000000e+00   0.000000e+00
      136000   1.359990e-07   2.545472e+01   2.823674e+01   1.198341e-01   3.070988e+04   1.040072e+04   1.438209e+05   2.515821e+11  -4.786538e+10  -5.025802e+10   1.474304e+05   5.274985e-26   0.000000e+00   0.000000e+00
      144000   1.439990e-07   2.545497e+01   2.823682e+01   1.209831e-01   3.271946e+04   1.001637e+04   1.434044e+05   2.508046e+11  -4.821971e+10  -5.385563e+10   1.474304e+05   5.276378e-26   0.000000e+00   0.000000e+00
      152000   1.519990e-07   2.545524e+01   2.823690e+01   1.221285e-01   3.472261e+04   9.629213e+03   1.429592e+05   2.499755e+11  -4.856976e+10  -5.744326e+10   1.474304e+05   5.277769e-26   0.000000e+00   0.000000e+00
      160000   1.599990e-07   2.545553e+01   2.823698e+01   1.232703e-01   3.671893e+04   9.239269e+03   1.424854e+05   2.490948e+11  -4.891537e+10  -6.102019e+10   1.474304e+05   5.279158e-26   0.000000e+00   0.000000e+00
      168000   1.679990e-07   2.545583e+01   2.823705e+01   1.244082e-01   3.870799e+04   8.846579e+03   1.419829e+05   2.481628e+11  -4.925640e+10  -6.458569e+10   1.474304e+05   5.280543e-26   0.000000e+00   0.000000e+00
      176000   1.759990e-07   2.545614e+01   2.823712e+01   1.255420e-01   4.068940e+04   8.451179e+03   1.414520e+05   2.471797e+11  -4.959272e+10  -6.813904e+10   1.474304e+05   5.281926e-26   0.000000e+00   0.000000e+00
      184000   1.839990e-07   2.545648e+01   2.823718e+01   1.266714e-01   4.266273e+04   8.053108e+03   1.408927e+05   2.461455e+11  -4.992416e+10  -7.167952e+10   1.474304e+05   5.283305e-26   0.000000e+00   0.000000e+00
      192000   1.919990e-07   2.545683e+01   2.823725e+01   1.277962e-01   4.462759e+04   7.652406e+03   1.403052e+05   2.450604e+11  -5.025057e+10  -7.520640e+10   1.474304e+05   5.284682e-26   0.000000e+00   0.000000e+00
      200000   1.999990e-07   2.545719e+01   2.823731e+01   1.289162e-01   4.658356e+04   7.249112e+03   1.396895e+05   2.439247e+11  -5.057181e+10  -7.871898e+10   1.474304e+05   5.286055e-26   0.000000e+00   0.000000e+00
      208000   2.079990e-07   2.545757e+01   2.823736e+01   1.300312e-01   4.853025e+04   6.843271e+03   1.390457e+05   2.427386e+11  -5.088771e+10  -8.221653e+10   1.474304e+05   5.287424e-26   0.000000e+00   0.000000e+00
      216000   2.159990e-07   2.545797e+01   2.823742e+01   1.311408e-01   5.046724e+04   6.434923e+03   1.383741e+05   2.415022e+11  -5.119812e+10  -8.569833e+10   1.474304e+05   5.288789e-26   0.000000e+00   0.000000e+00
      224000   2.239990e-07   2.545838e+01   2.823747e+01   1.322451e-01   5.239415e+04   6.024115e+03   1.376746e+05   2.402158e+11  -5.150287e+10  -8.916369e+10   1.474304e+05   5.290151e-26   0.000000e+00   0.000000e+00
      232000   2.319990e-07   2.545881e+01   2.823751e+01   1.333436e-01   5.431056e+04   5.610893e+03   1.369475e+05   2.388796e+11  -5.180179e+10  -9.261189e+10   1.474304e+05   5.291508e-26   0.000000e+00   0.000000e+00
      240000   2.399990e-07   2.545925e+01   2.823756e+01   1.344361e-01   5.621609e+04   5.195302e+03   1.361928e+05   2.374939e+11  -5.209472e+10  -9.604222e+10   1.474304e+05   5.292861e-26   0.000000e+00   0.000000e+00
      248000   2.479990e-07   2.545971e+01   2.823760e+01   1.355226e-01   5.811033e+04   4.777393e+03   1.354108e+05   2.360590e+11  -5.238150e+10  -9.945399e+10   1.474304e+05   5.294210e-26   0.000000e+00   0.000000e+00
      256000   2.559990e-07   2.546018e+01   2.823763e+01   1.366026e-01   5.999290e+04   4.357215e+03   1.346016e+05   2.345750e+11  -5.266195e+10  -1.028465e+11   1.474304e+05   5.295554e-26   0.000000e+00   0.000000e+00
      264000   2.639990e-07   2.546067e+01   2.823767e+01   1.376761e-01   6.186340e+04   3.934819e+03   1.337654e+05   2.330423e+11  -5.293589e+10  -1.062190e+11   1.474304e+05   5.296893e-26   0.000000e+00   0.000000e+00
      272000   2.719990e-07   2.546117e+01   2.823769e+01   1.387428e-01   6.372144e+04   3.510258e+03   1.329022e+05   2.314611e+11  -5.320317e+10  -1.095709e+11   1.474304e+05   5.298228e-26   0.000000e+00   0.000000e+00
      280000   2.799990e-07   2.546169e+01   2.823772e+01   1.398025e-01   6.556665e+04   3.083586e+03   1.320123e+05   2.298319e+11  -5.346359e+10  -1.129015e+11   1.474304e+05   5.299557e-26   0.000000e+00   0.000000e+00
      288000   2.879990e-07   2.546222e+01   2.823774e+01   1.408549e-01   6.739862e+04   2.654859e+03   1.310958e+05   2.281548e+11  -5.371698e+10  -1.162100e+11   1.474304e+05   5.300881e-26   0.000000e+00   0.000000e+00
      296000   2.959990e-07   2.546276e+01   2.823776e+01   1.419000e-01   6.921700e+04   2.224134e+03   1.301530e+05   2.264302e+11  -5.396317e+10  -1.194958e+11   1.474304e+05   5.302200e-26   0.000000e+00   0.000000e+00
      304000   3.039990e-07   2.546332e+01   2.823778e+01   1.429373e-01   7.102138e+04   1.791468e+03   1.291839e+05   2.246585e+11  -5.420198e+10  -1.227582e+11   1.474304e+05   5.303514e-26   0.000000e+00   0.000000e+00
      312000   3.119990e-07   2.546390e+01   2.823779e+01   1.439668e-01   7.281140e+04   1.356922e+03   1.281889e+05   2.228399e+11  -5.443323e+10  -1.259966e+11   1.474304e+05   5.304821e-26   0.000000e+00   0.000000e+00
      320000   3.199990e-07   2.546449e+01   2.823780e+01   1.449883e-01   7.458669e+04   9.205567e+02   1.271681e+05   2.209749e+11  -5.465672e+10  -1.292102e+11   1.474304e+05   5.306123e-26   0.000000e+00   0.000000e+00
      328000   3.279990e-07   2.546509e+01   2.823781e+01   1.460015e-01   7.634688e+04   4.824352e+02   1.261216e+05   2.190638e+11  -5.487230e+10  -1.323984e+11   1.474304e+05   5.307418e-26   0.000000e+00   0.000000e+00
      336000   3.359990e-07   2.546571e+01   2.823781e+01   1.470062e-01   7.809159e+04   4.262139e+01   1.250497e+05   2.171070e+11  -5.507976e+10  -1.355606e+11   1.474304e+05   5.308708e-26   0.000000e+00   0.000000e+00
      344000   3.439990e-07   2.546634e+01   2.823781e+01   1.480022e-01   7.982047e+04  -3.988191e+02   1.239527e+05   2.151049e+11  -5.527894e+10  -1.386961e+11   1.474305e+05   5.309991e-26   0.000000e+00   0.000000e+00
      352000   3.519990e-07   2.546699e+01   2.823780e+01   1.489893e-01   8.153315e+04  -8.418192e+02   1.228307e+05   2.130579e+11  -5.546964e+10  -1.418042e+11   1.474305e+05   5.311267e-26   0.000000e+00   0.000000e+00
      360000   3.599990e-07   2.546765e+01   2.823779e+01   1.499674e-01   8.322927e+04  -1.286310e+03   1.216839e+05   2.109663e+11  -5.565169e+10  -1.448843e+11   1.474305e+05   5.312536e-26   0.000000e+00   0.000000e+00
      368000   3.679990e-07   2.546832e+01   2.823778e+01   1.509362e-01   8.490849e+04  -1.732223e+03   1.205126e+05   2.088306e+11  -5.582490e+10  -1.479358e+11   1.474305e+05   5.313799e-26   0.000000e+00   0.000000e+00
      376000   3.759990e-07   2.546901e+01   2.823777e+01   1.518955e-01   8.657045e+04  -2.179485e+03   1.193170e+05   2.066513e+11  -5.598909e+10  -1.509580e+11   1.474305e+05   5.315054e-26   0.000000e+00   0.000000e+00
      384000   3.839990e-07   2.546971e+01   2.823775e+01   1.528452e-01   8.821479e+04  -2.628024e+03   1.180973e+05   2.044288e+11  -5.614408e+10  -1.539503e+11   1.474305e+05   5.316302e-26   0.000000e+00   0.000000e+00
      392000   3.919990e-07   2.547042e+01   2.823772e+01   1.537850e-01   8.984119e+04  -3.077765e+03   1.168539e+05   2.021634e+11  -5.628969e+10  -1.569121e+11   1.474305e+05   5.317542e-26   0.000000e+00   0.000000e+00
      400000   3.999990e-07   2.547114e+01   2.823770e+01   1.547148e-01   9.144929e+04  -3.528634e+03   1.155868e+05   1.998558e+11  -5.642573e+10  -1.598427e+11   1.474305e+05   5.318775e-26   0.000000e+00   0.000000e+00
      408000   4.079990e-07   2.547188e+01   2.823767e+01   1.556344e-01   9.303877e+04  -3.980551e+03   1.142965e+05   1.975063e+11  -5.655203e+10  -1.627416e+11   1.474305e+05   5.319999e-26   0.000000e+00   0.000000e+00
      416000   4.159990e-07   2.547263e+01   2.823763e+01   1.565435e-01   9.460928e+04  -4.433440e+03   1.129831e+05   1.951155e+11  -5.666841e+10  -1.656081e+11   1.474305e+05   5.321215e-26   0.000000e+00   0.000000e+00
      424000   4.239990e-07   2.547339e+01   2.823760e+01   1.574420e-01   9.616051e+04  -4.887219e+03   1.116468e+05   1.926838e+11  -5.677468e+10  -1.684416e+11   1.474305e+05   5.322422e-26   0.000000e+00   0.000000e+00
      432000   4.319990e-07   2.547417e+01   2.823756e+01   1.583298e-01   9.769211e+04  -5.341807e+03   1.102881e+05   1.902117e+11  -5.687069e+10  -1.712416e+11   1.474305e+05   5.323621e-26   0.000000e+00   0.000000e+00
      440000   4.399990e-07   2.547496e+01   2.823751e+01   1.592066e-01   9.920378e+04  -5.797122e+03   1.089071e+05   1.876998e+11  -5.695624e+10  -1.740075e+11   1.474305e+05   5.324811e-26   0.000000e+00   0.000000e+00
      448000   4.479990e-07   2.547576e+01   2.823746e+01   1.600722e-01   1.006952e+05  -6.253079e+03   1.075040e+05   1.851485e+11  -5.703117e+10  -1.767386e+11   1.474305e+05   5.325991e-26   0.000000e+00   0.000000e+00
      456000   4.559990e-07   2.547657e+01   2.823741e+01   1.609266e-01   1.021661e+05  -6.709592e+03   1.060793e+05   1.825584e+11  -5.709531e+10  -1.794345e+11   1.474305e+05   5.327162e-26   0.000000e+00   0.000000e+00
      464000   4.639990e-07   2.547739e+01   2.823736e+01   1.617695e-01   1.036160e+05  -7.166575e+03   1.046332e+05   1.799300e+11  -5.714848e+10  -1.820945e+11   1.474305e+05   5.328323e-26   0.000000e+00   0.000000e+00
      472000   4.719990e-07   2.547823e+01   2.823730e+01   1.626007e-01   1.050448e+05  -7.623938e+03   1.031659e+05   1.772639e+11  -5.719053e+10  -1.847181e+11   1.474305e+05   5.329474e-26   0.000000e+00   0.000000e+00
      480000   4.799990e-07   2.547907e+01   2.823723e+01   1.634201e-01   1.064522e+05  -8.081593e+03   1.016778e+05   1.745607e+11  -5.722128e+10  -1.873047e+11   1.474305e+05   5.330615e-26   0.000000e+00   0.000000e+00
      488000   4.879990e-07   2.547993e+01   2.823717e+01   1.642275e-01   1.078377e+05  -8.539448e+03   1.001691e+05   1.718208e+11  -5.724057e+10  -1.898538e+11   1.474305e+05   5.331745e-26   0.000000e+00   0.000000e+00
      496000   4.959990e-07   2.548080e+01   2.823710e+01   1.650227e-01   1.092012e+05  -8.997411e+03   9.864023e+04   1.690449e+11  -5.724825e+10  -1.923649e+11   1.474305e+05   5.332864e-26   0.000000e+00   0.000000e+00
      504000   5.039990e-07   2.548168e+01   2.823702e+01   1.658056e-01   1.105423e+05  -9.455389e+03   9.709140e+04   1.662335e+11  -5.724416e+10  -1.948374e+11   1.474305e+05   5.333972e-26   0.000000e+00   0.000000e+00
      512000   5.119990e-07   2.548257e+01   2.823695e+01   1.665761e-01   1.118608e+05  -9.913286e+03   9.552294e+04   1.633873e+11  -5.722814e+10  -1.972708e+11   1.474305e+05   5.335068e-26   0.000000e+00   0.000000e+00
      520000   5.199990e-07   2.548347e+01   2.823687e+01   1.673340e-01   1.131564e+05  -1.037101e+04   9.393517e+04   1.605068e+11  -5.720005e+10  -1.996646e+11   1.474305e+05   5.336152e-26   0.000000e+00   0.000000e+00
      528000   5.279990e-07   2.548438e+01   2.823678e+01   1.680790e-01   1.144288e+05  -1.082845e+04   9.232841e+04   1.575927e+11  -5.715974e+10  -2.020183e+11   1.474305e+05   5.337224e-26   0.000000e+00   0.000000e+00
      536000   5.359990e-07   2.548530e+01   2.823669e+01   1.688112e-01   1.156778e+05  -1.128553e+04   9.070298e+04   1.546455e+11  -5.710706e+10  -2.043314e+11   1.474305e+05   5.338284e-26   0.000000e+00   0.000000e+00
      544000   5.439990e-07   2.548623e+01   2.823660e+01   1.695302e-01   1.169031e+05  -1.174213e+04   8.905921e+04   1.516659e+11  -5.704187e+10  -2.066034e+11   1.474305e+05   5.339330e-26   0.000000e+00   0.000000e+00
      552000   5.519990e-07   2.548717e+01   2.823650e+01   1.702361e-01   1.181044e+05  -1.219817e+04   8.739743e+04   1.486545e+11  -5.696405e+10  -2.088338e+11   1.474305e+05   5.340364e-26   0.000000e+00   0.000000e+00
      560000   5.599990e-07   2.548812e+01   2.823640e+01   1.709285e-01   1.192815e+05  -1.265352e+04   8.571798e+04   1.456120e+11  -5.687345e+10  -2.110222e+11   1.474305e+05   5.341384e-26   0.000000e+00   0.000000e+00
      568000   5.679990e-07   2.548908e+01   2.823630e+01   1.716075e-01   1.204341e+05  -1.310811e+04   8.402119e+04   1.425390e+11  -5.676994e+10  -2.131680e+11   1.474305e+05   5.342390e-26   0.000000e+00   0.000000e+00
      576000   5.759990e-07   2.549004e+01   2.823619e+01   1.722728e-01   1.215620e+05  -1.356181e+04   8.230740e+04   1.394361e+11  -5.665341e+10  -2.152709e+11   1.474305e+05   5.343382e-26   0.000000e+00   0.000000e+00
      584000   5.839990e-07   2.549102e+01   2.823608e+01   1.729244e-01   1.226650e+05  -1.401453e+04   8.057697e+04   1.363041e+11  -5.652373e+10  -2.173303e+11   1.474305e+05   5.344360e-26   0.000000e+00   0.000000e+00
      592000   5.919990e-07   2.549201e+01   2.823597e+01   1.735620e-01   1.237428e+05  -1.446615e+04   7.883023e+04   1.331435e+11  -5.638080e+10  -2.193460e+11   1.474305e+05   5.345322e-26   0.000000e+00   0.000000e+00
      600000   5.999990e-07   2.549300e+01   2.823585e+01   1.741856e-01   1.247952e+05  -1.491658e+04   7.706755e+04   1.299551e+11  -5.622449e+10  -2.213173e+11   1.474305e+05   5.346269e-26   0.000000e+00   0.000000e+00
      608000   6.079990e-07   2.549400e+01   2.823573e+01   1.747951e-01   1.258220e+05  -1.536571e+04   7.528927e+04   1.267395e+11  -5.605470e+10  -2.232439e+11   1.474305e+05   5.347201e-26   0.000000e+00   0.000000e+00
      616000   6.159990e-07   2.549501e+01   2.823561e+01   1.753902e-01   1.268230e+05  -1.581342e+04   7.349577e+04   1.234975e+11  -5.587134e+10  -2.251255e+11   1.474305e+05   5.348117e-26   0.000000e+00   0.000000e+00
      624000   6.239990e-07   2.549603e+01   2.823548e+01   1.759710e-01   1.277979e+05  -1.625961e+04   7.168739e+04   1.202297e+11  -5.567430e+10  -2.269615e+11   1.474305e+05   5.349016e-26   0.000000e+00   0.000000e+00
      632000   6.319990e-07   2.549706e+01   2.823535e+01   1.765372e-01   1.287466e+05  -1.670417e+04   6.986450e+04   1.169368e+11  -5.546349e+10  -2.287516e+11   1.474305e+05   5.349898e-26   0.000000e+00   0.000000e+00
      640000   6.399990e-07   2.549809e+01   2.823521e+01   1.770887e-01   1.296688e+05  -1.714699e+04   6.802748e+04   1.136196e+11  -5.523884e+10  -2.304954e+11   1.474305e+05   5.350764e-26   0.000000e+00   0.000000e+00
      648000   6.479990e-07   2.549913e+01   2.823507e+01   1.776256e-01   1.305644e+05  -1.758796e+04   6.617670e+04   1.102787e+11  -5.500026e+10  -2.321926e+11   1.474305e+05   5.351612e-26   0.000000e+00   0.000000e+00
      656000   6.559990e-07   2.550018e+01   2.823493e+01   1.781475e-01   1.314330e+05  -1.802689e+04   6.431302e+04   1.067453e+11  -5.469551e+10  -2.334795e+11   1.474305e+05   5.336047e-26   0.000000e+00   0.000000e+00
      664000   6.639990e-07   2.550124e+01   2.823478e+01   1.786546e-01   1.322734e+05  -1.846340e+04   6.243878e+04   1.033676e+11  -5.442995e+10  -2.350731e+11   1.474305e+05   5.336666e-26   0.000000e+00   0.000000e+00
      672000   6.719990e-07   2.550230e+01   2.823463e+01   1.791465e-01   1.330868e+05  -1.889773e+04   6.055198e+04   9.996868e+10  -5.415036e+10  -2.366192e+11   1.474305e+05   5.337269e-26   0.000000e+00   0.000000e+00
      680000   6.799990e-07   2.550337e+01   2.823448e+01   1.796234e-01   1.338729e+05  -1.932977e+04   5.865300e+04   9.654930e+10  -5.385666e+10  -2.381174e+11   1.474305e+05   5.337856e-26   0.000000e+00   0.000000e+00
      688000   6.879990e-07   2.550444e+01   2.823433e+01   1.800849e-01   1.346315e+05  -1.975940e+04   5.674223e+04   9.311020e+10  -5.354881e+10  -2.395675e+11   1.474305e+05   5.338425e-26   0.000000e+00   0.000000e+00
      696000   6.959990e-07   2.550552e+01   2.823417e+01   1.805312e-01   1.353626e+05  -2.018651e+04   5.482005e+04   8.965211e+10  -5.322676e+10  -2.409690e+11   1.474305e+05   5.338976e-26   0.000000e+00   0.000000e+00
      704000   7.039990e-07   2.550660e+01   2.823400e+01   1.809620e-01   1.360659e+05  -2.061099e+04   5.288685e+04   8.617578e+10  -5.289048e+10  -2.423219e+11   1.474305e+05   5.339510e-26   0.000000e+00   0.000000e+00
      712000   7.119990e-07   2.550770e+01   2.823384e+01   1.813774e-01   1.367413e+05  -2.103272e+04   5.094303e+04   8.268195e+10  -5.253993e+10  -2.436257e+11   1.474305e+05   5.340026e-26   0.000000e+00   0.000000e+00
      720000   7.199990e-07   2.550879e+01   2.823367e+01   1.817771e-01   1.373888e+05  -2.145159e+04   4.898897e+04   7.917137e+10  -5.217509e+10  -2.448802e+11   1.474305e+05   5.340523e-26   0.000000e+00   0.000000e+00
      728000   7.279990e-07   2.550989e+01   2.823349e+01   1.821612e-01   1.380080e+05  -2.186748e+04   4.702508e+04   7.564480e+10  -5.179594e+10  -2.460851e+11   1.474305e+05   5.341002e-26   0.000000e+00   0.000000e+00
      736000   7.359990e-07   2.551100e+01   2.823332e+01   1.825295e-01   1.385990e+05  -2.228028e+04   4.505174e+04   7.210300e+10  -5.140246e+10  -2.472401e+11   1.474305e+05   5.341461e-26   0.000000e+00   0.000000e+00
      744000   7.439990e-07   2.551211e+01   2.823314e+01   1.828820e-01   1.391616e+05  -2.268988e+04   4.306937e+04   6.854672e+10  -5.099466e+10  -2.483452e+11   1.474305e+05   5.341901e-26   0.000000e+00   0.000000e+00
      752000   7.519990e-07   2.551323e+01   2.823295e+01   1.832186e-01   1.396957e+05  -2.309616e+04   4.107835e+04   6.497674e+10  -5.057252e+10  -2.493999e+11   1.474305e+05   5.342322e-26   0.000000e+00   0.000000e+00
      760000   7.599990e-07   2.551435e+01   2.823277e+01   1.835392e-01   1.402012e+05  -2.349900e+04   3.907910e+04   6.139381e+10  -5.013605e+10  -2.504041e+11   1.474305e+05   5.342723e-26   0.000000e+00   0.000000e+00
      768000   7.679990e-07   2.551547e+01   2.823258e+01   1.838438e-01   1.406780e+05  -2.389830e+04   3.707202e+04   5.779872e+10  -4.968528e+10  -2.513576e+11   1.474305e+05   5.343104e-26   0.000000e+00   0.000000e+00
      776000   7.759990e-07   2.551660e+01   2.823238e+01   1.841323e-01   1.411260e+05  -2.429393e+04   3.505751e+04   5.419222e+10  -4.922022e+10  -2.522601e+11   1.474306e+05   5.343465e-26   0.000000e+00   0.000000e+00
      784000   7.839990e-07   2.551773e+01   2.823219e+01   1.844047e-01   1.415451e+05  -2.468578e+04   3.303599e+04   5.057510e+10  -4.874089e+10  -2.531116e+11   1.474306e+05   5.343804e-26   0.000000e+00   0.000000e+00
      792000   7.919990e-07   2.551886e+01   2.823199e+01   1.846609e-01   1.419352e+05  -2.507374e+04   3.100786e+04   4.694812e+10  -4.824733e+10  -2.539118e+11   1.474306e+05   5.344123e-26   0.000000e+00   0.000000e+00
      800000   7.999990e-07   2.552000e+01   2.823179e+01   1.849008e-01   1.422962e+05  -2.545770e+04   2.897354e+04   4.331208e+10  -4.773958e+10  -2.546605e+11   1.474306e+05   5.344421e-26   0.000000e+00   0.000000e+00
      808000   8.079990e-07   2.552114e+01   2.823158e+01   1.851244e-01   1.426281e+05  -2.583754e+04   2.693343e+04   3.966774e+10  -4.721770e+10  -2.553576e+11   1.474306e+05   5.344698e-26   0.000000e+00   0.000000e+00
      816000   8.159990e-07   2.552228e+01   2.823137e+01   1.853317e-01   1.429309e+05  -2.621315e+04   2.488796e+04   3.601590e+10  -4.668172e+10  -2.560029e+11   1.474306e+05   5.344952e-26   0.000000e+00   0.000000e+00
      824000   8.239990e-07   2.552343e+01   2.823116e+01   1.855226e-01   1.432044e+05  -2.658441e+04   2.283753e+04   3.235733e+10  -4.613173e+10  -2.565963e+11   1.474306e+05   5.345185e-26   0.000000e+00   0.000000e+00
      832000   8.319990e-07   2.552457e+01   2.823095e+01   1.856971e-01   1.434486e+05  -2.695122e+04   2.078255e+04   2.869281e+10  -4.556778e+10  -2.571378e+11   1.474306e+05   5.345397e-26   0.000000e+00   0.000000e+00
      840000   8.399990e-07   2.552572e+01   2.823073e+01   1.858551e-01   1.436634e+05  -2.731346e+04   1.872346e+04   2.502313e+10  -4.498995e+10  -2.576271e+11   1.474306e+05   5.345585e-26   0.000000e+00   0.000000e+00
      848000   8.479990e-07   2.552687e+01   2.823051e+01   1.859967e-01   1.438489e+05  -2.767102e+04   1.666066e+04   2.134908e+10  -4.439832e+10  -2.580642e+11   1.474306e+05   5.345752e-26   0.000000e+00   0.000000e+00
      856000   8.559990e-07   2.552802e+01   2.823029e+01   1.861217e-01   1.440050e+05  -2.802379e+04   1.459457e+04   1.767144e+10  -4.379299e+10  -2.584490e+11   1.474306e+05   5.345896e-26   0.000000e+00   0.000000e+00
      864000   8.639990e-07   2.552917e+01   2.823006e+01   1.862302e-01   1.441316e+05  -2.837167e+04   1.252562e+04   1.399099e+10  -4.317405e+10  -2.587814e+11   1.474306e+05   5.346017e-26   0.000000e+00   0.000000e+00
      872000   8.719990e-07   2.553033e+01   2.822983e+01   1.863221e-01   1.442288e+05  -2.871454e+04   1.045421e+04   1.030853e+10  -4.254161e+10  -2.590613e+11   1.474306e+05   5.346116e-26   0.000000e+00   0.000000e+00
      880000   8.799990e-07   2.553148e+01   2.822960e+01   1.863975e-01   1.442966e+05  -2.905230e+04   8.380774e+03   6.624832e+09  -4.189578e+10  -2.592887e+11   1.474306e+05   5.346191e-26   0.000000e+00   0.000000e+00
      888000   8.879990e-07   2.553264e+01   2.822937e+01   1.864562e-01   1.443348e+05  -2.938484e+04   6.305730e+03   2.940685e+09  -4.123668e+10  -2.594636e+11   1.474306e+05   5.346243e-26   0.000000e+00   0.000000e+00
      896000   8.959990e-07   2.553379e+01   2.822913e+01   1.864983e-01   1.443436e+05  -2.971205e+04   4.229497e+03  -7.431272e+08  -4.056443e+10  -2.595858e+11   1.474306e+05   5.346273e-26   0.000000e+00   0.000000e+00
      904000   9.039990e-07   2.553495e+01   2.822889e+01   1.865239e-01   1.443229e+05  -3.003383e+04   2.152497e+03  -4.425821e+09  -3.987916e+10  -2.596555e+11   1.474306e+05   5.346278e-26   0.000000e+00   0.000000e+00
      912000   9.119990e-07   2.553610e+01   2.822865e+01   1.865328e-01   1.442728e+05  -3.035008e+04   7.514941e+01  -8.106614e+09  -3.918102e+10  -2.596725e+11   1.474306e+05   5.346261e-26   0.000000e+00   0.000000e+00
      920000   9.199990e-07   2.553725e+01   2.822841e+01   1.865251e-01   1.441932e+05  -3.066069e+04  -2.002123e+03  -1.178472e+10  -3.847015e+10  -2.596369e+11   1.474306e+05   5.346220e-26   0.000000e+00   0.000000e+00
      928000   9.279990e-07   2.553841e+01   2.822816e+01   1.865008e-01   1.440843e+05  -3.096557e+04  -4.078901e+03  -1.545938e+10  -3.774671e+10  -2.595487e+11   1.474306e+05   5.346155e-26   0.000000e+00   0.000000e+00
      936000   9.359990e-07   2.553956e+01   2.822791e+01   1.864598e-01   1.439459e+05  -3.126461e+04  -6.154762e+03  -1.912979e+10  -3.701086e+10  -2.594078e+11   1.474306e+05   5.346067e-26   0.000000e+00   0.000000e+00
      944000   9.439990e-07   2.554071e+01   2.822766e+01   1.864023e-01   1.437782e+05  -3.155771e+04  -8.229286e+03  -2.279518e+10  -3.626276e+10  -2.592144e+11   1.474306e+05   5.345956e-26   0.000000e+00   0.000000e+00
      952000   9.519990e-07   2.554186e+01   2.822741e+01   1.863282e-01   1.435812e+05  -3.184478e+04  -1.030205e+04  -2.645479e+10  -3.550259e+10  -2.589685e+11   1.474306e+05   5.345820e-26   0.000000e+00   0.000000e+00
      960000   9.599990e-07   2.554301e+01   2.822715e+01   1.862375e-01   1.433549e+05  -3.212572e+04  -1.237264e+04  -3.010784e+10  -3.473053e+10  -2.586701e+11   1.474306e+05   5.345661e-26   0.000000e+00   0.000000e+00
      968000   9.679990e-07   2.554415e+01   2.822689e+01   1.861302e-01   1.430995e+05  -3.240044e+04  -1.444063e+04  -3.375356e+10  -3.394677e+10  -2.583193e+11   1.474306e+05   5.345479e-26   0.000000e+00   0.000000e+00
      976000   9.759990e-07   2.554530e+01   2.822663e+01   1.860064e-01   1.428149e+05  -3.266884e+04  -1.650561e+04  -3.739118e+10  -3.315150e+10  -2.579162e+11   1.474306e+05   5.345272e-26   0.000000e+00   0.000000e+00
      984000   9.839990e-07   2.554644e+01   2.822637e+01   1.858661e-01   1.425012e+05  -3.293083e+04  -1.856715e+04  -4.101994e+10  -3.234492e+10  -2.574609e+11   1.474306e+05   5.345043e-26   0.000000e+00   0.000000e+00
      992000   9.919990e-07   2.554758e+01   2.822611e+01   1.857093e-01   1.421586e+05  -3.318632e+04  -2.062485e+04  -4.463908e+10  -3.152725e+10  -2.569534e+11   1.474306e+05   5.344789e-26   0.000000e+00   0.000000e+00
     1000000   9.999990e-07   2.554871e+01   2.822584e+01   1.855361e-01   1.417870e+05  -3.343523e+04  -2.267827e+04  -4.824784e+10  -3.069869e+10  -2.563939e+11   1.474306e+05   5.344512e-26   0.000000e+00   0.000000e+00
     1008000   1.007999e-06   2.554985e+01   2.822557e+01   1.853465e-01   1.413867e+05  -3.367747e+04  -2.472701e+04  -5.184547e+10  -2.985946e+10  -2.557825e+11   1.474306e+05   5.344212e-26   0.000000e+00   0.000000e+00
     1016000   1.015999e-06   2.555098e+01   2.822530e+01   1.851405e-01   1.409575e+05  -3.391296e+04  -2.677065e+04  -5.543121e+10  -2.900979e+10  -2.551193e+11   1.474306e+05   5.343888e-26   0.000000e+00   0.000000e+00
     1024000   1.023999e-06   2.555210e+01   2.822503e+01   1.849182e-01   1.404998e+05  -3.414160e+04  -2.880878e+04  -5.900433e+10  -2.814992e+10  -2.544044e+11   1.474306e+05   5.343541e-26   0.000000e+00   0.000000e+00
     1032000   1.031999e-06   2.555322e+01   2.822476e+01   1.846796e-01   1.400135e+05  -3.436333e+04  -3.084098e+04  -6.256407e+10  -2.728008e+10  -2.536381e+11   1.474306e+05   5.343171e-26   0.000000e+00   0.000000e+00
     1040000   1.039999e-06   2.555434e+01   2.822448e+01   1.844247e-01   1.394988e+05  -3.457806e+04  -3.286685e+04  -6.610970e+10  -2.640052e+10  -2.528205e+11   1.474306e+05   5.342778e-26   0.000000e+00   0.000000e+00
     1048000   1.047999e-06   2.555546e+01   2.822420e+01   1.841537e-01   1.389558e+05  -3.478571e+04  -3.488597e+04  -6.964048e+10  -2.551148e+10  -2.519517e+11   1.474306e+05   5.342362e-26   0.000000e+00   0.000000e+00
     1056000   1.055999e-06   2.555656e+01   2.822392e+01   1.838666e-01   1.383846e+05  -3.498622e+04  -3.689794e+04  -7.315569e+10  -2.461323e+10  -2.510320e+11   1.474306e+05   5.341923e-26   0.000000e+00   0.000000e+00
     1064000   1.063999e-06   2.555767e+01   2.822364e+01   1.835634e-01   1.377853e+05  -3.517950e+04  -3.890235e+04  -7.665460e+10  -2.370602e+10  -2.500616e+11   1.474306e+05   5.341462e-26   0.000000e+00   0.000000e+00
     1072000   1.071999e-06   2.555877e+01   2.822336e+01   1.832442e-01   1.371582e+05  -3.536549e+04  -4.089879e+04  -8.013648e+10  -2.279012e+10  -2.490405e+11   1.474306e+05   5.340978e-26   0.000000e+00   0.000000e+00
     1080000   1.079999e-06   2.555986e+01   2.822308e+01   1.829090e-01   1.365032e+05  -3.554412e+04  -4.288686e+04  -8.360063e+10  -2.186581e+10  -2.479692e+11   1.474306e+05   5.340472e-26   0.000000e+00   0.000000e+00
     1088000   1.087999e-06   2.556095e+01   2.822279e+01   1.825580e-01   1.358206e+05  -3.571532e+04  -4.486616e+04  -8.704632e+10  -2.093335e+10  -2.468477e+11   1.474306e+05   5.339943e-26   0.000000e+00   0.000000e+00
     1096000   1.095999e-06   2.556204e+01   2.822251e+01   1.821912e-01   1.351105e+05  -3.587903e+04  -4.683629e+04  -9.047287e+10  -1.999304e+10  -2.456764e+11   1.474306e+05   5.339393e-26   0.000000e+00   0.000000e+00
     1104000   1.103999e-06   2.556311e+01   2.822222e+01   1.818087e-01   1.343731e+05  -3.603519e+04  -4.879685e+04  -9.387956e+10  -1.904516e+10  -2.444555e+11   1.474306e+05   5.338820e-26   0.000000e+00   0.000000e+00
     1112000   1.111999e-06   2.556419e+01   2.822193e+01   1.814105e-01   1.336085e+05  -3.618373e+04  -5.074745e+04  -9.726570e+10  -1.809000e+10  -2.431852e+11   1.474306e+05   5.338227e-26   0.000000e+00   0.000000e+00
     1120000   1.119999e-06   2.556525e+01   2.822164e+01   1.809967e-01   1.328169e+05  -3.632461e+04  -5.268768e+04  -1.006306e+11  -1.712786e+10  -2.418658e+11   1.474306e+05   5.337611e-26   0.000000e+00   0.000000e+00
     1128000   1.127999e-06   2.556631e+01   2.822135e+01   1.805675e-01   1.319984e+05  -3.645776e+04  -5.461717e+04  -1.039736e+11  -1.615905e+10  -2.404976e+11   1.474306e+05   5.336975e-26   0.000000e+00   0.000000e+00
     1136000   1.135999e-06   2.556736e+01   2.822106e+01   1.801229e-01   1.311534e+05  -3.658313e+04  -5.653551e+04  -1.072940e+11  -1.518386e+10  -2.390809e+11   1.474306e+05   5.336317e-26   0.000000e+00   0.000000e+00
     1144000   1.143999e-06   2.556841e+01   2.822076e+01   1.796630e-01   1.302818e+05  -3.670068e+04  -5.844233e+04  -1.105911e+11  -1.420260e+10  -2.376160e+11   1.474306e+05   5.335639e-26   0.000000e+00   0.000000e+00
     1152000   1.151999e-06   2.556945e+01   2.822047e+01   1.791878e-01   1.293840e+05  -3.681036e+04  -6.033724e+04  -1.138643e+11  -1.321560e+10  -2.361032e+11   1.474306e+05   5.334940e-26   0.000000e+00   0.000000e+00
     1160000   1.159999e-06   2.557048e+01   2.822017e+01   1.786976e-01   1.284600e+05  -3.691212e+04  -6.221986e+04  -1.171130e+11  -1.222316e+10  -2.345428e+11   1.474306e+05   5.334221e-26   0.000000e+00   0.000000e+00
     1168000   1.167999e-06   2.557150e+01   2.821988e+01   1.781923e-01   1.275102e+05  -3.700591e+04  -6.408980e+04  -1.203363e+11  -1.122561e+10  -2.329351e+11   1.474306e+05   5.333482e-26   0.000000e+00   0.000000e+00
     1176000   1.175999e-06   2.557252e+01   2.821958e+01   1.776722e-01   1.265347e+05  -3.709171e+04  -6.594669e+04  -1.235338e+11  -1.022328e+10  -2.312806e+11   1.474306e+05   5.332724e-26   0.000000e+00   0.000000e+00
     1184000   1.183999e-06   2.557353e+01   2.821928e+01   1.771372e-01   1.255337e+05  -3.716947e+04  -6.779016e+04  -1.267048e+11  -9.216489e+09  -2.295794e+11   1.474306e+05   5.331945e-26   0.000000e+00   0.000000e+00
     1192000   1.191999e-06   2.557453e+01   2.821899e+01   1.765876e-01   1.245075e+05  -3.723916e+04  -6.961984e+04  -1.298487e+11  -8.205573e+09  -2.278321e+11   1.474306e+05   5.331147e-26   0.000000e+00   0.000000e+00
     1200000   1.199999e-06   2.557552e+01   2.821869e+01   1.760234e-01   1.234562e+05  -3.730075e+04  -7.143535e+04  -1.329647e+11  -7.190866e+09  -2.260389e+11   1.474307e+05   5.330331e-26   0.000000e+00   0.000000e+00
     1208000   1.207999e-06   2.557650e+01   2.821839e+01   1.754447e-01   1.223801e+05  -3.735421e+04  -7.323634e+04  -1.360524e+11  -6.172704e+09  -2.242003e+11   1.474307e+05   5.329495e-26   0.000000e+00   0.000000e+00
     1216000   1.215999e-06   2.557748e+01   2.821809e+01   1.748516e-01   1.212795e+05  -3.739951e+04  -7.502243e+04  -1.391111e+11  -5.151429e+09  -2.223166e+11   1.474307e+05   5.328641e-26   0.000000e+00   0.000000e+00
     1224000   1.223999e-06   2.557844e+01   2.821779e+01   1.742443e-01   1.201544e+05  -3.743662e+04  -7.679328e+04  -1.421402e+11  -4.127381e+09  -2.203882e+11   1.474307e+05   5.327769e-26   0.000000e+00   0.000000e+00
     1232000   1.231999e-06   2.557940e+01   2.821749e+01   1.736230e-01   1.190053e+05  -3.746554e+04  -7.854853e+04  -1.451391e+11  -3.100907e+09  -2.184156e+11   1.474307e+05   5.326878e-26   0.000000e+00   0.000000e+00
     1240000   1.239999e-06   2.558035e+01   2.821719e+01   1.729876e-01   1.178323e+05  -3.748623e+04  -8.028781e+04  -1.481073e+11  -2.072353e+09  -2.163991e+11   1.474307e+05   5.325970e-26   0.000000e+00   0.000000e+00
     1248000   1.247999e-06   2.558129e+01   2.821689e+01   1.723384e-01   1.166357e+05  -3.749869e+04  -8.201079e+04  -1.510441e+11  -1.042068e+09  -2.143391e+11   1.474307e+05   5.325044e-26   0.000000e+00   0.000000e+00
     1256000   1.255999e-06   2.558221e+01   2.821659e+01   1.716755e-01   1.154157e+05  -3.750290e+04  -8.371712e+04  -1.539490e+11  -1.040148e+07  -2.122362e+11   1.474307e+05   5.324102e-26   0.000000e+00   0.000000e+00
     1264000   1.263999e-06   2.558313e+01   2.821629e+01   1.709990e-01   1.141726e+05  -3.749885e+04  -8.540646e+04  -1.568214e+11   1.022293e+09  -2.100907e+11   1.474307e+05   5.323142e-26   0.000000e+00   0.000000e+00
     1272000   1.271999e-06   2.558404e+01   2.821599e+01   1.703090e-01   1.129066e+05  -3.748654e+04  -8.707846e+04  -1.596607e+11   2.055663e+09  -2.079031e+11   1.474307e+05   5.322166e-26   0.000000e+00   0.000000e+00
     1280000   1.279999e-06   2.558494e+01   2.821569e+01   1.696058e-01   1.116181e+05  -3.746596e+04  -8.873279e+04  -1.624665e+11   3.089354e+09  -2.056739e+11   1.474307e+05   5.321173e-26   0.000000e+00   0.000000e+00
     1288000   1.287999e-06   2.558583e+01   2.821539e+01   1.688893e-01   1.103072e+05  -3.743711e+04  -9.036913e+04  -1.652382e+11   4.123009e+09  -2.034035e+11   1.474307e+05   5.320164e-26   0.000000e+00   0.000000e+00
     1296000   1.295999e-06   2.558670e+01   2.821509e+01   1.681599e-01   1.089744e+05  -3.739999e+04  -9.198714e+04  -1.679752e+11   5.156274e+09  -2.010923e+11   1.474307e+05   5.319139e-26   0.000000e+00   0.000000e+00
     1304000   1.303999e-06   2.558757e+01   2.821479e+01   1.674176e-01   1.076197e+05  -3.735461e+04  -9.358650e+04  -1.706771e+11   6.188790e+09  -1.987410e+11   1.474307e+05   5.318098e-26   0.000000e+00   0.000000e+00
     1312000   1.311999e-06   2.558843e+01   2.821450e+01   1.666626e-01   1.062436e+05  -3.730097e+04  -9.516688e+04  -1.733433e+11   7.220200e+09  -1.963499e+11   1.474307e+05   5.317043e-26   0.000000e+00   0.000000e+00
     1320000   1.319999e-06   2.558927e+01   2.821420e+01   1.658950e-01   1.048463e+05  -3.723909e+04  -9.672799e+04  -1.759733e+11   8.250148e+09  -1.939196e+11   1.474307e+05   5.315972e-26   0.000000e+00   0.000000e+00
     1328000   1.327999e-06   2.559010e+01   2.821390e+01   1.651150e-01   1.034281e+05  -3.716897e+04  -9.826949e+04  -1.785667e+11   9.278275e+09  -1.914506e+11   1.474307e+05   5.314886e-26   0.000000e+00   0.000000e+00
     1336000   1.335999e-06   2.559093e+01   2.821360e+01   1.643227e-01   1.019894e+05  -3.709064e+04  -9.979109e+04  -1.811229e+11   1.030422e+10  -1.889434e+11   1.474307e+05   5.313785e-26   0.000000e+00   0.000000e+00
     1344000   1.343999e-06   2.559174e+01   2.821331e+01   1.635184e-01   1.005303e+05  -3.700411e+04  -1.012925e+05  -1.836414e+11   1.132764e+10  -1.863984e+11   1.474307e+05   5.312671e-26   0.000000e+00   0.000000e+00
     1352000   1.351999e-06   2.559253e+01   2.821301e+01   1.627021e-01   9.905119e+04  -3.690940e+04  -1.027734e+05  -1.861219e+11   1.234816e+10  -1.838164e+11   1.474307e+05   5.311542e-26   0.000000e+00   0.000000e+00
     1360000   1.359999e-06   2.559332e+01   2.821272e+01   1.618741e-01   9.755242e+04  -3.680655e+04  -1.042334e+05  -1.885638e+11   1.336544e+10  -1.811977e+11   1.474307e+05   5.310399e-26   0.000000e+00   0.000000e+00
     1368000   1.367999e-06   2.559409e+01   2.821242e+01   1.610344e-01   9.603427e+04  -3.669557e+04  -1.056724e+05  -1.909667e+11   1.437911e+10  -1.785429e+11   1.474307e+05   5.309243e-26   0.000000e+00   0.000000e+00
     1376000   1.375999e-06   2.559486e+01   2.821213e+01   1.601834e-01   9.449706e+04  -3.657649e+04  -1.070900e+05  -1.933301e+11   1.538884e+10  -1.758526e+11   1.474307e+05   5.308074e-26   0.000000e+00   0.000000e+00
     1384000   1.383999e-06   2.559561e+01   2.821184e+01   1.593210e-01   9.294109e+04  -3.644936e+04  -1.084860e+05  -1.956537e+11   1.639425e+10  -1.731274e+11   1.474307e+05   5.306891e-26   0.000000e+00   0.000000e+00
     1392000   1.391999e-06   2.559634e+01   2.821155e+01   1.584476e-01   9.136670e+04  -3.631419e+04  -1.098600e+05  -1.979369e+11   1.739501e+10  -1.703678e+11   1.474307e+05   5.305696e-26   0.000000e+00   0.000000e+00
     1400000   1.399999e-06   2.559707e+01   2.821126e+01   1.575633e-01   8.977421e+04  -3.617105e+04  -1.112118e+05  -2.001795e+11   1.839076e+10  -1.675743e+11   1.474307e+05   5.304488e-26   0.000000e+00   0.000000e+00
     1408000   1.407999e-06   2.559778e+01   2.821097e+01   1.566683e-01   8.816394e+04  -3.601996e+04  -1.125411e+05  -2.023809e+11   1.938115e+10  -1.647476e+11   1.474307e+05   5.303267e-26   0.000000e+00   0.000000e+00
     1416000   1.415999e-06   2.559848e+01   2.821068e+01   1.557627e-01   8.653622e+04  -3.586096e+04  -1.138476e+05  -2.045408e+11   2.036585e+10  -1.618883e+11   1.474307e+05   5.302035e-26   0.000000e+00   0.000000e+00
     1424000   1.423999e-06   2.559916e+01   2.821039e+01   1.548468e-01   8.489139e+04  -3.569412e+04  -1.151312e+05  -2.066588e+11   2.134451e+10  -1.589968e+11   1.474307e+05   5.300790e-26   0.000000e+00   0.000000e+00
     1432000   1.431999e-06   2.559984e+01   2.821011e+01   1.539207e-01   8.322979e+04  -3.551947e+04  -1.163915e+05  -2.087345e+11   2.231679e+10  -1.560740e+11   1.474307e+05   5.299534e-26   0.000000e+00   0.000000e+00
     1440000   1.439999e-06   2.560050e+01   2.820983e+01   1.529846e-01   8.155068e+04  -3.533669e+04  -1.176292e+05  -2.109452e+11   2.334426e+10  -1.532588e+11   1.474307e+05   5.307578e-26   0.000000e+00   0.000000e+00
     1448000   1.447999e-06   2.560114e+01   2.820954e+01   1.520387e-01   7.985513e+04  -3.514610e+04  -1.188433e+05  -2.129366e+11   2.430298e+10  -1.502676e+11   1.474307e+05   5.306175e-26   0.000000e+00   0.000000e+00
     1456000   1.455999e-06   2.560177e+01   2.820926e+01   1.510832e-01   7.814381e+04  -3.494786e+04  -1.200334e+05  -2.148844e+11   2.525425e+10  -1.472469e+11   1.474307e+05   5.304760e-26   0.000000e+00   0.000000e+00
     1464000   1.463999e-06   2.560239e+01   2.820898e+01   1.501182e-01   7.641709e+04  -3.474205e+04  -1.211991e+05  -2.167882e+11   2.619775e+10  -1.441970e+11   1.474307e+05   5.303331e-26   0.000000e+00   0.000000e+00
     1472000   1.471999e-06   2.560300e+01   2.820871e+01   1.491441e-01   7.467532e+04  -3.452872e+04  -1.223404e+05  -2.186479e+11   2.713316e+10  -1.411188e+11   1.474307e+05   5.301888e-26   0.000000e+00   0.000000e+00
     1480000   1.479999e-06   2.560359e+01   2.820843e+01   1.481609e-01   7.291884e+04  -3.430794e+04  -1.234570e+05  -2.204629e+11   2.806015e+10  -1.380129e+11   1.474307e+05   5.300434e-26   0.000000e+00   0.000000e+00
     1488000   1.487999e-06   2.560416e+01   2.820816e+01   1.471688e-01   7.114803e+04  -3.407978e+04  -1.245486e+05  -2.222331e+11   2.897840e+10  -1.348799e+11   1.474307e+05   5.298966e-26   0.000000e+00   0.000000e+00
     1496000   1.495999e-06   2.560473e+01   2.820789e+01   1.461681e-01   6.936323e+04  -3.384431e+04  -1.256150e+05  -2.239581e+11   2.988761e+10  -1.317204e+11   1.474307e+05   5.297487e-26   0.000000e+00   0.000000e+00
     1504000   1.503999e-06   2.560527e+01   2.820762e+01   1.451590e-01   6.756482e+04  -3.360160e+04  -1.266560e+05  -2.256377e+11   3.078745e+10  -1.285351e+11   1.474307e+05   5.295995e-26   0.000000e+00   0.000000e+00
     1512000   1.511999e-06   2.560581e+01   2.820735e+01   1.441417e-01   6.575315e+04  -3.335174e+04  -1.276715e+05  -2.272715e+11   3.167763e+10  -1.253247e+11   1.474307e+05   5.294492e-26   0.000000e+00   0.000000e+00
     1520000   1.519999e-06   2.560632e+01   2.820708e+01   1.431164e-01   6.392859e+04  -3.309479e+04  -1.286611e+05  -2.288593e+11   3.255785e+10  -1.220899e+11   1.474307e+05   5.292977e-26   0.000000e+00   0.000000e+00
     1528000   1.527999e-06   2.560683e+01   2.820682e+01   1.420832e-01   6.209152e+04  -3.283084e+04  -1.296248e+05  -2.304009e+11   3.342781e+10  -1.188312e+11   1.474307e+05   5.291450e-26   0.000000e+00   0.000000e+00
     1536000   1.535999e-06   2.560732e+01   2.820656e+01   1.410424e-01   6.024230e+04  -3.255997e+04  -1.305624e+05  -2.318959e+11   3.428722e+10  -1.155494e+11   1.474307e+05   5.289913e-26   0.000000e+00   0.000000e+00
     1544000   1.543999e-06   2.560779e+01   2.820630e+01   1.399943e-01   5.838131e+04  -3.228227e+04  -1.314736e+05  -2.333442e+11   3.513579e+10  -1.122451e+11   1.474307e+05   5.288365e-26   0.000000e+00   0.000000e+00
     1552000   1.551999e-06   2.560825e+01   2.820604e+01   1.389389e-01   5.650892e+04  -3.199782e+04  -1.323582e+05  -2.347454e+11   3.597324e+10  -1.089191e+11   1.474307e+05   5.286806e-26   0.000000e+00   0.000000e+00
     1560000   1.559999e-06   2.560870e+01   2.820579e+01   1.378766e-01   5.462551e+04  -3.170673e+04  -1.332162e+05  -2.360995e+11   3.679929e+10  -1.055720e+11   1.474307e+05   5.285237e-26   0.000000e+00   0.000000e+00
     1568000   1.567999e-06   2.560913e+01   2.820553e+01   1.368075e-01   5.273145e+04  -3.140907e+04  -1.340473e+05  -2.374061e+11   3.761368e+10  -1.022046e+11   1.474307e+05   5.283658e-26   0.000000e+00   0.000000e+00
     1576000   1.575999e-06   2.560954e+01   2.820528e+01   1.357319e-01   5.082714e+04  -3.110494e+04  -1.348514e+05  -2.386651e+11   3.841613e+10  -9.881737e+10   1.474307e+05   5.282069e-26   0.000000e+00   0.000000e+00
     1584000   1.583999e-06   2.560994e+01   2.820504e+01   1.346500e-01   4.891294e+04  -3.079444e+04  -1.356284e+05  -2.398763e+11   3.920640e+10  -9.541117e+10   1.474307e+05   5.280471e-26   0.000000e+00   0.000000e+00
     1592000   1.591999e-06   2.561032e+01   2.820479e+01   1.335620e-01   4.698924e+04  -3.047767e+04  -1.363780e+05  -2.410394e+11   3.998421e+10  -9.198668e+10   1.474307e+05   5.278863e-26   0.000000e+00   0.000000e+00
     1600000   1.599999e-06   2.561069e+01   2.820455e+01   1.324680e-01   4.505644e+04  -3.015473e+04  -1.371001e+05  -2.421544e+11   4.074934e+10  -8.854457e+10   1.474307e+05   5.277246e-26   0.000000e+00   0.000000e+00
     1608000   1.607999e-06   2.561104e+01   2.820431e+01   1.313684e-01   4.311490e+04  -2.982571e+04  -1.377946e+05  -2.432211e+11   4.150152e+10  -8.508557e+10   1.474307e+05   5.275621e-26   0.000000e+00   0.000000e+00
     1616000   1.615999e-06   2.561138e+01   2.820407e+01   1.302634e-01   4.116503e+04  -2.949074e+04  -1.384614e+05  -2.442393e+11   4.224054e+10  -8.161038e+10   1.474307e+05   5.273987e-26   0.000000e+00   0.000000e+00
     1624000   1.623999e-06   2.561170e+01   2.820384e+01   1.291531e-01   3.920720e+04  -2.914990e+04  -1.391003e+05  -2.452088e+11   4.296615e+10  -7.811970e+10   1.474307e+05   5.272345e-26   0.000000e+00   0.000000e+00
     1632000   1.631999e-06   2.561201e+01   2.820361e+01   1.280378e-01   3.724181e+04  -2.880331e+04  -1.397113e+05  -2.461296e+11   4.367813e+10  -7.461426e+10   1.474308e+05   5.270695e-26   0.000000e+00   0.000000e+00
     1640000   1.639999e-06   2.561230e+01   2.820338e+01   1.269178e-01   3.526926e+04  -2.845109e+04  -1.402941e+05  -2.470014e+11   4.437628e+10  -7.109477e+10   1.474308e+05   5.269038e-26   0.000000e+00   0.000000e+00
     1648000   1.647999e-06   2.561257e+01   2.820315e+01   1.257932e-01   3.328992e+04  -2.809333e+04  -1.408488e+05  -2.478243e+11   4.506037e+10  -6.756193e+10   1.474308e+05   5.267373e-26   0.000000e+00   0.000000e+00
     1656000   1.655999e-06   2.561283e+01   2.820293e+01   1.246643e-01   3.130420e+04  -2.773016e+04  -1.413751e+05  -2.485980e+11   4.573020e+10  -6.401648e+10   1.474308e+05   5.265701e-26   0.000000e+00   0.000000e+00
     1664000   1.663999e-06   2.561307e+01   2.820271e+01   1.235313e-01   2.931248e+04  -2.736168e+04  -1.418730e+05  -2.493225e+11   4.638557e+10  -6.045914e+10   1.474308e+05   5.264022e-26   0.000000e+00   0.000000e+00
     1672000   1.671999e-06   2.561330e+01   2.820249e+01   1.223944e-01   2.731517e+04  -2.698803e+04  -1.423424e+05  -2.499978e+11   4.702630e+10  -5.689062e+10   1.474308e+05   5.262337e-26   0.000000e+00   0.000000e+00
     1680000   1.679999e-06   2.561351e+01   2.820227e+01   1.212539e-01   2.531265e+04  -2.660930e+04  -1.427832e+05  -2.506236e+11   4.765220e+10  -5.331165e+10   1.474308e+05   5.260646e-26   0.000000e+00   0.000000e+00
     1688000   1.687999e-06   2.561371e+01   2.820206e+01   1.201100e-01   2.330532e+04  -2.622563e+04  -1.431953e+05  -2.512000e+11   4.826309e+10  -4.972295e+10   1.474308e+05   5.258949e-26   0.000000e+00   0.000000e+00
     1696000   1.695999e-06   2.561388e+01   2.820185e+01   1.189628e-01   2.129358e+04  -2.583713e+04  -1.435787e+05  -2.517269e+11   4.885881e+10  -4.612526e+10   1.474308e+05   5.257247e-26   0.000000e+00   0.000000e+00
     1704000   1.703999e-06   2.561405e+01   2.820165e+01   1.178128e-01   1.927782e+04  -2.544393e+04  -1.439333e+05  -2.522043e+11   4.943919e+10  -4.251930e+10   1.474308e+05   5.255540e-26   0.000000e+00   0.000000e+00
     1712000   1.711999e-06   2.561419e+01   2.820145e+01   1.166600e-01   1.725844e+04  -2.504615e+04  -1.442590e+05  -2.526320e+11   5.000408e+10  -3.890580e+10   1.474308e+05   5.253827e-26   0.000000e+00   0.000000e+00
     1720000   1.719999e-06   2.561432e+01   2.820125e+01   1.155047e-01   1.523584e+04  -2.464391e+04  -1.445558e+05  -2.530102e+11   5.055332e+10  -3.528549e+10   1.474308e+05   5.252111e-26   0.000000e+00   0.000000e+00
     1728000   1.727999e-06   2.561444e+01   2.820105e+01   1.143472e-01   1.321041e+04  -2.423733e+04  -1.448236e+05  -2.533386e+11   5.108678e+10  -3.165909e+10   1.474308e+05   5.250390e-26   0.000000e+00   0.000000e+00
     1736000   1.735999e-06   2.561453e+01   2.820086e+01   1.131876e-01   1.118256e+04  -2.382656e+04  -1.450623e+05  -2.536175e+11   5.160432e+10  -2.802735e+10   1.474308e+05   5.248666e-26   0.000000e+00   0.000000e+00
     1744000   1.743999e-06   2.561461e+01   2.820067e+01   1.120263e-01   9.152667e+03  -2.341171e+04  -1.452720e+05  -2.538466e+11   5.210581e+10  -2.439099e+10   1.474308e+05   5.246938e-26   0.000000e+00   0.000000e+00
     1752000   1.751999e-06   2.561468e+01   2.820049e+01   1.108633e-01   7.121143e+03  -2.299291e+04  -1.454526e+05  -2.540261e+11   5.259115e+10  -2.075073e+10   1.474308e+05   5.245207e-26   0.000000e+00   0.000000e+00
     1760000   1.759999e-06   2.561473e+01   2.820030e+01   1.096991e-01   5.088381e+03  -2.257029e+04  -1.456040e+05  -2.541560e+11   5.306021e+10  -1.710732e+10   1.474308e+05   5.243473e-26   0.000000e+00   0.000000e+00
     1768000   1.767999e-06   2.561476e+01   2.820013e+01   1.085337e-01   3.054779e+03  -2.214399e+04  -1.457263e+05  -2.542362e+11   5.351289e+10  -1.346149e+10   1.474308e+05   5.241738e-26   0.000000e+00   0.000000e+00
     1776000   1.775999e-06   2.561478e+01   2.819995e+01   1.073675e-01   1.020877e+03  -2.171416e+04  -1.458194e+05  -2.542048e+11   5.393540e+10  -9.811737e+09   1.474308e+05   5.237436e-26   0.000000e+00   0.000000e+00
     1784000   1.783999e-06   2.561478e+01   2.819978e+01   1.062007e-01  -1.012736e+03  -2.128098e+04  -1.458833e+05  -2.541904e+11   5.435640e+10  -6.165185e+09   1.474308e+05   5.235889e-26   0.000000e+00   0.000000e+00
     1792000   1.791999e-06   2.561476e+01   2.819961e+01   1.050335e-01  -3.046037e+03  -2.084450e+04  -1.459180e+05  -2.541266e+11   5.476073e+10  -2.518187e+09   1.474308e+05   5.234342e-26   0.000000e+00   0.000000e+00
     1800000   1.799999e-06   2.561473e+01   2.819944e+01   1.038661e-01  -5.078630e+03  -2.040486e+04  -1.459236e+05  -2.540134e+11   5.514832e+10   1.128531e+09   1.474308e+05   5.232796e-26   0.000000e+00   0.000000e+00
     1808000   1.807999e-06   2.561468e+01   2.819928e+01   1.026988e-01  -7.110121e+03  -1.996217e+04  -1.459000e+05  -2.538510e+11   5.551909e+10   4.774244e+09   1.474308e+05   5.231252e-26   0.000000e+00   0.000000e+00
     1816000   1.815999e-06   2.561462e+01   2.819913e+01   1.015318e-01  -9.140115e+03  -1.951659e+04  -1.458472e+05  -2.536393e+11   5.587298e+10   8.418227e+09   1.474308e+05   5.229708e-26   0.000000e+00   0.000000e+00
     1824000   1.823999e-06   2.561453e+01   2.819897e+01   1.003653e-01  -1.116822e+04  -1.906825e+04  -1.457653e+05  -2.533785e+11   5.620995e+10   1.205976e+10   1.474308e+05   5.228167e-26   0.000000e+00   0.000000e+00
     1832000   1.831999e-06   2.561444e+01   2.819882e+01   9.919962e-02  -1.319375e+04  -1.861714e+04  -1.456543e+05  -2.530145e+11   5.655540e+10   1.568950e+10   1.474308e+05   5.224708e-26   0.000000e+00   0.000000e+00
     1840000   1.839999e-06   2.561432e+01   2.819867e+01   9.803492e-02  -1.521645e+04  -1.816347e+04  -1.455142e+05  -2.526518e+11   5.685937e+10   1.932204e+10   1.474308e+05   5.223023e-26   0.000000e+00   0.000000e+00
     1848000   1.847999e-06   2.561419e+01   2.819853e+01   9.687147e-02  -1.723605e+04  -1.770744e+04  -1.453451e+05  -2.522402e+11   5.714631e+10   2.294980e+10   1.474308e+05   5.221341e-26   0.000000e+00   0.000000e+00
     1856000   1.855999e-06   2.561405e+01   2.819839e+01   9.570948e-02  -1.925216e+04  -1.724918e+04  -1.451470e+05  -2.517800e+11   5.741619e+10   2.657208e+10   1.474308e+05   5.219662e-26   0.000000e+00   0.000000e+00
     1864000   1.863999e-06   2.561388e+01   2.819825e+01   9.454919e-02  -2.126440e+04  -1.678882e+04  -1.449200e+05  -2.512711e+11   5.766899e+10   3.018816e+10   1.474308e+05   5.217988e-26   0.000000e+00   0.000000e+00
     1872000   1.871999e-06   2.561371e+01   2.819812e+01   9.339084e-02  -2.327237e+04  -1.632652e+04  -1.446640e+05  -2.507139e+11   5.790471e+10   3.379732e+10   1.474308e+05   5.216319e-26   0.000000e+00   0.000000e+00
     1880000   1.879999e-06   2.561351e+01   2.819799e+01   9.223464e-02  -2.527569e+04  -1.586239e+04  -1.443792e+05  -2.501083e+11   5.812336e+10   3.739885e+10   1.474308e+05   5.214654e-26   0.000000e+00   0.000000e+00
     1888000   1.887999e-06   2.561330e+01   2.819787e+01   9.108084e-02  -2.727397e+04  -1.539659e+04  -1.440657e+05  -2.494546e+11   5.832493e+10   4.099204e+10   1.474308e+05   5.212996e-26   0.000000e+00   0.000000e+00
     1896000   1.895999e-06   2.561308e+01   2.819775e+01   8.992967e-02  -2.926683e+04  -1.492924e+04  -1.437234e+05  -2.487529e+11   5.850944e+10   4.457620e+10   1.474308e+05   5.211343e-26   0.000000e+00   0.000000e+00
     1904000   1.903999e-06   2.561283e+01   2.819763e+01   8.878135e-02  -3.125389e+04  -1.446048e+04  -1.433525e+05  -2.480034e+11   5.867692e+10   4.815061e+10   1.474308e+05   5.209697e-26   0.000000e+00   0.000000e+00
     1912000   1.911999e-06   2.561258e+01   2.819751e+01   8.763611e-02  -3.323476e+04  -1.399045e+04  -1.429530e+05  -2.472063e+11   5.882739e+10   5.171456e+10   1.474308e+05   5.208058e-26   0.000000e+00   0.000000e+00
     1920000   1.919999e-06   2.561230e+01   2.819740e+01   8.649417e-02  -3.520906e+04  -1.351929e+04  -1.425251e+05  -2.463617e+11   5.896089e+10   5.526738e+10   1.474308e+05   5.206427e-26   0.000000e+00   0.000000e+00
     1928000   1.927999e-06   2.561201e+01   2.819730e+01   8.535578e-02  -3.717642e+04  -1.304713e+04  -1.420688e+05  -2.454698e+11   5.907747e+10   5.880835e+10   1.474308e+05   5.204803e-26   0.000000e+00   0.000000e+00
     1936000   1.935999e-06   2.561171e+01   2.819720e+01   8.422115e-02  -3.913645e+04  -1.257410e+04  -1.415842e+05  -2.445308e+11   5.917717e+10   6.233678e+10   1.474308e+05   5.203188e-26   0.000000e+00   0.000000e+00
     1944000   1.943999e-06   2.561139e+01   2.819710e+01   8.309051e-02  -4.108879e+04  -1.210034e+04  -1.410714e+05  -2.435449e+11   5.926005e+10   6.585199e+10   1.474308e+05   5.201582e-26   0.000000e+00   0.000000e+00
     1952000   1.951999e-06   2.561105e+01   2.819700e+01   8.196408e-02  -4.303305e+04  -1.162598e+04  -1.405306e+05  -2.425124e+11   5.932618e+10   6.935329e+10   1.474308e+05   5.199986e-26   0.000000e+00   0.000000e+00
     1960000   1.959999e-06   2.561070e+01   2.819691e+01   8.084209e-02  -4.496886e+04  -1.115116e+04  -1.399618e+05  -2.414335e+11   5.937563e+10   7.284000e+10   1.474308e+05   5.198399e-26   0.000000e+00   0.000000e+00
     1968000   1.967999e-06   2.561033e+01   2.819682e+01   7.972477e-02  -4.689586e+04  -1.067601e+04  -1.393652e+05  -2.403084e+11   5.940847e+10   7.631143e+10   1.474308e+05   5.196822e-26   0.000000e+00   0.000000e+00
     1976000   1.975999e-06   2.560995e+01   2.819674e+01   7.861233e-02  -4.881367e+04  -1.020067e+04  -1.387408e+05  -2.391373e+11   5.942480e+10   7.976691e+10   1.474308e+05   5.195257e-26   0.000000e+00   0.000000e+00
     1984000   1.983999e-06   2.560955e+01   2.819666e+01   7.750499e-02  -5.072193e+04  -9.725261e+03  -1.380889e+05  -2.379204e+11   5.942469e+10   8.320577e+10   1.474308e+05   5.193702e-26   0.000000e+00   0.000000e+00
     1992000   1.991999e-06   2.560914e+01   2.819658e+01   7.640298e-02  -5.262028e+04  -9.249918e+03  -1.374096e+05  -2.366581e+11   5.940826e+10   8.662734e+10   1.474308e+05   5.192159e-26   0.000000e+00   0.000000e+00
     2000000   1.999999e-06   2.560871e+01   2.819651e+01   7.530651e-02  -5.450834e+04  -8.774772e+03  -1.367029e+05  -2.353506e+11   5.937559e+10   9.003095e+10   1.474308e+05   5.190629e-26   0.000000e+00   0.000000e+00
     2008000   2.007999e-06   2.560826e+01   2.819644e+01   7.421580e-02  -5.638577e+04  -8.299952e+03  -1.359691e+05  -2.339981e+11   5.932681e+10   9.341595e+10   1.474308e+05   5.189111e-26   0.000000e+00   0.000000e+00
     2016000   2.015999e-06   2.560781e+01   2.819638e+01   7.313107e-02  -5.825219e+04  -7.825586e+03  -1.352083e+05  -2.326010e+11   5.926203e+10   9.678168e+10   1.474308e+05   5.187606e-26   0.000000e+00   0.000000e+00
     2024000   2.023999e-06   2.560733e+01   2.819632e+01   7.205254e-02  -6.010726e+04  -7.351802e+03  -1.344207e+05  -2.311595e+11   5.918138e+10   1.001275e+11   1.474308e+05   5.186115e-26   0.000000e+00   0.000000e+00
     2032000   2.031999e-06   2.560684e+01   2.819626e+01   7.098041e-02  -6.195062e+04  -6.878726e+03  -1.336063e+05  -2.296738e+11   5.908497e+10   1.034527e+11   1.474308e+05   5.184637e-26   0.000000e+00   0.000000e+00
     2040000   2.039999e-06   2.560634e+01   2.819621e+01   6.991491e-02  -6.378192e+04  -6.406484e+03  -1.327655e+05  -2.281444e+11   5.897294e+10   1.067567e+11   1.474308e+05   5.183175e-26   0.000000e+00   0.000000e+00
     2048000   2.047999e-06   2.560582e+01   2.819616e+01   6.885624e-02  -6.560082e+04  -5.935200e+03  -1.318983e+05  -2.265715e+11   5.884544e+10   1.100389e+11   1.474308e+05   5.181727e-26   0.000000e+00   0.000000e+00
     2056000   2.055999e-06   2.560529e+01   2.819611e+01   6.780460e-02  -6.740695e+04  -5.464998e+03  -1.310049e+05  -2.249553e+11   5.870261e+10   1.132986e+11   1.474308e+05   5.180294e-26   0.000000e+00   0.000000e+00
     2064000   2.063999e-06   2.560474e+01   2.819607e+01   6.676023e-02  -6.919999e+04  -4.995999e+03  -1.300856e+05  -2.232963e+11   5.854460e+10   1.165352e+11   1.474308e+05   5.178877e-26   0.000000e+00   0.000000e+00
     2072000   2.071999e-06   2.560418e+01   2.819603e+01   6.572330e-02  -7.097958e+04  -4.528325e+03  -1.291404e+05  -2.215948e+11   5.837157e+10   1.197480e+11   1.474309e+05   5.177476e-26   0.000000e+00   0.000000e+00
     2080000   2.079999e-06   2.560361e+01   2.819600e+01   6.469405e-02  -7.274539e+04  -4.062094e+03  -1.281697e+05  -2.198510e+11   5.818367e+10   1.229365e+11   1.474309e+05   5.176091e-26   0.000000e+00   0.000000e+00
     2088000   2.087999e-06   2.560302e+01   2.819597e+01   6.367266e-02  -7.449708e+04  -3.597425e+03  -1.271735e+05  -2.180654e+11   5.798108e+10   1.261001e+11   1.474309e+05   5.174724e-26   0.000000e+00   0.000000e+00
     2096000   2.095999e-06   2.560242e+01   2.819594e+01   6.265934e-02  -7.623432e+04  -3.134436e+03  -1.261521e+05  -2.162382e+11   5.776396e+10   1.292380e+11   1.474309e+05   5.173373e-26   0.000000e+00   0.000000e+00
     2104000   2.103999e-06   2.560180e+01   2.819592e+01   6.165429e-02  -7.795678e+04  -2.673240e+03  -1.251058e+05  -2.143699e+11   5.753249e+10   1.323498e+11   1.474309e+05   5.172041e-26   0.000000e+00   0.000000e+00
     2112000   2.111999e-06   2.560117e+01   2.819590e+01   6.065771e-02  -7.966413e+04  -2.213954e+03  -1.240346e+05  -2.124607e+11   5.728686e+10   1.354348e+11   1.474309e+05   5.170726e-26   0.000000e+00   0.000000e+00
     2120000   2.119999e-06   2.560053e+01   2.819588e+01   5.966980e-02  -8.135604e+04  -1.756688e+03  -1.229389e+05  -2.105111e+11   5.702724e+10   1.384924e+11   1.474309e+05   5.169430e-26   0.000000e+00   0.000000e+00
     2128000   2.127999e-06   2.559987e+01   2.819587e+01   5.869076e-02  -8.303263e+04  -1.301465e+03  -1.218185e+05  -2.087945e+11   5.681017e+10   1.417088e+11   1.474309e+05   5.181567e-26   0.000000e+00   0.000000e+00
     2136000   2.135999e-06   2.559920e+01   2.819586e+01   5.772077e-02  -8.469487e+04  -8.481273e+02  -1.206728e+05  -2.067576e+11   5.652216e+10   1.447162e+11   1.474309e+05   5.180199e-26   0.000000e+00   0.000000e+00
     2144000   2.143999e-06   2.559851e+01   2.819586e+01   5.676005e-02  -8.634065e+04  -3.971471e+02  -1.195031e+05  -2.046813e+11   5.622069e+10   1.476942e+11   1.474309e+05   5.178848e-26   0.000000e+00   0.000000e+00
     2152000   2.151999e-06   2.559782e+01   2.819586e+01   5.580879e-02  -8.796966e+04   5.136821e+01  -1.183098e+05  -2.025660e+11   5.590599e+10   1.506424e+11   1.474309e+05   5.177516e-26   0.000000e+00   0.000000e+00
     2160000   2.159999e-06   2.559711e+01   2.819586e+01   5.486716e-02  -8.958160e+04   4.973136e+02  -1.170929e+05  -2.004120e+11   5.557825e+10   1.535601e+11   1.474309e+05   5.176203e-26   0.000000e+00   0.000000e+00
     2168000   2.167999e-06   2.559638e+01   2.819586e+01   5.393536e-02  -9.117615e+04   9.405856e+02  -1.158529e+05  -1.982199e+11   5.523768e+10   1.564468e+11   1.474309e+05   5.174908e-26   0.000000e+00   0.000000e+00
     2176000   2.175999e-06   2.559565e+01   2.819587e+01   5.301358e-02  -9.275301e+04   1.381082e+03  -1.145899e+05  -1.959899e+11   5.488450e+10   1.593019e+11   1.474309e+05   5.173633e-26   0.000000e+00   0.000000e+00
     2184000   2.183999e-06   2.559490e+01   2.819589e+01   5.210199e-02  -9.431189e+04   1.818704e+03  -1.133041e+05  -1.937226e+11   5.451892e+10   1.621250e+11   1.474309e+05   5.172378e-26   0.000000e+00   0.000000e+00
     2192000   2.191999e-06   2.559414e+01   2.819590e+01   5.120077e-02  -9.585247e+04   2.253352e+03  -1.119959e+05  -1.914183e+11   5.414118e+10   1.649153e+11   1.474309e+05   5.171142e-26   0.000000e+00   0.000000e+00
     2200000   2.199999e-06   2.559337e+01   2.819592e+01   5.031011e-02  -9.737448e+04   2.684931e+03  -1.106656e+05  -1.890775e+11   5.375148e+10   1.676725e+11   1.474309e+05   5.169926e-26   0.000000e+00   0.000000e+00
     2208000   2.207999e-06   2.559258e+01   2.819595e+01   4.943018e-02  -9.887761e+04   3.113345e+03  -1.093133e+05  -1.867006e+11   5.335007e+10   1.703960e+11   1.474309e+05   5.168730e-26   0.000000e+00   0.000000e+00
     2216000   2.215999e-06   2.559178e+01   2.819597e+01   4.856116e-02  -1.003616e+05   3.538501e+03  -1.079393e+05  -1.842882e+11   5.293716e+10   1.730853e+11   1.474309e+05   5.167555e-26   0.000000e+00   0.000000e+00
     2224000   2.223999e-06   2.559097e+01   2.819600e+01   4.770321e-02  -1.018261e+05   3.960309e+03  -1.065440e+05  -1.818405e+11   5.251299e+10   1.757398e+11   1.474309e+05   5.166401e-26   0.000000e+00   0.000000e+00
     2232000   2.231999e-06   2.559015e+01   2.819604e+01   4.685651e-02  -1.032709e+05   4.378679e+03  -1.051276e+05  -1.793582e+11   5.207779e+10   1.783591e+11   1.474309e+05   5.165267e-26   0.000000e+00   0.000000e+00
     2240000   2.239999e-06   2.558932e+01   2.819607e+01   4.602122e-02  -1.046958e+05   4.793524e+03  -1.036903e+05  -1.768417e+11   5.163181e+10   1.809426e+11   1.474309e+05   5.164155e-26   0.000000e+00   0.000000e+00
     2248000   2.247999e-06   2.558848e+01   2.819611e+01   4.519752e-02  -1.061003e+05   5.204759e+03  -1.022326e+05  -1.742913e+11   5.117528e+10   1.834900e+11   1.474309e+05   5.163063e-26   0.000000e+00   0.000000e+00
     2256000   2.255999e-06   2.558762e+01   2.819616e+01   4.438555e-02  -1.074843e+05   5.612301e+03  -1.007546e+05  -1.717078e+11   5.070843e+10   1.860006e+11   1.474309e+05   5.161993e-26   0.000000e+00   0.000000e+00
     2264000   2.263999e-06   2.558676e+01   2.819620e+01   4.358550e-02  -1.088476e+05   6.016067e+03  -9.925667e+04  -1.690914e+11   5.023152e+10   1.884741e+11   1.474309e+05   5.160944e-26   0.000000e+00   0.000000e+00
     2272000   2.271999e-06   2.558588e+01   2.819625e+01   4.279750e-02  -1.101897e+05   6.415978e+03  -9.773910e+04  -1.664427e+11   4.974478e+10   1.909100e+11   1.474309e+05   5.159917e-26   0.000000e+00   0.000000e+00
     2280000   2.279999e-06   2.558500e+01   2.819630e+01   4.202172e-02  -1.115105e+05   6.811957e+03  -9.620221e+04  -1.637622e+11   4.924847e+10   1.933077e+11   1.474309e+05   5.158911e-26   0.000000e+00   0.000000e+00
     2288000   2.287999e-06   2.558410e+01   2.819636e+01   4.125832e-02  -1.128098e+05   7.203928e+03  -9.464628e+04  -1.610504e+11   4.874282e+10   1.956669e+11   1.474309e+05   5.157927e-26   0.000000e+00   0.000000e+00
     2296000   2.295999e-06   2.558319e+01   2.819642e+01   4.050743e-02  -1.140873e+05   7.591818e+03  -9.307164e+04  -1.583078e+11   4.822809e+10   1.979871e+11   1.474309e+05   5.156964e-26   0.000000e+00   0.000000e+00
     2304000   2.303999e-06   2.558227e+01   2.819648e+01   3.976922e-02  -1.153427e+05   7.975554e+03  -9.147859e+04  -1.555350e+11   4.770453e+10   2.002678e+11   1.474309e+05   5.156024e-26   0.000000e+00   0.000000e+00
     2312000   2.311999e-06   2.558135e+01   2.819655e+01   3.904382e-02  -1.165757e+05   8.355067e+03  -8.986746e+04  -1.527323e+11   4.717238e+10   2.025088e+11   1.474309e+05   5.155105e-26   0.000000e+00   0.000000e+00
     2320000   2.319999e-06   2.558041e+01   2.819662e+01   3.833139e-02  -1.177863e+05   8.730289e+03  -8.823856e+04  -1.499004e+11   4.663189e+10   2.047094e+11   1.474309e+05   5.154208e-26   0.000000e+00   0.000000e+00
     2328000   2.327999e-06   2.557946e+01   2.819669e+01   3.763205e-02  -1.189741e+05   9.101155e+03  -8.659221e+04  -1.470398e+11   4.608331e+10   2.068693e+11   1.474309e+05   5.153333e-26   0.000000e+00   0.000000e+00
     2336000   2.335999e-06   2.557851e+01   2.819676e+01   3.694596e-02  -1.201389e+05   9.467601e+03  -8.492875e+04  -1.441511e+11   4.552691e+10   2.089882e+11   1.474309e+05   5.152480e-26   0.000000e+00   0.000000e+00
     2344000   2.343999e-06   2.557754e+01   2.819684e+01   3.627324e-02  -1.212804e+05   9.829565e+03  -8.324851e+04  -1.412346e+11   4.496291e+10   2.110656e+11   1.474309e+05   5.151648e-26   0.000000e+00   0.000000e+00
     2352000   2.351999e-06   2.557656e+01   2.819692e+01   3.561402e-02  -1.223985e+05   1.018699e+04  -8.155181e+04  -1.382911e+11   4.439158e+10   2.131010e+11   1.474309e+05   5.150838e-26   0.000000e+00   0.000000e+00
     2360000   2.359999e-06   2.557558e+01   2.819700e+01   3.496845e-02  -1.234930e+05   1.053981e+04  -7.983900e+04  -1.353210e+11   4.381317e+10   2.150943e+11   1.474309e+05   5.150050e-26   0.000000e+00   0.000000e+00
     2368000   2.367999e-06   2.557459e+01   2.819709e+01   3.433664e-02  -1.245636e+05   1.088798e+04  -7.811042e+04  -1.323249e+11   4.322792e+10   2.170449e+11   1.474309e+05   5.149283e-26   0.000000e+00   0.000000e+00
     2376000   2.375999e-06   2.557359e+01   2.819718e+01   3.371873e-02  -1.256101e+05   1.123144e+04  -7.636640e+04  -1.293034e+11   4.263609e+10   2.189525e+11   1.474309e+05   5.148539e-26   0.000000e+00   0.000000e+00
     2384000   2.383999e-06   2.557258e+01   2.819727e+01   3.311482e-02  -1.266324e+05   1.157014e+04  -7.460729e+04  -1.262570e+11   4.203793e+10   2.208168e+11   1.474309e+05   5.147815e-26   0.000000e+00   0.000000e+00
     2392000   2.391999e-06   2.557156e+01   2.819736e+01   3.252505e-02  -1.276302e+05   1.190403e+04  -7.283345e+04  -1.231863e+11   4.143368e+10   2.226373e+11   1.474309e+05   5.147113e-26   0.000000e+00   0.000000e+00
     2400000   2.399999e-06   2.557054e+01   2.819746e+01   3.194952e-02  -1.286033e+05   1.223306e+04  -7.104521e+04  -1.200918e+11   4.082358e+10   2.244139e+11   1.474309e+05   5.146432e-26   0.000000e+00   0.000000e+00
     2408000   2.407999e-06   2.556950e+01   2.819756e+01   3.138836e-02  -1.295516e+05   1.255719e+04  -6.924294e+04  -1.169742e+11   4.020790e+10   2.261461e+11   1.474309e+05   5.145772e-26   0.000000e+00   0.000000e+00
     2416000   2.415999e-06   2.556846e+01   2.819766e+01   3.084167e-02  -1.304748e+05   1.287637e+04  -6.742699e+04  -1.138339e+11   3.958686e+10   2.278336e+11   1.474309e+05   5.145134e-26   0.000000e+00   0.000000e+00
     2424000   2.423999e-06   2.556742e+01   2.819776e+01   3.030957e-02  -1.313729e+05   1.319057e+04  -6.559772e+04  -1.106717e+11   3.896072e+10   2.294761e+11   1.474309e+05   5.144516e-26   0.000000e+00   0.000000e+00
     2432000   2.431999e-06   2.556636e+01   2.819787e+01   2.979214e-02  -1.322455e+05   1.349973e+04  -6.375549e+04  -1.074881e+11   3.832972e+10   2.310733e+11   1.474309e+05   5.143919e-26   0.000000e+00   0.000000e+00
     2440000   2.439999e-06   2.556530e+01   2.819798e+01   2.928951e-02  -1.330926e+05   1.380383e+04  -6.190067e+04  -1.042836e+11   3.769409e+10   2.326249e+11   1.474309e+05   5.143342e-26   0.000000e+00   0.000000e+00
     2448000   2.447999e-06   2.556423e+01   2.819809e+01   2.880177e-02  -1.339140e+05   1.410282e+04  -6.003361e+04  -1.010590e+11   3.705407e+10   2.341307e+11   1.474309e+05   5.142786e-26   0.000000e+00   0.000000e+00
     2456000   2.455999e-06   2.556316e+01   2.819820e+01   2.832901e-02  -1.347095e+05   1.439668e+04  -5.815470e+04  -9.781468e+10   3.640991e+10   2.355903e+11   1.474309e+05   5.142250e-26   0.000000e+00   0.000000e+00
     2464000   2.463999e-06   2.556208e+01   2.819832e+01   2.787132e-02  -1.354790e+05   1.468537e+04  -5.626429e+04  -9.455137e+10   3.576183e+10   2.370035e+11   1.474309e+05   5.141734e-26   0.000000e+00   0.000000e+00
     2472000   2.471999e-06   2.556099e+01   2.819844e+01   2.742881e-02  -1.362223e+05   1.496886e+04  -5.436277e+04  -9.126966e+10   3.511008e+10   2.383700e+11   1.474309e+05   5.141238e-26   0.000000e+00   0.000000e+00
     2480000   2.479999e-06   2.555990e+01   2.819856e+01   2.700155e-02  -1.369392e+05   1.524712e+04  -5.245050e+04  -8.797014e+10   3.445486e+10   2.396895e+11   1.474309e+05   5.140761e-26   0.000000e+00   0.000000e+00
     2488000   2.487999e-06   2.555880e+01   2.819868e+01   2.658963e-02  -1.376297e+05   1.552013e+04  -5.052786e+04  -8.465344e+10   3.379643e+10   2.409619e+11   1.474309e+05   5.140304e-26   0.000000e+00   0.000000e+00
     2496000   2.495999e-06   2.555770e+01   2.819881e+01   2.619313e-02  -1.382936e+05   1.578786e+04  -4.859523e+04  -8.132018e+10   3.313499e+10   2.421869e+11   1.474309e+05   5.139866e-26   0.000000e+00   0.000000e+00
     2504000   2.503999e-06   2.555659e+01   2.819894e+01   2.581213e-02  -1.389308e+05   1.605028e+04  -4.665299e+04  -7.797098e+10   3.247078e+10   2.433643e+11   1.474309e+05   5.139447e-26   0.000000e+00   0.000000e+00
     2512000   2.511999e-06   2.555547e+01   2.819907e+01   2.544670e-02  -1.395411e+05   1.630738e+04  -4.470153e+04  -7.460647e+10   3.180401e+10   2.444938e+11   1.474310e+05   5.139047e-26   0.000000e+00   0.000000e+00
     2520000   2.519999e-06   2.555435e+01   2.819920e+01   2.509693e-02  -1.401245e+05   1.655914e+04  -4.274122e+04  -7.122727e+10   3.113489e+10   2.455752e+11   1.474310e+05   5.138666e-26   0.000000e+00   0.000000e+00
     2528000   2.527999e-06   2.555323e+01   2.819933e+01   2.476287e-02  -1.406807e+05   1.680553e+04  -4.077245e+04  -6.783402e+10   3.046365e+10   2.466084e+11   1.474310e+05   5.138303e-26   0.000000e+00   0.000000e+00
     2536000   2.535999e-06   2.555210e+01   2.819947e+01   2.444459e-02  -1.412098e+05   1.704655e+04  -3.879561e+04  -6.442735e+10   2.979049e+10   2.475932e+11   1.474310e+05   5.137958e-26   0.000000e+00   0.000000e+00
     2544000   2.543999e-06   2.555097e+01   2.819960e+01   2.414216e-02  -1.417115e+05   1.728218e+04  -3.681109e+04  -6.100790e+10   2.911561e+10   2.485294e+11   1.474310e+05   5.137631e-26   0.000000e+00   0.000000e+00
     2552000   2.551999e-06   2.554984e+01   2.819974e+01   2.385563e-02  -1.421859e+05   1.751240e+04  -3.481927e+04  -5.757630e+10   2.843923e+10   2.494167e+11   1.474310e+05   5.137322e-26   0.000000e+00   0.000000e+00
     2560000   2.559999e-06   2.554870e+01   2.819988e+01   2.358507e-02  -1.426327e+05   1.773720e+04  -3.282055e+04  -5.413322e+10   2.776154e+10   2.502552e+11   1.474310e+05   5.137030e-26   0.000000e+00   0.000000e+00
     2568000   2.567999e-06   2.554755e+01   2.820003e+01   2.333052e-02  -1.430519e+05   1.795653e+04  -3.081555e+04  -5.065047e+10   2.704752e+10   2.508883e+11   1.474310e+05   5.130310e-26   0.000000e+00   0.000000e+00
     2576000   2.575999e-06   2.554641e+01   2.820017e+01   2.309203e-02  -1.434433e+05   1.817019e+04  -2.880544e+04  -4.719124e+10   2.636903e+10   2.516307e+11   1.474310e+05   5.130182e-26   0.000000e+00   0.000000e+00
     2584000   2.583999e-06   2.554526e+01   2.820032e+01   2.286965e-02  -1.438070e+05   1.837843e+04  -2.678959e+04  -4.372235e+10   2.568977e+10   2.523238e+11   1.474310e+05   5.130071e-26   0.000000e+00   0.000000e+00
     2592000   2.591999e-06   2.554411e+01   2.820046e+01   2.266341e-02  -1.441428e+05   1.858123e+04  -2.476839e+04  -4.024445e+10   2.500992e+10   2.529675e+11   1.474310e+05   5.129976e-26   0.000000e+00   0.000000e+00
     2600000   2.599999e-06   2.554295e+01   2.820061e+01   2.247337e-02  -1.444508e+05   1.877859e+04  -2.274224e+04  -3.675819e+10   2.432966e+10   2.535617e+11   1.474310e+05   5.129897e-26   0.000000e+00   0.000000e+00
     2608000   2.607999e-06   2.554180e+01   2.820076e+01   2.229955e-02  -1.447309e+05   1.897050e+04  -2.071153e+04  -3.326422e+10   2.364917e+10   2.541064e+11   1.474310e+05   5.129835e-26   0.000000e+00   0.000000e+00
     2616000   2.615999e-06   2.554064e+01   2.820092e+01   2.214199e-02  -1.449830e+05   1.915697e+04  -1.867667e+04  -2.976321e+10   2.296863e+10   2.546013e+11   1.474310e+05   5.129788e-26   0.000000e+00   0.000000e+00
     2624000   2.623999e-06   2.553948e+01   2.820107e+01   2.200073e-02  -1.452071e+05   1.933800e+04  -1.663804e+04  -2.625581e+10   2.228820e+10   2.550465e+11   1.474310e+05   5.129757e-26   0.000000e+00   0.000000e+00
     2632000   2.631999e-06   2.553831e+01   2.820123e+01   2.187579e-02  -1.454031e+05   1.951358e+04  -1.459606e+04  -2.274269e+10   2.160804e+10   2.554418e+11   1.474310e+05   5.129741e-26   0.000000e+00   0.000000e+00
     2640000   2.639999e-06   2.553715e+01   2.820138e+01   2.176720e-02  -1.455710e+05   1.968373e+04  -1.255111e+04  -1.922450e+10   2.092833e+10   2.557871e+11   1.474310e+05   5.129740e-26   0.000000e+00   0.000000e+00
     2648000   2.647999e-06   2.553599e+01   2.820154e+01   2.167498e-02  -1.457107e+05   1.984844e+04  -1.050360e+04  -1.570192e+10   2.024921e+10   2.560825e+11   1.474310e+05   5.129755e-26   0.000000e+00   0.000000e+00
     2656000   2.655999e-06   2.553482e+01   2.820170e+01   2.159915e-02  -1.458222e+05   2.000772e+04  -8.453921e+03  -1.217560e+10   1.957085e+10   2.563277e+11   1.474310e+05   5.129784e-26   0.000000e+00   0.000000e+00
     2664000   2.663999e-06   2.553365e+01   2.820186e+01   2.153973e-02  -1.459055e+05   2.016157e+04  -6.402485e+03  -8.646215e+09   1.889338e+10   2.565229e+11   1.474310e+05   5.129827e-26   0.000000e+00   0.000000e+00
     2672000   2.671999e-06   2.553248e+01   2.820202e+01   2.149672e-02  -1.459605e+05   2.031001e+04  -4.349688e+03  -5.114433e+09   1.821695e+10   2.566680e+11   1.474310e+05   5.129884e-26   0.000000e+00   0.000000e+00
     2680000   2.679999e-06   2.553132e+01   2.820219e+01   2.147013e-02  -1.459873e+05   2.045305e+04  -2.295930e+03  -1.580923e+09   1.754170e+10   2.567629e+11   1.474310e+05   5.129956e-26   0.000000e+00   0.000000e+00
     2688000   2.687999e-06   2.553015e+01   2.820235e+01   2.145998e-02  -1.459858e+05   2.059068e+04  -2.416149e+02   1.953643e+09   1.686778e+10   2.568076e+11   1.474310e+05   5.130041e-26   0.000000e+00   0.000000e+00
     2696000   2.695999e-06   2.552898e+01   2.820252e+01   2.146627e-02  -1.459561e+05   2.072293e+04   1.812858e+03   5.488595e+09   1.619530e+10   2.568022e+11   1.474310e+05   5.130140e-26   0.000000e+00   0.000000e+00
     2704000   2.703999e-06   2.552781e+01   2.820268e+01   2.148899e-02  -1.458980e+05   2.084981e+04   3.867086e+03   9.023259e+09   1.552440e+10   2.567466e+11   1.474310e+05   5.130252e-26   0.000000e+00   0.000000e+00
     2712000   2.711999e-06   2.552665e+01   2.820285e+01   2.152814e-02  -1.458117e+05   2.097133e+04   5.920669e+03   1.255696e+10   1.485519e+10   2.566408e+11   1.474310e+05   5.130378e-26   0.000000e+00   0.000000e+00
     2720000   2.719999e-06   2.552548e+01   2.820302e+01   2.158372e-02  -1.456971e+05   2.108750e+04   7.973205e+03   1.608903e+10   1.418781e+10   2.564848e+11   1.474310e+05   5.130516e-26   0.000000e+00   0.000000e+00
     2728000   2.727999e-06   2.552432e+01   2.820319e+01   2.165571e-02  -1.455543e+05   2.119834e+04   1.002429e+04   1.961879e+10   1.352235e+10   2.562788e+11   1.474310e+05   5.130668e-26   0.000000e+00   0.000000e+00
     2736000   2.735999e-06   2.552315e+01   2.820336e+01   2.174410e-02  -1.453832e+05   2.130386e+04   1.207353e+04   2.314557e+10   1.285893e+10   2.560227e+11   1.474310e+05   5.130832e-26   0.000000e+00   0.000000e+00
     2744000   2.743999e-06   2.552199e+01   2.820353e+01   2.184888e-02  -1.451839e+05   2.140408e+04   1.412052e+04   2.666869e+10   1.219766e+10   2.557166e+11   1.474310e+05   5.131008e-26   0.000000e+00   0.000000e+00
     2752000   2.751999e-06   2.552083e+01   2.820370e+01   2.197002e-02  -1.449565e+05   2.149903e+04   1.616486e+04   3.018747e+10   1.153863e+10   2.553605e+11   1.474310e+05   5.131197e-26   0.000000e+00   0.000000e+00
     2760000   2.759999e-06   2.551967e+01   2.820387e+01   2.210751e-02  -1.447010e+05   2.158871e+04   1.820616e+04   3.370125e+10   1.088195e+10   2.549545e+11   1.474310e+05   5.131398e-26   0.000000e+00   0.000000e+00
     2768000   2.767999e-06   2.551851e+01   2.820405e+01   2.226131e-02  -1.444173e+05   2.167314e+04   2.024400e+04   3.720934e+10   1.022769e+10   2.544987e+11   1.474310e+05   5.131611e-26   0.000000e+00   0.000000e+00
     2776000   2.775999e-06   2.551736e+01   2.820422e+01   2.243140e-02  -1.441056e+05   2.175236e+04   2.227800e+04   4.071108e+10   9.575953e+09   2.539932e+11   1.474310e+05   5.131835e-26   0.000000e+00   0.000000e+00
     2784000   2.783999e-06   2.551621e+01   2.820439e+01   2.261775e-02  -1.437659e+05   2.182637e+04   2.430776e+04   4.420578e+10   8.926817e+09   2.534381e+11   1.474310e+05   5.132072e-26   0.000000e+00   0.000000e+00
     2792000   2.791999e-06   2.551506e+01   2.820457e+01   2.282031e-02  -1.433983e+05   2.189519e+04   2.633288e+04   4.769278e+10   8.280359e+09   2.528334e+11   1.474310e+05   5.132320e-26   0.000000e+00   0.000000e+00
     2800000   2.799999e-06   2.551391e+01   2.820474e+01   2.303906e-02  -1.430029e+05   2.195886e+04   2.835296e+04   5.117140e+10   7.636654e+09   2.521793e+11   1.474310e+05   5.132580e-26   0.000000e+00   0.000000e+00
     2808000   2.807999e-06   2.551277e+01   2.820492e+01   2.327394e-02  -1.425796e+05   2.201739e+04   3.036762e+04   5.464097e+10   6.995771e+09   2.514760e+11   1.474310e+05   5.132850e-26   0.000000e+00   0.000000e+00
     2816000   2.815999e-06   2.551163e+01   2.820510e+01   2.352493e-02  -1.421286e+05   2.207080e+04   3.237645e+04   5.810082e+10   6.357775e+09   2.507235e+11   1.474310e+05   5.133132e-26   0.000000e+00   0.000000e+00
     2824000   2.823999e-06   2.551050e+01   2.820527e+01   2.379195e-02  -1.416500e+05   2.211912e+04   3.437906e+04   6.155027e+10   5.722727e+09   2.499220e+11   1.474310e+05   5.133425e-26   0.000000e+00   0.000000e+00
     2832000   2.831999e-06   2.550937e+01   2.820545e+01   2.407497e-02  -1.411439e+05   2.216237e+04   3.637507e+04   6.498866e+10   5.090682e+09   2.490716e+11   1.474310e+05   5.133729e-26   0.000000e+00   0.000000e+00
     2840000   2.839999e-06   2.550824e+01   2.820563e+01   2.437393e-02  -1.406102e+05   2.220058e+04   3.836408e+04   6.841532e+10   4.461693e+09   2.481725e+11   1.474310e+05   5.134044e-26   0.000000e+00   0.000000e+00
     2848000   2.847999e-06   2.550712e+01   2.820580e+01   2.468878e-02  -1.400492e+05   2.223376e+04   4.034570e+04   7.182959e+10   3.835809e+09   2.472249e+11   1.474310e+05   5.134370e-26   0.000000e+00   0.000000e+00
     2856000   2.855999e-06   2.550600e+01   2.820598e+01   2.501944e-02  -1.394610e+05   2.226196e+04   4.231954e+04   7.523079e+10   3.213072e+09   2.462290e+11   1.474310e+05   5.134706e-26   0.000000e+00   0.000000e+00
     2864000   2.863999e-06   2.550489e+01   2.820616e+01   2.536587e-02  -1.388456e+05   2.228518e+04   4.428523e+04   7.861826e+10   2.593523e+09   2.451849e+11   1.474310e+05   5.135053e-26   0.000000e+00   0.000000e+00
     2872000   2.871999e-06   2.550378e+01   2.820634e+01   2.572799e-02  -1.382031e+05   2.230346e+04   4.624237e+04   8.199135e+10   1.977198e+09   2.440928e+11   1.474310e+05   5.135410e-26   0.000000e+00   0.000000e+00
     2880000   2.879999e-06   2.550267e+01   2.820652e+01   2.610572e-02  -1.375338e+05   2.231682e+04   4.819059e+04   8.534939e+10   1.364128e+09   2.429530e+11   1.474310e+05   5.135778e-26   0.000000e+00   0.000000e+00
     2888000   2.887999e-06   2.550158e+01   2.820670e+01   2.649901e-02  -1.368376e+05   2.232530e+04   5.012949e+04   8.869173e+10   7.543409e+08   2.417656e+11   1.474310e+05   5.136156e-26   0.000000e+00   0.000000e+00
     2896000   2.895999e-06   2.550049e+01   2.820688e+01   2.690777e-02  -1.361147e+05   2.232890e+04   5.205871e+04   9.201771e+10   1.478615e+08   2.405309e+11   1.474310e+05   5.136544e-26   0.000000e+00   0.000000e+00
     2904000   2.903999e-06   2.549940e+01   2.820705e+01   2.733192e-02  -1.353653e+05   2.232771e+04   5.397798e+04   9.533851e+10  -4.458978e+08   2.392744e+11   1.474310e+05   5.138050e-26   0.000000e+00   0.000000e+00
     2912000   2.911999e-06   2.549832e+01   2.820723e+01   2.777139e-02  -1.345894e+05   2.232174e+04   5.588688e+04   9.862933e+10  -1.045382e+09   2.379425e+11   1.474310e+05   5.138331e-26   0.000000e+00   0.000000e+00
     2920000   2.919999e-06   2.549725e+01   2.820741e+01   2.822608e-02  -1.337873e+05   2.231099e+04   5.778493e+04   1.019017e+11  -1.641482e+09   2.365642e+11   1.474310e+05   5.138623e-26   0.000000e+00   0.000000e+00
     2928000   2.927999e-06   2.549618e+01   2.820759e+01   2.869592e-02  -1.329590e+05   2.229549e+04   5.967178e+04   1.051551e+11  -2.234188e+09   2.351395e+11   1.474310e+05   5.138926e-26   0.000000e+00   0.000000e+00
     2936000   2.935999e-06   2.549512e+01   2.820777e+01   2.918080e-02  -1.321048e+05   2.227525e+04   6.154704e+04   1.083887e+11  -2.823494e+09   2.336689e+11   1.474310e+05   5.139240e-26   0.000000e+00   0.000000e+00
     2944000   2.943999e-06   2.549407e+01   2.820795e+01   2.968064e-02  -1.312249e+05   2.225032e+04   6.341036e+04   1.116019e+11  -3.409400e+09   2.321525e+11   1.474310e+05   5.139565e-26   0.000000e+00   0.000000e+00
     2952000   2.951999e-06   2.549302e+01   2.820812e+01   3.019533e-02  -1.303193e+05   2.222071e+04   6.526136e+04   1.147942e+11  -3.991905e+09   2.305908e+11   1.474310e+05   5.139900e-26   0.000000e+00   0.000000e+00
     2960000   2.959999e-06   2.549198e+01   2.820830e+01   3.072479e-02  -1.293882e+05   2.218646e+04   6.709969e+04   1.179649e+11  -4.571014e+09   2.289839e+11   1.474311e+05   5.140246e-26   0.000000e+00   0.000000e+00
     2968000   2.967999e-06   2.549095e+01   2.820848e+01   3.126889e-02  -1.284319e+05   2.214758e+04   6.892498e+04   1.211133e+11  -5.146735e+09   2.273321e+11   1.474311e+05   5.140603e-26   0.000000e+00   0.000000e+00
     2976000   2.975999e-06   2.548993e+01   2.820866e+01   3.182755e-02  -1.274505e+05   2.210412e+04   7.073688e+04   1.242389e+11  -5.719078e+09   2.256359e+11   1.474311e+05   5.140971e-26   0.000000e+00   0.000000e+00
     2984000   2.983999e-06   2.548891e+01   2.820883e+01   3.240065e-02  -1.264441e+05   2.205609e+04   7.253503e+04   1.273409e+11  -6.288057e+09   2.238955e+11   1.474311e+05   5.141349e-26   0.000000e+00   0.000000e+00
     2992000   2.991999e-06   2.548790e+01   2.820901e+01   3.298807e-02  -1.254131e+05   2.200352e+04   7.431909e+04   1.304189e+11  -6.853687e+09   2.221112e+11   1.474311e+05   5.141738e-26   0.000000e+00   0.000000e+00
     3000000   2.999999e-06   2.548690e+01   2.820918e+01   3.358971e-02  -1.243575e+05   2.194644e+04   7.608870e+04   1.334722e+11  -7.415989e+09   2.202835e+11   1.474311e+05   5.142137e-26   0.000000e+00   0.000000e+00
     3008000   3.007999e-06   2.548591e+01   2.820936e+01   3.420545e-02  -1.232776e+05   2.188487e+04   7.784351e+04   1.365001e+11  -7.974982e+09   2.184125e+11   1.474311e+05   5.142546e-26   0.000000e+00   0.000000e+00
     3016000   3.015999e-06   2.548493e+01   2.820953e+01   3.483517e-02  -1.221735e+05   2.181885e+04   7.958318e+04   1.395021e+11  -8.530693e+09   2.164988e+11   1.474311e+05   5.142966e-26   0.000000e+00   0.000000e+00
     3024000   3.023999e-06   2.548396e+01   2.820971e+01   3.547874e-02  -1.210456e+05   2.174839e+04   8.130737e+04   1.424776e+11  -9.083146e+09   2.145426e+11   1.474311e+05   5.143397e-26   0.000000e+00   0.000000e+00
     3032000   3.031999e-06   2.548299e+01   2.820988e+01   3.613605e-02  -1.198940e+05   2.167352e+04   8.301575e+04   1.454259e+11  -9.632371e+09   2.125443e+11   1.474311e+05   5.143837e-26   0.000000e+00   0.000000e+00
     3040000   3.039999e-06   2.548204e+01   2.821006e+01   3.680695e-02  -1.187189e+05   2.159428e+04   8.470797e+04   1.483466e+11  -1.017840e+10   2.105043e+11   1.474311e+05   5.144288e-26   0.000000e+00   0.000000e+00
     3048000   3.047999e-06   2.548109e+01   2.821023e+01   3.749133e-02  -1.175205e+05   2.151068e+04   8.638370e+04   1.512389e+11  -1.072126e+10   2.084231e+11   1.474311e+05   5.144748e-26   0.000000e+00   0.000000e+00
     3056000   3.055999e-06   2.548016e+01   2.821040e+01   3.818905e-02  -1.162991e+05   2.142275e+04   8.804263e+04   1.541023e+11  -1.126100e+10   2.063009e+11   1.474311e+05   5.145219e-26   0.000000e+00   0.000000e+00
     3064000   3.063999e-06   2.547923e+01   2.821057e+01   3.889997e-02  -1.150549e+05   2.133051e+04   8.968441e+04   1.569363e+11  -1.179764e+10   2.041382e+11   1.474311e+05   5.145700e-26   0.000000e+00   0.000000e+00
     3072000   3.071999e-06   2.547832e+01   2.821074e+01   3.962395e-02  -1.137882e+05   2.123399e+04   9.130873e+04   1.597403e+11  -1.233123e+10   2.019354e+11   1.474311e+05   5.146190e-26   0.000000e+00   0.000000e+00
     3080000   3.079999e-06   2.547741e+01   2.821091e+01   4.036086e-02  -1.124992e+05   2.113322e+04   9.291527e+04   1.625136e+11  -1.286181e+10   1.996930e+11   1.474311e+05   5.146691e-26   0.000000e+00   0.000000e+00
     3088000   3.087999e-06   2.547652e+01   2.821108e+01   4.111055e-02  -1.111881e+05   2.102821e+04   9.450371e+04   1.652558e+11  -1.338941e+10   1.974113e+11   1.474311e+05   5.147201e-26   0.000000e+00   0.000000e+00
     3096000   3.095999e-06   2.547563e+01   2.821125e+01   4.187287e-02  -1.098552e+05   2.091899e+04   9.607374e+04   1.679663e+11  -1.391409e+10   1.950908e+11   1.474311e+05   5.147720e-26   0.000000e+00   0.000000e+00
     3104000   3.103999e-06   2.547476e+01   2.821141e+01   4.264768e-02  -1.085007e+05   2.080559e+04   9.762506e+04   1.706445e+11  -1.443588e+10   1.927319e+11   1.474311e+05   5.148249e-26   0.000000e+00   0.000000e+00
     3112000   3.111999e-06   2.547390e+01   2.821158e+01   4.343482e-02  -1.071249e+05   2.068803e+04   9.915735e+04   1.732899e+11  -1.495483e+10   1.903351e+11   1.474311e+05   5.148788e-26   0.000000e+00   0.000000e+00
     3120000   3.119999e-06   2.547305e+01   2.821174e+01   4.423414e-02  -1.057281e+05   2.056632e+04   1.006703e+05   1.759019e+11  -1.547099e+10   1.879008e+11   1.474311e+05   5.149336e-26   0.000000e+00   0.000000e+00
     3128000   3.127999e-06   2.547221e+01   2.821191e+01   4.504549e-02  -1.043106e+05   2.044050e+04   1.021637e+05   1.784801e+11  -1.598441e+10   1.854295e+11   1.474311e+05   5.149893e-26   0.000000e+00   0.000000e+00
     3136000   3.135999e-06   2.547138e+01   2.821207e+01   4.586871e-02  -1.028725e+05   2.031058e+04   1.036371e+05   1.810238e+11  -1.649512e+10   1.829217e+11   1.474311e+05   5.150459e-26   0.000000e+00   0.000000e+00
     3144000   3.143999e-06   2.547056e+01   2.821223e+01   4.670363e-02  -1.014143e+05   2.017658e+04   1.050903e+05   1.835326e+11  -1.700319e+10   1.803778e+11   1.474311e+05   5.151034e-26   0.000000e+00   0.000000e+00
     3152000   3.151999e-06   2.546976e+01   2.821239e+01   4.755010e-02  -9.993612e+04   2.003853e+04   1.065230e+05   1.860059e+11  -1.750865e+10   1.777984e+11   1.474311e+05   5.151617e-26   0.000000e+00   0.000000e+00
     3160000   3.159999e-06   2.546896e+01   2.821255e+01   4.840794e-02  -9.843830e+04   1.989645e+04   1.079350e+05   1.884432e+11  -1.801157e+10   1.751838e+11   1.474311e+05   5.152210e-26   0.000000e+00   0.000000e+00
     3168000   3.167999e-06   2.546818e+01   2.821271e+01   4.927700e-02  -9.692112e+04   1.975035e+04   1.093259e+05   1.908441e+11  -1.851198e+10   1.725347e+11   1.474311e+05   5.152811e-26   0.000000e+00   0.000000e+00
     3176000   3.175999e-06   2.546741e+01   2.821287e+01   5.015710e-02  -9.538489e+04   1.960026e+04   1.106954e+05   1.932080e+11  -1.900994e+10   1.698515e+11   1.474311e+05   5.153420e-26   0.000000e+00   0.000000e+00
     3184000   3.183999e-06   2.546665e+01   2.821303e+01   5.104807e-02  -9.382989e+04   1.944620e+04   1.120434e+05   1.955345e+11  -1.950549e+10   1.671348e+11   1.474311e+05   5.154038e-26   0.000000e+00   0.000000e+00
     3192000   3.191999e-06   2.546591e+01   2.821318e+01   5.194974e-02  -9.225644e+04   1.928818e+04   1.133695e+05   1.978230e+11  -1.999870e+10   1.643850e+11   1.474311e+05   5.154664e-26   0.000000e+00   0.000000e+00
     3200000   3.199999e-06   2.546518e+01   2.821333e+01   5.286192e-02  -9.066482e+04   1.912623e+04   1.146735e+05   2.000731e+11  -2.048960e+10   1.616027e+11   1.474311e+05   5.155297e-26   0.000000e+00   0.000000e+00
     3208000   3.207999e-06   2.546446e+01   2.821349e+01   5.378445e-02  -8.905537e+04   1.896035e+04   1.159551e+05   2.022843e+11  -2.097824e+10   1.587884e+11   1.474311e+05   5.155939e-26   0.000000e+00   0.000000e+00
     3216000   3.215999e-06   2.546375e+01   2.821364e+01   5.471715e-02  -8.742838e+04   1.879058e+04   1.172140e+05   2.044561e+11  -2.146468e+10   1.559427e+11   1.474311e+05   5.156588e-26   0.000000e+00   0.000000e+00
     3224000   3.223999e-06   2.546306e+01   2.821379e+01   5.565982e-02  -8.578417e+04   1.861692e+04   1.184501e+05   2.065882e+11  -2.194895e+10   1.530661e+11   1.474311e+05   5.157245e-26   0.000000e+00   0.000000e+00
     3232000   3.231999e-06   2.546238e+01   2.821394e+01   5.661228e-02  -8.412307e+04   1.843940e+04   1.196630e+05   2.086799e+11  -2.243112e+10   1.501591e+11   1.474311e+05   5.157909e-26   0.000000e+00   0.000000e+00
     3240000   3.239999e-06   2.546172e+01   2.821408e+01   5.757436e-02  -8.244540e+04   1.825803e+04   1.208525e+05   2.107310e+11  -2.291121e+10   1.472223e+11   1.474311e+05   5.158581e-26   0.000000e+00   0.000000e+00
     3248000   3.247999e-06   2.546106e+01   2.821423e+01   5.854586e-02  -8.075148e+04   1.807283e+04   1.220185e+05   2.127410e+11  -2.338929e+10   1.442562e+11   1.474311e+05   5.159259e-26   0.000000e+00   0.000000e+00
     3256000   3.255999e-06   2.546042e+01   2.821437e+01   5.952659e-02  -7.904165e+04   1.788381e+04   1.231605e+05   2.147093e+11  -2.386538e+10   1.412616e+11   1.474311e+05   5.159944e-26   0.000000e+00   0.000000e+00
     3264000   3.263999e-06   2.545980e+01   2.821451e+01   6.051637e-02  -7.731625e+04   1.769099e+04   1.242786e+05   2.166357e+11  -2.433954e+10   1.382388e+11   1.474311e+05   5.160636e-26   0.000000e+00   0.000000e+00
     3272000   3.271999e-06   2.545919e+01   2.821466e+01   6.151499e-02  -7.557559e+04   1.749438e+04   1.253723e+05   2.185197e+11  -2.481180e+10   1.351885e+11   1.474311e+05   5.161334e-26   0.000000e+00   0.000000e+00
     3280000   3.279999e-06   2.545859e+01   2.821479e+01   6.252226e-02  -7.382004e+04   1.729400e+04   1.264415e+05   2.203609e+11  -2.528220e+10   1.321113e+11   1.474311e+05   5.162038e-26   0.000000e+00   0.000000e+00
     3288000   3.287999e-06   2.545800e+01   2.821493e+01   6.353798e-02  -7.204993e+04   1.708987e+04   1.274860e+05   2.221589e+11  -2.575079e+10   1.290077e+11   1.474311e+05   5.162749e-26   0.000000e+00   0.000000e+00
     3296000   3.295999e-06   2.545744e+01   2.821507e+01   6.456197e-02  -7.026561e+04   1.688199e+04   1.285056e+05   2.239134e+11  -2.621759e+10   1.258785e+11   1.474311e+05   5.163466e-26   0.000000e+00   0.000000e+00
     3304000   3.303999e-06   2.545688e+01   2.821520e+01   6.559401e-02  -6.846743e+04   1.667039e+04   1.295000e+05   2.256238e+11  -2.668265e+10   1.227240e+11   1.474311e+05   5.164188e-26   0.000000e+00   0.000000e+00
     3312000   3.311999e-06   2.545634e+01   2.821533e+01   6.663390e-02  -6.665575e+04   1.645508e+04   1.304691e+05   2.272900e+11  -2.714599e+10   1.195451e+11   1.474311e+05   5.164916e-26   0.000000e+00   0.000000e+00
     3320000   3.319999e-06   2.545581e+01   2.821547e+01   6.768144e-02  -6.483091e+04   1.623606e+04   1.314126e+05   2.289114e+11  -2.760765e+10   1.163422e+11   1.474311e+05   5.165649e-26   0.000000e+00   0.000000e+00
     3328000   3.327999e-06   2.545530e+01   2.821559e+01   6.873643e-02  -6.299328e+04   1.601336e+04   1.323305e+05   2.304878e+11  -2.806764e+10   1.131161e+11   1.474311e+05   5.166387e-26   0.000000e+00   0.000000e+00
     3336000   3.335999e-06   2.545481e+01   2.821572e+01   6.979866e-02  -6.114323e+04   1.578698e+04   1.332224e+05   2.320188e+11  -2.852601e+10   1.098673e+11   1.474311e+05   5.167130e-26   0.000000e+00   0.000000e+00
     3344000   3.343999e-06   2.545432e+01   2.821585e+01   7.086792e-02  -5.928110e+04   1.555694e+04   1.340883e+05   2.335040e+11  -2.898277e+10   1.065964e+11   1.474311e+05   5.167879e-26   0.000000e+00   0.000000e+00
     3352000   3.351999e-06   2.545386e+01   2.821597e+01   7.194401e-02  -5.740728e+04   1.532326e+04   1.349279e+05   2.349432e+11  -2.943794e+10   1.033041e+11   1.474311e+05   5.168631e-26   0.000000e+00   0.000000e+00
     3360000   3.359999e-06   2.545341e+01   2.821609e+01   7.302670e-02  -5.552214e+04   1.508594e+04   1.357411e+05   2.363360e+11  -2.989154e+10   9.999099e+10   1.474311e+05   5.169389e-26   0.000000e+00   0.000000e+00
     3368000   3.367999e-06   2.545297e+01   2.821621e+01   7.411579e-02  -5.362603e+04   1.484500e+04   1.365277e+05   2.376821e+11  -3.034359e+10   9.665777e+10   1.474311e+05   5.170150e-26   0.000000e+00   0.000000e+00
     3376000   3.375999e-06   2.545255e+01   2.821633e+01   7.521107e-02  -5.171935e+04   1.460045e+04   1.372876e+05   2.389812e+11  -3.079410e+10   9.330506e+10   1.474311e+05   5.170916e-26   0.000000e+00   0.000000e+00
     3384000   3.383999e-06   2.545214e+01   2.821645e+01   7.631232e-02  -4.980246e+04   1.435230e+04   1.380205e+05   2.402330e+11  -3.124308e+10   8.993350e+10   1.474311e+05   5.171685e-26   0.000000e+00   0.000000e+00
     3392000   3.391999e-06   2.545175e+01   2.821656e+01   7.741933e-02  -4.787574e+04   1.410056e+04   1.387265e+05   2.414372e+11  -3.169054e+10   8.654374e+10   1.474311e+05   5.172458e-26   0.000000e+00   0.000000e+00
     3400000   3.399999e-06   2.545138e+01   2.821667e+01   7.853187e-02  -4.593959e+04   1.384525e+04   1.394052e+05   2.425936e+11  -3.213649e+10   8.313645e+10   1.474312e+05   5.173235e-26   0.000000e+00   0.000000e+00
     3408000   3.407999e-06   2.545102e+01   2.821678e+01   7.964974e-02  -4.399437e+04   1.358638e+04   1.400566e+05   2.437018e+11  -3.258091e+10   7.971229e+10   1.474312e+05   5.174015e-26   0.000000e+00   0.000000e+00
     3416000   3.415999e-06   2.545067e+01   2.821689e+01   8.077270e-02  -4.204049e+04   1.332396e+04   1.406805e+05   2.447617e+11  -3.302382e+10   7.627191e+10   1.474312e+05   5.174798e-26   0.000000e+00   0.000000e+00
     3424000   3.423999e-06   2.545034e+01   2.821699e+01   8.190055e-02  -4.007832e+04   1.305800e+04   1.412769e+05   2.457729e+11  -3.346521e+10   7.281600e+10   1.474312e+05   5.175584e-26   0.000000e+00   0.000000e+00
     3432000   3.431999e-06   2.545003e+01   2.821710e+01   8.303306e-02  -3.810825e+04   1.278852e+04   1.418456e+05   2.467352e+11  -3.390507e+10   6.934522e+10   1.474312e+05   5.176374e-26   0.000000e+00   0.000000e+00
     3440000   3.439999e-06   2.544973e+01   2.821720e+01   8.417001e-02  -3.613068e+04   1.251553e+04   1.423864e+05   2.476485e+11  -3.434339e+10   6.586024e+10   1.474312e+05   5.177166e-26   0.000000e+00   0.000000e+00
     3448000   3.447999e-06   2.544945e+01   2.821730e+01   8.531117e-02  -3.414600e+04   1.223903e+04   1.428993e+05   2.485124e+11  -3.478015e+10   6.236175e+10   1.474312e+05   5.177960e-26   0.000000e+00   0.000000e+00
     3456000   3.455999e-06   2.544919e+01   2.821739e+01   8.645632e-02  -3.215461e+04   1.195905e+04   1.433841e+05   2.493268e+11  -3.521534e+10   5.885042e+10   1.474312e+05   5.178757e-26   0.000000e+00   0.000000e+00
     3464000   3.463999e-06   2.544894e+01   2.821749e+01   8.760524e-02  -3.015691e+04   1.167559e+04   1.438408e+05   2.500915e+11  -3.564893e+10   5.532695e+10   1.474312e+05   5.179557e-26   0.000000e+00   0.000000e+00
     3472000   3.471999e-06   2.544871e+01   2.821758e+01   8.875770e-02  -2.815328e+04   1.138867e+04   1.442693e+05   2.508063e+11  -3.608089e+10   5.179202e+10   1.474312e+05   5.180359e-26   0.000000e+00   0.000000e+00
     3480000   3.479999e-06   2.544849e+01   2.821767e+01   8.991347e-02  -2.614414e+04   1.109830e+04   1.446695e+05   2.514709e+11  -3.651121e+10   4.824632e+10   1.474312e+05   5.181162e-26   0.000000e+00   0.000000e+00
     3488000   3.487999e-06   2.544829e+01   2.821776e+01   9.107234e-02  -2.412988e+04   1.080449e+04   1.450412e+05   2.520853e+11  -3.693984e+10   4.469054e+10   1.474312e+05   5.181968e-26   0.000000e+00   0.000000e+00
     3496000   3.495999e-06   2.544810e+01   2.821784e+01   9.223406e-02  -2.211091e+04   1.050727e+04   1.453845e+05   2.526493e+11  -3.736676e+10   4.112539e+10   1.474312e+05   5.182775e-26   0.000000e+00   0.000000e+00
     3504000   3.503999e-06   2.544793e+01   2.821793e+01   9.339841e-02  -2.008763e+04   1.020663e+04   1.456992e+05   2.531627e+11  -3.779191e+10   3.755155e+10   1.474312e+05   5.183585e-26   0.000000e+00   0.000000e+00
     3512000   3.511999e-06   2.544778e+01   2.821801e+01   9.456517e-02  -1.806044e+04   9.902600e+03   1.459853e+05   2.536253e+11  -3.821527e+10   3.396974e+10   1.474312e+05   5.184395e-26   0.000000e+00   0.000000e+00
     3520000   3.519999e-06   2.544764e+01   2.821809e+01   9.573410e-02  -1.602976e+04   9.595190e+03   1.462427e+05   2.540371e+11  -3.863677e+10   3.038064e+10   1.474312e+05   5.185208e-26   0.000000e+00   0.000000e+00
     3528000   3.527999e-06   2.544752e+01   2.821816e+01   9.690498e-02  -1.399598e+04   9.284416e+03   1.464714e+05   2.543979e+11  -3.905637e+10   2.678497e+10   1.474312e+05   5.186022e-26   0.000000e+00   0.000000e+00
     3536000   3.535999e-06   2.544742e+01   2.821823e+01   9.807757e-02  -1.195953e+04   8.970293e+03   1.466713e+05   2.547077e+11  -3.947401e+10   2.318343e+10   1.474312e+05   5.186837e-26   0.000000e+00   0.000000e+00
     3544000   3.543999e-06   2.544733e+01   2.821830e+01   9.925164e-02  -9.920796e+03   8.652837e+03   1.468423e+05   2.549662e+11  -3.988964e+10   1.957674e+10   1.474312e+05   5.187654e-26   0.000000e+00   0.000000e+00
     3552000   3.551999e-06   2.544726e+01   2.821837e+01   1.004270e-01  -7.880251e+03   8.332007e+03   1.469845e+05   2.551570e+11  -4.032265e+10   1.596588e+10   1.474312e+05   5.187941e-26   0.000000e+00   0.000000e+00
     3560000   3.559999e-06   2.544721e+01   2.821844e+01   1.016033e-01  -5.838336e+03   8.007781e+03   1.470977e+05   2.553133e+11  -4.073366e+10   1.235137e+10   1.474312e+05   5.188774e-26   0.000000e+00   0.000000e+00
     3568000   3.567999e-06   2.544717e+01   2.821850e+01   1.027805e-01  -3.795375e+03   7.680274e+03   1.471821e+05   2.554182e+11  -4.114247e+10   8.733810e+09   1.474312e+05   5.189608e-26   0.000000e+00   0.000000e+00
     3576000   3.575999e-06   2.544715e+01   2.821856e+01   1.039581e-01  -1.751782e+03   7.349507e+03   1.472375e+05   2.554716e+11  -4.154902e+10   5.113931e+09   1.474312e+05   5.190442e-26   0.000000e+00   0.000000e+00
     3584000   3.583999e-06   2.544714e+01   2.821862e+01   1.051362e-01   2.920328e+02   7.015496e+03   1.472639e+05   2.554735e+11  -4.195321e+10   1.492443e+09   1.474312e+05   5.191278e-26   0.000000e+00   0.000000e+00
     3592000   3.591999e-06   2.544715e+01   2.821867e+01   1.063143e-01   2.335656e+03   6.678261e+03   1.472613e+05   2.554238e+11  -4.235498e+10  -2.129938e+09   1.474312e+05   5.192114e-26   0.000000e+00   0.000000e+00
     3600000   3.599999e-06   2.544718e+01   2.821872e+01   1.074923e-01   4.378676e+03   6.337823e+03   1.472298e+05   2.553225e+11  -4.275422e+10  -5.752495e+09   1.474312e+05   5.192952e-26   0.000000e+00   0.000000e+00
     3608000   3.607999e-06   2.544722e+01   2.821877e+01   1.086699e-01   6.420679e+03   5.994200e+03   1.471693e+05   2.551696e+11  -4.315087e+10  -9.374511e+09   1.474312e+05   5.193790e-26   0.000000e+00   0.000000e+00
     3616000   3.615999e-06   2.544728e+01   2.821882e+01   1.098469e-01   8.461252e+03   5.647416e+03   1.470798e+05   2.549651e+11  -4.354481e+10  -1.299527e+10   1.474312e+05   5.194629e-26   0.000000e+00   0.000000e+00
     3624000   3.623999e-06   2.544736e+01   2.821886e+01   1.110231e-01   1.049998e+04   5.297490e+03   1.469614e+05   2.547090e+11  -4.393596e+10  -1.661405e+10   1.474312e+05   5.195468e-26   0.000000e+00   0.000000e+00
     3632000   3.631999e-06   2.544745e+01   2.821891e+01   1.121982e-01   1.253646e+04   4.944448e+03   1.468140e+05   2.544014e+11  -4.432421e+10  -2.023013e+10   1.474312e+05   5.196309e-26   0.000000e+00   0.000000e+00
     3640000   3.639999e-06   2.544756e+01   2.821894e+01   1.133720e-01   1.457027e+04   4.588311e+03   1.466377e+05   2.540421e+11  -4.470946e+10  -2.384280e+10   1.474312e+05   5.197150e-26   0.000000e+00   0.000000e+00
     3648000   3.647999e-06   2.544768e+01   2.821898e+01   1.145443e-01   1.660099e+04   4.229104e+03   1.464325e+05   2.536313e+11  -4.509159e+10  -2.745133e+10   1.474312e+05   5.197992e-26   0.000000e+00   0.000000e+00
     3656000   3.655999e-06   2.544782e+01   2.821901e+01   1.157149e-01   1.862823e+04   3.866853e+03   1.461985e+05   2.531691e+11  -4.547051e+10  -3.105502e+10   1.474312e+05   5.198835e-26   0.000000e+00   0.000000e+00
     3664000   3.663999e-06   2.544798e+01   2.821904e+01   1.168834e-01   2.065156e+04   3.501584e+03   1.459356e+05   2.526554e+11  -4.584609e+10  -3.465313e+10   1.474312e+05   5.199679e-26   0.000000e+00   0.000000e+00
     3672000   3.671999e-06   2.544815e+01   2.821907e+01   1.180498e-01   2.267058e+04   3.133325e+03   1.456441e+05   2.520904e+11  -4.621822e+10  -3.824496e+10   1.474312e+05   5.200523e-26   0.000000e+00   0.000000e+00
     3680000   3.679999e-06   2.544834e+01   2.821909e+01   1.192137e-01   2.468487e+04   2.762102e+03   1.453237e+05   2.514741e+11  -4.658677e+10  -4.182978e+10   1.474312e+05   5.201369e-26   0.000000e+00   0.000000e+00
     3688000   3.687999e-06   2.544855e+01   2.821911e+01   1.203749e-01   2.669403e+04   2.387946e+03   1.449748e+05   2.508066e+11  -4.695162e+10  -4.540688e+10   1.474312e+05   5.202215e-26   0.000000e+00   0.000000e+00
     3696000   3.695999e-06   2.544877e+01   2.821913e+01   1.215332e-01   2.869764e+04   2.010886e+03   1.445973e+05   2.500881e+11  -4.731264e+10  -4.897555e+10   1.474312e+05   5.203063e-26   0.000000e+00   0.000000e+00
     3704000   3.703999e-06   2.544901e+01   2.821914e+01   1.226884e-01   3.069530e+04   1.630954e+03   1.441912e+05   2.493186e+11  -4.766969e+10  -5.253507e+10   1.474312e+05   5.203911e-26   0.000000e+00   0.000000e+00
     3712000   3.711999e-06   2.544926e+01   2.821915e+01   1.238402e-01   3.268660e+04   1.248182e+03   1.437567e+05   2.484983e+11  -4.802264e+10  -5.608472e+10   1.474312e+05   5.204760e-26   0.000000e+00   0.000000e+00
     3720000   3.719999e-06   2.544953e+01   2.821916e+01   1.249884e-01   3.467114e+04   8.626025e+02   1.432939e+05   2.476272e+11  -4.837136e+10  -5.962380e+10   1.474312e+05   5.205611e-26   0.000000e+00   0.000000e+00
     3728000   3.727999e-06   2.544982e+01   2.821917e+01   1.261328e-01   3.664850e+04   4.742512e+02   1.428028e+05   2.467057e+11  -4.871570e+10  -6.315159e+10   1.474312e+05   5.206462e-26   0.000000e+00   0.000000e+00
     3736000   3.735999e-06   2.545012e+01   2.821917e+01   1.272732e-01   3.861829e+04   8.316306e+01   1.422835e+05   2.457337e+11  -4.905552e+10  -6.666739e+10   1.474312e+05   5.207315e-26   0.000000e+00   0.000000e+00
     3744000   3.743999e-06   2.545043e+01   2.821917e+01   1.284093e-01   4.058010e+04  -3.106250e+02   1.417361e+05   2.447115e+11  -4.939066e+10  -7.017049e+10   1.474312e+05   5.208168e-26   0.000000e+00   0.000000e+00
     3752000   3.751999e-06   2.545077e+01   2.821917e+01   1.295409e-01   4.253354e+04  -7.070750e+02   1.411608e+05   2.436393e+11  -4.972099e+10  -7.366019e+10   1.474312e+05   5.209024e-26   0.000000e+00   0.000000e+00
     3760000   3.759999e-06   2.545111e+01   2.821916e+01   1.306678e-01   4.447820e+04  -1.106148e+03   1.405576e+05   2.425172e+11  -5.004635e+10  -7.713578e+10   1.474312e+05   5.209880e-26   0.000000e+00   0.000000e+00
     3768000   3.767999e-06   2.545148e+01   2.821915e+01   1.317897e-01   4.641368e+04  -1.507803e+03   1.399266e+05   2.413454e+11  -5.036658e+10  -8.059656e+10   1.474312e+05   5.210737e-26   0.000000e+00   0.000000e+00
     3776000   3.775999e-06   2.545186e+01   2.821913e+01   1.329065e-01   4.833959e+04  -1.911999e+03   1.392681e+05   2.401243e+11  -5.068152e+10  -8.404183e+10   1.474312e+05   5.211596e-26   0.000000e+00   0.000000e+00
     3784000   3.783999e-06   2.545225e+01   2.821912e+01   1.340179e-01   5.025554e+04  -2.318693e+03   1.385820e+05   2.388539e+11  -5.099102e+10  -8.747091e+10   1.474312e+05   5.212457e-26   0.000000e+00   0.000000e+00
     3792000   3.791999e-06   2.545266e+01   2.821910e+01   1.351237e-01   5.216112e+04  -2.727841e+03   1.378686e+05   2.375345e+11  -5.129492e+10  -9.088309e+10   1.474312e+05   5.213318e-26   0.000000e+00   0.000000e+00
     3800000   3.799999e-06   2.545308e+01   2.821907e+01   1.362238e-01   5.405596e+04  -3.139397e+03   1.371279e+05   2.361664e+11  -5.159304e+10  -9.427768e+10   1.474312e+05   5.214182e-26   0.000000e+00   0.000000e+00
     3808000   3.807999e-06   2.545352e+01   2.821905e+01   1.373177e-01   5.593965e+04  -3.553314e+03   1.363602e+05   2.347498e+11  -5.188523e+10  -9.765401e+10   1.474312e+05   5.215046e-26   0.000000e+00   0.000000e+00
     3816000   3.815999e-06   2.545398e+01   2.821902e+01   1.384054e-01   5.781182e+04  -3.969545e+03   1.355655e+05   2.332850e+11  -5.217131e+10  -1.010114e+11   1.474312e+05   5.215912e-26   0.000000e+00   0.000000e+00
     3824000   3.823999e-06   2.545445e+01   2.821898e+01   1.394867e-01   5.967208e+04  -4.388039e+03   1.347441e+05   2.317722e+11  -5.245112e+10  -1.043491e+11   1.474312e+05   5.216780e-26   0.000000e+00   0.000000e+00
     3832000   3.831999e-06   2.545493e+01   2.821895e+01   1.405613e-01   6.152005e+04  -4.808746e+03   1.338960e+05   2.302118e+11  -5.272448e+10  -1.076665e+11   1.474312e+05   5.217649e-26   0.000000e+00   0.000000e+00
     3840000   3.839999e-06   2.545543e+01   2.821891e+01   1.416290e-01   6.335535e+04  -5.231613e+03   1.330214e+05   2.286041e+11  -5.299122e+10  -1.109630e+11   1.474313e+05   5.218520e-26   0.000000e+00   0.000000e+00
     3848000   3.847999e-06   2.545595e+01   2.821886e+01   1.426896e-01   6.517759e+04  -5.656587e+03   1.321206e+05   2.269493e+11  -5.325117e+10  -1.142378e+11   1.474313e+05   5.219392e-26   0.000000e+00   0.000000e+00
     3856000   3.855999e-06   2.545648e+01   2.821882e+01   1.437428e-01   6.698641e+04  -6.083613e+03   1.311937e+05   2.252478e+11  -5.350415e+10  -1.174902e+11   1.474313e+05   5.220266e-26   0.000000e+00   0.000000e+00
     3864000   3.863999e-06   2.545702e+01   2.821877e+01   1.447886e-01   6.878143e+04  -6.512635e+03   1.302408e+05   2.235000e+11  -5.374998e+10  -1.207197e+11   1.474313e+05   5.221142e-26   0.000000e+00   0.000000e+00
     3872000   3.871999e-06   2.545758e+01   2.821871e+01   1.458266e-01   7.056228e+04  -6.943594e+03   1.292622e+05   2.217060e+11  -5.398848e+10  -1.239255e+11   1.474313e+05   5.222018e-26   0.000000e+00   0.000000e+00
     3880000   3.879999e-06   2.545815e+01   2.821865e+01   1.468567e-01   7.232860e+04  -7.376431e+03   1.282581e+05   2.198664e+11  -5.421949e+10  -1.271071e+11   1.474313e+05   5.222897e-26   0.000000e+00   0.000000e+00
     3888000   3.887999e-06   2.545873e+01   2.821859e+01   1.478787e-01   7.408002e+04  -7.811085e+03   1.272286e+05   2.179814e+11  -5.444281e+10  -1.302637e+11   1.474313e+05   5.223776e-26   0.000000e+00   0.000000e+00
     3896000   3.895999e-06   2.545933e+01   2.821853e+01   1.488923e-01   7.581618e+04  -8.247495e+03   1.261739e+05   2.160515e+11  -5.465827e+10  -1.333947e+11   1.474313e+05   5.224658e-26   0.000000e+00   0.000000e+00
     3904000   3.903999e-06   2.545995e+01   2.821846e+01   1.498974e-01   7.753673e+04  -8.685596e+03   1.250943e+05   2.140770e+11  -5.486568e+10  -1.364994e+11   1.474313e+05   5.225540e-26   0.000000e+00   0.000000e+00
     3912000   3.911999e-06   2.546057e+01   2.821839e+01   1.508937e-01   7.924130e+04  -9.125324e+03   1.239900e+05   2.120584e+11  -5.506488e+10  -1.395773e+11   1.474313e+05   5.226424e-26   0.000000e+00   0.000000e+00
     3920000   3.919999e-06   2.546122e+01   2.821832e+01   1.518812e-01   8.092954e+04  -9.566612e+03   1.228612e+05   2.099959e+11  -5.525566e+10  -1.426278e+11   1.474313e+05   5.227309e-26   0.000000e+00   0.000000e+00
     3928000   3.927999e-06   2.546187e+01   2.821824e+01   1.528595e-01   8.260111e+04  -1.000939e+04   1.217080e+05   2.078901e+11  -5.543787e+10  -1.456501e+11   1.474313e+05   5.228195e-26   0.000000e+00   0.000000e+00
     3936000   3.935999e-06   2.546254e+01   2.821816e+01   1.538284e-01   8.425567e+04  -1.045359e+04   1.205308e+05   2.057413e+11  -5.561130e+10  -1.486436e+11   1.474313e+05   5.229082e-26   0.000000e+00   0.000000e+00
     3944000   3.943999e-06   2.546322e+01   2.821807e+01   1.547879e-01   8.589286e+04  -1.089915e+04   1.193298e+05   2.035500e+11  -5.577580e+10  -1.516078e+11   1.474313e+05   5.229969e-26   0.000000e+00   0.000000e+00
     3952000   3.951999e-06   2.546391e+01   2.821798e+01   1.557376e-01   8.751235e+04  -1.134598e+04   1.181052e+05   2.013167e+11  -5.593116e+10  -1.545421e+11   1.474313e+05   5.230858e-26   0.000000e+00   0.000000e+00
     3960000   3.959999e-06   2.546462e+01   2.821789e+01   1.566775e-01   8.911381e+04  -1.179402e+04   1.168572e+05   1.990418e+11  -5.607722e+10  -1.574458e+11   1.474313e+05   5.231747e-26   0.000000e+00   0.000000e+00
     3968000   3.967999e-06   2.546534e+01   2.821779e+01   1.576073e-01   9.069691e+04  -1.224319e+04   1.155861e+05   1.967256e+11  -5.621380e+10  -1.603183e+11   1.474313e+05   5.232637e-26   0.000000e+00   0.000000e+00
     3976000   3.975999e-06   2.546607e+01   2.821769e+01   1.585268e-01   9.226131e+04  -1.269342e+04   1.142922e+05   1.943689e+11  -5.634072e+10  -1.631591e+11   1.474313e+05   5.233527e-26   0.000000e+00   0.000000e+00
     3984000   3.983999e-06   2.546681e+01   2.821759e+01   1.594359e-01   9.380670e+04  -1.314462e+04   1.129757e+05   1.919719e+11  -5.645780e+10  -1.659676e+11   1.474313e+05   5.234417e-26   0.000000e+00   0.000000e+00
     3992000   3.991999e-06   2.546757e+01   2.821748e+01   1.603344e-01   9.533275e+04  -1.359672e+04   1.116368e+05   1.895352e+11  -5.656486e+10  -1.687431e+11   1.474313e+05   5.235307e-26   0.000000e+00   0.000000e+00
     4000000   3.999999e-06   2.546834e+01   2.821737e+01   1.612220e-01   9.683916e+04  -1.404963e+04   1.102759e+05   1.870593e+11  -5.666175e+10  -1.714851e+11   1.474313e+05   5.236197e-26   0.000000e+00   0.000000e+00
     4008000   4.007999e-06   2.546912e+01   2.821726e+01   1.620987e-01   9.832560e+04  -1.450328e+04   1.088931e+05   1.845447e+11  -5.674827e+10  -1.741931e+11   1.474313e+05   5.237086e-26   0.000000e+00   0.000000e+00
     4016000   4.015999e-06   2.546991e+01   2.821714e+01   1.629643e-01   9.979177e+04  -1.495757e+04   1.074889e+05   1.819920e+11  -5.682427e+10  -1.768665e+11   1.474313e+05   5.237974e-26   0.000000e+00   0.000000e+00
     4024000   4.023999e-06   2.547072e+01   2.821702e+01   1.638185e-01   1.012374e+05  -1.541244e+04   1.060634e+05   1.794016e+11  -5.688957e+10  -1.795048e+11   1.474313e+05   5.238862e-26   0.000000e+00   0.000000e+00
     4032000   4.031999e-06   2.547153e+01   2.821689e+01   1.646612e-01   1.026621e+05  -1.586778e+04   1.046169e+05   1.767740e+11  -5.694401e+10  -1.821073e+11   1.474313e+05   5.239749e-26   0.000000e+00   0.000000e+00
     4040000   4.039999e-06   2.547236e+01   2.821676e+01   1.654923e-01   1.040657e+05  -1.632351e+04   1.031497e+05   1.741100e+11  -5.698742e+10  -1.846736e+11   1.474313e+05   5.240634e-26   0.000000e+00   0.000000e+00
     4048000   4.047999e-06   2.547320e+01   2.821663e+01   1.663116e-01   1.054478e+05  -1.677955e+04   1.016622e+05   1.714099e+11  -5.701965e+10  -1.872031e+11   1.474313e+05   5.241517e-26   0.000000e+00   0.000000e+00
     4056000   4.055999e-06   2.547405e+01   2.821650e+01   1.671189e-01   1.068081e+05  -1.723580e+04   1.001546e+05   1.686743e+11  -5.704052e+10  -1.896953e+11   1.474313e+05   5.242398e-26   0.000000e+00   0.000000e+00
     4064000   4.063999e-06   2.547491e+01   2.821636e+01   1.679140e-01   1.081464e+05  -1.769217e+04   9.862719e+04   1.659039e+11  -5.704990e+10  -1.921497e+11   1.474313e+05   5.243277e-26   0.000000e+00   0.000000e+00
     4072000   4.071999e-06   2.547578e+01   2.821621e+01   1.686968e-01   1.094625e+05  -1.814856e+04   9.708030e+04   1.630992e+11  -5.704761e+10  -1.945658e+11   1.474313e+05   5.244153e-26   0.000000e+00   0.000000e+00
     4080000   4.079999e-06   2.547666e+01   2.821607e+01   1.694672e-01   1.107559e+05  -1.860490e+04   9.551424e+04   1.602607e+11  -5.703352e+10  -1.969430e+11   1.474313e+05   5.245027e-26   0.000000e+00   0.000000e+00
     4088000   4.087999e-06   2.547755e+01   2.821592e+01   1.702250e-01   1.120266e+05  -1.906107e+04   9.392931e+04   1.573892e+11  -5.700747e+10  -1.992810e+11   1.474313e+05   5.245897e-26   0.000000e+00   0.000000e+00
     4096000   4.095999e-06   2.547845e+01   2.821576e+01   1.709700e-01   1.132741e+05  -1.951698e+04   9.232584e+04   1.544851e+11  -5.696932e+10  -2.015791e+11   1.474313e+05   5.246763e-26   0.000000e+00   0.000000e+00
     4104000   4.103999e-06   2.547936e+01   2.821560e+01   1.717022e-01   1.144982e+05  -1.997254e+04   9.070415e+04   1.515492e+11  -5.691893e+10  -2.038370e+11   1.474313e+05   5.247625e-26   0.000000e+00   0.000000e+00
     4112000   4.111999e-06   2.548028e+01   2.821544e+01   1.724213e-01   1.156988e+05  -2.042765e+04   8.906456e+04   1.485819e+11  -5.685617e+10  -2.060541e+11   1.474313e+05   5.248483e-26   0.000000e+00   0.000000e+00
     4120000   4.119999e-06   2.548121e+01   2.821528e+01   1.731272e-01   1.168755e+05  -2.088221e+04   8.740739e+04   1.455840e+11  -5.678089e+10  -2.082300e+11   1.474313e+05   5.249336e-26   0.000000e+00   0.000000e+00
     4128000   4.127999e-06   2.548215e+01   2.821511e+01   1.738197e-01   1.180280e+05  -2.133611e+04   8.573299e+04   1.425561e+11  -5.669298e+10  -2.103643e+11   1.474313e+05   5.250183e-26   0.000000e+00   0.000000e+00
     4136000   4.135999e-06   2.548310e+01   2.821494e+01   1.744988e-01   1.191563e+05  -2.178926e+04   8.404168e+04   1.394988e+11  -5.659229e+10  -2.124564e+11   1.474313e+05   5.251025e-26   0.000000e+00   0.000000e+00
     4144000   4.143999e-06   2.548406e+01   2.821476e+01   1.751644e-01   1.202599e+05  -2.224156e+04   8.233380e+04   1.364127e+11  -5.647873e+10  -2.145060e+11   1.474313e+05   5.251861e-26   0.000000e+00   0.000000e+00
     4152000   4.151999e-06   2.548502e+01   2.821458e+01   1.758161e-01   1.213388e+05  -2.269289e+04   8.060969e+04   1.332986e+11  -5.635215e+10  -2.165127e+11   1.474313e+05   5.252690e-26   0.000000e+00   0.000000e+00
     4160000   4.159999e-06   2.548600e+01   2.821440e+01   1.764541e-01   1.223926e+05  -2.314315e+04   7.886971e+04   1.301571e+11  -5.621247e+10  -2.184759e+11   1.474313e+05   5.253513e-26   0.000000e+00   0.000000e+00
     4168000   4.167999e-06   2.548698e+01   2.821421e+01   1.770780e-01   1.234212e+05  -2.359225e+04   7.711419e+04   1.269888e+11  -5.605955e+10  -2.203954e+11   1.474313e+05   5.254327e-26   0.000000e+00   0.000000e+00
     4176000   4.175999e-06   2.548797e+01   2.821402e+01   1.776879e-01   1.244244e+05  -2.404007e+04   7.534350e+04   1.237944e+11  -5.589332e+10  -2.222707e+11   1.474313e+05   5.255134e-26   0.000000e+00   0.000000e+00
     4184000   4.183999e-06   2.548897e+01   2.821382e+01   1.782835e-01   1.254019e+05  -2.448651e+04   7.355798e+04   1.205746e+11  -5.571366e+10  -2.241014e+11   1.474313e+05   5.255933e-26   0.000000e+00   0.000000e+00
     4192000   4.191999e-06   2.548998e+01   2.821363e+01   1.788648e-01   1.263535e+05  -2.493145e+04   7.175799e+04   1.173301e+11  -5.552048e+10  -2.258872e+11   1.474313e+05   5.256723e-26   0.000000e+00   0.000000e+00
     4200000   4.199999e-06   2.549099e+01   2.821343e+01   1.794316e-01   1.272791e+05  -2.537480e+04   6.994390e+04   1.140616e+11  -5.531369e+10  -2.276276e+11   1.474313e+05   5.257503e-26   0.000000e+00   0.000000e+00
     4208000   4.207999e-06   2.549202e+01   2.821322e+01   1.799838e-01   1.281784e+05  -2.581644e+04   6.811607e+04   1.107697e+11  -5.509322e+10  -2.293223e+11   1.474313e+05   5.258274e-26   0.000000e+00   0.000000e+00
     4216000   4.215999e-06   2.549304e+01   2.821301e+01   1.805214e-01   1.290513e+05  -2.625625e+04   6.627487e+04   1.074553e+11  -5.485898e+10  -2.309710e+11   1.474313e+05   5.259034e-26   0.000000e+00   0.000000e+00
     4224000   4.223999e-06   2.549408e+01   2.821280e+01   1.810442e-01   1.298977e+05  -2.669414e+04   6.442066e+04   1.041189e+11  -5.461090e+10  -2.325732e+11   1.474313e+05   5.259784e-26   0.000000e+00   0.000000e+00
     4232000   4.231999e-06   2.549512e+01   2.821259e+01   1.815521e-01   1.307172e+05  -2.712999e+04   6.255382e+04   1.007613e+11  -5.434892e+10  -2.341288e+11   1.474313e+05   5.260522e-26   0.000000e+00   0.000000e+00
     4240000   4.239999e-06   2.549617e+01   2.821237e+01   1.820450e-01   1.315098e+05  -2.756369e+04   6.067472e+04   9.738320e+10  -5.407297e+10  -2.356373e+11   1.474313e+05   5.261248e-26   0.000000e+00   0.000000e+00
     4248000   4.247999e-06   2.549723e+01   2.821214e+01   1.825228e-01   1.322753e+05  -2.799512e+04   5.878375e+04   9.398536e+10  -5.378300e+10  -2.370984e+11   1.474313e+05   5.261962e-26   0.000000e+00   0.000000e+00
     4256000   4.255999e-06   2.549829e+01   2.821192e+01   1.829855e-01   1.330135e+05  -2.842418e+04   5.688127e+04   9.056849e+10  -5.347897e+10  -2.385119e+11   1.474313e+05   5.262662e-26   0.000000e+00   0.000000e+00
     4264000   4.263999e-06   2.549936e+01   2.821169e+01   1.834329e-01   1.337243e+05  -2.885075e+04   5.496768e+04   8.713331e+10  -5.316082e+10  -2.398774e+11   1.474313e+05   5.263350e-26   0.000000e+00   0.000000e+00
     4272000   4.271999e-06   2.550043e+01   2.821146e+01   1.838650e-01   1.344072e+05  -2.927458e+04   5.304444e+04   8.355727e+10  -5.278823e+10  -2.408543e+11   1.474313e+05   5.249392e-26   0.000000e+00   0.000000e+00
     4280000   4.279999e-06   2.550151e+01   2.821122e+01   1.842816e-01   1.350618e+05  -2.969552e+04   5.111253e+04   8.009584e+10  -5.244284e+10  -2.421155e+11   1.474314e+05   5.249882e-26   0.000000e+00   0.000000e+00
     4288000   4.287999e-06   2.550259e+01   2.821098e+01   1.846827e-01   1.356887e+05  -3.011363e+04   4.917072e+04   7.661857e+10  -5.208334e+10  -2.433282e+11   1.474314e+05   5.250358e-26   0.000000e+00   0.000000e+00
