     timestep     time              x             y              z              vx             vy             vz             ax             ay             az         v_magnitude      ELoss        Electronic      Nuclear
           0   0.000000e+00   8.097212e+00   2.564281e+01   1.000000e-01  -2.102440e+05  -4.194754e+03  -1.046191e+05   0.000000e+00   0.000000e+00   0.000000e+00   2.348729e+05   0.000000e+00   0.000000e+00   0.000000e+00
        8000   7.999000e-09   8.095530e+00   2.564277e+01   9.916374e-02  -2.103014e+05  -5.496531e+03  -1.044432e+05  -7.158618e+09  -1.625603e+11   2.296903e+10   2.348729e+05   5.308083e-26   0.000000e+00   0.000000e+00
       16000   1.599900e-08   8.093847e+00   2.564272e+01   9.832895e-02  -2.103585e+05  -6.795655e+03  -1.042516e+05  -7.113466e+09  -1.622167e+11   2.492739e+10   2.348729e+05   5.304462e-26   0.000000e+00   0.000000e+00
       24000   2.399900e-08   8.092164e+00   2.564266e+01   9.749576e-02  -2.104152e+05  -8.091936e+03  -1.040443e+05  -7.067438e+09  -1.618497e+11   2.688034e+10   2.348729e+05   5.300843e-26   0.000000e+00   0.000000e+00
       32000   3.199900e-08   8.090481e+00   2.564259e+01   9.666428e-02  -2.104716e+05  -9.385188e+03  -1.038215e+05  -7.020541e+09  -1.614593e+11   2.882759e+10   2.348729e+05   5.297227e-26   0.000000e+00   0.000000e+00
       40000   3.999900e-08   8.088797e+00   2.564251e+01   9.583465e-02  -2.105276e+05  -1.067522e+04  -1.035831e+05  -6.972783e+09  -1.610457e+11   3.076886e+10   2.348729e+05   5.293613e-26   0.000000e+00   0.000000e+00
       48000   4.799900e-08   8.087112e+00   2.564242e+01   9.500700e-02  -2.105831e+05  -1.196186e+04  -1.033292e+05  -6.924173e+09  -1.606088e+11   3.270388e+10   2.348729e+05   5.290001e-26   0.000000e+00   0.000000e+00
       56000   5.599900e-08   8.085427e+00   2.564232e+01   9.418143e-02  -2.106383e+05  -1.324490e+04  -1.030599e+05  -6.874717e+09  -1.601488e+11   3.463237e+10   2.348729e+05   5.286391e-26   0.000000e+00   0.000000e+00
       64000   6.399900e-08   8.083742e+00   2.564221e+01   9.335808e-02  -2.106931e+05  -1.452418e+04  -1.027751e+05  -6.824425e+09  -1.596659e+11   3.655406e+10   2.348729e+05   5.282785e-26   0.000000e+00   0.000000e+00
       72000   7.199900e-08   8.082056e+00   2.564208e+01   9.253707e-02  -2.107475e+05  -1.579949e+04  -1.024750e+05  -6.773305e+09  -1.591600e+11   3.846867e+10   2.348729e+05   5.279180e-26   0.000000e+00   0.000000e+00
       80000   7.999900e-08   8.080370e+00   2.564195e+01   9.171852e-02  -2.108015e+05  -1.707067e+04  -1.021596e+05  -6.721364e+09  -1.586313e+11   4.037594e+10   2.348729e+05   5.275579e-26   0.000000e+00   0.000000e+00
       88000   8.799900e-08   8.078683e+00   2.564181e+01   9.090255e-02  -2.108551e+05  -1.833753e+04  -1.018290e+05  -6.668612e+09  -1.580800e+11   4.227559e+10   2.348729e+05   5.271979e-26   0.000000e+00   0.000000e+00
       96000   9.599900e-08   8.076996e+00   2.564166e+01   9.008930e-02  -2.109082e+05  -1.959989e+04  -1.014832e+05  -6.615056e+09  -1.575061e+11   4.416735e+10   2.348729e+05   5.268383e-26   0.000000e+00   0.000000e+00
      104000   1.039990e-07   8.075309e+00   2.564150e+01   8.927886e-02  -2.109609e+05  -2.085757e+04  -1.011224e+05  -6.560706e+09  -1.569098e+11   4.605097e+10   2.348729e+05   5.264789e-26   0.000000e+00   0.000000e+00
      112000   1.119990e-07   8.073621e+00   2.564133e+01   8.847138e-02  -2.110132e+05  -2.211039e+04  -1.007464e+05  -6.505569e+09  -1.562911e+11   4.792616e+10   2.348729e+05   5.261198e-26   0.000000e+00   0.000000e+00
      120000   1.199990e-07   8.071933e+00   2.564114e+01   8.766696e-02  -2.110650e+05  -2.335817e+04  -1.003556e+05  -6.449655e+09  -1.556502e+11   4.979268e+10   2.348729e+05   5.257610e-26   0.000000e+00   0.000000e+00
      128000   1.279990e-07   8.070244e+00   2.564095e+01   8.686573e-02  -2.111164e+05  -2.460073e+04  -9.994978e+04  -6.392973e+09  -1.549872e+11   5.165026e+10   2.348729e+05   5.254025e-26   0.000000e+00   0.000000e+00
      136000   1.359990e-07   8.068555e+00   2.564075e+01   8.606780e-02  -2.111673e+05  -2.583790e+04  -9.952918e+04  -6.335531e+09  -1.543022e+11   5.349864e+10   2.348729e+05   5.250443e-26   0.000000e+00   0.000000e+00
      144000   1.439990e-07   8.066865e+00   2.564054e+01   8.527330e-02  -2.112177e+05  -2.706951e+04  -9.909383e+04  -6.277338e+09  -1.535954e+11   5.533757e+10   2.348729e+05   5.246863e-26   0.000000e+00   0.000000e+00
      152000   1.519990e-07   8.065175e+00   2.564032e+01   8.448234e-02  -2.112677e+05  -2.829537e+04  -9.864380e+04  -6.218404e+09  -1.528669e+11   5.716678e+10   2.348729e+05   5.243287e-26   0.000000e+00   0.000000e+00
      160000   1.599990e-07   8.063485e+00   2.564009e+01   8.369504e-02  -2.113172e+05  -2.951532e+04  -9.817918e+04  -6.158737e+09  -1.521169e+11   5.898603e+10   2.348729e+05   5.239713e-26   0.000000e+00   0.000000e+00
      168000   1.679990e-07   8.061794e+00   2.563985e+01   8.291151e-02  -2.113663e+05  -3.072919e+04  -9.770005e+04  -6.098348e+09  -1.513454e+11   6.079506e+10   2.348729e+05   5.236143e-26   0.000000e+00   0.000000e+00
      176000   1.759990e-07   8.060103e+00   2.563959e+01   8.213188e-02  -2.114148e+05  -3.193679e+04  -9.720649e+04  -6.037244e+09  -1.505527e+11   6.259362e+10   2.348729e+05   5.232575e-26   0.000000e+00   0.000000e+00
      184000   1.839990e-07   8.058412e+00   2.563933e+01   8.135625e-02  -2.114628e+05  -3.313797e+04  -9.669858e+04  -5.975436e+09  -1.497388e+11   6.438146e+10   2.348729e+05   5.229011e-26   0.000000e+00   0.000000e+00
      192000   1.919990e-07   8.056720e+00   2.563906e+01   8.058474e-02  -2.115104e+05  -3.433256e+04  -9.617641e+04  -5.912933e+09  -1.489039e+11   6.615835e+10   2.348729e+05   5.225449e-26   0.000000e+00   0.000000e+00
      200000   1.999990e-07   8.055027e+00   2.563878e+01   7.981746e-02  -2.115575e+05  -3.552038e+04  -9.564007e+04  -5.849745e+09  -1.480482e+11   6.792402e+10   2.348729e+05   5.221891e-26   0.000000e+00   0.000000e+00
      208000   2.079990e-07   8.053335e+00   2.563850e+01   7.905453e-02  -2.116040e+05  -3.670127e+04  -9.508966e+04  -5.785881e+09  -1.471718e+11   6.967826e+10   2.348729e+05   5.218336e-26   0.000000e+00   0.000000e+00
      216000   2.159990e-07   8.051642e+00   2.563820e+01   7.829606e-02  -2.116500e+05  -3.787507e+04  -9.452525e+04  -5.721351e+09  -1.462749e+11   7.142080e+10   2.348729e+05   5.214784e-26   0.000000e+00   0.000000e+00
      224000   2.239990e-07   8.049948e+00   2.563789e+01   7.754217e-02  -2.116955e+05  -3.904161e+04  -9.394695e+04  -5.656164e+09  -1.453576e+11   7.315142e+10   2.348729e+05   5.211236e-26   0.000000e+00   0.000000e+00
      232000   2.319990e-07   8.048255e+00   2.563757e+01   7.679295e-02  -2.117405e+05  -4.020074e+04  -9.335486e+04  -5.590331e+09  -1.444201e+11   7.486989e+10   2.348729e+05   5.207690e-26   0.000000e+00   0.000000e+00
      240000   2.399990e-07   8.046560e+00   2.563725e+01   7.604853e-02  -2.117850e+05  -4.135228e+04  -9.274907e+04  -5.523861e+09  -1.434626e+11   7.657596e+10   2.348729e+05   5.204148e-26   0.000000e+00   0.000000e+00
      248000   2.479990e-07   8.044866e+00   2.563691e+01   7.530900e-02  -2.118289e+05  -4.249608e+04  -9.212968e+04  -5.456765e+09  -1.424851e+11   7.826940e+10   2.348729e+05   5.200609e-26   0.000000e+00   0.000000e+00
      256000   2.559990e-07   8.043171e+00   2.563657e+01   7.457449e-02  -2.118723e+05  -4.363199e+04  -9.149679e+04  -5.389051e+09  -1.414880e+11   7.995000e+10   2.348729e+05   5.197074e-26   0.000000e+00   0.000000e+00
      264000   2.639990e-07   8.041476e+00   2.563621e+01   7.384509e-02  -2.119151e+05  -4.475984e+04  -9.085051e+04  -5.320731e+09  -1.404714e+11   8.161752e+10   2.348729e+05   5.193542e-26   0.000000e+00   0.000000e+00
      272000   2.719990e-07   8.039781e+00   2.563585e+01   7.312091e-02  -2.119574e+05  -4.587948e+04  -9.019094e+04  -5.251815e+09  -1.394354e+11   8.327173e+10   2.348729e+05   5.190013e-26   0.000000e+00   0.000000e+00
      280000   2.799990e-07   8.038085e+00   2.563548e+01   7.240207e-02  -2.119992e+05  -4.699075e+04  -8.951820e+04  -5.182312e+09  -1.383802e+11   8.491243e+10   2.348729e+05   5.186487e-26   0.000000e+00   0.000000e+00
      288000   2.879990e-07   8.036389e+00   2.563510e+01   7.168866e-02  -2.120403e+05  -4.809351e+04  -8.883238e+04  -5.112234e+09  -1.373060e+11   8.653938e+10   2.348729e+05   5.182965e-26   0.000000e+00   0.000000e+00
      296000   2.959990e-07   8.034692e+00   2.563471e+01   7.098079e-02  -2.120809e+05  -4.918760e+04  -8.813360e+04  -5.041589e+09  -1.362129e+11   8.815237e+10   2.348729e+05   5.179446e-26   0.000000e+00   0.000000e+00
      304000   3.039990e-07   8.032995e+00   2.563431e+01   7.027855e-02  -2.121210e+05  -5.027287e+04  -8.742198e+04  -4.970390e+09  -1.351013e+11   8.975119e+10   2.348729e+05   5.175930e-26   0.000000e+00   0.000000e+00
      312000   3.119990e-07   8.031298e+00   2.563391e+01   6.958207e-02  -2.121605e+05  -5.134917e+04  -8.669762e+04  -4.898645e+09  -1.339712e+11   9.133562e+10   2.348729e+05   5.172418e-26   0.000000e+00   0.000000e+00
      320000   3.199990e-07   8.029601e+00   2.563349e+01   6.889143e-02  -2.121994e+05  -5.241636e+04  -8.596064e+04  -4.826367e+09  -1.328228e+11   9.290546e+10   2.348729e+05   5.168909e-26   0.000000e+00   0.000000e+00
      328000   3.279990e-07   8.027903e+00   2.563307e+01   6.820673e-02  -2.122377e+05  -5.347428e+04  -8.521117e+04  -4.753564e+09  -1.316564e+11   9.446050e+10   2.348729e+05   5.165404e-26   0.000000e+00   0.000000e+00
      336000   3.359990e-07   8.026205e+00   2.563263e+01   6.752808e-02  -2.122754e+05  -5.452281e+04  -8.444931e+04  -4.680249e+09  -1.304721e+11   9.600053e+10   2.348729e+05   5.161902e-26   0.000000e+00   0.000000e+00
      344000   3.439990e-07   8.024507e+00   2.563219e+01   6.685557e-02  -2.123126e+05  -5.556179e+04  -8.367520e+04  -4.606431e+09  -1.292701e+11   9.752536e+10   2.348729e+05   5.158403e-26   0.000000e+00   0.000000e+00
      352000   3.519990e-07   8.022808e+00   2.563175e+01   6.618931e-02  -2.123491e+05  -5.659108e+04  -8.288895e+04  -4.532121e+09  -1.280506e+11   9.903477e+10   2.348729e+05   5.154908e-26   0.000000e+00   0.000000e+00
      360000   3.599990e-07   8.021109e+00   2.563129e+01   6.552938e-02  -2.123851e+05  -5.761055e+04  -8.209068e+04  -4.457330e+09  -1.268139e+11   1.005286e+11   2.348729e+05   5.151416e-26   0.000000e+00   0.000000e+00
      368000   3.679990e-07   8.019410e+00   2.563082e+01   6.487589e-02  -2.124204e+05  -5.862006e+04  -8.128053e+04  -4.382069e+09  -1.255600e+11   1.020066e+11   2.348729e+05   5.147927e-26   0.000000e+00   0.000000e+00
      376000   3.759990e-07   8.017710e+00   2.563035e+01   6.422893e-02  -2.124552e+05  -5.961946e+04  -8.045862e+04  -4.306348e+09  -1.242893e+11   1.034686e+11   2.348729e+05   5.144442e-26   0.000000e+00   0.000000e+00
      384000   3.839990e-07   8.016010e+00   2.562987e+01   6.358858e-02  -2.124893e+05  -6.060864e+04  -7.962507e+04  -4.230179e+09  -1.230020e+11   1.049145e+11   2.348729e+05   5.140960e-26   0.000000e+00   0.000000e+00
      392000   3.919990e-07   8.014310e+00   2.562938e+01   6.295496e-02  -2.125229e+05  -6.158745e+04  -7.878003e+04  -4.153573e+09  -1.216981e+11   1.063440e+11   2.348729e+05   5.137482e-26   0.000000e+00   0.000000e+00
      400000   3.999990e-07   8.012610e+00   2.562888e+01   6.232813e-02  -2.125558e+05  -6.255577e+04  -7.792361e+04  -4.076540e+09  -1.203781e+11   1.077569e+11   2.348729e+05   5.134006e-26   0.000000e+00   0.000000e+00
      408000   4.079990e-07   8.010910e+00   2.562838e+01   6.170821e-02  -2.125881e+05  -6.351346e+04  -7.705596e+04  -3.999092e+09  -1.190420e+11   1.091531e+11   2.348729e+05   5.130535e-26   0.000000e+00   0.000000e+00
      416000   4.159990e-07   8.009209e+00   2.562787e+01   6.109527e-02  -2.126198e+05  -6.446039e+04  -7.617721e+04  -3.921239e+09  -1.176900e+11   1.105324e+11   2.348729e+05   5.127066e-26   0.000000e+00   0.000000e+00
      424000   4.239990e-07   8.007508e+00   2.562735e+01   6.048940e-02  -2.126508e+05  -6.539645e+04  -7.528749e+04  -3.842993e+09  -1.163225e+11   1.118947e+11   2.348729e+05   5.123601e-26   0.000000e+00   0.000000e+00
      432000   4.319990e-07   8.005806e+00   2.562682e+01   5.989070e-02  -2.126813e+05  -6.632151e+04  -7.438694e+04  -3.764365e+09  -1.149396e+11   1.132397e+11   2.348729e+05   5.120139e-26   0.000000e+00   0.000000e+00
      440000   4.399990e-07   8.004105e+00   2.562629e+01   5.929924e-02  -2.127111e+05  -6.723545e+04  -7.347570e+04  -3.685366e+09  -1.135415e+11   1.145672e+11   2.348729e+05   5.116680e-26   0.000000e+00   0.000000e+00
      448000   4.479990e-07   8.002403e+00   2.562575e+01   5.871511e-02  -2.127402e+05  -6.813813e+04  -7.255391e+04  -3.606008e+09  -1.121285e+11   1.158772e+11   2.348729e+05   5.113225e-26   0.000000e+00   0.000000e+00
      456000   4.559990e-07   8.000701e+00   2.562520e+01   5.813840e-02  -2.127688e+05  -6.902946e+04  -7.162171e+04  -3.526301e+09  -1.107008e+11   1.171694e+11   2.348729e+05   5.109773e-26   0.000000e+00   0.000000e+00
      464000   4.639990e-07   7.998999e+00   2.562464e+01   5.756919e-02  -2.127965e+05  -6.990952e+04  -7.067942e+04  -3.419359e+09  -1.093030e+11   1.184068e+11   2.348729e+05   5.106477e-26   0.000000e+00   0.000000e+00
      472000   4.719990e-07   7.997296e+00   2.562408e+01   5.700756e-02  -2.128236e+05  -7.077812e+04  -6.972712e+04  -3.339799e+09  -1.078456e+11   1.196646e+11   2.348729e+05   5.103028e-26   0.000000e+00   0.000000e+00
      480000   4.799990e-07   7.995593e+00   2.562351e+01   5.645359e-02  -2.128500e+05  -7.163501e+04  -6.876483e+04  -3.259922e+09  -1.063741e+11   1.209043e+11   2.348729e+05   5.099583e-26   0.000000e+00   0.000000e+00
      488000   4.879990e-07   7.993891e+00   2.562293e+01   5.590735e-02  -2.128757e+05  -7.248007e+04  -6.779270e+04  -3.179738e+09  -1.048889e+11   1.221255e+11   2.348729e+05   5.096143e-26   0.000000e+00   0.000000e+00
      496000   4.959990e-07   7.992187e+00   2.562235e+01   5.536893e-02  -2.129008e+05  -7.331319e+04  -6.681087e+04  -3.099259e+09  -1.033900e+11   1.233282e+11   2.348729e+05   5.092707e-26   0.000000e+00   0.000000e+00
      504000   5.039990e-07   7.990484e+00   2.562176e+01   5.483840e-02  -2.129253e+05  -7.413427e+04  -6.581950e+04  -3.018495e+09  -1.018778e+11   1.245121e+11   2.348729e+05   5.089275e-26   0.000000e+00   0.000000e+00
      512000   5.119990e-07   7.988781e+00   2.562116e+01   5.431584e-02  -2.129491e+05  -7.494320e+04  -6.481873e+04  -2.937458e+09  -1.003525e+11   1.256773e+11   2.348729e+05   5.085848e-26   0.000000e+00   0.000000e+00
      520000   5.199990e-07   7.987077e+00   2.562056e+01   5.380133e-02  -2.129723e+05  -7.573988e+04  -6.380871e+04  -2.856158e+09  -9.881435e+10   1.268235e+11   2.348729e+05   5.082425e-26   0.000000e+00   0.000000e+00
      528000   5.279990e-07   7.985373e+00   2.561995e+01   5.329493e-02  -2.129948e+05  -7.652420e+04  -6.278960e+04  -2.774608e+09  -9.726353e+10   1.279506e+11   2.348729e+05   5.079006e-26   0.000000e+00   0.000000e+00
      536000   5.359990e-07   7.983669e+00   2.561934e+01   5.279672e-02  -2.130167e+05  -7.729606e+04  -6.176155e+04  -2.692817e+09  -9.570031e+10   1.290584e+11   2.348729e+05   5.075591e-26   0.000000e+00   0.000000e+00
      544000   5.439990e-07   7.981965e+00   2.561872e+01   5.230677e-02  -2.130379e+05  -7.805537e+04  -6.072472e+04  -2.610796e+09  -9.412494e+10   1.301468e+11   2.348729e+05   5.072181e-26   0.000000e+00   0.000000e+00
      552000   5.519990e-07   7.980260e+00   2.561809e+01   5.182514e-02  -2.130585e+05  -7.880202e+04  -5.967925e+04  -2.528558e+09  -9.253765e+10   1.312158e+11   2.348729e+05   5.068775e-26   0.000000e+00   0.000000e+00
      560000   5.599990e-07   7.978556e+00   2.561745e+01   5.135192e-02  -2.130784e+05  -7.953594e+04  -5.862532e+04  -2.446113e+09  -9.093869e+10   1.322651e+11   2.348729e+05   5.065373e-26   0.000000e+00   0.000000e+00
      568000   5.679990e-07   7.976851e+00   2.561682e+01   5.088716e-02  -2.130976e+05  -8.025701e+04  -5.756307e+04  -2.363472e+09  -8.932830e+10   1.332946e+11   2.348729e+05   5.061974e-26   0.000000e+00   0.000000e+00
      576000   5.759990e-07   7.975146e+00   2.561617e+01   5.043093e-02  -2.131162e+05  -8.096516e+04  -5.649266e+04  -2.280647e+09  -8.770674e+10   1.343043e+11   2.348729e+05   5.058580e-26   0.000000e+00   0.000000e+00
      584000   5.839990e-07   7.973441e+00   2.561552e+01   4.998330e-02  -2.131341e+05  -8.166029e+04  -5.541425e+04  -2.197649e+09  -8.607424e+10   1.352940e+11   2.348729e+05   5.055190e-26   0.000000e+00   0.000000e+00
      592000   5.919990e-07   7.971736e+00   2.561486e+01   4.954433e-02  -2.131513e+05  -8.234231e+04  -5.432800e+04  -2.114489e+09  -8.443106e+10   1.362636e+11   2.348729e+05   5.051803e-26   0.000000e+00   0.000000e+00
      600000   5.999990e-07   7.970031e+00   2.561420e+01   4.911407e-02  -2.131679e+05  -8.301115e+04  -5.323408e+04  -2.031178e+09  -8.277744e+10   1.372130e+11   2.348729e+05   5.048421e-26   0.000000e+00   0.000000e+00
      608000   6.079990e-07   7.968325e+00   2.561354e+01   4.869260e-02  -2.131838e+05  -8.366673e+04  -5.213265e+04  -1.947728e+09  -8.111364e+10   1.381421e+11   2.348729e+05   5.045042e-26   0.000000e+00   0.000000e+00
      616000   6.159990e-07   7.966620e+00   2.561286e+01   4.827997e-02  -2.131991e+05  -8.430895e+04  -5.102386e+04  -1.864149e+09  -7.943991e+10   1.390507e+11   2.348729e+05   5.041666e-26   0.000000e+00   0.000000e+00
      624000   6.239990e-07   7.964914e+00   2.561219e+01   4.787624e-02  -2.132137e+05  -8.493774e+04  -4.990789e+04  -1.780454e+09  -7.775649e+10   1.399388e+11   2.348729e+05   5.038295e-26   0.000000e+00   0.000000e+00
      632000   6.319990e-07   7.963209e+00   2.561151e+01   4.748146e-02  -2.132276e+05  -8.555302e+04  -4.878490e+04  -1.696654e+09  -7.606365e+10   1.408063e+11   2.348729e+05   5.034926e-26   0.000000e+00   0.000000e+00
      640000   6.399990e-07   7.961503e+00   2.561082e+01   4.709570e-02  -2.132408e+05  -8.615473e+04  -4.765505e+04  -1.612759e+09  -7.436163e+10   1.416531e+11   2.348729e+05   5.031561e-26   0.000000e+00   0.000000e+00
      648000   6.479990e-07   7.959797e+00   2.561013e+01   4.671900e-02  -2.132534e+05  -8.674278e+04  -4.651850e+04  -1.528781e+09  -7.265069e+10   1.424791e+11   2.348729e+05   5.028200e-26   0.000000e+00   0.000000e+00
      656000   6.559990e-07   7.958091e+00   2.560943e+01   4.635142e-02  -2.132653e+05  -8.731711e+04  -4.537543e+04  -1.444732e+09  -7.093109e+10   1.432842e+11   2.348729e+05   5.024842e-26   0.000000e+00   0.000000e+00
      664000   6.639990e-07   7.956384e+00   2.560873e+01   4.599301e-02  -2.132765e+05  -8.787766e+04  -4.422601e+04  -1.360623e+09  -6.920309e+10   1.440684e+11   2.348729e+05   5.021487e-26   0.000000e+00   0.000000e+00
      672000   6.719990e-07   7.954678e+00   2.560802e+01   4.564382e-02  -2.132870e+05  -8.842434e+04  -4.307040e+04  -1.276466e+09  -6.746693e+10   1.448314e+11   2.348729e+05   5.018135e-26   0.000000e+00   0.000000e+00
      680000   6.799990e-07   7.952972e+00   2.560731e+01   4.530390e-02  -2.132969e+05  -8.895710e+04  -4.190876e+04  -1.192271e+09  -6.572288e+10   1.455734e+11   2.348729e+05   5.014787e-26   0.000000e+00   0.000000e+00
      688000   6.879990e-07   7.951265e+00   2.560660e+01   4.497329e-02  -2.133061e+05  -8.947588e+04  -4.074128e+04  -1.108050e+09  -6.397120e+10   1.462941e+11   2.348729e+05   5.011441e-26   0.000000e+00   0.000000e+00
      696000   6.959990e-07   7.949559e+00   2.560588e+01   4.465205e-02  -2.133147e+05  -8.998062e+04  -3.956811e+04  -1.023814e+09  -6.221214e+10   1.469935e+11   2.348729e+05   5.008098e-26   0.000000e+00   0.000000e+00
      704000   7.039990e-07   7.947852e+00   2.560516e+01   4.434022e-02  -2.133225e+05  -9.047126e+04  -3.838944e+04  -9.395759e+08  -6.044597e+10   1.476716e+11   2.348729e+05   5.004758e-26   0.000000e+00   0.000000e+00
      712000   7.119990e-07   7.946146e+00   2.560444e+01   4.403784e-02  -2.133297e+05  -9.094774e+04  -3.720542e+04  -8.553456e+08  -5.867294e+10   1.483283e+11   2.348729e+05   5.001421e-26   0.000000e+00   0.000000e+00
      720000   7.199990e-07   7.944439e+00   2.560371e+01   4.374495e-02  -2.133362e+05  -9.141001e+04  -3.601624e+04  -7.711349e+08  -5.689332e+10   1.489635e+11   2.348729e+05   4.998087e-26   0.000000e+00   0.000000e+00
      728000   7.279990e-07   7.942732e+00   2.560297e+01   4.346159e-02  -2.133420e+05  -9.185801e+04  -3.482206e+04  -6.869552e+08  -5.510737e+10   1.495771e+11   2.348729e+05   4.994755e-26   0.000000e+00   0.000000e+00
      736000   7.359990e-07   7.941026e+00   2.560224e+01   4.318781e-02  -2.133472e+05  -9.229171e+04  -3.362306e+04  -6.028180e+08  -5.331534e+10   1.501692e+11   2.348729e+05   4.991425e-26   0.000000e+00   0.000000e+00
      744000   7.439990e-07   7.939319e+00   2.560150e+01   4.292363e-02  -2.133517e+05  -9.271104e+04  -3.241941e+04  -5.187345e+08  -5.151751e+10   1.507396e+11   2.348729e+05   4.988099e-26   0.000000e+00   0.000000e+00
      752000   7.519990e-07   7.937612e+00   2.560075e+01   4.266911e-02  -2.133555e+05  -9.311597e+04  -3.121129e+04  -4.347162e+08  -4.971413e+10   1.512883e+11   2.348729e+05   4.984774e-26   0.000000e+00   0.000000e+00
      760000   7.599990e-07   7.935905e+00   2.560001e+01   4.242426e-02  -2.133586e+05  -9.350645e+04  -2.999886e+04  -3.507745e+08  -4.790546e+10   1.518153e+11   2.348729e+05   4.981452e-26   0.000000e+00   0.000000e+00
      768000   7.679990e-07   7.934198e+00   2.559926e+01   4.218914e-02  -2.133612e+05  -9.388226e+04  -2.878229e+04  -2.768186e+08  -4.606971e+10   1.523216e+11   2.348729e+05   4.977805e-26   0.000000e+00   0.000000e+00
      776000   7.759990e-07   7.932491e+00   2.559850e+01   4.196376e-02  -2.133631e+05  -9.424355e+04  -2.756177e+04  -1.927418e+08  -4.425209e+10   1.528049e+11   2.348729e+05   4.974509e-26   0.000000e+00   0.000000e+00
      784000   7.839990e-07   7.930784e+00   2.559775e+01   4.174816e-02  -2.133643e+05  -9.459028e+04  -2.633747e+04  -1.087768e+08  -4.242995e+10   1.532662e+11   2.348729e+05   4.971214e-26   0.000000e+00   0.000000e+00
      792000   7.919990e-07   7.929078e+00   2.559699e+01   4.154237e-02  -2.133648e+05  -9.492242e+04  -2.510957e+04  -2.493528e+07  -4.060357e+10   1.537057e+11   2.348729e+05   4.967921e-26   0.000000e+00   0.000000e+00
      800000   7.999990e-07   7.927371e+00   2.559623e+01   4.134641e-02  -2.133647e+05  -9.523993e+04  -2.387824e+04   5.877145e+07  -3.877320e+10   1.541233e+11   2.348729e+05   4.964629e-26   0.000000e+00   0.000000e+00
      808000   8.079990e-07   7.925664e+00   2.559547e+01   4.116032e-02  -2.133639e+05  -9.554278e+04  -2.264366e+04   1.423319e+08  -3.693912e+10   1.545189e+11   2.348729e+05   4.961338e-26   0.000000e+00   0.000000e+00
      816000   8.159990e-07   7.923957e+00   2.559470e+01   4.098412e-02  -2.133624e+05  -9.583094e+04  -2.140599e+04   2.257347e+08  -3.510158e+10   1.548925e+11   2.348729e+05   4.958049e-26   0.000000e+00   0.000000e+00
      824000   8.239990e-07   7.922250e+00   2.559393e+01   4.081784e-02  -2.133602e+05  -9.610439e+04  -2.016543e+04   3.089684e+08  -3.326084e+10   1.552442e+11   2.348729e+05   4.954760e-26   0.000000e+00   0.000000e+00
      832000   8.319990e-07   7.920543e+00   2.559316e+01   4.066148e-02  -2.133574e+05  -9.636311e+04  -1.892215e+04   3.920217e+08  -3.141718e+10   1.555739e+11   2.348729e+05   4.951473e-26   0.000000e+00   0.000000e+00
      840000   8.399990e-07   7.918836e+00   2.559239e+01   4.051509e-02  -2.133540e+05  -9.660706e+04  -1.767631e+04   4.748832e+08  -2.957085e+10   1.558815e+11   2.348729e+05   4.948187e-26   0.000000e+00   0.000000e+00
      848000   8.479990e-07   7.917129e+00   2.559162e+01   4.037867e-02  -2.133498e+05  -9.683623e+04  -1.642810e+04   5.575416e+08  -2.772211e+10   1.561671e+11   2.348729e+05   4.944902e-26   0.000000e+00   0.000000e+00
      856000   8.559990e-07   7.915423e+00   2.559084e+01   4.025225e-02  -2.133451e+05  -9.705061e+04  -1.517770e+04   6.399855e+08  -2.587124e+10   1.564306e+11   2.348729e+05   4.941617e-26   0.000000e+00   0.000000e+00
      864000   8.639990e-07   7.913716e+00   2.559007e+01   4.013583e-02  -2.133396e+05  -9.725016e+04  -1.392527e+04   7.222038e+08  -2.401848e+10   1.566721e+11   2.348729e+05   4.938334e-26   0.000000e+00   0.000000e+00
      872000   8.719990e-07   7.912009e+00   2.558929e+01   4.002945e-02  -2.133335e+05  -9.743489e+04  -1.267100e+04   8.041851e+08  -2.216411e+10   1.568916e+11   2.348729e+05   4.935051e-26   0.000000e+00   0.000000e+00
      880000   8.799990e-07   7.910303e+00   2.558851e+01   3.993310e-02  -2.133267e+05  -9.760478e+04  -1.141506e+04   8.859183e+08  -2.030839e+10   1.570890e+11   2.348729e+05   4.931768e-26   0.000000e+00   0.000000e+00
      888000   8.879990e-07   7.908596e+00   2.558773e+01   3.984681e-02  -2.133193e+05  -9.775982e+04  -1.015763e+04   9.673921e+08  -1.845157e+10   1.572643e+11   2.348729e+05   4.928486e-26   0.000000e+00   0.000000e+00
      896000   8.959990e-07   7.906889e+00   2.558694e+01   3.977058e-02  -2.133113e+05  -9.790001e+04  -8.898892e+03   1.048595e+09  -1.659392e+10   1.574176e+11   2.348729e+05   4.925204e-26   0.000000e+00   0.000000e+00
      904000   9.039990e-07   7.905183e+00   2.558616e+01   3.970443e-02  -2.133025e+05  -9.802532e+04  -7.639010e+03   1.129517e+09  -1.473570e+10   1.575489e+11   2.348729e+05   4.921923e-26   0.000000e+00   0.000000e+00
      912000   9.119990e-07   7.903477e+00   2.558537e+01   3.964836e-02  -2.132932e+05  -9.813577e+04  -6.378167e+03   1.210146e+09  -1.287717e+10   1.576582e+11   2.348729e+05   4.918642e-26   0.000000e+00   0.000000e+00
      920000   9.199990e-07   7.901770e+00   2.558459e+01   3.960238e-02  -2.132832e+05  -9.823136e+04  -5.116538e+03   1.290472e+09  -1.101859e+10   1.577454e+11   2.348729e+05   4.915361e-26   0.000000e+00   0.000000e+00
      928000   9.279990e-07   7.900064e+00   2.558380e+01   3.956650e-02  -2.132725e+05  -9.831207e+04  -3.854299e+03   1.370482e+09  -9.160226e+09   1.578107e+11   2.348729e+05   4.912080e-26   0.000000e+00   0.000000e+00
      936000   9.359990e-07   7.898358e+00   2.558302e+01   3.954071e-02  -2.132612e+05  -9.837811e+04  -2.592063e+03   1.461746e+09  -7.326631e+09   1.577977e+11   2.348729e+05   4.905381e-26   0.000000e+00   0.000000e+00
      944000   9.439990e-07   7.896652e+00   2.558223e+01   3.952503e-02  -2.132492e+05  -9.842929e+04  -1.329577e+03   1.540402e+09  -5.469392e+09   1.578200e+11   2.348729e+05   4.902143e-26   0.000000e+00   0.000000e+00
      952000   9.519990e-07   7.894946e+00   2.558144e+01   3.951944e-02  -2.132365e+05  -9.846562e+04  -6.700079e+01   1.618725e+09  -3.613142e+09   1.578205e+11   2.348729e+05   4.898906e-26   0.000000e+00   0.000000e+00
      960000   9.599990e-07   7.893240e+00   2.558065e+01   3.952395e-02  -2.132233e+05  -9.848710e+04   1.195492e+03   1.696703e+09  -1.758138e+09   1.577990e+11   2.348729e+05   4.895668e-26   0.000000e+00   0.000000e+00
      968000   9.679990e-07   7.891534e+00   2.557987e+01   3.953857e-02  -2.132094e+05  -9.849375e+04   2.457726e+03   1.774325e+09   9.536272e+07   1.577558e+11   2.348729e+05   4.892430e-26   0.000000e+00   0.000000e+00
      976000   9.759990e-07   7.889829e+00   2.557908e+01   3.956328e-02  -2.131949e+05  -9.848558e+04   3.719526e+03   1.851582e+09   1.947104e+09   1.576906e+11   2.348729e+05   4.889192e-26   0.000000e+00   0.000000e+00
      984000   9.839990e-07   7.888123e+00   2.557829e+01   3.959808e-02  -2.131797e+05  -9.846260e+04   4.980718e+03   1.928462e+09   3.796831e+09   1.576038e+11   2.348729e+05   4.885953e-26   0.000000e+00   0.000000e+00
      992000   9.919990e-07   7.886418e+00   2.557750e+01   3.964296e-02  -2.131640e+05  -9.842483e+04   6.241128e+03   2.004956e+09   5.644289e+09   1.574952e+11   2.348729e+05   4.882714e-26   0.000000e+00   0.000000e+00
     1000000   9.999990e-07   7.884713e+00   2.557672e+01   3.969793e-02  -2.131477e+05  -9.837230e+04   7.500582e+03   2.081051e+09   7.489223e+09   1.573649e+11   2.348729e+05   4.879474e-26   0.000000e+00   0.000000e+00
     1008000   1.007999e-06   7.883008e+00   2.557593e+01   3.976297e-02  -2.131307e+05  -9.830501e+04   8.758908e+03   2.156738e+09   9.331381e+09   1.572129e+11   2.348729e+05   4.876233e-26   0.000000e+00   0.000000e+00
     1016000   1.015999e-06   7.881303e+00   2.557514e+01   3.983807e-02  -2.131132e+05  -9.822300e+04   1.001593e+04   2.232007e+09   1.117051e+10   1.570394e+11   2.348729e+05   4.872991e-26   0.000000e+00   0.000000e+00
     1024000   1.023999e-06   7.879598e+00   2.557436e+01   3.992322e-02  -2.130950e+05  -9.812629e+04   1.127148e+04   2.306847e+09   1.300636e+10   1.568444e+11   2.348729e+05   4.869749e-26   0.000000e+00   0.000000e+00
     1032000   1.031999e-06   7.877893e+00   2.557357e+01   4.001841e-02  -2.130763e+05  -9.801491e+04   1.252538e+04   2.381248e+09   1.483868e+10   1.566279e+11   2.348729e+05   4.866505e-26   0.000000e+00   0.000000e+00
     1040000   1.039999e-06   7.876189e+00   2.557279e+01   4.012362e-02  -2.130569e+05  -9.788888e+04   1.377747e+04   2.455199e+09   1.666722e+10   1.563899e+11   2.348729e+05   4.863260e-26   0.000000e+00   0.000000e+00
     1048000   1.047999e-06   7.874484e+00   2.557201e+01   4.023884e-02  -2.130370e+05  -9.774824e+04   1.502757e+04   2.528691e+09   1.849173e+10   1.561307e+11   2.348729e+05   4.860014e-26   0.000000e+00   0.000000e+00
     1056000   1.055999e-06   7.872780e+00   2.557122e+01   4.036406e-02  -2.130165e+05  -9.759302e+04   1.627550e+04   2.601712e+09   2.031197e+10   1.558501e+11   2.348729e+05   4.856767e-26   0.000000e+00   0.000000e+00
     1064000   1.063999e-06   7.871076e+00   2.557044e+01   4.049925e-02  -2.129953e+05  -9.742326e+04   1.752111e+04   2.674254e+09   2.212769e+10   1.555483e+11   2.348729e+05   4.853518e-26   0.000000e+00   0.000000e+00
     1072000   1.071999e-06   7.869372e+00   2.556967e+01   4.064439e-02  -2.129737e+05  -9.723899e+04   1.876422e+04   2.746305e+09   2.393864e+10   1.552254e+11   2.348729e+05   4.850268e-26   0.000000e+00   0.000000e+00
     1080000   1.079999e-06   7.867668e+00   2.556889e+01   4.079947e-02  -2.129514e+05  -9.704025e+04   2.000466e+04   2.817857e+09   2.574458e+10   1.548815e+11   2.348729e+05   4.847016e-26   0.000000e+00   0.000000e+00
     1088000   1.087999e-06   7.865965e+00   2.556811e+01   4.096446e-02  -2.129286e+05  -9.682709e+04   2.124227e+04   2.888899e+09   2.754526e+10   1.545165e+11   2.348729e+05   4.843763e-26   0.000000e+00   0.000000e+00
     1096000   1.095999e-06   7.864261e+00   2.556734e+01   4.113934e-02  -2.129052e+05  -9.659954e+04   2.247687e+04   2.959420e+09   2.934045e+10   1.541307e+11   2.348729e+05   4.840508e-26   0.000000e+00   0.000000e+00
     1104000   1.103999e-06   7.862558e+00   2.556657e+01   4.132408e-02  -2.128812e+05  -9.635765e+04   2.370830e+04   3.029412e+09   3.112991e+10   1.537240e+11   2.348729e+05   4.837251e-26   0.000000e+00   0.000000e+00
     1112000   1.111999e-06   7.860855e+00   2.556580e+01   4.151866e-02  -2.128567e+05  -9.610148e+04   2.493640e+04   3.098865e+09   3.291339e+10   1.532966e+11   2.348729e+05   4.833991e-26   0.000000e+00   0.000000e+00
     1120000   1.119999e-06   7.859153e+00   2.556503e+01   4.172305e-02  -2.128316e+05  -9.583105e+04   2.616099e+04   3.167769e+09   3.469065e+10   1.528485e+11   2.348729e+05   4.830730e-26   0.000000e+00   0.000000e+00
     1128000   1.127999e-06   7.857450e+00   2.556426e+01   4.193723e-02  -2.128060e+05  -9.554644e+04   2.738192e+04   3.236114e+09   3.646147e+10   1.523799e+11   2.348729e+05   4.827467e-26   0.000000e+00   0.000000e+00
     1136000   1.135999e-06   7.855748e+00   2.556350e+01   4.216115e-02  -2.127799e+05  -9.524769e+04   2.859901e+04   3.303890e+09   3.822561e+10   1.518908e+11   2.348729e+05   4.824202e-26   0.000000e+00   0.000000e+00
     1144000   1.143999e-06   7.854046e+00   2.556274e+01   4.239480e-02  -2.127532e+05  -9.493485e+04   2.981212e+04   3.371089e+09   3.998282e+10   1.513813e+11   2.348729e+05   4.820934e-26   0.000000e+00   0.000000e+00
     1152000   1.151999e-06   7.852344e+00   2.556198e+01   4.263813e-02  -2.127259e+05  -9.460798e+04   3.102106e+04   3.437701e+09   4.173289e+10   1.508516e+11   2.348729e+05   4.817664e-26   0.000000e+00   0.000000e+00
     1160000   1.159999e-06   7.850642e+00   2.556123e+01   4.289112e-02  -2.126982e+05  -9.426714e+04   3.222569e+04   3.503717e+09   4.347557e+10   1.503017e+11   2.348729e+05   4.814391e-26   0.000000e+00   0.000000e+00
     1168000   1.167999e-06   7.848940e+00   2.556047e+01   4.315373e-02  -2.126699e+05  -9.391239e+04   3.342583e+04   3.569127e+09   4.521065e+10   1.497318e+11   2.348729e+05   4.811116e-26   0.000000e+00   0.000000e+00
     1176000   1.175999e-06   7.847239e+00   2.555972e+01   4.342593e-02  -2.126411e+05  -9.354379e+04   3.462134e+04   3.633922e+09   4.693788e+10   1.491419e+11   2.348729e+05   4.807839e-26   0.000000e+00   0.000000e+00
     1184000   1.183999e-06   7.845538e+00   2.555898e+01   4.370766e-02  -2.126117e+05  -9.316140e+04   3.581205e+04   3.698094e+09   4.865705e+10   1.485322e+11   2.348729e+05   4.804558e-26   0.000000e+00   0.000000e+00
     1192000   1.191999e-06   7.843837e+00   2.555823e+01   4.399891e-02  -2.125819e+05  -9.276530e+04   3.699780e+04   3.761633e+09   5.036793e+10   1.479027e+11   2.348729e+05   4.801275e-26   0.000000e+00   0.000000e+00
     1200000   1.199999e-06   7.842137e+00   2.555749e+01   4.429961e-02  -2.125516e+05  -9.235554e+04   3.817844e+04   3.824529e+09   5.207029e+10   1.472536e+11   2.348729e+05   4.797990e-26   0.000000e+00   0.000000e+00
     1208000   1.207999e-06   7.840437e+00   2.555676e+01   4.460975e-02  -2.125207e+05  -9.193219e+04   3.935381e+04   3.886776e+09   5.376392e+10   1.465850e+11   2.348729e+05   4.794701e-26   0.000000e+00   0.000000e+00
     1216000   1.215999e-06   7.838737e+00   2.555602e+01   4.492926e-02  -2.124894e+05  -9.149534e+04   4.052375e+04   3.948363e+09   5.544859e+10   1.458971e+11   2.348729e+05   4.791410e-26   0.000000e+00   0.000000e+00
     1224000   1.223999e-06   7.837037e+00   2.555529e+01   4.525811e-02  -2.124575e+05  -9.104504e+04   4.168811e+04   4.009282e+09   5.712409e+10   1.451899e+11   2.348729e+05   4.788115e-26   0.000000e+00   0.000000e+00
     1232000   1.231999e-06   7.835337e+00   2.555457e+01   4.559625e-02  -2.124252e+05  -9.058137e+04   4.284674e+04   4.069524e+09   5.879019e+10   1.444635e+11   2.348729e+05   4.784818e-26   0.000000e+00   0.000000e+00
     1240000   1.239999e-06   7.833638e+00   2.555384e+01   4.594364e-02  -2.123924e+05  -9.010442e+04   4.399947e+04   4.129081e+09   6.044670e+10   1.437182e+11   2.348729e+05   4.781517e-26   0.000000e+00   0.000000e+00
     1248000   1.247999e-06   7.831939e+00   2.555312e+01   4.630023e-02  -2.123592e+05  -8.961425e+04   4.514618e+04   4.187945e+09   6.209338e+10   1.429540e+11   2.348729e+05   4.778213e-26   0.000000e+00   0.000000e+00
     1256000   1.255999e-06   7.830240e+00   2.555241e+01   4.666597e-02  -2.123254e+05  -8.911095e+04   4.628669e+04   4.246107e+09   6.373003e+10   1.421710e+11   2.348730e+05   4.774906e-26   0.000000e+00   0.000000e+00
     1264000   1.263999e-06   7.828542e+00   2.555170e+01   4.704080e-02  -2.122912e+05  -8.859460e+04   4.742086e+04   4.303559e+09   6.535643e+10   1.413694e+11   2.348730e+05   4.771596e-26   0.000000e+00   0.000000e+00
     1272000   1.271999e-06   7.826844e+00   2.555099e+01   4.742468e-02  -2.122566e+05  -8.806527e+04   4.854855e+04   4.360293e+09   6.697239e+10   1.405494e+11   2.348730e+05   4.768283e-26   0.000000e+00   0.000000e+00
     1280000   1.279999e-06   7.825146e+00   2.555029e+01   4.781756e-02  -2.122215e+05  -8.752307e+04   4.966960e+04   4.416302e+09   6.857770e+10   1.397110e+11   2.348730e+05   4.764966e-26   0.000000e+00   0.000000e+00
     1288000   1.287999e-06   7.823448e+00   2.554959e+01   4.821938e-02  -2.121859e+05  -8.696806e+04   5.078387e+04   4.471576e+09   7.017215e+10   1.388544e+11   2.348730e+05   4.761646e-26   0.000000e+00   0.000000e+00
     1296000   1.295999e-06   7.821751e+00   2.554890e+01   4.863008e-02  -2.121499e+05  -8.640034e+04   5.189122e+04   4.526108e+09   7.175553e+10   1.379798e+11   2.348730e+05   4.758322e-26   0.000000e+00   0.000000e+00
     1304000   1.303999e-06   7.820054e+00   2.554821e+01   4.904962e-02  -2.121135e+05  -8.582000e+04   5.299150e+04   4.579891e+09   7.332765e+10   1.370873e+11   2.348730e+05   4.754995e-26   0.000000e+00   0.000000e+00
     1312000   1.311999e-06   7.818357e+00   2.554753e+01   4.947793e-02  -2.120766e+05  -8.522713e+04   5.408457e+04   4.632917e+09   7.488831e+10   1.361770e+11   2.348730e+05   4.751664e-26   0.000000e+00   0.000000e+00
     1320000   1.319999e-06   7.816660e+00   2.554685e+01   4.991495e-02  -2.120394e+05  -8.462181e+04   5.517029e+04   4.685178e+09   7.643732e+10   1.352491e+11   2.348730e+05   4.748330e-26   0.000000e+00   0.000000e+00
     1328000   1.327999e-06   7.814964e+00   2.554617e+01   5.036063e-02  -2.120017e+05  -8.400416e+04   5.624851e+04   4.736667e+09   7.797447e+10   1.343037e+11   2.348730e+05   4.744992e-26   0.000000e+00   0.000000e+00
     1336000   1.335999e-06   7.813268e+00   2.554550e+01   5.081491e-02  -2.119636e+05  -8.337425e+04   5.731910e+04   4.787377e+09   7.949957e+10   1.333411e+11   2.348730e+05   4.741651e-26   0.000000e+00   0.000000e+00
     1344000   1.343999e-06   7.811573e+00   2.554484e+01   5.127772e-02  -2.119251e+05  -8.273220e+04   5.838192e+04   4.837300e+09   8.101245e+10   1.323613e+11   2.348730e+05   4.738306e-26   0.000000e+00   0.000000e+00
     1352000   1.351999e-06   7.809878e+00   2.554418e+01   5.174900e-02  -2.118862e+05  -8.207809e+04   5.943683e+04   4.886430e+09   8.251289e+10   1.313645e+11   2.348730e+05   4.734957e-26   0.000000e+00   0.000000e+00
     1360000   1.359999e-06   7.808183e+00   2.554352e+01   5.222868e-02  -2.118469e+05  -8.141202e+04   6.048371e+04   4.934760e+09   8.400073e+10   1.303509e+11   2.348730e+05   4.731605e-26   0.000000e+00   0.000000e+00
     1368000   1.367999e-06   7.806488e+00   2.554288e+01   5.271671e-02  -2.118072e+05  -8.073411e+04   6.152240e+04   4.982282e+09   8.547578e+10   1.293207e+11   2.348730e+05   4.728249e-26   0.000000e+00   0.000000e+00
     1376000   1.375999e-06   7.804794e+00   2.554223e+01   5.321302e-02  -2.117672e+05  -8.004444e+04   6.255279e+04   5.028990e+09   8.693784e+10   1.282739e+11   2.348730e+05   4.724889e-26   0.000000e+00   0.000000e+00
     1384000   1.383999e-06   7.803100e+00   2.554159e+01   5.371754e-02  -2.117268e+05  -7.934314e+04   6.357474e+04   5.074877e+09   8.838675e+10   1.272108e+11   2.348730e+05   4.721525e-26   0.000000e+00   0.000000e+00
     1392000   1.391999e-06   7.801406e+00   2.554096e+01   5.423019e-02  -2.116860e+05  -7.863029e+04   6.458812e+04   5.119937e+09   8.982233e+10   1.261315e+11   2.348730e+05   4.718158e-26   0.000000e+00   0.000000e+00
     1400000   1.399999e-06   7.799713e+00   2.554034e+01   5.475092e-02  -2.116448e+05  -7.790603e+04   6.559280e+04   5.168368e+09   9.123315e+10   1.250365e+11   2.348730e+05   4.714403e-26   0.000000e+00   0.000000e+00
     1408000   1.407999e-06   7.798020e+00   2.553972e+01   5.527966e-02  -2.116033e+05  -7.717052e+04   6.658866e+04   5.211812e+09   9.264139e+10   1.239257e+11   2.348730e+05   4.711030e-26   0.000000e+00   0.000000e+00
     1416000   1.415999e-06   7.796327e+00   2.553910e+01   5.581632e-02  -2.115615e+05  -7.642380e+04   6.757557e+04   5.254405e+09   9.403580e+10   1.227992e+11   2.348730e+05   4.707653e-26   0.000000e+00   0.000000e+00
     1424000   1.423999e-06   7.794635e+00   2.553849e+01   5.636084e-02  -2.115193e+05  -7.566598e+04   6.855340e+04   5.296142e+09   9.541618e+10   1.216573e+11   2.348730e+05   4.704272e-26   0.000000e+00   0.000000e+00
     1432000   1.431999e-06   7.792943e+00   2.553789e+01   5.691315e-02  -2.114767e+05  -7.489718e+04   6.952204e+04   5.337017e+09   9.678239e+10   1.205000e+11   2.348730e+05   4.700887e-26   0.000000e+00   0.000000e+00
     1440000   1.439999e-06   7.791251e+00   2.553730e+01   5.747317e-02  -2.114339e+05  -7.411750e+04   7.048136e+04   5.377024e+09   9.813424e+10   1.193276e+11   2.348730e+05   4.697498e-26   0.000000e+00   0.000000e+00
     1448000   1.447999e-06   7.789560e+00   2.553671e+01   5.804082e-02  -2.113907e+05  -7.332707e+04   7.143124e+04   5.416157e+09   9.947159e+10   1.181403e+11   2.348730e+05   4.694106e-26   0.000000e+00   0.000000e+00
     1456000   1.455999e-06   7.787869e+00   2.553612e+01   5.861604e-02  -2.113472e+05  -7.252599e+04   7.237157e+04   5.454410e+09   1.007943e+11   1.169382e+11   2.348730e+05   4.690709e-26   0.000000e+00   0.000000e+00
     1464000   1.463999e-06   7.786178e+00   2.553555e+01   5.919874e-02  -2.113034e+05  -7.171440e+04   7.330222e+04   5.491779e+09   1.021021e+11   1.157216e+11   2.348730e+05   4.687308e-26   0.000000e+00   0.000000e+00
     1472000   1.471999e-06   7.784488e+00   2.553497e+01   5.978885e-02  -2.112593e+05  -7.089240e+04   7.422307e+04   5.528257e+09   1.033950e+11   1.144905e+11   2.348730e+05   4.683903e-26   0.000000e+00   0.000000e+00
     1480000   1.479999e-06   7.782798e+00   2.553441e+01   6.038629e-02  -2.112150e+05  -7.006012e+04   7.513402e+04   5.563840e+09   1.046727e+11   1.132452e+11   2.348730e+05   4.680494e-26   0.000000e+00   0.000000e+00
     1488000   1.487999e-06   7.781109e+00   2.553385e+01   6.099097e-02  -2.111703e+05  -6.921768e+04   7.603496e+04   5.598523e+09   1.059351e+11   1.119860e+11   2.348730e+05   4.677081e-26   0.000000e+00   0.000000e+00
     1496000   1.495999e-06   7.779419e+00   2.553330e+01   6.160282e-02  -2.111254e+05  -6.836520e+04   7.692576e+04   5.632300e+09   1.071821e+11   1.107129e+11   2.348730e+05   4.673664e-26   0.000000e+00   0.000000e+00
     1504000   1.503999e-06   7.777731e+00   2.553276e+01   6.222175e-02  -2.110802e+05  -6.750280e+04   7.780633e+04   5.665167e+09   1.084135e+11   1.094261e+11   2.348730e+05   4.670244e-26   0.000000e+00   0.000000e+00
     1512000   1.511999e-06   7.776042e+00   2.553222e+01   6.284769e-02  -2.110348e+05  -6.663062e+04   7.867654e+04   5.697120e+09   1.096292e+11   1.081260e+11   2.348730e+05   4.666819e-26   0.000000e+00   0.000000e+00
     1520000   1.519999e-06   7.774354e+00   2.553169e+01   6.348055e-02  -2.109891e+05  -6.574878e+04   7.953631e+04   5.728153e+09   1.108290e+11   1.068125e+11   2.348730e+05   4.663390e-26   0.000000e+00   0.000000e+00
     1528000   1.527999e-06   7.772666e+00   2.553117e+01   6.412025e-02  -2.109431e+05  -6.485740e+04   8.038551e+04   5.758262e+09   1.120128e+11   1.054861e+11   2.348730e+05   4.659958e-26   0.000000e+00   0.000000e+00
     1536000   1.535999e-06   7.770979e+00   2.553066e+01   6.476669e-02  -2.108969e+05  -6.395661e+04   8.122405e+04   5.787443e+09   1.131805e+11   1.041467e+11   2.348730e+05   4.656522e-26   0.000000e+00   0.000000e+00
     1544000   1.543999e-06   7.769292e+00   2.553015e+01   6.541980e-02  -2.108505e+05  -6.304655e+04   8.205182e+04   5.815693e+09   1.143319e+11   1.027947e+11   2.348730e+05   4.653082e-26   0.000000e+00   0.000000e+00
     1552000   1.551999e-06   7.767605e+00   2.552965e+01   6.607949e-02  -2.108039e+05  -6.212735e+04   8.286873e+04   5.843006e+09   1.154668e+11   1.014303e+11   2.348730e+05   4.649638e-26   0.000000e+00   0.000000e+00
     1560000   1.559999e-06   7.765919e+00   2.552915e+01   6.674567e-02  -2.107570e+05  -6.119913e+04   8.367467e+04   5.869379e+09   1.165853e+11   1.000536e+11   2.348730e+05   4.646191e-26   0.000000e+00   0.000000e+00
     1568000   1.567999e-06   7.764233e+00   2.552867e+01   6.741826e-02  -2.107100e+05  -6.026202e+04   8.446955e+04   5.894809e+09   1.176870e+11   9.866486e+10   2.348730e+05   4.642739e-26   0.000000e+00   0.000000e+00
     1576000   1.575999e-06   7.762548e+00   2.552819e+01   6.809715e-02  -2.106627e+05  -5.931618e+04   8.525328e+04   5.919292e+09   1.187720e+11   9.726427e+10   2.348730e+05   4.639284e-26   0.000000e+00   0.000000e+00
     1584000   1.583999e-06   7.760863e+00   2.552772e+01   6.878228e-02  -2.106153e+05  -5.836172e+04   8.602575e+04   5.942824e+09   1.198400e+11   9.585204e+10   2.348730e+05   4.635826e-26   0.000000e+00   0.000000e+00
     1592000   1.591999e-06   7.759178e+00   2.552726e+01   6.947354e-02  -2.105676e+05  -5.739878e+04   8.678688e+04   5.965403e+09   1.208911e+11   9.442837e+10   2.348730e+05   4.632364e-26   0.000000e+00   0.000000e+00
     1600000   1.599999e-06   7.757494e+00   2.552680e+01   7.017084e-02  -2.105198e+05  -5.642750e+04   8.753657e+04   5.987024e+09   1.219249e+11   9.299348e+10   2.348730e+05   4.628898e-26   0.000000e+00   0.000000e+00
     1608000   1.607999e-06   7.755810e+00   2.552635e+01   7.087409e-02  -2.104718e+05  -5.544803e+04   8.827474e+04   6.007686e+09   1.229415e+11   9.154757e+10   2.348730e+05   4.625429e-26   0.000000e+00   0.000000e+00
     1616000   1.615999e-06   7.754126e+00   2.552591e+01   7.158320e-02  -2.104237e+05  -5.446049e+04   8.900130e+04   6.027385e+09   1.239408e+11   9.009085e+10   2.348730e+05   4.621956e-26   0.000000e+00   0.000000e+00
     1624000   1.623999e-06   7.752443e+00   2.552548e+01   7.229808e-02  -2.103754e+05  -5.346502e+04   8.971616e+04   6.046118e+09   1.249225e+11   8.862353e+10   2.348730e+05   4.618480e-26   0.000000e+00   0.000000e+00
     1632000   1.631999e-06   7.750760e+00   2.552506e+01   7.301863e-02  -2.103270e+05  -5.246177e+04   9.041925e+04   6.063884e+09   1.258867e+11   8.714582e+10   2.348730e+05   4.615001e-26   0.000000e+00   0.000000e+00
     1640000   1.639999e-06   7.749078e+00   2.552464e+01   7.374476e-02  -2.102784e+05  -5.145088e+04   9.111047e+04   6.080679e+09   1.268331e+11   8.565794e+10   2.348730e+05   4.611518e-26   0.000000e+00   0.000000e+00
     1648000   1.647999e-06   7.747396e+00   2.552424e+01   7.447637e-02  -2.102297e+05  -5.043249e+04   9.178975e+04   6.096502e+09   1.277618e+11   8.416010e+10   2.348730e+05   4.608032e-26   0.000000e+00   0.000000e+00
     1656000   1.655999e-06   7.745714e+00   2.552384e+01   7.521336e-02  -2.101808e+05  -4.940674e+04   9.245700e+04   6.111350e+09   1.286726e+11   8.265252e+10   2.348730e+05   4.604543e-26   0.000000e+00   0.000000e+00
     1664000   1.663999e-06   7.744033e+00   2.552344e+01   7.595565e-02  -2.101319e+05  -4.837377e+04   9.311216e+04   6.125222e+09   1.295653e+11   8.113540e+10   2.348730e+05   4.601051e-26   0.000000e+00   0.000000e+00
     1672000   1.671999e-06   7.742352e+00   2.552306e+01   7.670312e-02  -2.100828e+05  -4.733374e+04   9.375514e+04   6.138115e+09   1.304400e+11   7.960897e+10   2.348730e+05   4.597556e-26   0.000000e+00   0.000000e+00
     1680000   1.679999e-06   7.740671e+00   2.552269e+01   7.745570e-02  -2.100337e+05  -4.628678e+04   9.438588e+04   6.150028e+09   1.312966e+11   7.807345e+10   2.348730e+05   4.594058e-26   0.000000e+00   0.000000e+00
     1688000   1.687999e-06   7.738991e+00   2.552232e+01   7.821326e-02  -2.099844e+05  -4.523304e+04   9.500429e+04   6.160959e+09   1.321348e+11   7.652905e+10   2.348730e+05   4.590557e-26   0.000000e+00   0.000000e+00
     1696000   1.695999e-06   7.737312e+00   2.552196e+01   7.897573e-02  -2.099351e+05  -4.417267e+04   9.561032e+04   6.170908e+09   1.329547e+11   7.497599e+10   2.348730e+05   4.587053e-26   0.000000e+00   0.000000e+00
     1704000   1.703999e-06   7.735632e+00   2.552161e+01   7.974300e-02  -2.098857e+05  -4.310582e+04   9.620389e+04   6.179873e+09   1.337562e+11   7.341449e+10   2.348730e+05   4.583546e-26   0.000000e+00   0.000000e+00
     1712000   1.711999e-06   7.733953e+00   2.552127e+01   8.051496e-02  -2.098362e+05  -4.203262e+04   9.678493e+04   6.187852e+09   1.345391e+11   7.184478e+10   2.348730e+05   4.580037e-26   0.000000e+00   0.000000e+00
     1720000   1.719999e-06   7.732275e+00   2.552094e+01   8.129152e-02  -2.097867e+05  -4.095324e+04   9.735338e+04   6.194846e+09   1.353035e+11   7.026706e+10   2.348730e+05   4.576525e-26   0.000000e+00   0.000000e+00
     1728000   1.727999e-06   7.730597e+00   2.552062e+01   8.207258e-02  -2.097371e+05  -3.986781e+04   9.790918e+04   6.200853e+09   1.360492e+11   6.868157e+10   2.348730e+05   4.573010e-26   0.000000e+00   0.000000e+00
     1736000   1.735999e-06   7.728919e+00   2.552030e+01   8.285803e-02  -2.096875e+05  -3.877650e+04   9.845226e+04   6.205872e+09   1.367761e+11   6.708853e+10   2.348730e+05   4.569493e-26   0.000000e+00   0.000000e+00
     1744000   1.743999e-06   7.727242e+00   2.552000e+01   8.364778e-02  -2.096378e+05  -3.767945e+04   9.898257e+04   6.209904e+09   1.374843e+11   6.548815e+10   2.348730e+05   4.565973e-26   0.000000e+00   0.000000e+00
     1752000   1.751999e-06   7.725565e+00   2.551970e+01   8.444172e-02  -2.095881e+05  -3.657680e+04   9.950005e+04   6.212948e+09   1.381736e+11   6.388067e+10   2.348730e+05   4.562452e-26   0.000000e+00   0.000000e+00
     1760000   1.759999e-06   7.723888e+00   2.551941e+01   8.523975e-02  -2.095384e+05  -3.546872e+04   1.000046e+05   6.215004e+09   1.388439e+11   6.226631e+10   2.348730e+05   4.558927e-26   0.000000e+00   0.000000e+00
     1768000   1.767999e-06   7.722212e+00   2.551913e+01   8.604176e-02  -2.094887e+05  -3.435535e+04   1.004963e+05   6.216071e+09   1.394952e+11   6.064529e+10   2.348730e+05   4.555401e-26   0.000000e+00   0.000000e+00
     1776000   1.775999e-06   7.720537e+00   2.551886e+01   8.684765e-02  -2.094390e+05  -3.323685e+04   1.009749e+05   6.216151e+09   1.401275e+11   5.901783e+10   2.348730e+05   4.551873e-26   0.000000e+00   0.000000e+00
     1784000   1.783999e-06   7.718861e+00   2.551860e+01   8.765733e-02  -2.093893e+05  -3.211336e+04   1.014406e+05   6.215243e+09   1.407406e+11   5.738417e+10   2.348730e+05   4.548343e-26   0.000000e+00   0.000000e+00
     1792000   1.791999e-06   7.717186e+00   2.551835e+01   8.847067e-02  -2.093395e+05  -3.098505e+04   1.018931e+05   6.213348e+09   1.413346e+11   5.574453e+10   2.348730e+05   4.544810e-26   0.000000e+00   0.000000e+00
     1800000   1.799999e-06   7.715512e+00   2.551811e+01   8.928758e-02  -2.092898e+05  -2.985206e+04   1.023325e+05   6.210466e+09   1.419093e+11   5.409913e+10   2.348730e+05   4.541276e-26   0.000000e+00   0.000000e+00
     1808000   1.807999e-06   7.713838e+00   2.551787e+01   9.010795e-02  -2.092402e+05  -2.871455e+04   1.027586e+05   6.206599e+09   1.424648e+11   5.244820e+10   2.348730e+05   4.537741e-26   0.000000e+00   0.000000e+00
     1816000   1.815999e-06   7.712164e+00   2.551765e+01   9.093168e-02  -2.091905e+05  -2.757267e+04   1.031716e+05   6.201748e+09   1.430010e+11   5.079196e+10   2.348730e+05   4.534203e-26   0.000000e+00   0.000000e+00
     1824000   1.823999e-06   7.710491e+00   2.551743e+01   9.175866e-02  -2.091409e+05  -2.642658e+04   1.035713e+05   6.195912e+09   1.435178e+11   4.913065e+10   2.348730e+05   4.530664e-26   0.000000e+00   0.000000e+00
     1832000   1.831999e-06   7.708818e+00   2.551722e+01   9.258879e-02  -2.090914e+05  -2.527644e+04   1.039577e+05   6.189094e+09   1.440151e+11   4.746450e+10   2.348730e+05   4.527124e-26   0.000000e+00   0.000000e+00
     1840000   1.839999e-06   7.707145e+00   2.551703e+01   9.342195e-02  -2.090419e+05  -2.412239e+04   1.043307e+05   6.181296e+09   1.444931e+11   4.579372e+10   2.348730e+05   4.523582e-26   0.000000e+00   0.000000e+00
     1848000   1.847999e-06   7.705473e+00   2.551684e+01   9.425804e-02  -2.089925e+05  -2.296460e+04   1.046904e+05   6.172518e+09   1.449516e+11   4.411855e+10   2.348730e+05   4.520040e-26   0.000000e+00   0.000000e+00
     1856000   1.855999e-06   7.703801e+00   2.551666e+01   9.509696e-02  -2.089432e+05  -2.180322e+04   1.050366e+05   6.162762e+09   1.453905e+11   4.243922e+10   2.348730e+05   4.516495e-26   0.000000e+00   0.000000e+00
     1864000   1.863999e-06   7.702130e+00   2.551649e+01   9.593859e-02  -2.088939e+05  -2.063840e+04   1.053694e+05   6.152030e+09   1.458100e+11   4.075595e+10   2.348730e+05   4.512950e-26   0.000000e+00   0.000000e+00
     1872000   1.871999e-06   7.700459e+00   2.551633e+01   9.678284e-02  -2.088447e+05  -1.947031e+04   1.056887e+05   6.140325e+09   1.462098e+11   3.906897e+10   2.348730e+05   4.509404e-26   0.000000e+00   0.000000e+00
     1880000   1.879999e-06   7.698788e+00   2.551618e+01   9.762958e-02  -2.087957e+05  -1.829920e+04   1.059943e+05   6.116952e+09   1.465718e+11   3.735447e+10   2.348730e+05   4.504423e-26   0.000000e+00   0.000000e+00
     1888000   1.887999e-06   7.697118e+00   2.551604e+01   9.847871e-02  -2.087468e+05  -1.712518e+04   1.062864e+05   6.103302e+09   1.469317e+11   3.566118e+10   2.348730e+05   4.500852e-26   0.000000e+00   0.000000e+00
     1896000   1.895999e-06   7.695449e+00   2.551590e+01   9.933012e-02  -2.086981e+05  -1.594835e+04   1.065649e+05   6.088680e+09   1.472719e+11   3.396487e+10   2.348730e+05   4.497279e-26   0.000000e+00   0.000000e+00
     1904000   1.903999e-06   7.693779e+00   2.551578e+01   1.001837e-01  -2.086494e+05  -1.476884e+04   1.068299e+05   6.081552e+09   1.476155e+11   3.228539e+10   2.348730e+05   4.495304e-26   0.000000e+00   0.000000e+00
     1912000   1.911999e-06   7.692110e+00   2.551567e+01   1.010394e-01  -2.086008e+05  -1.358669e+04   1.070813e+05   6.065043e+09   1.479171e+11   3.058329e+10   2.348730e+05   4.491751e-26   0.000000e+00   0.000000e+00
     1920000   1.919999e-06   7.690442e+00   2.551556e+01   1.018970e-01  -2.085524e+05  -1.240222e+04   1.073192e+05   6.047568e+09   1.481990e+11   2.887884e+10   2.348730e+05   4.488199e-26   0.000000e+00   0.000000e+00
     1928000   1.927999e-06   7.688773e+00   2.551547e+01   1.027564e-01  -2.085041e+05  -1.121556e+04   1.075434e+05   6.029131e+09   1.484613e+11   2.717227e+10   2.348730e+05   4.484646e-26   0.000000e+00   0.000000e+00
     1936000   1.935999e-06   7.687105e+00   2.551538e+01   1.036176e-01  -2.084559e+05  -1.002689e+04   1.077539e+05   6.009734e+09   1.487039e+11   2.546380e+10   2.348730e+05   4.481093e-26   0.000000e+00   0.000000e+00
     1944000   1.943999e-06   7.685438e+00   2.551531e+01   1.044805e-01  -2.084079e+05  -8.836352e+03   1.079508e+05   5.989383e+09   1.489268e+11   2.375366e+10   2.348730e+05   4.477541e-26   0.000000e+00   0.000000e+00
     1952000   1.951999e-06   7.683771e+00   2.551524e+01   1.053448e-01  -2.083601e+05  -7.644111e+03   1.081340e+05   5.968079e+09   1.491300e+11   2.204208e+10   2.348730e+05   4.473989e-26   0.000000e+00   0.000000e+00
     1960000   1.959999e-06   7.682104e+00   2.551519e+01   1.062106e-01  -2.083124e+05  -6.450324e+03   1.083035e+05   5.945826e+09   1.493135e+11   2.032929e+10   2.348730e+05   4.470437e-26   0.000000e+00   0.000000e+00
     1968000   1.967999e-06   7.680438e+00   2.551514e+01   1.070776e-01  -2.082650e+05  -5.255148e+03   1.084593e+05   5.922629e+09   1.494773e+11   1.861551e+10   2.348730e+05   4.466886e-26   0.000000e+00   0.000000e+00
     1976000   1.975999e-06   7.678772e+00   2.551510e+01   1.079459e-01  -2.082177e+05  -4.058740e+03   1.086013e+05   5.898492e+09   1.496215e+11   1.690097e+10   2.348730e+05   4.463335e-26   0.000000e+00   0.000000e+00
     1984000   1.983999e-06   7.677106e+00   2.551507e+01   1.088152e-01  -2.081706e+05  -2.861257e+03   1.087297e+05   5.873418e+09   1.497460e+11   1.518589e+10   2.348730e+05   4.459785e-26   0.000000e+00   0.000000e+00
     1992000   1.991999e-06   7.675441e+00   2.551506e+01   1.096855e-01  -2.081237e+05  -1.662857e+03   1.088443e+05   5.847411e+09   1.498508e+11   1.347051e+10   2.348730e+05   4.456236e-26   0.000000e+00   0.000000e+00
     2000000   1.999999e-06   7.673776e+00   2.551505e+01   1.105567e-01  -2.080770e+05  -4.636964e+02   1.089452e+05   5.820477e+09   1.499360e+11   1.175504e+10   2.348730e+05   4.452688e-26   0.000000e+00   0.000000e+00
     2008000   2.007999e-06   7.672112e+00   2.551505e+01   1.114286e-01  -2.080306e+05   7.360667e+02   1.090324e+05   5.792620e+09   1.500015e+11   1.003971e+10   2.348730e+05   4.449141e-26   0.000000e+00   0.000000e+00
     2016000   2.015999e-06   7.670448e+00   2.551506e+01   1.123012e-01  -2.079843e+05   1.936276e+03   1.091058e+05   5.763844e+09   1.500475e+11   8.324749e+09   2.348730e+05   4.445595e-26   0.000000e+00   0.000000e+00
     2024000   2.023999e-06   7.668784e+00   2.551508e+01   1.131743e-01  -2.079384e+05   3.136774e+03   1.091656e+05   5.734155e+09   1.500738e+11   6.610376e+09   2.348730e+05   4.442050e-26   0.000000e+00   0.000000e+00
     2032000   2.031999e-06   7.667121e+00   2.551511e+01   1.140478e-01  -2.078926e+05   4.337405e+03   1.092116e+05   5.703556e+09   1.500806e+11   4.896817e+09   2.348730e+05   4.438507e-26   0.000000e+00   0.000000e+00
     2040000   2.039999e-06   7.665458e+00   2.551515e+01   1.149216e-01  -2.078471e+05   5.538012e+03   1.092439e+05   5.672055e+09   1.500679e+11   3.184293e+09   2.348730e+05   4.434965e-26   0.000000e+00   0.000000e+00
     2048000   2.047999e-06   7.663795e+00   2.551520e+01   1.157956e-01  -2.078019e+05   6.738440e+03   1.092625e+05   5.639655e+09   1.500357e+11   1.473028e+09   2.348730e+05   4.431425e-26   0.000000e+00   0.000000e+00
     2056000   2.055999e-06   7.662133e+00   2.551526e+01   1.166698e-01  -2.077569e+05   7.938531e+03   1.092675e+05   5.606362e+09   1.499840e+11  -2.367562e+08   2.348730e+05   4.427887e-26   0.000000e+00   0.000000e+00
     2064000   2.063999e-06   7.660471e+00   2.551533e+01   1.175439e-01  -2.077122e+05   9.138131e+03   1.092588e+05   5.572182e+09   1.499128e+11  -1.944839e+09   2.348730e+05   4.424350e-26   0.000000e+00   0.000000e+00
     2072000   2.071999e-06   7.658810e+00   2.551540e+01   1.184179e-01  -2.076677e+05   1.033708e+04   1.092364e+05   5.537120e+09   1.498223e+11  -3.651000e+09   2.348730e+05   4.420816e-26   0.000000e+00   0.000000e+00
     2080000   2.079999e-06   7.657149e+00   2.551549e+01   1.192916e-01  -2.076236e+05   1.153524e+04   1.092004e+05   5.501183e+09   1.497124e+11  -5.355019e+09   2.348730e+05   4.417283e-26   0.000000e+00   0.000000e+00
     2088000   2.087999e-06   7.655488e+00   2.551559e+01   1.201650e-01  -2.075797e+05   1.273243e+04   1.091507e+05   5.464375e+09   1.495831e+11  -7.056676e+09   2.348730e+05   4.413753e-26   0.000000e+00   0.000000e+00
     2096000   2.095999e-06   7.653827e+00   2.551569e+01   1.210380e-01  -2.075361e+05   1.392851e+04   1.090875e+05   5.426705e+09   1.494346e+11  -8.755753e+09   2.348730e+05   4.410224e-26   0.000000e+00   0.000000e+00
     2104000   2.103999e-06   7.652167e+00   2.551581e+01   1.219104e-01  -2.074929e+05   1.512333e+04   1.090106e+05   5.388176e+09   1.492669e+11  -1.045203e+10   2.348730e+05   4.406699e-26   0.000000e+00   0.000000e+00
     2112000   2.111999e-06   7.650507e+00   2.551594e+01   1.227821e-01  -2.074499e+05   1.631673e+04   1.089202e+05   5.348797e+09   1.490800e+11  -1.214530e+10   2.348730e+05   4.403175e-26   0.000000e+00   0.000000e+00
     2120000   2.119999e-06   7.648848e+00   2.551607e+01   1.236531e-01  -2.074073e+05   1.750856e+04   1.088163e+05   5.308573e+09   1.488739e+11  -1.383533e+10   2.348730e+05   4.399654e-26   0.000000e+00   0.000000e+00
     2128000   2.127999e-06   7.647189e+00   2.551622e+01   1.245232e-01  -2.073650e+05   1.869867e+04   1.086989e+05   5.267510e+09   1.486488e+11  -1.552192e+10   2.348730e+05   4.396136e-26   0.000000e+00   0.000000e+00
     2136000   2.135999e-06   7.645530e+00   2.551637e+01   1.253922e-01  -2.073230e+05   1.988689e+04   1.085680e+05   5.225617e+09   1.484047e+11  -1.720485e+10   2.348730e+05   4.392621e-26   0.000000e+00   0.000000e+00
     2144000   2.143999e-06   7.643872e+00   2.551653e+01   1.262602e-01  -2.072814e+05   2.107309e+04   1.084236e+05   5.182899e+09   1.481416e+11  -1.888390e+10   2.348730e+05   4.389108e-26   0.000000e+00   0.000000e+00
     2152000   2.151999e-06   7.642214e+00   2.551671e+01   1.271270e-01  -2.072401e+05   2.225711e+04   1.082658e+05   5.139364e+09   1.478596e+11  -2.055886e+10   2.348730e+05   4.385599e-26   0.000000e+00   0.000000e+00
     2160000   2.159999e-06   7.640556e+00   2.551689e+01   1.279924e-01  -2.071992e+05   2.343879e+04   1.080947e+05   5.095019e+09   1.475588e+11  -2.222953e+10   2.348730e+05   4.382092e-26   0.000000e+00   0.000000e+00
     2168000   2.167999e-06   7.638899e+00   2.551708e+01   1.288565e-01  -2.071586e+05   2.461800e+04   1.079102e+05   5.049871e+09   1.472392e+11  -2.389568e+10   2.348730e+05   4.378589e-26   0.000000e+00   0.000000e+00
     2176000   2.175999e-06   7.637241e+00   2.551728e+01   1.297190e-01  -2.071184e+05   2.579457e+04   1.077123e+05   5.003927e+09   1.469009e+11  -2.555712e+10   2.348730e+05   4.375089e-26   0.000000e+00   0.000000e+00
     2184000   2.183999e-06   7.635585e+00   2.551750e+01   1.305798e-01  -2.070785e+05   2.696836e+04   1.075013e+05   4.957195e+09   1.465439e+11  -2.721363e+10   2.348730e+05   4.371592e-26   0.000000e+00   0.000000e+00
     2192000   2.191999e-06   7.633928e+00   2.551772e+01   1.314389e-01  -2.070390e+05   2.813922e+04   1.072769e+05   4.909682e+09   1.461685e+11  -2.886500e+10   2.348730e+05   4.368099e-26   0.000000e+00   0.000000e+00
     2200000   2.199999e-06   7.632272e+00   2.551795e+01   1.322962e-01  -2.070000e+05   2.930701e+04   1.070394e+05   4.861397e+09   1.457745e+11  -3.051102e+10   2.348730e+05   4.364610e-26   0.000000e+00   0.000000e+00
     2208000   2.207999e-06   7.630616e+00   2.551819e+01   1.331515e-01  -2.069613e+05   3.047157e+04   1.067888e+05   4.812347e+09   1.453621e+11  -3.215150e+10   2.348730e+05   4.361124e-26   0.000000e+00   0.000000e+00
     2216000   2.215999e-06   7.628961e+00   2.551843e+01   1.340048e-01  -2.069230e+05   3.163275e+04   1.065250e+05   4.762539e+09   1.449314e+11  -3.378623e+10   2.348730e+05   4.357641e-26   0.000000e+00   0.000000e+00
     2224000   2.223999e-06   7.627305e+00   2.551869e+01   1.348559e-01  -2.068851e+05   3.279042e+04   1.062482e+05   4.711983e+09   1.444825e+11  -3.541500e+10   2.348730e+05   4.354163e-26   0.000000e+00   0.000000e+00
     2232000   2.231999e-06   7.625650e+00   2.551896e+01   1.357047e-01  -2.068476e+05   3.394442e+04   1.059584e+05   4.660685e+09   1.440154e+11  -3.703760e+10   2.348730e+05   4.350689e-26   0.000000e+00   0.000000e+00
     2240000   2.239999e-06   7.623996e+00   2.551923e+01   1.365512e-01  -2.068105e+05   3.509462e+04   1.056556e+05   4.608656e+09   1.435302e+11  -3.865385e+10   2.348730e+05   4.347218e-26   0.000000e+00   0.000000e+00
     2248000   2.247999e-06   7.622341e+00   2.551952e+01   1.373952e-01  -2.067738e+05   3.624086e+04   1.053399e+05   4.555902e+09   1.430270e+11  -4.026354e+10   2.348730e+05   4.343752e-26   0.000000e+00   0.000000e+00
     2256000   2.255999e-06   7.620687e+00   2.551981e+01   1.382366e-01  -2.067376e+05   3.738300e+04   1.050114e+05   4.502432e+09   1.425060e+11  -4.186647e+10   2.348730e+05   4.340290e-26   0.000000e+00   0.000000e+00
     2264000   2.263999e-06   7.619034e+00   2.552012e+01   1.390754e-01  -2.067018e+05   3.852090e+04   1.046701e+05   4.448256e+09   1.419671e+11  -4.346244e+10   2.348730e+05   4.336832e-26   0.000000e+00   0.000000e+00
     2272000   2.271999e-06   7.617380e+00   2.552043e+01   1.399113e-01  -2.066664e+05   3.965443e+04   1.043160e+05   4.393381e+09   1.414106e+11  -4.505126e+10   2.348730e+05   4.333378e-26   0.000000e+00   0.000000e+00
     2280000   2.279999e-06   7.615727e+00   2.552075e+01   1.407444e-01  -2.066315e+05   4.078343e+04   1.039493e+05   4.337816e+09   1.408364e+11  -4.663273e+10   2.348730e+05   4.329929e-26   0.000000e+00   0.000000e+00
     2288000   2.287999e-06   7.614074e+00   2.552108e+01   1.415745e-01  -2.065970e+05   4.190776e+04   1.035699e+05   4.281571e+09   1.402447e+11  -4.820666e+10   2.348730e+05   4.326485e-26   0.000000e+00   0.000000e+00
     2296000   2.295999e-06   7.612421e+00   2.552142e+01   1.424015e-01  -2.065630e+05   4.302729e+04   1.031780e+05   4.224654e+09   1.396356e+11  -4.977286e+10   2.348730e+05   4.323045e-26   0.000000e+00   0.000000e+00
     2304000   2.303999e-06   7.610769e+00   2.552177e+01   1.432253e-01  -2.065294e+05   4.414189e+04   1.027736e+05   4.167074e+09   1.390092e+11  -5.133113e+10   2.348730e+05   4.319609e-26   0.000000e+00   0.000000e+00
     2312000   2.311999e-06   7.609117e+00   2.552213e+01   1.440458e-01  -2.064963e+05   4.525140e+04   1.023567e+05   4.108841e+09   1.383657e+11  -5.288129e+10   2.348730e+05   4.316179e-26   0.000000e+00   0.000000e+00
     2320000   2.319999e-06   7.607465e+00   2.552250e+01   1.448629e-01  -2.064637e+05   4.635569e+04   1.019275e+05   4.049963e+09   1.377050e+11  -5.442315e+10   2.348730e+05   4.312753e-26   0.000000e+00   0.000000e+00
     2328000   2.327999e-06   7.605814e+00   2.552287e+01   1.456766e-01  -2.064315e+05   4.745463e+04   1.014860e+05   3.990451e+09   1.370273e+11  -5.595652e+10   2.348730e+05   4.309332e-26   0.000000e+00   0.000000e+00
     2336000   2.335999e-06   7.604162e+00   2.552325e+01   1.464867e-01  -2.063999e+05   4.854808e+04   1.010322e+05   3.930314e+09   1.363328e+11  -5.748122e+10   2.348730e+05   4.305917e-26   0.000000e+00   0.000000e+00
     2344000   2.343999e-06   7.602511e+00   2.552365e+01   1.472931e-01  -2.063687e+05   4.963591e+04   1.005663e+05   3.869560e+09   1.356215e+11  -5.899706e+10   2.348730e+05   4.302506e-26   0.000000e+00   0.000000e+00
     2352000   2.351999e-06   7.600860e+00   2.552405e+01   1.480957e-01  -2.063379e+05   5.071798e+04   1.000883e+05   3.808200e+09   1.348935e+11  -6.050386e+10   2.348730e+05   4.299100e-26   0.000000e+00   0.000000e+00
     2360000   2.359999e-06   7.599210e+00   2.552446e+01   1.488945e-01  -2.063078e+05   5.179400e+04   9.959823e+04   3.730541e+09   1.341081e+11  -6.201251e+10   2.348730e+05   4.293789e-26   0.000000e+00   0.000000e+00
     2368000   2.367999e-06   7.597559e+00   2.552488e+01   1.496893e-01  -2.062782e+05   5.286384e+04   9.909617e+04   3.667897e+09   1.333477e+11  -6.350036e+10   2.348730e+05   4.290428e-26   0.000000e+00   0.000000e+00
     2376000   2.375999e-06   7.595909e+00   2.552530e+01   1.504800e-01  -2.062491e+05   5.392752e+04   9.858225e+04   3.604678e+09   1.325710e+11  -6.497865e+10   2.348730e+05   4.287071e-26   0.000000e+00   0.000000e+00
     2384000   2.383999e-06   7.594259e+00   2.552574e+01   1.512665e-01  -2.062205e+05   5.498493e+04   9.805653e+04   3.540895e+09   1.317781e+11  -6.644720e+10   2.348730e+05   4.283721e-26   0.000000e+00   0.000000e+00
     2392000   2.391999e-06   7.592610e+00   2.552618e+01   1.520489e-01  -2.061924e+05   5.603593e+04   9.751911e+04   3.476558e+09   1.309692e+11  -6.790585e+10   2.348730e+05   4.280375e-26   0.000000e+00   0.000000e+00
     2400000   2.399999e-06   7.590960e+00   2.552664e+01   1.528268e-01  -2.061649e+05   5.708039e+04   9.697007e+04   3.411678e+09   1.301444e+11  -6.935440e+10   2.348730e+05   4.277035e-26   0.000000e+00   0.000000e+00
     2408000   2.407999e-06   7.589311e+00   2.552710e+01   1.536003e-01  -2.061379e+05   5.811820e+04   9.640947e+04   3.346263e+09   1.293037e+11  -7.079270e+10   2.348730e+05   4.273701e-26   0.000000e+00   0.000000e+00
     2416000   2.415999e-06   7.587662e+00   2.552757e+01   1.543693e-01  -2.061114e+05   5.914921e+04   9.583741e+04   3.280325e+09   1.284475e+11  -7.222058e+10   2.348730e+05   4.270373e-26   0.000000e+00   0.000000e+00
     2424000   2.423999e-06   7.586013e+00   2.552804e+01   1.551337e-01  -2.060854e+05   6.017331e+04   9.525397e+04   3.213874e+09   1.275757e+11  -7.363786e+10   2.348730e+05   4.267050e-26   0.000000e+00   0.000000e+00
     2432000   2.431999e-06   7.584365e+00   2.552853e+01   1.558934e-01  -2.060599e+05   6.119038e+04   9.465923e+04   3.146920e+09   1.266885e+11  -7.504439e+10   2.348730e+05   4.263732e-26   0.000000e+00   0.000000e+00
     2440000   2.439999e-06   7.582716e+00   2.552902e+01   1.566482e-01  -2.060350e+05   6.220029e+04   9.405329e+04   3.079474e+09   1.257861e+11  -7.643998e+10   2.348730e+05   4.260421e-26   0.000000e+00   0.000000e+00
     2448000   2.447999e-06   7.581068e+00   2.552952e+01   1.573982e-01  -2.060107e+05   6.320292e+04   9.343622e+04   3.011546e+09   1.248686e+11  -7.782449e+10   2.348730e+05   4.257116e-26   0.000000e+00   0.000000e+00
     2456000   2.455999e-06   7.579420e+00   2.553003e+01   1.581432e-01  -2.059868e+05   6.419814e+04   9.280812e+04   2.943147e+09   1.239361e+11  -7.919776e+10   2.348730e+05   4.253816e-26   0.000000e+00   0.000000e+00
     2464000   2.463999e-06   7.577772e+00   2.553055e+01   1.588831e-01  -2.059636e+05   6.518585e+04   9.216908e+04   2.874287e+09   1.229887e+11  -8.055961e+10   2.348730e+05   4.250522e-26   0.000000e+00   0.000000e+00
     2472000   2.471999e-06   7.576125e+00   2.553108e+01   1.596179e-01  -2.059409e+05   6.616592e+04   9.151920e+04   2.804978e+09   1.220267e+11  -8.190990e+10   2.348730e+05   4.247235e-26   0.000000e+00   0.000000e+00
     2480000   2.479999e-06   7.574477e+00   2.553161e+01   1.603474e-01  -2.059187e+05   6.713824e+04   9.085856e+04   2.735230e+09   1.210501e+11  -8.324847e+10   2.348730e+05   4.243953e-26   0.000000e+00   0.000000e+00
     2488000   2.487999e-06   7.572830e+00   2.553215e+01   1.610716e-01  -2.058971e+05   6.810269e+04   9.018725e+04   2.665053e+09   1.200591e+11  -8.457516e+10   2.348730e+05   4.240678e-26   0.000000e+00   0.000000e+00
     2496000   2.495999e-06   7.571183e+00   2.553270e+01   1.617903e-01  -2.058761e+05   6.905915e+04   8.950538e+04   2.594459e+09   1.190539e+11  -8.588983e+10   2.348730e+05   4.237408e-26   0.000000e+00   0.000000e+00
     2504000   2.503999e-06   7.569536e+00   2.553326e+01   1.625036e-01  -2.058556e+05   7.000751e+04   8.881305e+04   2.523459e+09   1.180345e+11  -8.719232e+10   2.348730e+05   4.234145e-26   0.000000e+00   0.000000e+00
     2512000   2.511999e-06   7.567889e+00   2.553382e+01   1.632113e-01  -2.058357e+05   7.094766e+04   8.811034e+04   2.452063e+09   1.170012e+11  -8.848248e+10   2.348730e+05   4.230888e-26   0.000000e+00   0.000000e+00
     2520000   2.519999e-06   7.566243e+00   2.553439e+01   1.639134e-01  -2.058164e+05   7.187949e+04   8.739736e+04   2.380282e+09   1.159541e+11  -8.976017e+10   2.348730e+05   4.227637e-26   0.000000e+00   0.000000e+00
     2528000   2.527999e-06   7.564596e+00   2.553497e+01   1.646097e-01  -2.057976e+05   7.280289e+04   8.667421e+04   2.308128e+09   1.148934e+11  -9.102524e+10   2.348730e+05   4.224392e-26   0.000000e+00   0.000000e+00
     2536000   2.535999e-06   7.562950e+00   2.553556e+01   1.653001e-01  -2.057794e+05   7.371775e+04   8.594099e+04   2.235611e+09   1.138191e+11  -9.227755e+10   2.348730e+05   4.221154e-26   0.000000e+00   0.000000e+00
     2544000   2.543999e-06   7.561304e+00   2.553615e+01   1.659847e-01  -2.057618e+05   7.462396e+04   8.519780e+04   2.162743e+09   1.127315e+11  -9.351695e+10   2.348730e+05   4.217922e-26   0.000000e+00   0.000000e+00
     2552000   2.551999e-06   7.559658e+00   2.553675e+01   1.666633e-01  -2.057448e+05   7.552142e+04   8.444475e+04   2.089535e+09   1.116307e+11  -9.474332e+10   2.348730e+05   4.214696e-26   0.000000e+00   0.000000e+00
     2560000   2.559999e-06   7.558012e+00   2.553736e+01   1.673358e-01  -2.057284e+05   7.641001e+04   8.368194e+04   2.015997e+09   1.105169e+11  -9.595651e+10   2.348730e+05   4.211476e-26   0.000000e+00   0.000000e+00
     2568000   2.567999e-06   7.556366e+00   2.553797e+01   1.680021e-01  -2.057126e+05   7.728965e+04   8.290948e+04   1.942142e+09   1.093902e+11  -9.715639e+10   2.348730e+05   4.208263e-26   0.000000e+00   0.000000e+00
     2576000   2.575999e-06   7.554720e+00   2.553859e+01   1.686623e-01  -2.056973e+05   7.816022e+04   8.212747e+04   1.867979e+09   1.082508e+11  -9.834282e+10   2.348730e+05   4.205056e-26   0.000000e+00   0.000000e+00
     2584000   2.583999e-06   7.553075e+00   2.553922e+01   1.693162e-01  -2.056827e+05   7.902163e+04   8.133603e+04   1.793521e+09   1.070989e+11  -9.951567e+10   2.348730e+05   4.201856e-26   0.000000e+00   0.000000e+00
     2592000   2.591999e-06   7.551430e+00   2.553986e+01   1.699637e-01  -2.056686e+05   7.987377e+04   8.053526e+04   1.718779e+09   1.059346e+11  -1.006748e+11   2.348730e+05   4.198662e-26   0.000000e+00   0.000000e+00
     2600000   2.599999e-06   7.549784e+00   2.554050e+01   1.706047e-01  -2.056552e+05   8.071655e+04   7.972527e+04   1.643764e+09   1.047580e+11  -1.018201e+11   2.348730e+05   4.195474e-26   0.000000e+00   0.000000e+00
     2608000   2.607999e-06   7.548139e+00   2.554115e+01   1.712392e-01  -2.056423e+05   8.154987e+04   7.890617e+04   1.568488e+09   1.035695e+11  -1.029515e+11   2.348730e+05   4.192293e-26   0.000000e+00   0.000000e+00
     2616000   2.615999e-06   7.546494e+00   2.554181e+01   1.718672e-01  -2.056301e+05   8.237363e+04   7.807808e+04   1.492960e+09   1.023690e+11  -1.040687e+11   2.348730e+05   4.189118e-26   0.000000e+00   0.000000e+00
     2624000   2.623999e-06   7.544849e+00   2.554247e+01   1.724885e-01  -2.056184e+05   8.318774e+04   7.724111e+04   1.417194e+09   1.011569e+11  -1.051718e+11   2.348730e+05   4.185949e-26   0.000000e+00   0.000000e+00
     2632000   2.631999e-06   7.543204e+00   2.554314e+01   1.731030e-01  -2.056074e+05   8.399210e+04   7.639537e+04   1.341200e+09   9.993316e+10  -1.062606e+11   2.348730e+05   4.182787e-26   0.000000e+00   0.000000e+00
     2640000   2.639999e-06   7.541559e+00   2.554381e+01   1.737108e-01  -2.055970e+05   8.478664e+04   7.554098e+04   1.264990e+09   9.869809e+10  -1.073349e+11   2.348730e+05   4.179631e-26   0.000000e+00   0.000000e+00
     2648000   2.647999e-06   7.539915e+00   2.554449e+01   1.743116e-01  -2.055872e+05   8.557124e+04   7.467805e+04   1.188575e+09   9.745183e+10  -1.083946e+11   2.348730e+05   4.176482e-26   0.000000e+00   0.000000e+00
     2656000   2.655999e-06   7.538270e+00   2.554518e+01   1.749056e-01  -2.055780e+05   8.634584e+04   7.380670e+04   1.111966e+09   9.619455e+10  -1.094397e+11   2.348730e+05   4.173338e-26   0.000000e+00   0.000000e+00
     2664000   2.663999e-06   7.536625e+00   2.554588e+01   1.754925e-01  -2.055694e+05   8.711033e+04   7.292705e+04   1.035175e+09   9.492642e+10  -1.104700e+11   2.348730e+05   4.170202e-26   0.000000e+00   0.000000e+00
     2672000   2.671999e-06   7.534981e+00   2.554658e+01   1.760724e-01  -2.055614e+05   8.786463e+04   7.203922e+04   9.582125e+08   9.364762e+10  -1.114854e+11   2.348730e+05   4.167071e-26   0.000000e+00   0.000000e+00
     2680000   2.679999e-06   7.533336e+00   2.554728e+01   1.766451e-01  -2.055541e+05   8.860866e+04   7.114333e+04   8.810906e+08   9.235832e+10  -1.124858e+11   2.348730e+05   4.163947e-26   0.000000e+00   0.000000e+00
     2688000   2.687999e-06   7.531692e+00   2.554799e+01   1.772107e-01  -2.055473e+05   8.934233e+04   7.023949e+04   8.038206e+08   9.105871e+10  -1.134711e+11   2.348730e+05   4.160829e-26   0.000000e+00   0.000000e+00
     2696000   2.695999e-06   7.530048e+00   2.554871e+01   1.777689e-01  -2.055412e+05   9.006557e+04   6.932783e+04   7.264136e+08   8.974896e+10  -1.144412e+11   2.348730e+05   4.157718e-26   0.000000e+00   0.000000e+00
     2704000   2.703999e-06   7.528403e+00   2.554943e+01   1.783199e-01  -2.055357e+05   9.077829e+04   6.840847e+04   6.488811e+08   8.842925e+10  -1.153960e+11   2.348730e+05   4.154612e-26   0.000000e+00   0.000000e+00
     2712000   2.711999e-06   7.526759e+00   2.555016e+01   1.788635e-01  -2.055308e+05   9.148041e+04   6.748153e+04   5.712343e+08   8.709977e+10  -1.163355e+11   2.348730e+05   4.151513e-26   0.000000e+00   0.000000e+00
     2720000   2.719999e-06   7.525115e+00   2.555090e+01   1.793996e-01  -2.055265e+05   9.217186e+04   6.654714e+04   4.934847e+08   8.576068e+10  -1.172594e+11   2.348730e+05   4.148420e-26   0.000000e+00   0.000000e+00
     2728000   2.727999e-06   7.523471e+00   2.555164e+01   1.799282e-01  -2.055229e+05   9.285255e+04   6.560542e+04   4.156435e+08   8.441219e+10  -1.181677e+11   2.348730e+05   4.145333e-26   0.000000e+00   0.000000e+00
     2736000   2.735999e-06   7.521826e+00   2.555238e+01   1.804492e-01  -2.055199e+05   9.352243e+04   6.465650e+04   3.377219e+08   8.305446e+10  -1.190603e+11   2.348730e+05   4.142253e-26   0.000000e+00   0.000000e+00
     2744000   2.743999e-06   7.520182e+00   2.555313e+01   1.809627e-01  -2.055175e+05   9.418140e+04   6.370050e+04   2.597313e+08   8.168769e+10  -1.199372e+11   2.348730e+05   4.139178e-26   0.000000e+00   0.000000e+00
     2752000   2.751999e-06   7.518538e+00   2.555389e+01   1.814684e-01  -2.055157e+05   9.482940e+04   6.273754e+04   1.816829e+08   8.031205e+10  -1.207982e+11   2.348730e+05   4.136110e-26   0.000000e+00   0.000000e+00
     2760000   2.759999e-06   7.516894e+00   2.555465e+01   1.819665e-01  -2.055146e+05   9.546637e+04   6.176777e+04   1.035880e+08   7.892774e+10  -1.216433e+11   2.348730e+05   4.133047e-26   0.000000e+00   0.000000e+00
     2768000   2.767999e-06   7.515250e+00   2.555542e+01   1.824567e-01  -2.055141e+05   9.609222e+04   6.079129e+04   2.545765e+07   7.753494e+10  -1.224723e+11   2.348730e+05   4.129991e-26   0.000000e+00   0.000000e+00
     2776000   2.775999e-06   7.513606e+00   2.555619e+01   1.829391e-01  -2.055142e+05   9.670690e+04   5.980825e+04  -5.269683e+07   7.613384e+10  -1.232853e+11   2.348730e+05   4.126941e-26   0.000000e+00   0.000000e+00
     2784000   2.783999e-06   7.511962e+00   2.555696e+01   1.834136e-01  -2.055149e+05   9.731034e+04   5.881877e+04  -1.308643e+08   7.472462e+10  -1.240820e+11   2.348730e+05   4.123896e-26   0.000000e+00   0.000000e+00
     2792000   2.791999e-06   7.510317e+00   2.555775e+01   1.838802e-01  -2.055163e+05   9.790248e+04   5.782298e+04  -2.090337e+08   7.330748e+10  -1.248625e+11   2.348730e+05   4.120857e-26   0.000000e+00   0.000000e+00
     2800000   2.799999e-06   7.508673e+00   2.555853e+01   1.843388e-01  -2.055183e+05   9.848324e+04   5.682101e+04  -2.871940e+08   7.188260e+10  -1.256266e+11   2.348730e+05   4.117824e-26   0.000000e+00   0.000000e+00
     2808000   2.807999e-06   7.507029e+00   2.555932e+01   1.847893e-01  -2.055209e+05   9.905258e+04   5.581300e+04  -3.653339e+08   7.045017e+10  -1.263744e+11   2.348730e+05   4.114797e-26   0.000000e+00   0.000000e+00
     2816000   2.815999e-06   7.505385e+00   2.556012e+01   1.852318e-01  -2.055241e+05   9.961042e+04   5.479907e+04  -4.434427e+08   6.901038e+10  -1.271056e+11   2.348730e+05   4.111776e-26   0.000000e+00   0.000000e+00
     2824000   2.823999e-06   7.503741e+00   2.556092e+01   1.856661e-01  -2.055280e+05   1.001567e+05   5.377935e+04  -5.215091e+08   6.756343e+10  -1.278203e+11   2.348730e+05   4.108760e-26   0.000000e+00   0.000000e+00
     2832000   2.831999e-06   7.502097e+00   2.556172e+01   1.860922e-01  -2.055325e+05   1.006914e+05   5.275399e+04  -5.995224e+08   6.610951e+10  -1.285184e+11   2.348730e+05   4.105750e-26   0.000000e+00   0.000000e+00
     2840000   2.839999e-06   7.500452e+00   2.556253e+01   1.865101e-01  -2.055376e+05   1.012145e+05   5.172310e+04  -6.774716e+08   6.464880e+10  -1.291999e+11   2.348730e+05   4.102746e-26   0.000000e+00   0.000000e+00
     2848000   2.847999e-06   7.498808e+00   2.556334e+01   1.869198e-01  -2.055432e+05   1.017260e+05   5.068677e+04  -7.412183e+08   6.321558e+10  -1.298761e+11   2.348730e+05   4.101178e-26   0.000000e+00   0.000000e+00
     2856000   2.855999e-06   7.497164e+00   2.556415e+01   1.873211e-01  -2.055495e+05   1.022258e+05   4.964515e+04  -8.191915e+08   6.174124e+10  -1.305246e+11   2.348730e+05   4.098182e-26   0.000000e+00   0.000000e+00
     2864000   2.863999e-06   7.495519e+00   2.556497e+01   1.877141e-01  -2.055563e+05   1.027138e+05   4.859842e+04  -8.970682e+08   6.026069e+10  -1.311562e+11   2.348730e+05   4.095192e-26   0.000000e+00   0.000000e+00
     2872000   2.871999e-06   7.493875e+00   2.556580e+01   1.880987e-01  -2.055638e+05   1.031900e+05   4.754670e+04  -9.748377e+08   5.877413e+10  -1.317709e+11   2.348730e+05   4.092207e-26   0.000000e+00   0.000000e+00
     2880000   2.879999e-06   7.492230e+00   2.556662e+01   1.884748e-01  -2.055719e+05   1.036542e+05   4.649013e+04  -1.052489e+09   5.728175e+10  -1.323686e+11   2.348730e+05   4.089228e-26   0.000000e+00   0.000000e+00
     2888000   2.887999e-06   7.490586e+00   2.556746e+01   1.888425e-01  -2.055807e+05   1.041065e+05   4.542884e+04  -1.130012e+09   5.578375e+10  -1.329494e+11   2.348730e+05   4.086255e-26   0.000000e+00   0.000000e+00
     2896000   2.895999e-06   7.488941e+00   2.556829e+01   1.892017e-01  -2.055900e+05   1.045467e+05   4.436298e+04  -1.207395e+09   5.428031e+10  -1.335130e+11   2.348730e+05   4.083287e-26   0.000000e+00   0.000000e+00
     2904000   2.903999e-06   7.487296e+00   2.556913e+01   1.895523e-01  -2.056000e+05   1.049749e+05   4.329268e+04  -1.284628e+09   5.277165e+10  -1.340596e+11   2.348730e+05   4.080325e-26   0.000000e+00   0.000000e+00
     2912000   2.911999e-06   7.485651e+00   2.556997e+01   1.898943e-01  -2.056106e+05   1.053910e+05   4.221808e+04  -1.361701e+09   5.125794e+10  -1.345890e+11   2.348730e+05   4.077368e-26   0.000000e+00   0.000000e+00
     2920000   2.919999e-06   7.484006e+00   2.557081e+01   1.902278e-01  -2.056218e+05   1.057950e+05   4.113930e+04  -1.438603e+09   4.973939e+10  -1.351012e+11   2.348730e+05   4.074416e-26   0.000000e+00   0.000000e+00
     2928000   2.927999e-06   7.482361e+00   2.557166e+01   1.905526e-01  -2.056336e+05   1.061869e+05   4.005650e+04  -1.515323e+09   4.821620e+10  -1.355962e+11   2.348730e+05   4.071470e-26   0.000000e+00   0.000000e+00
     2936000   2.935999e-06   7.480716e+00   2.557251e+01   1.908687e-01  -2.056460e+05   1.065665e+05   3.896981e+04  -1.591852e+09   4.668856e+10  -1.360739e+11   2.348730e+05   4.068528e-26   0.000000e+00   0.000000e+00
     2944000   2.943999e-06   7.479071e+00   2.557337e+01   1.911761e-01  -2.056590e+05   1.069339e+05   3.787937e+04  -1.668178e+09   4.515666e+10  -1.365343e+11   2.348730e+05   4.065592e-26   0.000000e+00   0.000000e+00
     2952000   2.951999e-06   7.477426e+00   2.557422e+01   1.914747e-01  -2.056727e+05   1.072890e+05   3.678531e+04  -1.744292e+09   4.362070e+10  -1.369773e+11   2.348730e+05   4.062660e-26   0.000000e+00   0.000000e+00
     2960000   2.959999e-06   7.475780e+00   2.557508e+01   1.917646e-01  -2.056870e+05   1.076318e+05   3.568777e+04  -1.820184e+09   4.208089e+10  -1.374030e+11   2.348730e+05   4.059734e-26   0.000000e+00   0.000000e+00
     2968000   2.967999e-06   7.474135e+00   2.557595e+01   1.920457e-01  -2.057018e+05   1.079623e+05   3.458690e+04  -1.895843e+09   4.053741e+10  -1.378114e+11   2.348730e+05   4.056812e-26   0.000000e+00   0.000000e+00
     2976000   2.975999e-06   7.472489e+00   2.557681e+01   1.923180e-01  -2.057173e+05   1.082804e+05   3.348284e+04  -1.971260e+09   3.899047e+10  -1.382023e+11   2.348730e+05   4.053895e-26   0.000000e+00   0.000000e+00
     2984000   2.983999e-06   7.470843e+00   2.557768e+01   1.925814e-01  -2.057334e+05   1.085861e+05   3.237571e+04  -2.046424e+09   3.744025e+10  -1.385757e+11   2.348730e+05   4.050983e-26   0.000000e+00   0.000000e+00
     2992000   2.991999e-06   7.469197e+00   2.557855e+01   1.928360e-01  -2.057500e+05   1.088794e+05   3.126567e+04  -2.121325e+09   3.588697e+10  -1.389317e+11   2.348730e+05   4.048075e-26   0.000000e+00   0.000000e+00
     3000000   2.999999e-06   7.467551e+00   2.557942e+01   1.930817e-01  -2.057673e+05   1.091603e+05   3.015285e+04  -2.195954e+09   3.433080e+10  -1.392702e+11   2.348730e+05   4.045172e-26   0.000000e+00   0.000000e+00
     3008000   3.007999e-06   7.465905e+00   2.558030e+01   1.933184e-01  -2.057852e+05   1.094287e+05   2.903740e+04  -2.270302e+09   3.277196e+10  -1.395913e+11   2.348730e+05   4.042273e-26   0.000000e+00   0.000000e+00
     3016000   3.015999e-06   7.464259e+00   2.558117e+01   1.935463e-01  -2.058036e+05   1.096846e+05   2.791944e+04  -2.344357e+09   3.121064e+10  -1.398948e+11   2.348730e+05   4.039378e-26   0.000000e+00   0.000000e+00
     3024000   3.023999e-06   7.462612e+00   2.558205e+01   1.937651e-01  -2.058227e+05   1.099281e+05   2.679913e+04  -2.418112e+09   2.964703e+10  -1.401808e+11   2.348730e+05   4.036488e-26   0.000000e+00   0.000000e+00
     3032000   3.031999e-06   7.460965e+00   2.558293e+01   1.939750e-01  -2.058423e+05   1.101590e+05   2.567659e+04  -2.491556e+09   2.808134e+10  -1.404493e+11   2.348730e+05   4.033602e-26   0.000000e+00   0.000000e+00
     3040000   3.039999e-06   7.459319e+00   2.558381e+01   1.941760e-01  -2.058625e+05   1.103773e+05   2.455198e+04  -2.564680e+09   2.651375e+10  -1.407002e+11   2.348730e+05   4.030719e-26   0.000000e+00   0.000000e+00
     3048000   3.047999e-06   7.457672e+00   2.558470e+01   1.943679e-01  -2.058833e+05   1.105832e+05   2.342544e+04  -2.637474e+09   2.494447e+10  -1.409336e+11   2.348730e+05   4.027841e-26   0.000000e+00   0.000000e+00
     3056000   3.055999e-06   7.456024e+00   2.558558e+01   1.945508e-01  -2.059047e+05   1.107765e+05   2.229709e+04  -2.709930e+09   2.337369e+10  -1.411494e+11   2.348730e+05   4.024966e-26   0.000000e+00   0.000000e+00
     3064000   3.063999e-06   7.454377e+00   2.558647e+01   1.947246e-01  -2.059267e+05   1.109572e+05   2.116709e+04  -2.782038e+09   2.180161e+10  -1.413477e+11   2.348730e+05   4.022096e-26   0.000000e+00   0.000000e+00
     3072000   3.071999e-06   7.452730e+00   2.558736e+01   1.948894e-01  -2.059492e+05   1.111253e+05   2.003558e+04  -2.853789e+09   2.022842e+10  -1.415285e+11   2.348730e+05   4.019229e-26   0.000000e+00   0.000000e+00
     3080000   3.079999e-06   7.451082e+00   2.558825e+01   1.950452e-01  -2.059724e+05   1.112808e+05   1.890268e+04  -2.925174e+09   1.865433e+10  -1.416917e+11   2.348730e+05   4.016365e-26   0.000000e+00   0.000000e+00
     3088000   3.087999e-06   7.449434e+00   2.558914e+01   1.951919e-01  -2.059960e+05   1.114237e+05   1.776856e+04  -2.996185e+09   1.707951e+10  -1.418374e+11   2.348730e+05   4.013505e-26   0.000000e+00   0.000000e+00
     3096000   3.095999e-06   7.447786e+00   2.559003e+01   1.953295e-01  -2.060203e+05   1.115541e+05   1.663333e+04  -3.066812e+09   1.550418e+10  -1.419655e+11   2.348730e+05   4.010649e-26   0.000000e+00   0.000000e+00
     3104000   3.103999e-06   7.446138e+00   2.559092e+01   1.954580e-01  -2.060451e+05   1.116718e+05   1.549715e+04  -3.137047e+09   1.392852e+10  -1.420761e+11   2.348730e+05   4.007795e-26   0.000000e+00   0.000000e+00
     3112000   3.111999e-06   7.444489e+00   2.559182e+01   1.955774e-01  -2.060705e+05   1.117769e+05   1.436016e+04  -3.206880e+09   1.235273e+10  -1.421693e+11   2.348730e+05   4.004945e-26   0.000000e+00   0.000000e+00
     3120000   3.119999e-06   7.442841e+00   2.559271e+01   1.956878e-01  -2.060964e+05   1.118694e+05   1.322249e+04  -3.276305e+09   1.077701e+10  -1.422449e+11   2.348730e+05   4.002098e-26   0.000000e+00   0.000000e+00
     3128000   3.127999e-06   7.441192e+00   2.559361e+01   1.957890e-01  -2.061229e+05   1.119494e+05   1.208429e+04  -3.345311e+09   9.201540e+09  -1.423031e+11   2.348730e+05   3.999254e-26   0.000000e+00   0.000000e+00
     3136000   3.135999e-06   7.439543e+00   2.559450e+01   1.958811e-01  -2.061499e+05   1.120167e+05   1.094569e+04  -3.413891e+09   7.626523e+09  -1.423438e+11   2.348730e+05   3.996413e-26   0.000000e+00   0.000000e+00
     3144000   3.143999e-06   7.437893e+00   2.559540e+01   1.959641e-01  -2.061775e+05   1.120714e+05   9.806835e+03  -3.482037e+09   6.052149e+09  -1.423670e+11   2.348730e+05   3.993575e-26   0.000000e+00   0.000000e+00
     3152000   3.151999e-06   7.436244e+00   2.559630e+01   1.960380e-01  -2.062057e+05   1.121135e+05   8.667864e+03  -3.549740e+09   4.478612e+09  -1.423729e+11   2.348730e+05   3.990739e-26   0.000000e+00   0.000000e+00
     3160000   3.159999e-06   7.434594e+00   2.559719e+01   1.961028e-01  -2.062343e+05   1.121430e+05   7.528915e+03  -3.616992e+09   2.906102e+09  -1.423614e+11   2.348730e+05   3.987906e-26   0.000000e+00   0.000000e+00
     3168000   3.167999e-06   7.432944e+00   2.559809e+01   1.961585e-01  -2.062635e+05   1.121600e+05   6.390128e+03  -3.683785e+09   1.334813e+09  -1.423325e+11   2.348730e+05   3.985076e-26   0.000000e+00   0.000000e+00
     3176000   3.175999e-06   7.431294e+00   2.559899e+01   1.962051e-01  -2.062933e+05   1.121644e+05   5.251642e+03  -3.750112e+09  -2.350668e+08  -1.422863e+11   2.348730e+05   3.982248e-26   0.000000e+00   0.000000e+00
     3184000   3.183999e-06   7.429643e+00   2.559988e+01   1.962425e-01  -2.063235e+05   1.121562e+05   4.113594e+03  -3.815965e+09  -1.803345e+09  -1.422228e+11   2.348730e+05   3.979423e-26   0.000000e+00   0.000000e+00
     3192000   3.191999e-06   7.427993e+00   2.560078e+01   1.962709e-01  -2.063545e+05   1.121353e+05   2.976287e+03  -3.902531e+09  -3.409269e+09  -1.421184e+11   2.348730e+05   3.975366e-26   0.000000e+00   0.000000e+00
     3200000   3.199999e-06   7.426342e+00   2.560168e+01   1.962901e-01  -2.063859e+05   1.121017e+05   1.839721e+03  -3.967236e+09  -4.973017e+09  -1.420203e+11   2.348730e+05   3.972563e-26   0.000000e+00   0.000000e+00
     3208000   3.207999e-06   7.424690e+00   2.560257e+01   1.963003e-01  -2.064179e+05   1.120557e+05   7.040089e+02  -4.031437e+09  -6.534592e+09  -1.419050e+11   2.348730e+05   3.969761e-26   0.000000e+00   0.000000e+00
     3216000   3.215999e-06   7.423039e+00   2.560347e+01   1.963014e-01  -2.064505e+05   1.119972e+05  -4.307126e+02  -4.095127e+09  -8.093808e+09  -1.417725e+11   2.348730e+05   3.966962e-26   0.000000e+00   0.000000e+00
     3224000   3.223999e-06   7.421387e+00   2.560437e+01   1.962934e-01  -2.064835e+05   1.119262e+05  -1.564306e+03  -4.158298e+09  -9.650476e+09  -1.416230e+11   2.348730e+05   3.964164e-26   0.000000e+00   0.000000e+00
     3232000   3.231999e-06   7.419735e+00   2.560526e+01   1.962764e-01  -2.065170e+05   1.118428e+05  -2.696635e+03  -4.220943e+09  -1.120441e+10  -1.414564e+11   2.348730e+05   3.961368e-26   0.000000e+00   0.000000e+00
     3240000   3.239999e-06   7.418083e+00   2.560616e+01   1.962503e-01  -2.065510e+05   1.117470e+05  -3.827563e+03  -4.283055e+09  -1.275542e+10  -1.412728e+11   2.348730e+05   3.958573e-26   0.000000e+00   0.000000e+00
     3248000   3.247999e-06   7.416430e+00   2.560705e+01   1.962151e-01  -2.065855e+05   1.116387e+05  -4.956955e+03  -4.344627e+09  -1.430333e+10  -1.410723e+11   2.348730e+05   3.955780e-26   0.000000e+00   0.000000e+00
     3256000   3.255999e-06   7.414778e+00   2.560794e+01   1.961710e-01  -2.066205e+05   1.115181e+05  -6.084675e+03  -4.405653e+09  -1.584796e+10  -1.408548e+11   2.348730e+05   3.952989e-26   0.000000e+00   0.000000e+00
     3264000   3.263999e-06   7.413125e+00   2.560883e+01   1.961178e-01  -2.066560e+05   1.113852e+05  -7.210587e+03  -4.466126e+09  -1.738910e+10  -1.406205e+11   2.348730e+05   3.950199e-26   0.000000e+00   0.000000e+00
     3272000   3.271999e-06   7.411471e+00   2.560972e+01   1.960556e-01  -2.066920e+05   1.112399e+05  -8.334558e+03  -4.526039e+09  -1.892660e+10  -1.403694e+11   2.348730e+05   3.947409e-26   0.000000e+00   0.000000e+00
     3280000   3.279999e-06   7.409817e+00   2.561061e+01   1.959844e-01  -2.067284e+05   1.110823e+05  -9.456452e+03  -4.585386e+09  -2.046025e+10  -1.401015e+11   2.348730e+05   3.944621e-26   0.000000e+00   0.000000e+00
     3288000   3.287999e-06   7.408163e+00   2.561150e+01   1.959043e-01  -2.067653e+05   1.109125e+05  -1.057614e+04  -4.644160e+09  -2.198989e+10  -1.398169e+11   2.348730e+05   3.941835e-26   0.000000e+00   0.000000e+00
     3296000   3.295999e-06   7.406509e+00   2.561239e+01   1.958152e-01  -2.068027e+05   1.107305e+05  -1.169348e+04  -4.702356e+09  -2.351533e+10  -1.395157e+11   2.348730e+05   3.939049e-26   0.000000e+00   0.000000e+00
     3304000   3.303999e-06   7.404855e+00   2.561327e+01   1.957172e-01  -2.068406e+05   1.105363e+05  -1.280834e+04  -4.759967e+09  -2.503639e+10  -1.391980e+11   2.348730e+05   3.936263e-26   0.000000e+00   0.000000e+00
     3312000   3.311999e-06   7.403200e+00   2.561416e+01   1.956103e-01  -2.068789e+05   1.103299e+05  -1.392060e+04  -4.816986e+09  -2.655290e+10  -1.388637e+11   2.348730e+05   3.933479e-26   0.000000e+00   0.000000e+00
     3320000   3.319999e-06   7.401545e+00   2.561504e+01   1.954945e-01  -2.069176e+05   1.101115e+05  -1.503012e+04  -4.873409e+09  -2.806467e+10  -1.385130e+11   2.348730e+05   3.930695e-26   0.000000e+00   0.000000e+00
     3328000   3.327999e-06   7.399889e+00   2.561592e+01   1.953698e-01  -2.069568e+05   1.098809e+05  -1.613678e+04  -4.911115e+09  -2.954005e+10  -1.381639e+11   2.348730e+05   3.928487e-26   0.000000e+00   0.000000e+00
     3336000   3.335999e-06   7.398233e+00   2.561680e+01   1.952363e-01  -2.069964e+05   1.096386e+05  -1.724057e+04  -4.966725e+09  -3.104291e+10  -1.377812e+11   2.348730e+05   3.925737e-26   0.000000e+00   0.000000e+00
     3344000   3.343999e-06   7.396577e+00   2.561767e+01   1.950940e-01  -2.070363e+05   1.093843e+05  -1.834123e+04  -5.021719e+09  -3.254051e+10  -1.373823e+11   2.348730e+05   3.922987e-26   0.000000e+00   0.000000e+00
     3352000   3.351999e-06   7.394921e+00   2.561855e+01   1.949429e-01  -2.070767e+05   1.091180e+05  -1.943864e+04  -5.076091e+09  -3.403269e+10  -1.369673e+11   2.348730e+05   3.920237e-26   0.000000e+00   0.000000e+00
     3360000   3.359999e-06   7.393264e+00   2.561942e+01   1.947830e-01  -2.071175e+05   1.088397e+05  -2.053266e+04  -5.129836e+09  -3.551928e+10  -1.365361e+11   2.348730e+05   3.917489e-26   0.000000e+00   0.000000e+00
     3368000   3.367999e-06   7.391607e+00   2.562029e+01   1.946144e-01  -2.071588e+05   1.085497e+05  -2.162318e+04  -5.182948e+09  -3.700009e+10  -1.360889e+11   2.348730e+05   3.914741e-26   0.000000e+00   0.000000e+00
     3376000   3.375999e-06   7.389949e+00   2.562116e+01   1.944370e-01  -2.072004e+05   1.082478e+05  -2.271004e+04  -5.235422e+09  -3.847497e+10  -1.356258e+11   2.348730e+05   3.911993e-26   0.000000e+00   0.000000e+00
     3384000   3.383999e-06   7.388292e+00   2.562202e+01   1.942510e-01  -2.072425e+05   1.079341e+05  -2.379314e+04  -5.287254e+09  -3.994374e+10  -1.351468e+11   2.348730e+05   3.909245e-26   0.000000e+00   0.000000e+00
     3392000   3.391999e-06   7.386633e+00   2.562288e+01   1.940563e-01  -2.072850e+05   1.076087e+05  -2.487235e+04  -5.338438e+09  -4.140623e+10  -1.346520e+11   2.348731e+05   3.906498e-26   0.000000e+00   0.000000e+00
     3400000   3.399999e-06   7.384975e+00   2.562374e+01   1.938531e-01  -2.073280e+05   1.072716e+05  -2.594753e+04  -5.388969e+09  -4.286228e+10  -1.341415e+11   2.348731e+05   3.903751e-26   0.000000e+00   0.000000e+00
     3408000   3.407999e-06   7.383316e+00   2.562460e+01   1.936412e-01  -2.073713e+05   1.069229e+05  -2.701857e+04  -5.438843e+09  -4.431171e+10  -1.336154e+11   2.348731e+05   3.901004e-26   0.000000e+00   0.000000e+00
     3416000   3.415999e-06   7.381657e+00   2.562545e+01   1.934208e-01  -2.074150e+05   1.065626e+05  -2.808534e+04  -5.488054e+09  -4.575437e+10  -1.330737e+11   2.348731e+05   3.898257e-26   0.000000e+00   0.000000e+00
     3424000   3.423999e-06   7.379998e+00   2.562630e+01   1.931918e-01  -2.074591e+05   1.061908e+05  -2.914771e+04  -5.536599e+09  -4.719009e+10  -1.325167e+11   2.348731e+05   3.895510e-26   0.000000e+00   0.000000e+00
     3432000   3.431999e-06   7.378338e+00   2.562715e+01   1.929544e-01  -2.075036e+05   1.058076e+05  -3.020556e+04  -5.584472e+09  -4.861870e+10  -1.319442e+11   2.348731e+05   3.892763e-26   0.000000e+00   0.000000e+00
     3440000   3.439999e-06   7.376678e+00   2.562800e+01   1.927086e-01  -2.075484e+05   1.054130e+05  -3.125878e+04  -5.631670e+09  -5.004005e+10  -1.313566e+11   2.348731e+05   3.890016e-26   0.000000e+00   0.000000e+00
     3448000   3.447999e-06   7.375017e+00   2.562884e+01   1.924543e-01  -2.075937e+05   1.050070e+05  -3.230723e+04  -5.678188e+09  -5.145398e+10  -1.307537e+11   2.348731e+05   3.887268e-26   0.000000e+00   0.000000e+00
     3456000   3.455999e-06   7.373356e+00   2.562968e+01   1.921917e-01  -2.076393e+05   1.045897e+05  -3.335080e+04  -5.724023e+09  -5.286032e+10  -1.301358e+11   2.348731e+05   3.884520e-26   0.000000e+00   0.000000e+00
     3464000   3.463999e-06   7.371695e+00   2.563051e+01   1.919207e-01  -2.076852e+05   1.041612e+05  -3.438936e+04  -5.769169e+09  -5.425892e+10  -1.295030e+11   2.348731e+05   3.881771e-26   0.000000e+00   0.000000e+00
     3472000   3.471999e-06   7.370033e+00   2.563134e+01   1.916414e-01  -2.077316e+05   1.037216e+05  -3.542280e+04  -5.813624e+09  -5.564961e+10  -1.288552e+11   2.348731e+05   3.879022e-26   0.000000e+00   0.000000e+00
     3480000   3.479999e-06   7.368371e+00   2.563217e+01   1.913539e-01  -2.077783e+05   1.032709e+05  -3.645100e+04  -5.857383e+09  -5.703225e+10  -1.281927e+11   2.348731e+05   3.876273e-26   0.000000e+00   0.000000e+00
     3488000   3.487999e-06   7.366709e+00   2.563300e+01   1.910582e-01  -2.078253e+05   1.028091e+05  -3.747385e+04  -5.900443e+09  -5.840669e+10  -1.275155e+11   2.348731e+05   3.873523e-26   0.000000e+00   0.000000e+00
     3496000   3.495999e-06   7.365046e+00   2.563382e+01   1.907544e-01  -2.078727e+05   1.023364e+05  -3.849121e+04  -5.942801e+09  -5.977276e+10  -1.268238e+11   2.348731e+05   3.870772e-26   0.000000e+00   0.000000e+00
     3504000   3.503999e-06   7.363383e+00   2.563463e+01   1.904424e-01  -2.079204e+05   1.018528e+05  -3.950299e+04  -5.984452e+09  -6.113031e+10  -1.261176e+11   2.348731e+05   3.868020e-26   0.000000e+00   0.000000e+00
     3512000   3.511999e-06   7.361719e+00   2.563545e+01   1.901223e-01  -2.079684e+05   1.013583e+05  -4.050905e+04  -6.025393e+09  -6.247921e+10  -1.253970e+11   2.348731e+05   3.865268e-26   0.000000e+00   0.000000e+00
     3520000   3.519999e-06   7.360055e+00   2.563625e+01   1.897943e-01  -2.080168e+05   1.008531e+05  -4.150930e+04  -6.065622e+09  -6.381929e+10  -1.246622e+11   2.348731e+05   3.862515e-26   0.000000e+00   0.000000e+00
     3528000   3.527999e-06   7.358391e+00   2.563706e+01   1.894582e-01  -2.080655e+05   1.003372e+05  -4.250361e+04  -6.105136e+09  -6.515041e+10  -1.239133e+11   2.348731e+05   3.859761e-26   0.000000e+00   0.000000e+00
     3536000   3.535999e-06   7.356726e+00   2.563786e+01   1.891142e-01  -2.081145e+05   9.981073e+04  -4.349188e+04  -6.143930e+09  -6.647242e+10  -1.231503e+11   2.348731e+05   3.857006e-26   0.000000e+00   0.000000e+00
     3544000   3.543999e-06   7.355061e+00   2.563866e+01   1.887624e-01  -2.081638e+05   9.927369e+04  -4.447398e+04  -6.182002e+09  -6.778518e+10  -1.223735e+11   2.348731e+05   3.854250e-26   0.000000e+00   0.000000e+00
     3552000   3.551999e-06   7.353395e+00   2.563945e+01   1.884027e-01  -2.082134e+05   9.872619e+04  -4.544981e+04  -6.219350e+09  -6.908855e+10  -1.215828e+11   2.348731e+05   3.851493e-26   0.000000e+00   0.000000e+00
     3560000   3.559999e-06   7.351730e+00   2.564024e+01   1.880352e-01  -2.082633e+05   9.816830e+04  -4.641927e+04  -6.255971e+09  -7.038238e+10  -1.207785e+11   2.348731e+05   3.848735e-26   0.000000e+00   0.000000e+00
     3568000   3.567999e-06   7.350063e+00   2.564102e+01   1.876600e-01  -2.083135e+05   9.760009e+04  -4.738223e+04  -6.291862e+09  -7.166653e+10  -1.199606e+11   2.348731e+05   3.845975e-26   0.000000e+00   0.000000e+00
     3576000   3.575999e-06   7.348397e+00   2.564180e+01   1.872771e-01  -2.083639e+05   9.702166e+04  -4.833860e+04  -6.327021e+09  -7.294087e+10  -1.191292e+11   2.348731e+05   3.843215e-26   0.000000e+00   0.000000e+00
     3584000   3.583999e-06   7.346729e+00   2.564257e+01   1.868866e-01  -2.084147e+05   9.643307e+04  -4.928826e+04  -6.361446e+09  -7.420525e+10  -1.182846e+11   2.348731e+05   3.840453e-26   0.000000e+00   0.000000e+00
     3592000   3.591999e-06   7.345062e+00   2.564334e+01   1.864885e-01  -2.084657e+05   9.583440e+04  -5.023112e+04  -6.395133e+09  -7.545955e+10  -1.174267e+11   2.348731e+05   3.837690e-26   0.000000e+00   0.000000e+00
     3600000   3.599999e-06   7.343394e+00   2.564410e+01   1.860829e-01  -2.085170e+05   9.522574e+04  -5.116705e+04  -6.428082e+09  -7.670362e+10  -1.165557e+11   2.348731e+05   3.834926e-26   0.000000e+00   0.000000e+00
     3608000   3.607999e-06   7.341726e+00   2.564486e+01   1.856698e-01  -2.085686e+05   9.460717e+04  -5.209597e+04  -6.460289e+09  -7.793733e+10  -1.156718e+11   2.348731e+05   3.832160e-26   0.000000e+00   0.000000e+00
     3616000   3.615999e-06   7.340057e+00   2.564562e+01   1.852494e-01  -2.086204e+05   9.397877e+04  -5.301777e+04  -6.491754e+09  -7.916056e+10  -1.147751e+11   2.348731e+05   3.829393e-26   0.000000e+00   0.000000e+00
     3624000   3.623999e-06   7.338388e+00   2.564637e+01   1.848216e-01  -2.086724e+05   9.334063e+04  -5.393234e+04  -6.522474e+09  -8.037317e+10  -1.138656e+11   2.348731e+05   3.826625e-26   0.000000e+00   0.000000e+00
     3632000   3.631999e-06   7.336718e+00   2.564711e+01   1.843865e-01  -2.087247e+05   9.269282e+04  -5.483958e+04  -6.552447e+09  -8.157503e+10  -1.129436e+11   2.348731e+05   3.823855e-26   0.000000e+00   0.000000e+00
     3640000   3.639999e-06   7.335048e+00   2.564785e+01   1.839442e-01  -2.087773e+05   9.203545e+04  -5.573940e+04  -6.581672e+09  -8.276602e+10  -1.120092e+11   2.348731e+05   3.821084e-26   0.000000e+00   0.000000e+00
     3648000   3.647999e-06   7.333378e+00   2.564858e+01   1.834947e-01  -2.088300e+05   9.136860e+04  -5.663170e+04  -6.610148e+09  -8.394601e+10  -1.110624e+11   2.348731e+05   3.818311e-26   0.000000e+00   0.000000e+00
     3656000   3.655999e-06   7.331707e+00   2.564931e+01   1.830381e-01  -2.088830e+05   9.069234e+04  -5.751637e+04  -6.637872e+09  -8.511487e+10  -1.101034e+11   2.348731e+05   3.815537e-26   0.000000e+00   0.000000e+00
     3664000   3.663999e-06   7.330036e+00   2.565004e+01   1.825744e-01  -2.089362e+05   9.000679e+04  -5.839332e+04  -6.664844e+09  -8.627250e+10  -1.091324e+11   2.348731e+05   3.812761e-26   0.000000e+00   0.000000e+00
     3672000   3.671999e-06   7.328364e+00   2.565075e+01   1.821038e-01  -2.089897e+05   8.931201e+04  -5.926245e+04  -6.691063e+09  -8.741875e+10  -1.081494e+11   2.348731e+05   3.809983e-26   0.000000e+00   0.000000e+00
     3680000   3.679999e-06   7.326692e+00   2.565146e+01   1.816262e-01  -2.090433e+05   8.860812e+04  -6.012368e+04  -6.716527e+09  -8.855353e+10  -1.071547e+11   2.348731e+05   3.807204e-26   0.000000e+00   0.000000e+00
     3688000   3.687999e-06   7.325019e+00   2.565217e+01   1.811418e-01  -2.090971e+05   8.789519e+04  -6.097690e+04  -6.741235e+09  -8.967670e+10  -1.061483e+11   2.348731e+05   3.804424e-26   0.000000e+00   0.000000e+00
     3696000   3.695999e-06   7.323346e+00   2.565287e+01   1.806506e-01  -2.091512e+05   8.717332e+04  -6.182202e+04  -6.765186e+09  -9.078816e+10  -1.051305e+11   2.348731e+05   3.801642e-26   0.000000e+00   0.000000e+00
     3704000   3.703999e-06   7.321673e+00   2.565357e+01   1.801527e-01  -2.092054e+05   8.644261e+04  -6.265895e+04  -6.788380e+09  -9.188778e+10  -1.041012e+11   2.348731e+05   3.798858e-26   0.000000e+00   0.000000e+00
     3712000   3.711999e-06   7.319999e+00   2.565425e+01   1.796481e-01  -2.092598e+05   8.570315e+04  -6.348761e+04  -6.810816e+09  -9.297546e+10  -1.030607e+11   2.348731e+05   3.796072e-26   0.000000e+00   0.000000e+00
     3720000   3.719999e-06   7.318325e+00   2.565494e+01   1.791369e-01  -2.093143e+05   8.495503e+04  -6.430789e+04  -6.832493e+09  -9.405109e+10  -1.020092e+11   2.348731e+05   3.793285e-26   0.000000e+00   0.000000e+00
     3728000   3.727999e-06   7.316650e+00   2.565561e+01   1.786192e-01  -2.093691e+05   8.419836e+04  -6.511972e+04  -6.853410e+09  -9.511456e+10  -1.009466e+11   2.348731e+05   3.790496e-26   0.000000e+00   0.000000e+00
     3736000   3.735999e-06   7.314975e+00   2.565628e+01   1.780950e-01  -2.094240e+05   8.343323e+04  -6.592301e+04  -6.873568e+09  -9.616576e+10  -9.987330e+10   2.348731e+05   3.787706e-26   0.000000e+00   0.000000e+00
     3744000   3.743999e-06   7.313299e+00   2.565695e+01   1.775645e-01  -2.094791e+05   8.265974e+04  -6.671767e+04  -6.892966e+09  -9.720458e+10  -9.878931e+10   2.348731e+05   3.784914e-26   0.000000e+00   0.000000e+00
     3752000   3.751999e-06   7.311623e+00   2.565761e+01   1.770276e-01  -2.095343e+05   8.187799e+04  -6.750361e+04  -6.911603e+09  -9.823092e+10  -9.769480e+10   2.348731e+05   3.782120e-26   0.000000e+00   0.000000e+00
     3760000   3.759999e-06   7.309947e+00   2.565826e+01   1.764844e-01  -2.095896e+05   8.108808e+04  -6.828076e+04  -6.929480e+09  -9.924468e+10  -9.658991e+10   2.348731e+05   3.779325e-26   0.000000e+00   0.000000e+00
     3768000   3.767999e-06   7.308270e+00   2.565890e+01   1.759351e-01  -2.096451e+05   8.029011e+04  -6.904902e+04  -6.946596e+09  -1.002458e+11  -9.547480e+10   2.348731e+05   3.776527e-26   0.000000e+00   0.000000e+00
     3776000   3.775999e-06   7.306592e+00   2.565954e+01   1.753797e-01  -2.097008e+05   7.948418e+04  -6.980832e+04  -6.962952e+09  -1.012341e+11  -9.434961e+10   2.348731e+05   3.773729e-26   0.000000e+00   0.000000e+00
     3784000   3.783999e-06   7.304914e+00   2.566018e+01   1.748182e-01  -2.097566e+05   7.867040e+04  -7.055859e+04  -6.978547e+09  -1.022095e+11  -9.321450e+10   2.348731e+05   3.770928e-26   0.000000e+00   0.000000e+00
     3792000   3.791999e-06   7.303236e+00   2.566080e+01   1.742508e-01  -2.098124e+05   7.784886e+04  -7.129973e+04  -6.993382e+09  -1.031719e+11  -9.206960e+10   2.348731e+05   3.768126e-26   0.000000e+00   0.000000e+00
     3800000   3.799999e-06   7.301557e+00   2.566142e+01   1.736774e-01  -2.098684e+05   7.701968e+04  -7.203167e+04  -7.007457e+09  -1.041213e+11  -9.091507e+10   2.348731e+05   3.765322e-26   0.000000e+00   0.000000e+00
     3808000   3.807999e-06   7.299878e+00   2.566203e+01   1.730983e-01  -2.099246e+05   7.618294e+04  -7.275435e+04  -7.024838e+09  -1.050868e+11  -8.976992e+10   2.348731e+05   3.764403e-26   0.000000e+00   0.000000e+00
     3816000   3.815999e-06   7.298199e+00   2.566264e+01   1.725134e-01  -2.099808e+05   7.533854e+04  -7.346783e+04  -7.036871e+09  -1.060094e+11  -8.859669e+10   2.348731e+05   3.761586e-26   0.000000e+00   0.000000e+00
     3824000   3.823999e-06   7.296519e+00   2.566324e+01   1.719228e-01  -2.100372e+05   7.448682e+04  -7.417188e+04  -7.048152e+09  -1.069187e+11  -8.741429e+10   2.348731e+05   3.758767e-26   0.000000e+00   0.000000e+00
     3832000   3.831999e-06   7.294838e+00   2.566383e+01   1.713267e-01  -2.100936e+05   7.362788e+04  -7.486643e+04  -7.058682e+09  -1.078146e+11  -8.622285e+10   2.348731e+05   3.755946e-26   0.000000e+00   0.000000e+00
     3840000   3.839999e-06   7.293157e+00   2.566442e+01   1.707250e-01  -2.101501e+05   7.276182e+04  -7.555142e+04  -7.068460e+09  -1.086970e+11  -8.502254e+10   2.348731e+05   3.753123e-26   0.000000e+00   0.000000e+00
     3848000   3.847999e-06   7.291476e+00   2.566500e+01   1.701179e-01  -2.102067e+05   7.188876e+04  -7.622677e+04  -7.077489e+09  -1.095658e+11  -8.381352e+10   2.348731e+05   3.750298e-26   0.000000e+00   0.000000e+00
     3856000   3.855999e-06   7.289794e+00   2.566557e+01   1.695054e-01  -2.102633e+05   7.100880e+04  -7.689241e+04  -7.085769e+09  -1.104209e+11  -8.259594e+10   2.348731e+05   3.747471e-26   0.000000e+00   0.000000e+00
     3864000   3.863999e-06   7.288111e+00   2.566613e+01   1.688876e-01  -2.103200e+05   7.012206e+04  -7.754828e+04  -7.093301e+09  -1.112623e+11  -8.136995e+10   2.348731e+05   3.744642e-26   0.000000e+00   0.000000e+00
     3872000   3.871999e-06   7.286429e+00   2.566669e+01   1.682646e-01  -2.103768e+05   6.922864e+04  -7.819431e+04  -7.100087e+09  -1.120899e+11  -8.013571e+10   2.348731e+05   3.741811e-26   0.000000e+00   0.000000e+00
     3880000   3.879999e-06   7.284745e+00   2.566724e+01   1.676365e-01  -2.104336e+05   6.832866e+04  -7.883043e+04  -7.106129e+09  -1.129036e+11  -7.889338e+10   2.348731e+05   3.738978e-26   0.000000e+00   0.000000e+00
     3888000   3.887999e-06   7.283062e+00   2.566778e+01   1.670034e-01  -2.104905e+05   6.742222e+04  -7.945658e+04  -7.111426e+09  -1.137032e+11  -7.764312e+10   2.348731e+05   3.736143e-26   0.000000e+00   0.000000e+00
     3896000   3.895999e-06   7.281378e+00   2.566832e+01   1.663652e-01  -2.105474e+05   6.650944e+04  -8.007269e+04  -7.115982e+09  -1.144889e+11  -7.638508e+10   2.348731e+05   3.733307e-26   0.000000e+00   0.000000e+00
     3904000   3.903999e-06   7.279693e+00   2.566885e+01   1.657222e-01  -2.106044e+05   6.559044e+04  -8.067872e+04  -7.119797e+09  -1.152604e+11  -7.511943e+10   2.348731e+05   3.730468e-26   0.000000e+00   0.000000e+00
     3912000   3.911999e-06   7.278008e+00   2.566937e+01   1.650744e-01  -2.106613e+05   6.466532e+04  -8.127458e+04  -7.122873e+09  -1.160177e+11  -7.384632e+10   2.348731e+05   3.727628e-26   0.000000e+00   0.000000e+00
     3920000   3.919999e-06   7.276322e+00   2.566988e+01   1.644219e-01  -2.107183e+05   6.373419e+04  -8.186024e+04  -7.125213e+09  -1.167608e+11  -7.256592e+10   2.348731e+05   3.724786e-26   0.000000e+00   0.000000e+00
     3928000   3.927999e-06   7.274636e+00   2.567039e+01   1.637647e-01  -2.107753e+05   6.279718e+04  -8.243562e+04  -7.126816e+09  -1.174896e+11  -7.127838e+10   2.348731e+05   3.721943e-26   0.000000e+00   0.000000e+00
     3936000   3.935999e-06   7.272950e+00   2.567089e+01   1.631029e-01  -2.108324e+05   6.185440e+04  -8.300067e+04  -7.127687e+09  -1.182040e+11  -6.998388e+10   2.348731e+05   3.719097e-26   0.000000e+00   0.000000e+00
     3944000   3.943999e-06   7.271263e+00   2.567138e+01   1.624367e-01  -2.108894e+05   6.090595e+04  -8.355534e+04  -7.127826e+09  -1.189039e+11  -6.868256e+10   2.348731e+05   3.716251e-26   0.000000e+00   0.000000e+00
     3952000   3.951999e-06   7.269576e+00   2.567186e+01   1.617661e-01  -2.109464e+05   5.995197e+04  -8.409957e+04  -7.127235e+09  -1.195894e+11  -6.737459e+10   2.348731e+05   3.713402e-26   0.000000e+00   0.000000e+00
     3960000   3.959999e-06   7.267888e+00   2.567234e+01   1.610911e-01  -2.110034e+05   5.899256e+04  -8.463332e+04  -7.125916e+09  -1.202603e+11  -6.606014e+10   2.348731e+05   3.710552e-26   0.000000e+00   0.000000e+00
     3968000   3.967999e-06   7.266200e+00   2.567280e+01   1.604120e-01  -2.110604e+05   5.802784e+04  -8.515652e+04  -7.123873e+09  -1.209166e+11  -6.473936e+10   2.348731e+05   3.707701e-26   0.000000e+00   0.000000e+00
     3976000   3.975999e-06   7.264511e+00   2.567326e+01   1.597287e-01  -2.111174e+05   5.705793e+04  -8.566913e+04  -7.121106e+09  -1.215582e+11  -6.341243e+10   2.348731e+05   3.704848e-26   0.000000e+00   0.000000e+00
     3984000   3.983999e-06   7.262822e+00   2.567372e+01   1.590413e-01  -2.111743e+05   5.608295e+04  -8.617110e+04  -7.117618e+09  -1.221851e+11  -6.207951e+10   2.348731e+05   3.701993e-26   0.000000e+00   0.000000e+00
     3992000   3.991999e-06   7.261132e+00   2.567416e+01   1.583499e-01  -2.112313e+05   5.510301e+04  -8.666238e+04  -7.113412e+09  -1.227972e+11  -6.074075e+10   2.348731e+05   3.699138e-26   0.000000e+00   0.000000e+00
     4000000   3.999999e-06   7.259442e+00   2.567460e+01   1.576547e-01  -2.112882e+05   5.411824e+04  -8.714293e+04  -7.108490e+09  -1.233945e+11  -5.939633e+10   2.348731e+05   3.696281e-26   0.000000e+00   0.000000e+00
     4008000   4.007999e-06   7.257752e+00   2.567503e+01   1.569557e-01  -2.113450e+05   5.312874e+04  -8.761271e+04  -7.102854e+09  -1.239769e+11  -5.804641e+10   2.348731e+05   3.693423e-26   0.000000e+00   0.000000e+00
     4016000   4.015999e-06   7.256061e+00   2.567545e+01   1.562529e-01  -2.114018e+05   5.213464e+04  -8.807166e+04  -7.096507e+09  -1.245444e+11  -5.669116e+10   2.348731e+05   3.690563e-26   0.000000e+00   0.000000e+00
     4024000   4.023999e-06   7.254369e+00   2.567586e+01   1.555466e-01  -2.114585e+05   5.113607e+04  -8.851975e+04  -7.089451e+09  -1.250970e+11  -5.533074e+10   2.348731e+05   3.687703e-26   0.000000e+00   0.000000e+00
     4032000   4.031999e-06   7.252677e+00   2.567627e+01   1.548367e-01  -2.115152e+05   5.013313e+04  -8.895694e+04  -7.081690e+09  -1.256346e+11  -5.396531e+10   2.348731e+05   3.684842e-26   0.000000e+00   0.000000e+00
     4040000   4.039999e-06   7.250985e+00   2.567666e+01   1.541233e-01  -2.115719e+05   4.912595e+04  -8.938318e+04  -7.073226e+09  -1.261571e+11  -5.259505e+10   2.348731e+05   3.681979e-26   0.000000e+00   0.000000e+00
     4048000   4.047999e-06   7.249292e+00   2.567705e+01   1.534066e-01  -2.116284e+05   4.811466e+04  -8.979845e+04  -7.064061e+09  -1.266646e+11  -5.122012e+10   2.348731e+05   3.679116e-26   0.000000e+00   0.000000e+00
     4056000   4.055999e-06   7.247599e+00   2.567743e+01   1.526865e-01  -2.116849e+05   4.709936e+04  -9.020269e+04  -7.054199e+09  -1.271570e+11  -4.984069e+10   2.348731e+05   3.676251e-26   0.000000e+00   0.000000e+00
     4064000   4.063999e-06   7.245905e+00   2.567781e+01   1.519633e-01  -2.117413e+05   4.608019e+04  -9.059588e+04  -7.043642e+09  -1.276342e+11  -4.845692e+10   2.348731e+05   3.673386e-26   0.000000e+00   0.000000e+00
     4072000   4.071999e-06   7.244211e+00   2.567817e+01   1.512370e-01  -2.117976e+05   4.505725e+04  -9.097799e+04  -7.032394e+09  -1.280963e+11  -4.706898e+10   2.348731e+05   3.670521e-26   0.000000e+00   0.000000e+00
     4080000   4.079999e-06   7.242516e+00   2.567853e+01   1.505077e-01  -2.118538e+05   4.403068e+04  -9.134897e+04  -7.020457e+09  -1.285431e+11  -4.567704e+10   2.348731e+05   3.667654e-26   0.000000e+00   0.000000e+00
     4088000   4.087999e-06   7.240821e+00   2.567888e+01   1.497755e-01  -2.119099e+05   4.300060e+04  -9.170881e+04  -7.007835e+09  -1.289748e+11  -4.428126e+10   2.348731e+05   3.664787e-26   0.000000e+00   0.000000e+00
     4096000   4.095999e-06   7.239126e+00   2.567922e+01   1.490404e-01  -2.119659e+05   4.196713e+04  -9.205746e+04  -6.994530e+09  -1.293911e+11  -4.288182e+10   2.348731e+05   3.661919e-26   0.000000e+00   0.000000e+00
     4104000   4.103999e-06   7.237430e+00   2.567955e+01   1.483026e-01  -2.120218e+05   4.093038e+04  -9.239491e+04  -6.980546e+09  -1.297922e+11  -4.147887e+10   2.348731e+05   3.659051e-26   0.000000e+00   0.000000e+00
     4112000   4.111999e-06   7.235733e+00   2.567987e+01   1.475621e-01  -2.120776e+05   3.989049e+04  -9.272112e+04  -6.965887e+09  -1.301780e+11  -4.007260e+10   2.348731e+05   3.656183e-26   0.000000e+00   0.000000e+00
     4120000   4.119999e-06   7.234037e+00   2.568019e+01   1.468191e-01  -2.121333e+05   3.884758e+04  -9.303606e+04  -6.950554e+09  -1.305485e+11  -3.866315e+10   2.348731e+05   3.653314e-26   0.000000e+00   0.000000e+00
     4128000   4.127999e-06   7.232339e+00   2.568049e+01   1.460736e-01  -2.121888e+05   3.780176e+04  -9.333972e+04  -6.934553e+09  -1.309036e+11  -3.725072e+10   2.348731e+05   3.650445e-26   0.000000e+00   0.000000e+00
     4136000   4.135999e-06   7.230642e+00   2.568079e+01   1.453257e-01  -2.122442e+05   3.675316e+04  -9.363206e+04  -6.917885e+09  -1.312434e+11  -3.583545e+10   2.348731e+05   3.647575e-26   0.000000e+00   0.000000e+00
     4144000   4.143999e-06   7.228943e+00   2.568108e+01   1.445755e-01  -2.122995e+05   3.570190e+04  -9.391308e+04  -6.900556e+09  -1.315678e+11  -3.441752e+10   2.348731e+05   3.644706e-26   0.000000e+00   0.000000e+00
     4152000   4.151999e-06   7.227245e+00   2.568136e+01   1.438231e-01  -2.123546e+05   3.464812e+04  -9.418273e+04  -6.882567e+09  -1.318768e+11  -3.299709e+10   2.348731e+05   3.641836e-26   0.000000e+00   0.000000e+00
     4160000   4.159999e-06   7.225546e+00   2.568163e+01   1.430686e-01  -2.124096e+05   3.359192e+04  -9.444102e+04  -6.863923e+09  -1.321704e+11  -3.157434e+10   2.348731e+05   3.638967e-26   0.000000e+00   0.000000e+00
     4168000   4.167999e-06   7.223846e+00   2.568190e+01   1.423121e-01  -2.124644e+05   3.253343e+04  -9.468792e+04  -6.844627e+09  -1.324486e+11  -3.014943e+10   2.348731e+05   3.636098e-26   0.000000e+00   0.000000e+00
     4176000   4.175999e-06   7.222146e+00   2.568215e+01   1.415536e-01  -2.125191e+05   3.147278e+04  -9.492341e+04  -6.824683e+09  -1.327114e+11  -2.872252e+10   2.348731e+05   3.633228e-26   0.000000e+00   0.000000e+00
     4184000   4.183999e-06   7.220446e+00   2.568240e+01   1.407933e-01  -2.125736e+05   3.041009e+04  -9.514747e+04  -6.804095e+09  -1.329588e+11  -2.729379e+10   2.348731e+05   3.630359e-26   0.000000e+00   0.000000e+00
     4192000   4.191999e-06   7.218745e+00   2.568264e+01   1.400313e-01  -2.126280e+05   2.934548e+04  -9.536010e+04  -6.782866e+09  -1.331907e+11  -2.586340e+10   2.348731e+05   3.627491e-26   0.000000e+00   0.000000e+00
     4200000   4.199999e-06   7.217044e+00   2.568287e+01   1.392676e-01  -2.126822e+05   2.827908e+04  -9.556128e+04  -6.761000e+09  -1.334072e+11  -2.443152e+10   2.348731e+05   3.624622e-26   0.000000e+00   0.000000e+00
     4208000   4.207999e-06   7.215342e+00   2.568309e+01   1.385023e-01  -2.127362e+05   2.721101e+04  -9.575100e+04  -6.738502e+09  -1.336083e+11  -2.299831e+10   2.348731e+05   3.621755e-26   0.000000e+00   0.000000e+00
     4216000   4.215999e-06   7.213640e+00   2.568331e+01   1.377356e-01  -2.127900e+05   2.614139e+04  -9.592925e+04  -6.715374e+09  -1.337939e+11  -2.156395e+10   2.348731e+05   3.618887e-26   0.000000e+00   0.000000e+00
     4224000   4.223999e-06   7.211938e+00   2.568351e+01   1.369675e-01  -2.128436e+05   2.507034e+04  -9.609602e+04  -6.691620e+09  -1.339641e+11  -2.012859e+10   2.348731e+05   3.616021e-26   0.000000e+00   0.000000e+00
     4232000   4.231999e-06   7.210235e+00   2.568371e+01   1.361981e-01  -2.128970e+05   2.399800e+04  -9.625130e+04  -6.667246e+09  -1.341189e+11  -1.869240e+10   2.348731e+05   3.613155e-26   0.000000e+00   0.000000e+00
     4240000   4.239999e-06   7.208531e+00   2.568390e+01   1.354275e-01  -2.129503e+05   2.292448e+04  -9.639509e+04  -6.642254e+09  -1.342583e+11  -1.725556e+10   2.348731e+05   3.610289e-26   0.000000e+00   0.000000e+00
     4248000   4.247999e-06   7.206827e+00   2.568408e+01   1.346558e-01  -2.130033e+05   2.184991e+04  -9.652739e+04  -6.616649e+09  -1.343823e+11  -1.581822e+10   2.348731e+05   3.607425e-26   0.000000e+00   0.000000e+00
     4256000   4.255999e-06   7.205123e+00   2.568425e+01   1.338831e-01  -2.130561e+05   2.077441e+04  -9.664818e+04  -6.590434e+09  -1.344909e+11  -1.438055e+10   2.348731e+05   3.604562e-26   0.000000e+00   0.000000e+00
     4264000   4.263999e-06   7.203418e+00   2.568441e+01   1.331095e-01  -2.131088e+05   1.969810e+04  -9.675748e+04  -6.563615e+09  -1.345841e+11  -1.294272e+10   2.348731e+05   3.601699e-26   0.000000e+00   0.000000e+00
     4272000   4.271999e-06   7.201713e+00   2.568456e+01   1.323350e-01  -2.131612e+05   1.862110e+04  -9.685526e+04  -6.536194e+09  -1.346619e+11  -1.150488e+10   2.348731e+05   3.598838e-26   0.000000e+00   0.000000e+00
     4280000   4.279999e-06   7.200008e+00   2.568471e+01   1.315598e-01  -2.132133e+05   1.754355e+04  -9.694155e+04  -6.508177e+09  -1.347244e+11  -1.006722e+10   2.348731e+05   3.595978e-26   0.000000e+00   0.000000e+00
     4288000   4.287999e-06   7.198302e+00   2.568484e+01   1.307840e-01  -2.132652e+05   1.646503e+04  -9.701657e+04  -6.471250e+09  -1.348372e+11  -8.658556e+09   2.348731e+05   3.596676e-26   0.000000e+00   0.000000e+00
